File: XRD/Activation ramp/2024-07-27_002_Ru-CGO-ex_Activtation_ramp_000002_data_000174.dat
# == pyFAI calibration ==
# Distance Sample to Detector: 0.4 m
# PONI: 9.750e-02, 1.135e-01 m
# Rotations: -0.000175 0.000000 -0.000000 rad
#
# == Fit2d calibration ==
# Distance Sample-beamCenter: 400.000 mm
# Center: x=1514.000, y=1300.000 pix
# Tilt: 0.010 deg  TiltPlanRot: 0.010 deg
#
# Detector Detector	 Spline= None	 PixelSize= 7.500e-05, 7.500e-05 m
#    Detector has a mask: False
#    Detector has a dark current: False
#    detector has a flat field: False
#
# Wavelength: 6.888e-11 m
# Mask applied: user provided
# Dark current applied: False
# Flat field applied: False
# Polarization factor: 0.99
# Normalization factor: 1.0
# --> /home/myspot/data/2024_07_Rosario/Ru-CGO-ex/2024-07-27_002_Ru-CGO-ex_Activtation_ramp_000002_data_000174.dat
#       q_nm^-1             I
  2.003187e-02    0.000000e+00
  5.178302e-02    2.670345e-02
  8.353417e-02    2.996399e-02
  1.152853e-01    2.774886e-02
  1.470365e-01    6.896175e-02
  1.787876e-01    6.460106e-03
  2.105388e-01    1.120389e-01
  2.422899e-01    1.245221e-02
  2.740411e-01    7.956959e-02
  3.057922e-01    2.487257e-02
  3.375433e-01    7.660563e-02
  3.692945e-01    4.932044e-02
  4.010456e-01    2.867709e-02
  4.327968e-01    1.745760e-02
  4.645479e-01    4.252894e-02
  4.962991e-01    6.409480e-02
  5.280502e-01    3.132050e-02
  5.598014e-01    3.853562e-02
  5.915525e-01    2.935096e-02
  6.233037e-01    4.888219e-02
  6.550548e-01    3.248444e-02
  6.868060e-01    6.666610e-02
  7.185571e-01    1.660367e-02
  7.503083e-01    2.193804e-02
  7.820594e-01    1.071759e-01
  8.138106e-01    1.854672e-01
  8.455617e-01    2.736676e-01
  8.773129e-01    4.369664e-01
  9.090640e-01    5.783527e-01
  9.408152e-01    7.423818e-01
  9.725663e-01    9.033765e-01
  1.004317e+00    9.568792e-01
  1.036069e+00    1.127402e+00
  1.067820e+00    1.298688e+00
  1.099571e+00    1.427256e+00
  1.131322e+00    1.324969e+00
  1.163073e+00    1.416061e+00
  1.194824e+00    1.510207e+00
  1.226575e+00    2.083803e+00
  1.258327e+00    2.292389e+00
  1.290078e+00    2.377937e+00
  1.321829e+00    2.436150e+00
  1.353580e+00    2.645527e+00
  1.385331e+00    2.512937e+00
  1.417082e+00    2.612933e+00
  1.448834e+00    2.623465e+00
  1.480585e+00    2.728035e+00
  1.512336e+00    2.740959e+00
  1.544087e+00    2.838435e+00
  1.575838e+00    2.827271e+00
  1.607589e+00    2.884231e+00
  1.639340e+00    2.664651e+00
  1.671092e+00    2.724278e+00
  1.702843e+00    2.739578e+00
  1.734594e+00    2.631194e+00
  1.766345e+00    2.666613e+00
  1.798096e+00    2.778321e+00
  1.829847e+00    2.626097e+00
  1.861598e+00    2.873592e+00
  1.893350e+00    2.790258e+00
  1.925101e+00    2.632414e+00
  1.956852e+00    2.777160e+00
  1.988603e+00    2.689937e+00
  2.020354e+00    2.746048e+00
  2.052105e+00    2.698881e+00
  2.083856e+00    2.831225e+00
  2.115608e+00    2.690096e+00
  2.147359e+00    2.704233e+00
  2.179110e+00    2.727930e+00
  2.210861e+00    2.774268e+00
  2.242612e+00    2.646298e+00
  2.274363e+00    2.741509e+00
  2.306115e+00    2.659948e+00
  2.337866e+00    2.762590e+00
  2.369617e+00    2.807754e+00
  2.401368e+00    2.770821e+00
  2.433119e+00    2.768761e+00
  2.464870e+00    2.785430e+00
  2.496621e+00    2.856417e+00
  2.528373e+00    2.789864e+00
  2.560124e+00    2.785490e+00
  2.591875e+00    2.718154e+00
  2.623626e+00    2.799225e+00
  2.655377e+00    2.737831e+00
  2.687128e+00    2.807273e+00
  2.718879e+00    2.830002e+00
  2.750631e+00    2.753735e+00
  2.782382e+00    2.816939e+00
  2.814133e+00    2.875708e+00
  2.845884e+00    2.844179e+00
  2.877635e+00    2.831484e+00
  2.909386e+00    2.831646e+00
  2.941137e+00    2.956913e+00
  2.972889e+00    2.815116e+00
  3.004640e+00    2.947222e+00
  3.036391e+00    2.971917e+00
  3.068142e+00    2.934623e+00
  3.099893e+00    2.797666e+00
  3.131644e+00    3.041382e+00
  3.163395e+00    2.879427e+00
  3.195147e+00    2.941887e+00
  3.226898e+00    2.995848e+00
  3.258649e+00    3.002381e+00
  3.290400e+00    2.999765e+00
  3.322151e+00    2.929105e+00
  3.353902e+00    2.979969e+00
  3.385654e+00    2.954808e+00
  3.417405e+00    2.970795e+00
  3.449156e+00    2.980086e+00
  3.480907e+00    2.943677e+00
  3.512658e+00    2.968495e+00
  3.544409e+00    2.944665e+00
  3.576160e+00    2.898925e+00
  3.607912e+00    2.990055e+00
  3.639663e+00    2.933087e+00
  3.671414e+00    3.026529e+00
  3.703165e+00    2.977666e+00
  3.734916e+00    3.010288e+00
  3.766667e+00    3.048405e+00
  3.798418e+00    2.971386e+00
  3.830170e+00    3.006466e+00
  3.861921e+00    2.958527e+00
  3.893672e+00    2.983104e+00
  3.925423e+00    3.107890e+00
  3.957174e+00    3.040027e+00
  3.988925e+00    3.013890e+00
  4.020676e+00    2.967453e+00
  4.052428e+00    3.002204e+00
  4.084179e+00    3.061000e+00
  4.115930e+00    2.986947e+00
  4.147681e+00    3.036947e+00
  4.179432e+00    3.104244e+00
  4.211183e+00    3.012511e+00
  4.242935e+00    3.058213e+00
  4.274686e+00    2.986565e+00
  4.306437e+00    3.122777e+00
  4.338188e+00    3.090416e+00
  4.369939e+00    3.012311e+00
  4.401690e+00    3.045572e+00
  4.433441e+00    3.007323e+00
  4.465193e+00    3.083660e+00
  4.496944e+00    3.074846e+00
  4.528695e+00    3.023471e+00
  4.560446e+00    3.066509e+00
  4.592197e+00    3.146237e+00
  4.623948e+00    3.175007e+00
  4.655699e+00    3.128867e+00
  4.687451e+00    3.134859e+00
  4.719202e+00    3.103032e+00
  4.750953e+00    3.220904e+00
  4.782704e+00    3.164965e+00
  4.814455e+00    3.135281e+00
  4.846206e+00    3.241563e+00
  4.877957e+00    3.079365e+00
  4.909709e+00    3.106986e+00
  4.941460e+00    3.151587e+00
  4.973211e+00    3.209416e+00
  5.004962e+00    3.204273e+00
  5.036713e+00    3.129594e+00
  5.068464e+00    3.097420e+00
  5.100216e+00    3.161214e+00
  5.131967e+00    3.166922e+00
  5.163718e+00    3.115472e+00
  5.195469e+00    3.132058e+00
  5.227220e+00    3.071197e+00
  5.258971e+00    3.085516e+00
  5.290722e+00    3.241739e+00
  5.322474e+00    3.159111e+00
  5.354225e+00    3.178310e+00
  5.385976e+00    3.099303e+00
  5.417727e+00    3.173150e+00
  5.449478e+00    3.089680e+00
  5.481229e+00    3.111242e+00
  5.512980e+00    3.027273e+00
  5.544732e+00    3.031246e+00
  5.576483e+00    3.075879e+00
  5.608234e+00    3.038633e+00
  5.639985e+00    3.124922e+00
  5.671736e+00    3.162469e+00
  5.703487e+00    3.015798e+00
  5.735238e+00    3.124847e+00
  5.766990e+00    3.088419e+00
  5.798741e+00    3.045970e+00
  5.830492e+00    3.051102e+00
  5.862243e+00    3.025686e+00
  5.893994e+00    3.012847e+00
  5.925745e+00    2.962973e+00
  5.957497e+00    2.994365e+00
  5.989248e+00    3.007417e+00
  6.020999e+00    2.978633e+00
  6.052750e+00    2.964074e+00
  6.084501e+00    3.081974e+00
  6.116252e+00    3.046985e+00
  6.148003e+00    3.129325e+00
  6.179755e+00    3.119046e+00
  6.211506e+00    3.092838e+00
  6.243257e+00    3.058262e+00
  6.275008e+00    3.062248e+00
  6.306759e+00    3.022545e+00
  6.338510e+00    3.079143e+00
  6.370261e+00    3.011573e+00
  6.402013e+00    2.956102e+00
  6.433764e+00    3.038361e+00
  6.465515e+00    3.007394e+00
  6.497266e+00    3.018631e+00
  6.529017e+00    3.044579e+00
  6.560768e+00    3.068110e+00
  6.592519e+00    2.985809e+00
  6.624271e+00    3.096602e+00
  6.656022e+00    3.038203e+00
  6.687773e+00    3.034553e+00
  6.719524e+00    3.008685e+00
  6.751275e+00    2.990295e+00
  6.783026e+00    3.092723e+00
  6.814777e+00    3.079179e+00
  6.846529e+00    3.044117e+00
  6.878280e+00    3.010084e+00
  6.910031e+00    3.022539e+00
  6.941782e+00    2.923054e+00
  6.973533e+00    2.997523e+00
  7.005284e+00    3.038798e+00
  7.037036e+00    2.954534e+00
  7.068787e+00    3.013773e+00
  7.100538e+00    3.045135e+00
  7.132289e+00    2.962565e+00
  7.164040e+00    2.999663e+00
  7.195791e+00    3.044482e+00
  7.227542e+00    3.028328e+00
  7.259294e+00    3.039445e+00
  7.291045e+00    2.997207e+00
  7.322796e+00    3.009721e+00
  7.354547e+00    2.955703e+00
  7.386298e+00    2.973964e+00
  7.418049e+00    3.038583e+00
  7.449800e+00    2.946792e+00
  7.481552e+00    3.038295e+00
  7.513303e+00    2.961168e+00
  7.545054e+00    2.953576e+00
  7.576805e+00    2.921754e+00
  7.608556e+00    2.956433e+00
  7.640307e+00    2.958059e+00
  7.672058e+00    3.070227e+00
  7.703810e+00    2.981950e+00
  7.735561e+00    3.031049e+00
  7.767312e+00    2.927461e+00
  7.799063e+00    2.969927e+00
  7.830814e+00    2.901362e+00
  7.862565e+00    2.945326e+00
  7.894317e+00    2.924167e+00
  7.926068e+00    2.904245e+00
  7.957819e+00    2.904352e+00
  7.989570e+00    2.978181e+00
  8.021321e+00    2.929196e+00
  8.053072e+00    2.908432e+00
  8.084823e+00    2.982463e+00
  8.116575e+00    2.914450e+00
  8.148326e+00    2.882199e+00
  8.180077e+00    2.975805e+00
  8.211828e+00    3.082323e+00
  8.243579e+00    2.990180e+00
  8.275330e+00    3.000737e+00
  8.307081e+00    2.871233e+00
  8.338833e+00    2.870180e+00
  8.370584e+00    2.909368e+00
  8.402335e+00    2.885236e+00
  8.434086e+00    2.865780e+00
  8.465837e+00    2.884778e+00
  8.497588e+00    2.891606e+00
  8.529339e+00    2.862902e+00
  8.561091e+00    2.839411e+00
  8.592842e+00    2.835325e+00
  8.624593e+00    2.817400e+00
  8.656344e+00    2.899300e+00
  8.688095e+00    2.893587e+00
  8.719846e+00    2.822310e+00
  8.751598e+00    2.879170e+00
  8.783349e+00    2.813539e+00
  8.815100e+00    2.851612e+00
  8.846851e+00    2.859151e+00
  8.878602e+00    2.777659e+00
  8.910353e+00    2.817779e+00
  8.942104e+00    2.858377e+00
  8.973856e+00    2.846410e+00
  9.005607e+00    2.838877e+00
  9.037358e+00    2.764849e+00
  9.069109e+00    2.827206e+00
  9.100860e+00    2.838555e+00
  9.132611e+00    2.821231e+00
  9.164362e+00    2.770085e+00
  9.196114e+00    2.781710e+00
  9.227865e+00    2.876235e+00
  9.259616e+00    2.775342e+00
  9.291367e+00    2.764311e+00
  9.323118e+00    2.781258e+00
  9.354869e+00    2.730531e+00
  9.386620e+00    2.785713e+00
  9.418372e+00    2.740853e+00
  9.450123e+00    2.794799e+00
  9.481874e+00    2.787499e+00
  9.513625e+00    2.699209e+00
  9.545376e+00    2.719157e+00
  9.577127e+00    2.765004e+00
  9.608878e+00    2.738446e+00
  9.640630e+00    2.744443e+00
  9.672381e+00    2.709160e+00
  9.704132e+00    2.818911e+00
  9.735883e+00    2.699835e+00
  9.767634e+00    2.712782e+00
  9.799385e+00    2.675248e+00
  9.831137e+00    2.729991e+00
  9.862888e+00    2.691473e+00
  9.894639e+00    2.632395e+00
  9.926390e+00    2.703838e+00
  9.958141e+00    2.674604e+00
  9.989892e+00    2.667805e+00
  1.002164e+01    2.730727e+00
  1.005339e+01    2.661018e+00
  1.008515e+01    2.615610e+00
  1.011690e+01    2.640332e+00
  1.014865e+01    2.586664e+00
  1.018040e+01    2.650525e+00
  1.021215e+01    2.615850e+00
  1.024390e+01    2.671263e+00
  1.027565e+01    2.629166e+00
  1.030740e+01    2.636343e+00
  1.033915e+01    2.621899e+00
  1.037091e+01    2.646149e+00
  1.040266e+01    2.627211e+00
  1.043441e+01    2.523503e+00
  1.046616e+01    2.564882e+00
  1.049791e+01    2.578341e+00
  1.052966e+01    2.634734e+00
  1.056141e+01    2.575470e+00
  1.059316e+01    2.630522e+00
  1.062492e+01    2.555121e+00
  1.065667e+01    2.580702e+00
  1.068842e+01    2.509678e+00
  1.072017e+01    2.528764e+00
  1.075192e+01    2.558412e+00
  1.078367e+01    2.521712e+00
  1.081542e+01    2.590205e+00
  1.084717e+01    2.520749e+00
  1.087892e+01    2.556737e+00
  1.091068e+01    2.527851e+00
  1.094243e+01    2.558765e+00
  1.097418e+01    2.513680e+00
  1.100593e+01    2.510260e+00
  1.103768e+01    2.444377e+00
  1.106943e+01    2.461487e+00
  1.110118e+01    2.495099e+00
  1.113293e+01    2.500701e+00
  1.116468e+01    2.452403e+00
  1.119644e+01    2.437302e+00
  1.122819e+01    2.489486e+00
  1.125994e+01    2.443989e+00
  1.129169e+01    2.416645e+00
  1.132344e+01    2.466278e+00
  1.135519e+01    2.437711e+00
  1.138694e+01    2.369343e+00
  1.141869e+01    2.441231e+00
  1.145045e+01    2.411397e+00
  1.148220e+01    2.441196e+00
  1.151395e+01    2.397545e+00
  1.154570e+01    2.372569e+00
  1.157745e+01    2.393486e+00
  1.160920e+01    2.422037e+00
  1.164095e+01    2.362397e+00
  1.167270e+01    2.384630e+00
  1.170445e+01    2.384507e+00
  1.173621e+01    2.336278e+00
  1.176796e+01    2.398964e+00
  1.179971e+01    2.368792e+00
  1.183146e+01    2.362254e+00
  1.186321e+01    2.321865e+00
  1.189496e+01    2.303693e+00
  1.192671e+01    2.335436e+00
  1.195846e+01    2.329409e+00
  1.199021e+01    2.304218e+00
  1.202197e+01    2.373451e+00
  1.205372e+01    2.346362e+00
  1.208547e+01    2.391353e+00
  1.211722e+01    2.340960e+00
  1.214897e+01    2.325220e+00
  1.218072e+01    2.320612e+00
  1.221247e+01    2.319521e+00
  1.224422e+01    2.327435e+00
  1.227597e+01    2.316542e+00
  1.230773e+01    2.328424e+00
  1.233948e+01    2.314526e+00
  1.237123e+01    2.300202e+00
  1.240298e+01    2.327240e+00
  1.243473e+01    2.327333e+00
  1.246648e+01    2.350900e+00
  1.249823e+01    2.331116e+00
  1.252998e+01    2.369352e+00
  1.256174e+01    2.315848e+00
  1.259349e+01    2.366639e+00
  1.262524e+01    2.434774e+00
  1.265699e+01    2.457762e+00
  1.268874e+01    2.450433e+00
  1.272049e+01    2.459806e+00
  1.275224e+01    2.522321e+00
  1.278399e+01    2.603412e+00
  1.281574e+01    2.713031e+00
  1.284750e+01    2.800951e+00
  1.287925e+01    2.975012e+00
  1.291100e+01    3.237672e+00
  1.294275e+01    3.716999e+00
  1.297450e+01    4.340304e+00
  1.300625e+01    5.398185e+00
  1.303800e+01    7.081129e+00
  1.306975e+01    9.433628e+00
  1.310150e+01    1.200863e+01
  1.313326e+01    1.405548e+01
  1.316501e+01    1.576840e+01
  1.319676e+01    1.552379e+01
  1.322851e+01    1.248533e+01
  1.326026e+01    8.952905e+00
  1.329201e+01    6.435999e+00
  1.332376e+01    4.967039e+00
  1.335551e+01    4.074005e+00
  1.338727e+01    3.508109e+00
  1.341902e+01    3.175799e+00
  1.345077e+01    2.868245e+00
  1.348252e+01    2.678438e+00
  1.351427e+01    2.628309e+00
  1.354602e+01    2.500649e+00
  1.357777e+01    2.421473e+00
  1.360952e+01    2.349528e+00
  1.364127e+01    2.304482e+00
  1.367303e+01    2.256799e+00
  1.370478e+01    2.236244e+00
  1.373653e+01    2.211257e+00
  1.376828e+01    2.175538e+00
  1.380003e+01    2.117421e+00
  1.383178e+01    2.148113e+00
  1.386353e+01    2.081215e+00
  1.389528e+01    2.135670e+00
  1.392703e+01    2.088392e+00
  1.395879e+01    2.032761e+00
  1.399054e+01    2.040703e+00
  1.402229e+01    2.094822e+00
  1.405404e+01    2.053133e+00
  1.408579e+01    2.006201e+00
  1.411754e+01    2.032920e+00
  1.414929e+01    2.033573e+00
  1.418104e+01    2.002609e+00
  1.421279e+01    1.960129e+00
  1.424455e+01    1.993429e+00
  1.427630e+01    2.002616e+00
  1.430805e+01    1.991099e+00
  1.433980e+01    1.949021e+00
  1.437155e+01    1.955804e+00
  1.440330e+01    1.944699e+00
  1.443505e+01    1.919774e+00
  1.446680e+01    1.932711e+00
  1.449856e+01    1.901965e+00
  1.453031e+01    1.937029e+00
  1.456206e+01    1.902239e+00
  1.459381e+01    1.907091e+00
  1.462556e+01    1.945244e+00
  1.465731e+01    1.871643e+00
  1.468906e+01    1.918423e+00
  1.472081e+01    1.906169e+00
  1.475256e+01    1.939617e+00
  1.478432e+01    1.917729e+00
  1.481607e+01    1.903567e+00
  1.484782e+01    1.961674e+00
  1.487957e+01    1.962569e+00
  1.491132e+01    1.890829e+00
  1.494307e+01    2.014946e+00
  1.497482e+01    2.064698e+00
  1.500657e+01    2.149966e+00
  1.503832e+01    2.328273e+00
  1.507008e+01    2.444111e+00
  1.510183e+01    2.854338e+00
  1.513358e+01    3.422315e+00
  1.516533e+01    4.103933e+00
  1.519708e+01    4.755337e+00
  1.522883e+01    5.262720e+00
  1.526058e+01    5.566370e+00
  1.529233e+01    5.259305e+00
  1.532409e+01    4.537251e+00
  1.535584e+01    3.560377e+00
  1.538759e+01    2.884958e+00
  1.541934e+01    2.514322e+00
  1.545109e+01    2.252098e+00
  1.548284e+01    2.102906e+00
  1.551459e+01    1.993526e+00
  1.554634e+01    1.898218e+00
  1.557809e+01    1.869096e+00
  1.560985e+01    1.804898e+00
  1.564160e+01    1.789702e+00
  1.567335e+01    1.750651e+00
  1.570510e+01    1.708325e+00
  1.573685e+01    1.741591e+00
  1.576860e+01    1.712217e+00
  1.580035e+01    1.689209e+00
  1.583210e+01    1.640840e+00
  1.586385e+01    1.658815e+00
  1.589561e+01    1.643730e+00
  1.592736e+01    1.597830e+00
  1.595911e+01    1.637855e+00
  1.599086e+01    1.650118e+00
  1.602261e+01    1.626627e+00
  1.605436e+01    1.598170e+00
  1.608611e+01    1.647101e+00
  1.611786e+01    1.620075e+00
  1.614961e+01    1.577710e+00
  1.618137e+01    1.566950e+00
  1.621312e+01    1.541128e+00
  1.624487e+01    1.577170e+00
  1.627662e+01    1.553169e+00
  1.630837e+01    1.529949e+00
  1.634012e+01    1.584018e+00
  1.637187e+01    1.573279e+00
  1.640362e+01    1.548146e+00
  1.643538e+01    1.536393e+00
  1.646713e+01    1.545364e+00
  1.649888e+01    1.514854e+00
  1.653063e+01    1.530620e+00
  1.656238e+01    1.509902e+00
  1.659413e+01    1.489626e+00
  1.662588e+01    1.472895e+00
  1.665763e+01    1.530975e+00
  1.668938e+01    1.470807e+00
  1.672114e+01    1.464288e+00
  1.675289e+01    1.495822e+00
  1.678464e+01    1.465541e+00
  1.681639e+01    1.457446e+00
  1.684814e+01    1.450280e+00
  1.687989e+01    1.472301e+00
  1.691164e+01    1.411375e+00
  1.694339e+01    1.466814e+00
  1.697514e+01    1.447565e+00
  1.700690e+01    1.456106e+00
  1.703865e+01    1.433040e+00
  1.707040e+01    1.420076e+00
  1.710215e+01    1.415897e+00
  1.713390e+01    1.432138e+00
  1.716565e+01    1.399366e+00
  1.719740e+01    1.395166e+00
  1.722915e+01    1.413099e+00
  1.726091e+01    1.408513e+00
  1.729266e+01    1.402064e+00
  1.732441e+01    1.370276e+00
  1.735616e+01    1.389657e+00
  1.738791e+01    1.389379e+00
  1.741966e+01    1.369059e+00
  1.745141e+01    1.404387e+00
  1.748316e+01    1.391508e+00
  1.751491e+01    1.372604e+00
  1.754667e+01    1.371916e+00
  1.757842e+01    1.351923e+00
  1.761017e+01    1.357284e+00
  1.764192e+01    1.336654e+00
  1.767367e+01    1.324815e+00
  1.770542e+01    1.351486e+00
  1.773717e+01    1.333128e+00
  1.776892e+01    1.344285e+00
  1.780067e+01    1.319659e+00
  1.783243e+01    1.327722e+00
  1.786418e+01    1.317990e+00
  1.789593e+01    1.317416e+00
  1.792768e+01    1.307653e+00
  1.795943e+01    1.302243e+00
  1.799118e+01    1.319259e+00
  1.802293e+01    1.308537e+00
  1.805468e+01    1.294798e+00
  1.808643e+01    1.299210e+00
  1.811819e+01    1.272094e+00
  1.814994e+01    1.274621e+00
  1.818169e+01    1.283152e+00
  1.821344e+01    1.273970e+00
  1.824519e+01    1.286041e+00
  1.827694e+01    1.273371e+00
  1.830869e+01    1.272243e+00
  1.834044e+01    1.243478e+00
  1.837220e+01    1.271354e+00
  1.840395e+01    1.263681e+00
  1.843570e+01    1.241074e+00
  1.846745e+01    1.252238e+00
  1.849920e+01    1.248970e+00
  1.853095e+01    1.271646e+00
  1.856270e+01    1.246356e+00
  1.859445e+01    1.228142e+00
  1.862620e+01    1.258454e+00
  1.865796e+01    1.229516e+00
  1.868971e+01    1.204429e+00
  1.872146e+01    1.219804e+00
  1.875321e+01    1.212021e+00
  1.878496e+01    1.233067e+00
  1.881671e+01    1.191576e+00
  1.884846e+01    1.206374e+00
  1.888021e+01    1.221619e+00
  1.891196e+01    1.224157e+00
  1.894372e+01    1.206076e+00
  1.897547e+01    1.182595e+00
  1.900722e+01    1.187726e+00
  1.903897e+01    1.197797e+00
  1.907072e+01    1.192080e+00
  1.910247e+01    1.191700e+00
  1.913422e+01    1.174442e+00
  1.916597e+01    1.187741e+00
  1.919773e+01    1.194759e+00
  1.922948e+01    1.152592e+00
  1.926123e+01    1.191261e+00
  1.929298e+01    1.164006e+00
  1.932473e+01    1.160033e+00
  1.935648e+01    1.184049e+00
  1.938823e+01    1.175100e+00
  1.941998e+01    1.161834e+00
  1.945173e+01    1.168774e+00
  1.948349e+01    1.159332e+00
  1.951524e+01    1.118031e+00
  1.954699e+01    1.160010e+00
  1.957874e+01    1.142316e+00
  1.961049e+01    1.151735e+00
  1.964224e+01    1.141685e+00
  1.967399e+01    1.169605e+00
  1.970574e+01    1.136320e+00
  1.973749e+01    1.133353e+00
  1.976925e+01    1.140982e+00
  1.980100e+01    1.137392e+00
  1.983275e+01    1.113260e+00
  1.986450e+01    1.117520e+00
  1.989625e+01    1.116389e+00
  1.992800e+01    1.112555e+00
  1.995975e+01    1.110345e+00
  1.999150e+01    1.158146e+00
  2.002325e+01    1.120142e+00
  2.005501e+01    1.100742e+00
  2.008676e+01    1.115152e+00
  2.011851e+01    1.089216e+00
  2.015026e+01    1.108105e+00
  2.018201e+01    1.116596e+00
  2.021376e+01    1.088917e+00
  2.024551e+01    1.067792e+00
  2.027726e+01    1.133059e+00
  2.030902e+01    1.107580e+00
  2.034077e+01    1.092959e+00
  2.037252e+01    1.098842e+00
  2.040427e+01    1.092261e+00
  2.043602e+01    1.089820e+00
  2.046777e+01    1.062090e+00
  2.049952e+01    1.064323e+00
  2.053127e+01    1.098181e+00
  2.056302e+01    1.081937e+00
  2.059478e+01    1.059790e+00
  2.062653e+01    1.081995e+00
  2.065828e+01    1.073580e+00
  2.069003e+01    1.078468e+00
  2.072178e+01    1.056466e+00
  2.075353e+01    1.063781e+00
  2.078528e+01    1.091078e+00
  2.081703e+01    1.068998e+00
  2.084878e+01    1.093079e+00
  2.088054e+01    1.079391e+00
  2.091229e+01    1.075347e+00
  2.094404e+01    1.064731e+00
  2.097579e+01    1.071964e+00
  2.100754e+01    1.072561e+00
  2.103929e+01    1.067504e+00
  2.107104e+01    1.069745e+00
  2.110279e+01    1.081101e+00
  2.113455e+01    1.095096e+00
  2.116630e+01    1.082091e+00
  2.119805e+01    1.096281e+00
  2.122980e+01    1.095737e+00
  2.126155e+01    1.109753e+00
  2.129330e+01    1.116105e+00
  2.132505e+01    1.118104e+00
  2.135680e+01    1.137456e+00
  2.138855e+01    1.162904e+00
  2.142031e+01    1.214806e+00
  2.145206e+01    1.205768e+00
  2.148381e+01    1.238122e+00
  2.151556e+01    1.308337e+00
  2.154731e+01    1.375289e+00
  2.157906e+01    1.464521e+00
  2.161081e+01    1.593149e+00
  2.164256e+01    1.787793e+00
  2.167431e+01    2.109919e+00
  2.170607e+01    2.559547e+00
  2.173782e+01    3.257545e+00
  2.176957e+01    4.289855e+00
  2.180132e+01    5.480988e+00
  2.183307e+01    6.801200e+00
  2.186482e+01    8.063319e+00
  2.189657e+01    8.820893e+00
  2.192832e+01    8.298766e+00
  2.196007e+01    6.598714e+00
  2.199183e+01    4.777808e+00
  2.202358e+01    3.518006e+00
  2.205533e+01    2.687673e+00
  2.208708e+01    2.159082e+00
  2.211883e+01    1.863523e+00
  2.215058e+01    1.642127e+00
  2.218233e+01    1.465840e+00
  2.221408e+01    1.347405e+00
  2.224584e+01    1.281603e+00
  2.227759e+01    1.200030e+00
  2.230934e+01    1.197050e+00
  2.234109e+01    1.132439e+00
  2.237284e+01    1.103066e+00
  2.240459e+01    1.068752e+00
  2.243634e+01    1.046884e+00
  2.246809e+01    1.007905e+00
  2.249984e+01    1.027040e+00
  2.253160e+01    9.954727e-01
  2.256335e+01    9.972097e-01
  2.259510e+01    9.755094e-01
  2.262685e+01    9.640950e-01
  2.265860e+01    9.670511e-01
  2.269035e+01    9.448760e-01
  2.272210e+01    9.425589e-01
  2.275385e+01    9.296203e-01
  2.278560e+01    9.282648e-01
  2.281736e+01    9.253924e-01
  2.284911e+01    9.213957e-01
  2.288086e+01    9.146699e-01
  2.291261e+01    9.098779e-01
  2.294436e+01    9.125605e-01
  2.297611e+01    9.115629e-01
  2.300786e+01    9.126245e-01
  2.303961e+01    8.900042e-01
  2.307137e+01    8.786373e-01
  2.310312e+01    8.782260e-01
  2.313487e+01    8.869547e-01
  2.316662e+01    8.623079e-01
  2.319837e+01    8.784084e-01
  2.323012e+01    8.654032e-01
  2.326187e+01    8.509245e-01
  2.329362e+01    8.612697e-01
  2.332537e+01    8.638749e-01
  2.335713e+01    8.814502e-01
  2.338888e+01    8.393795e-01
  2.342063e+01    8.532078e-01
  2.345238e+01    8.452429e-01
  2.348413e+01    8.544710e-01
  2.351588e+01    8.470055e-01
  2.354763e+01    8.408720e-01
  2.357938e+01    8.445690e-01
  2.361113e+01    8.344063e-01
  2.364289e+01    8.432428e-01
  2.367464e+01    8.260583e-01
  2.370639e+01    8.264017e-01
  2.373814e+01    8.230128e-01
  2.376989e+01    7.988718e-01
  2.380164e+01    8.161709e-01
  2.383339e+01    7.851640e-01
  2.386514e+01    8.019606e-01
  2.389689e+01    8.163859e-01
  2.392865e+01    8.178411e-01
  2.396040e+01    7.972279e-01
  2.399215e+01    7.809762e-01
  2.402390e+01    7.950954e-01
  2.405565e+01    7.913022e-01
  2.408740e+01    7.664493e-01
  2.411915e+01    7.743395e-01
  2.415090e+01    7.733458e-01
  2.418266e+01    7.894317e-01
  2.421441e+01    7.768044e-01
  2.424616e+01    7.502673e-01
  2.427791e+01    7.817197e-01
  2.430966e+01    7.677644e-01
  2.434141e+01    8.017855e-01
  2.437316e+01    8.048822e-01
  2.440491e+01    7.906353e-01
  2.443666e+01    7.995985e-01
  2.446842e+01    7.899749e-01
  2.450017e+01    7.777532e-01
  2.453192e+01    7.867141e-01
  2.456367e+01    8.076910e-01
  2.459542e+01    7.839759e-01
  2.462717e+01    7.871419e-01
  2.465892e+01    7.775782e-01
  2.469067e+01    7.913136e-01
  2.472242e+01    7.830023e-01
  2.475418e+01    7.939600e-01
  2.478593e+01    8.078501e-01
  2.481768e+01    7.919914e-01
  2.484943e+01    7.830886e-01
  2.488118e+01    7.898128e-01
  2.491293e+01    7.894145e-01
  2.494468e+01    8.035753e-01
  2.497643e+01    7.966049e-01
  2.500819e+01    8.090457e-01
  2.503994e+01    7.968473e-01
  2.507169e+01    7.864855e-01
  2.510344e+01    8.143864e-01
  2.513519e+01    8.317865e-01
  2.516694e+01    7.985873e-01
  2.519869e+01    8.269680e-01
  2.523044e+01    8.641996e-01
  2.526219e+01    8.466300e-01
  2.529395e+01    8.506748e-01
  2.532570e+01    8.534505e-01
  2.535745e+01    8.824068e-01
  2.538920e+01    8.884796e-01
  2.542095e+01    9.123557e-01
  2.545270e+01    9.278218e-01
  2.548445e+01    9.575748e-01
  2.551620e+01    9.817413e-01
  2.554795e+01    1.004377e+00
  2.557971e+01    1.057961e+00
  2.561146e+01    1.117993e+00
  2.564321e+01    1.203438e+00
  2.567496e+01    1.326516e+00
  2.570671e+01    1.454927e+00
  2.573846e+01    1.746366e+00
  2.577021e+01    2.097357e+00
  2.580196e+01    2.622030e+00
  2.583371e+01    3.386792e+00
  2.586547e+01    4.446432e+00
  2.589722e+01    5.630247e+00
  2.592897e+01    6.616638e+00
  2.596072e+01    7.160951e+00
  2.599247e+01    6.696162e+00
  2.602422e+01    5.458888e+00
  2.605597e+01    4.039376e+00
  2.608772e+01    2.999315e+00
  2.611948e+01    2.317174e+00
  2.615123e+01    1.916683e+00
  2.618298e+01    1.614240e+00
  2.621473e+01    1.412865e+00
  2.624648e+01    1.246949e+00
  2.627823e+01    1.173885e+00
  2.630998e+01    1.104471e+00
  2.634173e+01    1.031670e+00
  2.637348e+01    1.002234e+00
  2.640524e+01    9.589270e-01
  2.643699e+01    9.487157e-01
  2.646874e+01    9.297422e-01
  2.650049e+01    9.323476e-01
  2.653224e+01    9.138035e-01
  2.656399e+01    8.909965e-01
  2.659574e+01    8.758140e-01
  2.662749e+01    8.925241e-01
  2.665924e+01    8.680235e-01
  2.669100e+01    8.926288e-01
  2.672275e+01    8.805818e-01
  2.675450e+01    8.562481e-01
  2.678625e+01    8.471630e-01
  2.681800e+01    8.855104e-01
  2.684975e+01    8.837487e-01
  2.688150e+01    8.799621e-01
  2.691325e+01    9.177988e-01
  2.694501e+01    9.399516e-01
  2.697676e+01    9.940609e-01
  2.700851e+01    1.013939e+00
  2.704026e+01    1.083224e+00
  2.707201e+01    1.215232e+00
  2.710376e+01    1.362941e+00
  2.713551e+01    1.580607e+00
  2.716726e+01    1.893784e+00
  2.719901e+01    2.117622e+00
  2.723077e+01    2.149436e+00
  2.726252e+01    1.955785e+00
  2.729427e+01    1.676265e+00
  2.732602e+01    1.396360e+00
  2.735777e+01    1.207278e+00
  2.738952e+01    1.083746e+00
  2.742127e+01    1.033420e+00
  2.745302e+01    9.743346e-01
  2.748477e+01    9.145672e-01
  2.751653e+01    8.861812e-01
  2.754828e+01    8.746325e-01
  2.758003e+01    8.310061e-01
  2.761178e+01    8.382208e-01
  2.764353e+01    8.296371e-01
  2.767528e+01    8.133045e-01
  2.770703e+01    8.032696e-01
  2.773878e+01    8.153583e-01
  2.777054e+01    8.121660e-01
  2.780229e+01    7.878202e-01
  2.783404e+01    7.960856e-01
  2.786579e+01    7.637837e-01
  2.789754e+01    7.973413e-01
  2.792929e+01    8.015113e-01
  2.796104e+01    7.685391e-01
  2.799279e+01    7.702876e-01
  2.802454e+01    7.542371e-01
  2.805630e+01    7.765549e-01
  2.808805e+01    7.837541e-01
  2.811980e+01    7.592082e-01
  2.815155e+01    7.786103e-01
  2.818330e+01    7.797962e-01
  2.821505e+01    7.616221e-01
  2.824680e+01    7.921893e-01
  2.827855e+01    7.641297e-01
  2.831030e+01    7.472522e-01
  2.834206e+01    7.438039e-01
  2.837381e+01    7.445382e-01
  2.840556e+01    7.442856e-01
  2.843731e+01    7.455640e-01
  2.846906e+01    7.657233e-01
  2.850081e+01    7.617137e-01
  2.853256e+01    7.559068e-01
  2.856431e+01    7.540729e-01
  2.859606e+01    7.751607e-01
  2.862782e+01    7.285768e-01
  2.865957e+01    7.585486e-01
  2.869132e+01    7.440004e-01
  2.872307e+01    7.398626e-01
  2.875482e+01    7.448250e-01
  2.878657e+01    7.383821e-01
  2.881832e+01    7.210605e-01
  2.885007e+01    7.349576e-01
  2.888183e+01    7.233474e-01
  2.891358e+01    7.364197e-01
  2.894533e+01    7.251396e-01
  2.897708e+01    7.585143e-01
  2.900883e+01    7.433783e-01
  2.904058e+01    7.377640e-01
  2.907233e+01    7.136956e-01
  2.910408e+01    7.226099e-01
  2.913583e+01    7.354070e-01
  2.916759e+01    7.488578e-01
  2.919934e+01    7.321419e-01
  2.923109e+01    7.445517e-01
  2.926284e+01    7.297736e-01
  2.929459e+01    7.417675e-01
  2.932634e+01    7.384181e-01
  2.935809e+01    7.318540e-01
  2.938984e+01    7.371636e-01
  2.942159e+01    7.095217e-01
  2.945335e+01    7.109276e-01
  2.948510e+01    7.321778e-01
  2.951685e+01    7.148899e-01
  2.954860e+01    7.168078e-01
  2.958035e+01    7.106267e-01
  2.961210e+01    7.151904e-01
  2.964385e+01    7.194681e-01
  2.967560e+01    7.166723e-01
  2.970736e+01    7.146733e-01
  2.973911e+01    6.974601e-01
  2.977086e+01    7.144415e-01
  2.980261e+01    7.284060e-01
  2.983436e+01    7.155046e-01
  2.986611e+01    7.107785e-01
  2.989786e+01    7.126746e-01
  2.992961e+01    7.250984e-01
  2.996136e+01    7.117454e-01
  2.999312e+01    6.935523e-01
  3.002487e+01    7.420392e-01
  3.005662e+01    7.075990e-01
  3.008837e+01    7.517071e-01
  3.012012e+01    7.099879e-01
  3.015187e+01    7.260588e-01
  3.018362e+01    6.999537e-01
  3.021537e+01    6.945507e-01
  3.024712e+01    7.093458e-01
  3.027888e+01    6.944280e-01
  3.031063e+01    7.136456e-01
  3.034238e+01    7.032220e-01
  3.037413e+01    6.980538e-01
  3.040588e+01    6.899653e-01
  3.043763e+01    7.145369e-01
  3.046938e+01    7.122522e-01
  3.050113e+01    7.085396e-01
  3.053288e+01    6.954793e-01
  3.056464e+01    7.030840e-01
  3.059639e+01    6.978605e-01
  3.062814e+01    6.895919e-01
  3.065989e+01    7.021434e-01
  3.069164e+01    7.089469e-01
  3.072339e+01    7.088466e-01
  3.075514e+01    6.975901e-01
  3.078689e+01    7.183993e-01
  3.081865e+01    7.238913e-01
  3.085040e+01    7.183868e-01
  3.088215e+01    7.109526e-01
  3.091390e+01    6.991379e-01
  3.094565e+01    6.946123e-01
  3.097740e+01    6.799822e-01
  3.100915e+01    6.959832e-01
  3.104090e+01    7.062943e-01
  3.107265e+01    7.177617e-01
  3.110441e+01    7.072455e-01
  3.113616e+01    7.162636e-01
  3.116791e+01    7.247457e-01
  3.119966e+01    7.098383e-01
  3.123141e+01    7.370852e-01
  3.126316e+01    7.327141e-01
  3.129491e+01    7.168276e-01
  3.132666e+01    7.198173e-01
  3.135841e+01    7.328166e-01
  3.139017e+01    7.256973e-01
  3.142192e+01    7.424142e-01
  3.145367e+01    7.367462e-01
  3.148542e+01    7.348411e-01
  3.151717e+01    7.646838e-01
  3.154892e+01    7.737750e-01
  3.158067e+01    7.963452e-01
  3.161242e+01    8.278778e-01
  3.164418e+01    8.574696e-01
  3.167593e+01    8.789674e-01
  3.170768e+01    9.758486e-01
  3.173943e+01    1.038098e+00
  3.177118e+01    1.211602e+00
  3.180293e+01    1.383779e+00
  3.183468e+01    1.634406e+00
  3.186643e+01    1.902732e+00
  3.189818e+01    2.109516e+00
  3.192994e+01    2.083933e+00
  3.196169e+01    1.854249e+00
  3.199344e+01    1.532966e+00
  3.202519e+01    1.311186e+00
  3.205694e+01    1.081053e+00
  3.208869e+01    1.018946e+00
  3.212044e+01    9.148032e-01
  3.215219e+01    8.562522e-01
  3.218394e+01    8.231761e-01
  3.221570e+01    8.085954e-01
  3.224745e+01    7.858172e-01
  3.227920e+01    7.703363e-01
  3.231095e+01    7.174420e-01
  3.234270e+01    7.300491e-01
  3.237445e+01    7.073683e-01
  3.240620e+01    7.134570e-01
  3.243795e+01    7.251601e-01
  3.246970e+01    7.262193e-01
  3.250146e+01    7.028833e-01
  3.253321e+01    7.110562e-01
  3.254908e+01    7.167671e-01