File: XRD/Activation ramp/2024-07-27_002_Ru-CGO-ex_Activtation_ramp_000002_data_000067.dat
# == pyFAI calibration ==
# Distance Sample to Detector: 0.4 m
# PONI: 9.750e-02, 1.135e-01 m
# Rotations: -0.000175 0.000000 -0.000000 rad
#
# == Fit2d calibration ==
# Distance Sample-beamCenter: 400.000 mm
# Center: x=1514.000, y=1300.000 pix
# Tilt: 0.010 deg  TiltPlanRot: 0.010 deg
#
# Detector Detector	 Spline= None	 PixelSize= 7.500e-05, 7.500e-05 m
#    Detector has a mask: False
#    Detector has a dark current: False
#    detector has a flat field: False
#
# Wavelength: 6.888e-11 m
# Mask applied: user provided
# Dark current applied: False
# Flat field applied: False
# Polarization factor: 0.99
# Normalization factor: 1.0
# --> /home/myspot/data/2024_07_Rosario/Ru-CGO-ex/2024-07-27_002_Ru-CGO-ex_Activtation_ramp_000002_data_000067.dat
#       q_nm^-1             I
  2.003187e-02    0.000000e+00
  5.178302e-02    2.670345e-02
  8.353417e-02    1.582368e-01
  1.152853e-01    8.025514e-02
  1.470365e-01    7.111525e-02
  1.787876e-01    2.108266e-02
  2.105388e-01    2.083356e-02
  2.422899e-01    3.483613e-02
  2.740411e-01    8.232748e-02
  3.057922e-01    4.641337e-02
  3.375433e-01    2.004583e-02
  3.692945e-01    3.233342e-02
  4.010456e-01    1.083513e-02
  4.327968e-01    6.507694e-02
  4.645479e-01    4.596953e-02
  4.962991e-01    4.443843e-02
  5.280502e-01    5.235550e-03
  5.598014e-01    3.367822e-02
  5.915525e-01    5.117342e-02
  6.233037e-01    3.468694e-02
  6.550548e-01    3.074510e-02
  6.868060e-01    3.719740e-02
  7.185571e-01    2.375027e-02
  7.503083e-01    4.308883e-02
  7.820594e-01    9.889545e-02
  8.138106e-01    1.941365e-01
  8.455617e-01    3.478239e-01
  8.773129e-01    4.223008e-01
  9.090640e-01    6.213709e-01
  9.408152e-01    7.347710e-01
  9.725663e-01    8.998093e-01
  1.004317e+00    1.006117e+00
  1.036069e+00    1.185693e+00
  1.067820e+00    1.254810e+00
  1.099571e+00    1.419439e+00
  1.131322e+00    1.442027e+00
  1.163073e+00    1.504856e+00
  1.194824e+00    1.700659e+00
  1.226575e+00    2.021974e+00
  1.258327e+00    2.239295e+00
  1.290078e+00    2.499902e+00
  1.321829e+00    2.460864e+00
  1.353580e+00    2.560724e+00
  1.385331e+00    2.690980e+00
  1.417082e+00    2.576517e+00
  1.448834e+00    2.598569e+00
  1.480585e+00    2.843929e+00
  1.512336e+00    2.885951e+00
  1.544087e+00    3.026109e+00
  1.575838e+00    3.111001e+00
  1.607589e+00    2.865436e+00
  1.639340e+00    2.898908e+00
  1.671092e+00    2.951036e+00
  1.702843e+00    2.884909e+00
  1.734594e+00    2.881556e+00
  1.766345e+00    2.883404e+00
  1.798096e+00    2.764422e+00
  1.829847e+00    2.879170e+00
  1.861598e+00    2.894478e+00
  1.893350e+00    2.705101e+00
  1.925101e+00    2.954026e+00
  1.956852e+00    2.798271e+00
  1.988603e+00    2.803572e+00
  2.020354e+00    2.705006e+00
  2.052105e+00    2.739758e+00
  2.083856e+00    2.711361e+00
  2.115608e+00    2.614894e+00
  2.147359e+00    2.688096e+00
  2.179110e+00    2.732827e+00
  2.210861e+00    2.745148e+00
  2.242612e+00    2.769757e+00
  2.274363e+00    2.820823e+00
  2.306115e+00    2.787636e+00
  2.337866e+00    2.746560e+00
  2.369617e+00    2.813259e+00
  2.401368e+00    2.848466e+00
  2.433119e+00    2.749979e+00
  2.464870e+00    2.799375e+00
  2.496621e+00    2.752962e+00
  2.528373e+00    2.837197e+00
  2.560124e+00    2.828694e+00
  2.591875e+00    2.885816e+00
  2.623626e+00    2.852547e+00
  2.655377e+00    2.888805e+00
  2.687128e+00    2.854095e+00
  2.718879e+00    2.795031e+00
  2.750631e+00    2.859689e+00
  2.782382e+00    2.817953e+00
  2.814133e+00    2.846067e+00
  2.845884e+00    2.869161e+00
  2.877635e+00    2.811890e+00
  2.909386e+00    2.840388e+00
  2.941137e+00    2.878779e+00
  2.972889e+00    2.880651e+00
  3.004640e+00    2.853678e+00
  3.036391e+00    2.842132e+00
  3.068142e+00    2.862760e+00
  3.099893e+00    2.908499e+00
  3.131644e+00    2.930435e+00
  3.163395e+00    2.949935e+00
  3.195147e+00    2.851443e+00
  3.226898e+00    2.837681e+00
  3.258649e+00    2.905728e+00
  3.290400e+00    2.943416e+00
  3.322151e+00    2.900993e+00
  3.353902e+00    2.929658e+00
  3.385654e+00    2.881230e+00
  3.417405e+00    2.993351e+00
  3.449156e+00    2.951738e+00
  3.480907e+00    2.908108e+00
  3.512658e+00    2.897524e+00
  3.544409e+00    2.972415e+00
  3.576160e+00    2.901276e+00
  3.607912e+00    2.929825e+00
  3.639663e+00    2.967306e+00
  3.671414e+00    2.934423e+00
  3.703165e+00    2.903223e+00
  3.734916e+00    3.068590e+00
  3.766667e+00    3.004080e+00
  3.798418e+00    3.046911e+00
  3.830170e+00    2.959217e+00
  3.861921e+00    3.003523e+00
  3.893672e+00    3.008760e+00
  3.925423e+00    2.957820e+00
  3.957174e+00    2.978722e+00
  3.988925e+00    3.009127e+00
  4.020676e+00    3.013633e+00
  4.052428e+00    2.971236e+00
  4.084179e+00    3.045505e+00
  4.115930e+00    3.071453e+00
  4.147681e+00    3.076733e+00
  4.179432e+00    3.077040e+00
  4.211183e+00    2.991861e+00
  4.242935e+00    3.108131e+00
  4.274686e+00    2.978774e+00
  4.306437e+00    3.020679e+00
  4.338188e+00    3.019508e+00
  4.369939e+00    3.055535e+00
  4.401690e+00    3.038816e+00
  4.433441e+00    3.126299e+00
  4.465193e+00    3.095778e+00
  4.496944e+00    3.015669e+00
  4.528695e+00    3.150196e+00
  4.560446e+00    3.017276e+00
  4.592197e+00    3.072786e+00
  4.623948e+00    3.089079e+00
  4.655699e+00    3.092461e+00
  4.687451e+00    3.109322e+00
  4.719202e+00    3.058040e+00
  4.750953e+00    3.184200e+00
  4.782704e+00    3.129731e+00
  4.814455e+00    3.081538e+00
  4.846206e+00    3.121694e+00
  4.877957e+00    3.080143e+00
  4.909709e+00    3.025753e+00
  4.941460e+00    3.090220e+00
  4.973211e+00    3.100816e+00
  5.004962e+00    3.079566e+00
  5.036713e+00    3.194019e+00
  5.068464e+00    3.049518e+00
  5.100216e+00    3.131097e+00
  5.131967e+00    3.069920e+00
  5.163718e+00    3.059977e+00
  5.195469e+00    3.113508e+00
  5.227220e+00    3.094753e+00
  5.258971e+00    3.154011e+00
  5.290722e+00    3.108931e+00
  5.322474e+00    3.109799e+00
  5.354225e+00    3.214697e+00
  5.385976e+00    3.077137e+00
  5.417727e+00    3.121733e+00
  5.449478e+00    3.090060e+00
  5.481229e+00    3.097652e+00
  5.512980e+00    3.107642e+00
  5.544732e+00    3.047838e+00
  5.576483e+00    3.007086e+00
  5.608234e+00    3.025856e+00
  5.639985e+00    3.106018e+00
  5.671736e+00    3.029688e+00
  5.703487e+00    3.021458e+00
  5.735238e+00    3.036718e+00
  5.766990e+00    3.037939e+00
  5.798741e+00    3.070399e+00
  5.830492e+00    3.004021e+00
  5.862243e+00    3.049982e+00
  5.893994e+00    3.091167e+00
  5.925745e+00    3.057935e+00
  5.957497e+00    2.934420e+00
  5.989248e+00    2.986173e+00
  6.020999e+00    3.023791e+00
  6.052750e+00    3.019229e+00
  6.084501e+00    3.009197e+00
  6.116252e+00    3.091073e+00
  6.148003e+00    3.066137e+00
  6.179755e+00    3.082712e+00
  6.211506e+00    3.073457e+00
  6.243257e+00    3.109703e+00
  6.275008e+00    2.988955e+00
  6.306759e+00    2.993383e+00
  6.338510e+00    3.064499e+00
  6.370261e+00    3.098027e+00
  6.402013e+00    2.969377e+00
  6.433764e+00    3.068310e+00
  6.465515e+00    3.042911e+00
  6.497266e+00    3.019218e+00
  6.529017e+00    3.100676e+00
  6.560768e+00    3.060396e+00
  6.592519e+00    2.996314e+00
  6.624271e+00    3.055095e+00
  6.656022e+00    3.061014e+00
  6.687773e+00    2.997194e+00
  6.719524e+00    3.105584e+00
  6.751275e+00    2.990057e+00
  6.783026e+00    3.033013e+00
  6.814777e+00    3.034574e+00
  6.846529e+00    2.951430e+00
  6.878280e+00    2.964731e+00
  6.910031e+00    2.996298e+00
  6.941782e+00    2.982112e+00
  6.973533e+00    2.978274e+00
  7.005284e+00    2.997568e+00
  7.037036e+00    2.992407e+00
  7.068787e+00    3.078530e+00
  7.100538e+00    3.001159e+00
  7.132289e+00    3.016576e+00
  7.164040e+00    2.963028e+00
  7.195791e+00    2.969516e+00
  7.227542e+00    3.019205e+00
  7.259294e+00    2.952751e+00
  7.291045e+00    2.939200e+00
  7.322796e+00    2.980944e+00
  7.354547e+00    3.010088e+00
  7.386298e+00    2.960791e+00
  7.418049e+00    2.998395e+00
  7.449800e+00    2.974607e+00
  7.481552e+00    2.931110e+00
  7.513303e+00    2.973568e+00
  7.545054e+00    2.941680e+00
  7.576805e+00    2.943135e+00
  7.608556e+00    2.916907e+00
  7.640307e+00    2.978566e+00
  7.672058e+00    2.959648e+00
  7.703810e+00    2.968419e+00
  7.735561e+00    2.971291e+00
  7.767312e+00    2.975375e+00
  7.799063e+00    2.918683e+00
  7.830814e+00    2.878654e+00
  7.862565e+00    2.927560e+00
  7.894317e+00    2.995623e+00
  7.926068e+00    2.909534e+00
  7.957819e+00    2.889848e+00
  7.989570e+00    2.911022e+00
  8.021321e+00    2.865504e+00
  8.053072e+00    2.962973e+00
  8.084823e+00    2.935773e+00
  8.116575e+00    2.945063e+00
  8.148326e+00    2.970733e+00
  8.180077e+00    2.974587e+00
  8.211828e+00    2.992143e+00
  8.243579e+00    2.965390e+00
  8.275330e+00    2.998466e+00
  8.307081e+00    2.887756e+00
  8.338833e+00    2.864337e+00
  8.370584e+00    2.975174e+00
  8.402335e+00    2.918386e+00
  8.434086e+00    2.907534e+00
  8.465837e+00    2.833940e+00
  8.497588e+00    2.876362e+00
  8.529339e+00    2.899144e+00
  8.561091e+00    2.918292e+00
  8.592842e+00    2.849051e+00
  8.624593e+00    2.810682e+00
  8.656344e+00    2.876190e+00
  8.688095e+00    2.878574e+00
  8.719846e+00    2.811363e+00
  8.751598e+00    2.865976e+00
  8.783349e+00    2.857556e+00
  8.815100e+00    2.820360e+00
  8.846851e+00    2.833902e+00
  8.878602e+00    2.869312e+00
  8.910353e+00    2.864733e+00
  8.942104e+00    2.795093e+00
  8.973856e+00    2.817063e+00
  9.005607e+00    2.811636e+00
  9.037358e+00    2.808999e+00
  9.069109e+00    2.861970e+00
  9.100860e+00    2.854077e+00
  9.132611e+00    2.835650e+00
  9.164362e+00    2.735998e+00
  9.196114e+00    2.797367e+00
  9.227865e+00    2.742322e+00
  9.259616e+00    2.757836e+00
  9.291367e+00    2.789496e+00
  9.323118e+00    2.799142e+00
  9.354869e+00    2.751683e+00
  9.386620e+00    2.746261e+00
  9.418372e+00    2.787123e+00
  9.450123e+00    2.809399e+00
  9.481874e+00    2.796186e+00
  9.513625e+00    2.744937e+00
  9.545376e+00    2.807503e+00
  9.577127e+00    2.760578e+00
  9.608878e+00    2.748926e+00
  9.640630e+00    2.708932e+00
  9.672381e+00    2.772701e+00
  9.704132e+00    2.790724e+00
  9.735883e+00    2.689461e+00
  9.767634e+00    2.724194e+00
  9.799385e+00    2.736690e+00
  9.831137e+00    2.684886e+00
  9.862888e+00    2.723963e+00
  9.894639e+00    2.664937e+00
  9.926390e+00    2.704621e+00
  9.958141e+00    2.687008e+00
  9.989892e+00    2.612973e+00
  1.002164e+01    2.697293e+00
  1.005339e+01    2.672251e+00
  1.008515e+01    2.667275e+00
  1.011690e+01    2.655053e+00
  1.014865e+01    2.603914e+00
  1.018040e+01    2.613349e+00
  1.021215e+01    2.684283e+00
  1.024390e+01    2.655797e+00
  1.027565e+01    2.607546e+00
  1.030740e+01    2.617079e+00
  1.033915e+01    2.645142e+00
  1.037091e+01    2.628227e+00
  1.040266e+01    2.600733e+00
  1.043441e+01    2.614788e+00
  1.046616e+01    2.536728e+00
  1.049791e+01    2.625587e+00
  1.052966e+01    2.550705e+00
  1.056141e+01    2.603892e+00
  1.059316e+01    2.567115e+00
  1.062492e+01    2.562937e+00
  1.065667e+01    2.469841e+00
  1.068842e+01    2.635981e+00
  1.072017e+01    2.657816e+00
  1.075192e+01    2.492481e+00
  1.078367e+01    2.551077e+00
  1.081542e+01    2.515310e+00
  1.084717e+01    2.540915e+00
  1.087892e+01    2.447163e+00
  1.091068e+01    2.519013e+00
  1.094243e+01    2.515170e+00
  1.097418e+01    2.473507e+00
  1.100593e+01    2.484080e+00
  1.103768e+01    2.464086e+00
  1.106943e+01    2.480289e+00
  1.110118e+01    2.519718e+00
  1.113293e+01    2.494179e+00
  1.116468e+01    2.453912e+00
  1.119644e+01    2.476191e+00
  1.122819e+01    2.402149e+00
  1.125994e+01    2.447396e+00
  1.129169e+01    2.400822e+00
  1.132344e+01    2.464442e+00
  1.135519e+01    2.490567e+00
  1.138694e+01    2.408914e+00
  1.141869e+01    2.385954e+00
  1.145045e+01    2.403868e+00
  1.148220e+01    2.371891e+00
  1.151395e+01    2.393790e+00
  1.154570e+01    2.356123e+00
  1.157745e+01    2.377072e+00
  1.160920e+01    2.417513e+00
  1.164095e+01    2.384206e+00
  1.167270e+01    2.318563e+00
  1.170445e+01    2.383131e+00
  1.173621e+01    2.399623e+00
  1.176796e+01    2.400413e+00
  1.179971e+01    2.366990e+00
  1.183146e+01    2.400119e+00
  1.186321e+01    2.351865e+00
  1.189496e+01    2.287814e+00
  1.192671e+01    2.313938e+00
  1.195846e+01    2.371073e+00
  1.199021e+01    2.306032e+00
  1.202197e+01    2.308915e+00
  1.205372e+01    2.304131e+00
  1.208547e+01    2.331377e+00
  1.211722e+01    2.320357e+00
  1.214897e+01    2.290666e+00
  1.218072e+01    2.321524e+00
  1.221247e+01    2.313531e+00
  1.224422e+01    2.293526e+00
  1.227597e+01    2.284595e+00
  1.230773e+01    2.328521e+00
  1.233948e+01    2.359072e+00
  1.237123e+01    2.338173e+00
  1.240298e+01    2.330679e+00
  1.243473e+01    2.417279e+00
  1.246648e+01    2.358123e+00
  1.249823e+01    2.315639e+00
  1.252998e+01    2.333778e+00
  1.256174e+01    2.397086e+00
  1.259349e+01    2.426321e+00
  1.262524e+01    2.384257e+00
  1.265699e+01    2.419837e+00
  1.268874e+01    2.483207e+00
  1.272049e+01    2.493964e+00
  1.275224e+01    2.505399e+00
  1.278399e+01    2.667558e+00
  1.281574e+01    2.703814e+00
  1.284750e+01    2.851818e+00
  1.287925e+01    3.009772e+00
  1.291100e+01    3.288249e+00
  1.294275e+01    3.648078e+00
  1.297450e+01    4.245006e+00
  1.300625e+01    5.240674e+00
  1.303800e+01    6.875337e+00
  1.306975e+01    9.213269e+00
  1.310150e+01    1.218628e+01
  1.313326e+01    1.492670e+01
  1.316501e+01    1.753913e+01
  1.319676e+01    1.879397e+01
  1.322851e+01    1.643889e+01
  1.326026e+01    1.211539e+01
  1.329201e+01    8.492274e+00
  1.332376e+01    6.246221e+00
  1.335551e+01    4.907615e+00
  1.338727e+01    4.087908e+00
  1.341902e+01    3.533773e+00
  1.345077e+01    3.204942e+00
  1.348252e+01    2.961384e+00
  1.351427e+01    2.784428e+00
  1.354602e+01    2.594274e+00
  1.357777e+01    2.553977e+00
  1.360952e+01    2.408286e+00
  1.364127e+01    2.360734e+00
  1.367303e+01    2.337954e+00
  1.370478e+01    2.290586e+00
  1.373653e+01    2.229275e+00
  1.376828e+01    2.197531e+00
  1.380003e+01    2.194115e+00
  1.383178e+01    2.152045e+00
  1.386353e+01    2.118956e+00
  1.389528e+01    2.094480e+00
  1.392703e+01    2.113231e+00
  1.395879e+01    2.130920e+00
  1.399054e+01    2.109957e+00
  1.402229e+01    2.065258e+00
  1.405404e+01    2.025470e+00
  1.408579e+01    1.982873e+00
  1.411754e+01    2.009805e+00
  1.414929e+01    2.004215e+00
  1.418104e+01    1.980079e+00
  1.421279e+01    2.022502e+00
  1.424455e+01    2.030154e+00
  1.427630e+01    1.958559e+00
  1.430805e+01    1.956117e+00
  1.433980e+01    1.967144e+00
  1.437155e+01    1.957273e+00
  1.440330e+01    1.935462e+00
  1.443505e+01    1.968720e+00
  1.446680e+01    1.904822e+00
  1.449856e+01    1.947955e+00
  1.453031e+01    1.943567e+00
  1.456206e+01    1.906932e+00
  1.459381e+01    1.918738e+00
  1.462556e+01    1.901979e+00
  1.465731e+01    1.905611e+00
  1.468906e+01    1.903022e+00
  1.472081e+01    1.924747e+00
  1.475256e+01    1.935717e+00
  1.478432e+01    1.893935e+00
  1.481607e+01    1.925331e+00
  1.484782e+01    1.928317e+00
  1.487957e+01    1.943463e+00
  1.491132e+01    1.916803e+00
  1.494307e+01    2.042201e+00
  1.497482e+01    2.036794e+00
  1.500657e+01    2.175864e+00
  1.503832e+01    2.246353e+00
  1.507008e+01    2.459737e+00
  1.510183e+01    2.824228e+00
  1.513358e+01    3.296625e+00
  1.516533e+01    4.084038e+00
  1.519708e+01    4.891211e+00
  1.522883e+01    5.601011e+00
  1.526058e+01    6.194757e+00
  1.529233e+01    6.267356e+00
  1.532409e+01    5.690433e+00
  1.535584e+01    4.435452e+00
  1.538759e+01    3.522879e+00
  1.541934e+01    2.876257e+00
  1.545109e+01    2.478617e+00
  1.548284e+01    2.299280e+00
  1.551459e+01    2.120826e+00
  1.554634e+01    1.960653e+00
  1.557809e+01    1.906337e+00
  1.560985e+01    1.871095e+00
  1.564160e+01    1.820304e+00
  1.567335e+01    1.769709e+00
  1.570510e+01    1.741903e+00
  1.573685e+01    1.765865e+00
  1.576860e+01    1.723920e+00
  1.580035e+01    1.699560e+00
  1.583210e+01    1.677617e+00
  1.586385e+01    1.615927e+00
  1.589561e+01    1.636697e+00
  1.592736e+01    1.648710e+00
  1.595911e+01    1.658211e+00
  1.599086e+01    1.598127e+00
  1.602261e+01    1.612536e+00
  1.605436e+01    1.581575e+00
  1.608611e+01    1.605121e+00
  1.611786e+01    1.574472e+00
  1.614961e+01    1.586644e+00
  1.618137e+01    1.550594e+00
  1.621312e+01    1.547292e+00
  1.624487e+01    1.585171e+00
  1.627662e+01    1.548418e+00
  1.630837e+01    1.554883e+00
  1.634012e+01    1.540848e+00
  1.637187e+01    1.537355e+00
  1.640362e+01    1.548962e+00
  1.643538e+01    1.569387e+00
  1.646713e+01    1.527139e+00
  1.649888e+01    1.509125e+00
  1.653063e+01    1.538514e+00
  1.656238e+01    1.498446e+00
  1.659413e+01    1.505225e+00
  1.662588e+01    1.500124e+00
  1.665763e+01    1.488023e+00
  1.668938e+01    1.474402e+00
  1.672114e+01    1.466036e+00
  1.675289e+01    1.471161e+00
  1.678464e+01    1.471987e+00
  1.681639e+01    1.447135e+00
  1.684814e+01    1.467985e+00
  1.687989e+01    1.433980e+00
  1.691164e+01    1.452610e+00
  1.694339e+01    1.451607e+00
  1.697514e+01    1.405544e+00
  1.700690e+01    1.398980e+00
  1.703865e+01    1.419327e+00
  1.707040e+01    1.425312e+00
  1.710215e+01    1.417033e+00
  1.713390e+01    1.429146e+00
  1.716565e+01    1.458358e+00
  1.719740e+01    1.402782e+00
  1.722915e+01    1.429943e+00
  1.726091e+01    1.401230e+00
  1.729266e+01    1.380451e+00
  1.732441e+01    1.400212e+00
  1.735616e+01    1.375322e+00
  1.738791e+01    1.376714e+00
  1.741966e+01    1.404515e+00
  1.745141e+01    1.377096e+00
  1.748316e+01    1.354948e+00
  1.751491e+01    1.373474e+00
  1.754667e+01    1.363210e+00
  1.757842e+01    1.367175e+00
  1.761017e+01    1.373533e+00
  1.764192e+01    1.331594e+00
  1.767367e+01    1.361966e+00
  1.770542e+01    1.354307e+00
  1.773717e+01    1.337841e+00
  1.776892e+01    1.355609e+00
  1.780067e+01    1.321666e+00
  1.783243e+01    1.319052e+00
  1.786418e+01    1.307992e+00
  1.789593e+01    1.333352e+00
  1.792768e+01    1.327636e+00
  1.795943e+01    1.306816e+00
  1.799118e+01    1.312454e+00
  1.802293e+01    1.322408e+00
  1.805468e+01    1.295506e+00
  1.808643e+01    1.283172e+00
  1.811819e+01    1.307146e+00
  1.814994e+01    1.298293e+00
  1.818169e+01    1.311062e+00
  1.821344e+01    1.280309e+00
  1.824519e+01    1.299612e+00
  1.827694e+01    1.289505e+00
  1.830869e+01    1.262148e+00
  1.834044e+01    1.260182e+00
  1.837220e+01    1.244491e+00
  1.840395e+01    1.248853e+00
  1.843570e+01    1.254797e+00
  1.846745e+01    1.262199e+00
  1.849920e+01    1.202892e+00
  1.853095e+01    1.272785e+00
  1.856270e+01    1.216262e+00
  1.859445e+01    1.252769e+00
  1.862620e+01    1.252502e+00
  1.865796e+01    1.246756e+00
  1.868971e+01    1.250175e+00
  1.872146e+01    1.247244e+00
  1.875321e+01    1.237464e+00
  1.878496e+01    1.237129e+00
  1.881671e+01    1.224932e+00
  1.884846e+01    1.227385e+00
  1.888021e+01    1.199620e+00
  1.891196e+01    1.209208e+00
  1.894372e+01    1.233728e+00
  1.897547e+01    1.195316e+00
  1.900722e+01    1.188205e+00
  1.903897e+01    1.224798e+00
  1.907072e+01    1.198281e+00
  1.910247e+01    1.172632e+00
  1.913422e+01    1.210657e+00
  1.916597e+01    1.191746e+00
  1.919773e+01    1.189749e+00
  1.922948e+01    1.194910e+00
  1.926123e+01    1.177033e+00
  1.929298e+01    1.197559e+00
  1.932473e+01    1.175539e+00
  1.935648e+01    1.128047e+00
  1.938823e+01    1.187978e+00
  1.941998e+01    1.176638e+00
  1.945173e+01    1.146033e+00
  1.948349e+01    1.148287e+00
  1.951524e+01    1.155824e+00
  1.954699e+01    1.159696e+00
  1.957874e+01    1.137141e+00
  1.961049e+01    1.177101e+00
  1.964224e+01    1.170048e+00
  1.967399e+01    1.159390e+00
  1.970574e+01    1.154866e+00
  1.973749e+01    1.149848e+00
  1.976925e+01    1.133500e+00
  1.980100e+01    1.163540e+00
  1.983275e+01    1.167746e+00
  1.986450e+01    1.126610e+00
  1.989625e+01    1.138118e+00
  1.992800e+01    1.146796e+00
  1.995975e+01    1.142275e+00
  1.999150e+01    1.109701e+00
  2.002325e+01    1.119853e+00
  2.005501e+01    1.105414e+00
  2.008676e+01    1.091985e+00
  2.011851e+01    1.117893e+00
  2.015026e+01    1.110143e+00
  2.018201e+01    1.137360e+00
  2.021376e+01    1.107512e+00
  2.024551e+01    1.120568e+00
  2.027726e+01    1.091789e+00
  2.030902e+01    1.093283e+00
  2.034077e+01    1.085336e+00
  2.037252e+01    1.105125e+00
  2.040427e+01    1.097652e+00
  2.043602e+01    1.105632e+00
  2.046777e+01    1.120972e+00
  2.049952e+01    1.081419e+00
  2.053127e+01    1.110882e+00
  2.056302e+01    1.086253e+00
  2.059478e+01    1.080044e+00
  2.062653e+01    1.089776e+00
  2.065828e+01    1.098580e+00
  2.069003e+01    1.097298e+00
  2.072178e+01    1.050214e+00
  2.075353e+01    1.092128e+00
  2.078528e+01    1.078323e+00
  2.081703e+01    1.103011e+00
  2.084878e+01    1.077574e+00
  2.088054e+01    1.066736e+00
  2.091229e+01    1.083239e+00
  2.094404e+01    1.068897e+00
  2.097579e+01    1.089260e+00
  2.100754e+01    1.081296e+00
  2.103929e+01    1.109630e+00
  2.107104e+01    1.100282e+00
  2.110279e+01    1.093748e+00
  2.113455e+01    1.089382e+00
  2.116630e+01    1.099941e+00
  2.119805e+01    1.111724e+00
  2.122980e+01    1.114877e+00
  2.126155e+01    1.112362e+00
  2.129330e+01    1.117184e+00
  2.132505e+01    1.138623e+00
  2.135680e+01    1.167315e+00
  2.138855e+01    1.161427e+00
  2.142031e+01    1.207140e+00
  2.145206e+01    1.233328e+00
  2.148381e+01    1.263193e+00
  2.151556e+01    1.297574e+00
  2.154731e+01    1.345944e+00
  2.157906e+01    1.471951e+00
  2.161081e+01    1.601629e+00
  2.164256e+01    1.750755e+00
  2.167431e+01    2.021253e+00
  2.170607e+01    2.434141e+00
  2.173782e+01    2.992023e+00
  2.176957e+01    3.917522e+00
  2.180132e+01    5.144700e+00
  2.183307e+01    6.631844e+00
  2.186482e+01    8.337376e+00
  2.189657e+01    9.764914e+00
  2.192832e+01    1.025674e+01
  2.196007e+01    9.252059e+00
  2.199183e+01    7.061545e+00
  2.202358e+01    5.040813e+00
  2.205533e+01    3.672245e+00
  2.208708e+01    2.836480e+00
  2.211883e+01    2.269261e+00
  2.215058e+01    1.927761e+00
  2.218233e+01    1.673799e+00
  2.221408e+01    1.514217e+00
  2.224584e+01    1.397821e+00
  2.227759e+01    1.326912e+00
  2.230934e+01    1.228155e+00
  2.234109e+01    1.213153e+00
  2.237284e+01    1.170021e+00
  2.240459e+01    1.111343e+00
  2.243634e+01    1.091719e+00
  2.246809e+01    1.085342e+00
  2.249984e+01    1.036490e+00
  2.253160e+01    1.029610e+00
  2.256335e+01    1.024686e+00
  2.259510e+01    9.957461e-01
  2.262685e+01    1.007873e+00
  2.265860e+01    9.688914e-01
  2.269035e+01    9.744945e-01
  2.272210e+01    9.656568e-01
  2.275385e+01    9.408483e-01
  2.278560e+01    9.150579e-01
  2.281736e+01    9.365445e-01
  2.284911e+01    9.343948e-01
  2.288086e+01    9.255376e-01
  2.291261e+01    9.055113e-01
  2.294436e+01    9.092755e-01
  2.297611e+01    9.062130e-01
  2.300786e+01    9.076174e-01
  2.303961e+01    8.918660e-01
  2.307137e+01    8.897329e-01
  2.310312e+01    8.926101e-01
  2.313487e+01    8.841748e-01
  2.316662e+01    8.756534e-01
  2.319837e+01    8.907181e-01
  2.323012e+01    8.806273e-01
  2.326187e+01    8.809838e-01
  2.329362e+01    8.782527e-01
  2.332537e+01    8.674838e-01
  2.335713e+01    8.460881e-01
  2.338888e+01    8.706334e-01
  2.342063e+01    8.336067e-01
  2.345238e+01    8.498831e-01
  2.348413e+01    8.615221e-01
  2.351588e+01    8.380422e-01
  2.354763e+01    8.471996e-01
  2.357938e+01    8.521332e-01
  2.361113e+01    8.414868e-01
  2.364289e+01    8.497412e-01
  2.367464e+01    8.230116e-01
  2.370639e+01    8.526143e-01
  2.373814e+01    8.162426e-01
  2.376989e+01    8.311161e-01
  2.380164e+01    8.109817e-01
  2.383339e+01    7.997653e-01
  2.386514e+01    8.279200e-01
  2.389689e+01    8.173900e-01
  2.392865e+01    8.103238e-01
  2.396040e+01    7.967457e-01
  2.399215e+01    7.998892e-01
  2.402390e+01    8.073741e-01
  2.405565e+01    7.861542e-01
  2.408740e+01    7.966921e-01
  2.411915e+01    7.820016e-01
  2.415090e+01    7.884159e-01
  2.418266e+01    7.784345e-01
  2.421441e+01    8.018128e-01
  2.424616e+01    7.896112e-01
  2.427791e+01    7.974272e-01
  2.430966e+01    7.949084e-01
  2.434141e+01    8.047126e-01
  2.437316e+01    7.780899e-01
  2.440491e+01    7.910389e-01
  2.443666e+01    7.935160e-01
  2.446842e+01    7.827185e-01
  2.450017e+01    8.203126e-01
  2.453192e+01    7.847330e-01
  2.456367e+01    7.866137e-01
  2.459542e+01    7.876849e-01
  2.462717e+01    8.126574e-01
  2.465892e+01    7.987490e-01
  2.469067e+01    8.104665e-01
  2.472242e+01    7.896530e-01
  2.475418e+01    7.872378e-01
  2.478593e+01    7.997825e-01
  2.481768e+01    7.963997e-01
  2.484943e+01    7.932110e-01
  2.488118e+01    7.905551e-01
  2.491293e+01    7.975738e-01
  2.494468e+01    8.092883e-01
  2.497643e+01    8.138911e-01
  2.500819e+01    8.077636e-01
  2.503994e+01    8.159220e-01
  2.507169e+01    8.105776e-01
  2.510344e+01    8.204318e-01
  2.513519e+01    8.197780e-01
  2.516694e+01    8.279801e-01
  2.519869e+01    8.574861e-01
  2.523044e+01    8.392085e-01
  2.526219e+01    8.479667e-01
  2.529395e+01    8.770401e-01
  2.532570e+01    8.777021e-01
  2.535745e+01    9.032708e-01
  2.538920e+01    8.940195e-01
  2.542095e+01    9.231876e-01
  2.545270e+01    9.425253e-01
  2.548445e+01    9.564694e-01
  2.551620e+01    9.745132e-01
  2.554795e+01    1.037195e+00
  2.557971e+01    1.076342e+00
  2.561146e+01    1.130130e+00
  2.564321e+01    1.178031e+00
  2.567496e+01    1.309101e+00
  2.570671e+01    1.432363e+00
  2.573846e+01    1.626696e+00
  2.577021e+01    1.911761e+00
  2.580196e+01    2.379140e+00
  2.583371e+01    3.061011e+00
  2.586547e+01    3.986645e+00
  2.589722e+01    5.212651e+00
  2.592897e+01    6.660226e+00
  2.596072e+01    7.959294e+00
  2.599247e+01    8.566353e+00
  2.602422e+01    7.796468e+00
  2.605597e+01    6.247761e+00
  2.608772e+01    4.655934e+00
  2.611948e+01    3.359442e+00
  2.615123e+01    2.596174e+00
  2.618298e+01    2.029087e+00
  2.621473e+01    1.705838e+00
  2.624648e+01    1.519517e+00
  2.627823e+01    1.371907e+00
  2.630998e+01    1.231939e+00
  2.634173e+01    1.168458e+00
  2.637348e+01    1.118428e+00
  2.640524e+01    1.040233e+00
  2.643699e+01    1.012173e+00
  2.646874e+01    9.908165e-01
  2.650049e+01    9.738866e-01
  2.653224e+01    9.725093e-01
  2.656399e+01    9.609974e-01
  2.659574e+01    9.237946e-01
  2.662749e+01    9.398810e-01
  2.665924e+01    9.232962e-01
  2.669100e+01    9.078465e-01
  2.672275e+01    8.757849e-01
  2.675450e+01    8.989605e-01
  2.678625e+01    9.165151e-01
  2.681800e+01    9.078283e-01
  2.684975e+01    9.012379e-01
  2.688150e+01    9.130243e-01
  2.691325e+01    9.393055e-01
  2.694501e+01    9.558194e-01
  2.697676e+01    9.610676e-01
  2.700851e+01    1.013072e+00
  2.704026e+01    1.060883e+00
  2.707201e+01    1.201807e+00
  2.710376e+01    1.319075e+00
  2.713551e+01    1.534129e+00
  2.716726e+01    1.809786e+00
  2.719901e+01    2.124241e+00
  2.723077e+01    2.397686e+00
  2.726252e+01    2.463120e+00
  2.729427e+01    2.207328e+00
  2.732602e+01    1.865861e+00
  2.735777e+01    1.553885e+00
  2.738952e+01    1.317432e+00
  2.742127e+01    1.176297e+00
  2.745302e+01    1.064964e+00
  2.748477e+01    9.932181e-01
  2.751653e+01    9.345818e-01
  2.754828e+01    9.388945e-01
  2.758003e+01    8.830975e-01
  2.761178e+01    8.833315e-01
  2.764353e+01    8.369137e-01
  2.767528e+01    8.809947e-01
  2.770703e+01    8.394672e-01
  2.773878e+01    8.407776e-01
  2.777054e+01    8.299105e-01
  2.780229e+01    8.460000e-01
  2.783404e+01    8.329439e-01
  2.786579e+01    8.137203e-01
  2.789754e+01    7.879453e-01
  2.792929e+01    8.236433e-01
  2.796104e+01    8.293262e-01
  2.799279e+01    8.048839e-01
  2.802454e+01    7.896113e-01
  2.805630e+01    7.969144e-01
  2.808805e+01    7.886054e-01
  2.811980e+01    7.832652e-01
  2.815155e+01    7.904373e-01
  2.818330e+01    7.948746e-01
  2.821505e+01    7.956744e-01
  2.824680e+01    7.881547e-01
  2.827855e+01    7.913792e-01
  2.831030e+01    7.700841e-01
  2.834206e+01    7.729357e-01
  2.837381e+01    7.623535e-01
  2.840556e+01    7.724849e-01
  2.843731e+01    7.664303e-01
  2.846906e+01    7.700729e-01
  2.850081e+01    7.527209e-01
  2.853256e+01    7.614062e-01
  2.856431e+01    7.721537e-01
  2.859606e+01    7.489969e-01
  2.862782e+01    7.800443e-01
  2.865957e+01    7.640980e-01
  2.869132e+01    7.684063e-01
  2.872307e+01    7.586525e-01
  2.875482e+01    7.398621e-01
  2.878657e+01    7.637300e-01
  2.881832e+01    7.447546e-01
  2.885007e+01    7.744600e-01
  2.888183e+01    7.481146e-01
  2.891358e+01    7.588484e-01
  2.894533e+01    7.624196e-01
  2.897708e+01    7.419079e-01
  2.900883e+01    7.379087e-01
  2.904058e+01    7.446035e-01
  2.907233e+01    7.534207e-01
  2.910408e+01    7.426085e-01
  2.913583e+01    7.403418e-01
  2.916759e+01    7.363708e-01
  2.919934e+01    7.483859e-01
  2.923109e+01    7.379929e-01
  2.926284e+01    7.460158e-01
  2.929459e+01    7.352464e-01
  2.932634e+01    7.329056e-01
  2.935809e+01    7.291912e-01
  2.938984e+01    7.181686e-01
  2.942159e+01    7.467780e-01
  2.945335e+01    7.369487e-01
  2.948510e+01    7.330695e-01
  2.951685e+01    7.465115e-01
  2.954860e+01    7.214971e-01
  2.958035e+01    7.466009e-01
  2.961210e+01    7.499557e-01
  2.964385e+01    7.326885e-01
  2.967560e+01    7.349559e-01
  2.970736e+01    7.287291e-01
  2.973911e+01    7.146609e-01
  2.977086e+01    7.078024e-01
  2.980261e+01    7.230499e-01
  2.983436e+01    7.347701e-01
  2.986611e+01    7.302019e-01
  2.989786e+01    7.123880e-01
  2.992961e+01    7.278513e-01
  2.996136e+01    7.175624e-01
  2.999312e+01    7.295594e-01
  3.002487e+01    7.332780e-01
  3.005662e+01    7.450017e-01
  3.008837e+01    7.332858e-01
  3.012012e+01    7.415608e-01
  3.015187e+01    7.189372e-01
  3.018362e+01    7.273810e-01
  3.021537e+01    7.233969e-01
  3.024712e+01    7.342539e-01
  3.027888e+01    7.127206e-01
  3.031063e+01    7.200038e-01
  3.034238e+01    7.293002e-01
  3.037413e+01    7.421572e-01
  3.040588e+01    7.133723e-01
  3.043763e+01    7.155570e-01
  3.046938e+01    7.171427e-01
  3.050113e+01    7.310013e-01
  3.053288e+01    7.047772e-01
  3.056464e+01    7.252967e-01
  3.059639e+01    7.153097e-01
  3.062814e+01    6.987396e-01
  3.065989e+01    7.060663e-01
  3.069164e+01    7.194323e-01
  3.072339e+01    7.272357e-01
  3.075514e+01    7.268840e-01
  3.078689e+01    7.236526e-01
  3.081865e+01    7.000435e-01
  3.085040e+01    7.266546e-01
  3.088215e+01    7.429010e-01
  3.091390e+01    7.048550e-01
  3.094565e+01    7.016836e-01
  3.097740e+01    6.963102e-01
  3.100915e+01    7.323120e-01
  3.104090e+01    7.177187e-01
  3.107265e+01    7.152786e-01
  3.110441e+01    7.227899e-01
  3.113616e+01    7.246278e-01
  3.116791e+01    7.213036e-01
  3.119966e+01    7.140703e-01
  3.123141e+01    7.351832e-01
  3.126316e+01    7.629641e-01
  3.129491e+01    7.332283e-01
  3.132666e+01    7.598786e-01
  3.135841e+01    7.353855e-01
  3.139017e+01    7.500231e-01
  3.142192e+01    7.530965e-01
  3.145367e+01    7.629312e-01
  3.148542e+01    7.617198e-01
  3.151717e+01    7.656713e-01
  3.154892e+01    7.792195e-01
  3.158067e+01    8.361973e-01
  3.161242e+01    8.311765e-01
  3.164418e+01    8.452649e-01
  3.167593e+01    8.891074e-01
  3.170768e+01    9.216797e-01
  3.173943e+01    9.871932e-01
  3.177118e+01    1.104342e+00
  3.180293e+01    1.267613e+00
  3.183468e+01    1.485469e+00
  3.186643e+01    1.806233e+00
  3.189818e+01    2.189586e+00
  3.192994e+01    2.413163e+00
  3.196169e+01    2.405277e+00
  3.199344e+01    2.187718e+00
  3.202519e+01    1.826820e+00
  3.205694e+01    1.471917e+00
  3.208869e+01    1.214840e+00
  3.212044e+01    1.087812e+00
  3.215219e+01    9.931505e-01
  3.218394e+01    9.046465e-01
  3.221570e+01    8.606318e-01
  3.224745e+01    8.459182e-01
  3.227920e+01    8.131685e-01
  3.231095e+01    7.671215e-01
  3.234270e+01    7.658305e-01
  3.237445e+01    7.818561e-01
  3.240620e+01    7.406229e-01
  3.243795e+01    7.592421e-01
  3.246970e+01    7.622938e-01
  3.250146e+01    7.353249e-01
  3.253321e+01    7.529924e-01
  3.254908e+01    7.473478e-01