File: XRD/Activation ramp/2024-07-27_002_Ru-CGO-ex_Activtation_ramp_000002_data_000004.dat
# == pyFAI calibration ==
# Distance Sample to Detector: 0.4 m
# PONI: 9.750e-02, 1.135e-01 m
# Rotations: -0.000175 0.000000 -0.000000 rad
#
# == Fit2d calibration ==
# Distance Sample-beamCenter: 400.000 mm
# Center: x=1514.000, y=1300.000 pix
# Tilt: 0.010 deg  TiltPlanRot: 0.010 deg
#
# Detector Detector	 Spline= None	 PixelSize= 7.500e-05, 7.500e-05 m
#    Detector has a mask: False
#    Detector has a dark current: False
#    detector has a flat field: False
#
# Wavelength: 6.888e-11 m
# Mask applied: user provided
# Dark current applied: False
# Flat field applied: False
# Polarization factor: 0.99
# Normalization factor: 1.0
# --> /home/myspot/data/2024_07_Rosario/Ru-CGO-ex/2024-07-27_002_Ru-CGO-ex_Activtation_ramp_000002_data_000004.dat
#       q_nm^-1             I
  2.003187e-02    0.000000e+00
  5.178302e-02    0.000000e+00
  8.353417e-02    8.688377e-02
  1.152853e-01    6.774820e-02
  1.470365e-01    4.618854e-02
  1.787876e-01    2.044095e-03
  2.105388e-01    4.321308e-02
  2.422899e-01    4.052259e-02
  2.740411e-01    4.070939e-02
  3.057922e-01    2.841861e-02
  3.375433e-01    3.389945e-02
  3.692945e-01    3.829233e-02
  4.010456e-01    3.395982e-02
  4.327968e-01    5.275587e-02
  4.645479e-01    2.585787e-02
  4.962991e-01    3.366657e-02
  5.280502e-01    2.634867e-02
  5.598014e-01    4.067273e-02
  5.915525e-01    6.134346e-02
  6.233037e-01    2.299960e-02
  6.550548e-01    2.970741e-02
  6.868060e-01    2.556384e-02
  7.185571e-01    4.191050e-02
  7.503083e-01    6.283568e-02
  7.820594e-01    1.250844e-01
  8.138106e-01    2.022970e-01
  8.455617e-01    3.466740e-01
  8.773129e-01    5.100796e-01
  9.090640e-01    5.575834e-01
  9.408152e-01    7.190273e-01
  9.725663e-01    9.537368e-01
  1.004317e+00    1.057086e+00
  1.036069e+00    1.161332e+00
  1.067820e+00    1.281686e+00
  1.099571e+00    1.383370e+00
  1.131322e+00    1.516069e+00
  1.163073e+00    1.448691e+00
  1.194824e+00    1.688095e+00
  1.226575e+00    2.241373e+00
  1.258327e+00    2.538541e+00
  1.290078e+00    2.371639e+00
  1.321829e+00    2.626351e+00
  1.353580e+00    2.714544e+00
  1.385331e+00    2.823848e+00
  1.417082e+00    2.769654e+00
  1.448834e+00    2.858203e+00
  1.480585e+00    3.058242e+00
  1.512336e+00    3.039220e+00
  1.544087e+00    3.193531e+00
  1.575838e+00    3.093984e+00
  1.607589e+00    3.005078e+00
  1.639340e+00    2.979017e+00
  1.671092e+00    3.009073e+00
  1.702843e+00    3.042392e+00
  1.734594e+00    2.992983e+00
  1.766345e+00    2.856483e+00
  1.798096e+00    2.753875e+00
  1.829847e+00    2.840898e+00
  1.861598e+00    2.925494e+00
  1.893350e+00    2.983072e+00
  1.925101e+00    2.837150e+00
  1.956852e+00    2.869457e+00
  1.988603e+00    2.755046e+00
  2.020354e+00    2.770479e+00
  2.052105e+00    2.856271e+00
  2.083856e+00    2.963676e+00
  2.115608e+00    2.778001e+00
  2.147359e+00    2.798873e+00
  2.179110e+00    2.801437e+00
  2.210861e+00    2.879425e+00
  2.242612e+00    2.786131e+00
  2.274363e+00    2.801260e+00
  2.306115e+00    2.889133e+00
  2.337866e+00    2.774627e+00
  2.369617e+00    2.811296e+00
  2.401368e+00    2.807687e+00
  2.433119e+00    2.791438e+00
  2.464870e+00    2.840928e+00
  2.496621e+00    2.932331e+00
  2.528373e+00    2.974612e+00
  2.560124e+00    2.857462e+00
  2.591875e+00    2.838742e+00
  2.623626e+00    2.965562e+00
  2.655377e+00    2.846262e+00
  2.687128e+00    2.847924e+00
  2.718879e+00    2.793281e+00
  2.750631e+00    2.901915e+00
  2.782382e+00    2.895422e+00
  2.814133e+00    2.855922e+00
  2.845884e+00    2.946476e+00
  2.877635e+00    2.987911e+00
  2.909386e+00    2.816404e+00
  2.941137e+00    2.905778e+00
  2.972889e+00    3.022195e+00
  3.004640e+00    2.917310e+00
  3.036391e+00    2.964813e+00
  3.068142e+00    2.883943e+00
  3.099893e+00    2.939546e+00
  3.131644e+00    2.899375e+00
  3.163395e+00    2.863810e+00
  3.195147e+00    3.029109e+00
  3.226898e+00    3.095051e+00
  3.258649e+00    2.988894e+00
  3.290400e+00    2.898262e+00
  3.322151e+00    2.980561e+00
  3.353902e+00    2.867872e+00
  3.385654e+00    3.004777e+00
  3.417405e+00    3.066442e+00
  3.449156e+00    3.048595e+00
  3.480907e+00    3.013731e+00
  3.512658e+00    2.959736e+00
  3.544409e+00    3.045166e+00
  3.576160e+00    3.089926e+00
  3.607912e+00    2.978758e+00
  3.639663e+00    2.987427e+00
  3.671414e+00    3.111351e+00
  3.703165e+00    2.986085e+00
  3.734916e+00    2.982527e+00
  3.766667e+00    3.029453e+00
  3.798418e+00    3.008263e+00
  3.830170e+00    3.085450e+00
  3.861921e+00    3.067058e+00
  3.893672e+00    3.047455e+00
  3.925423e+00    3.118530e+00
  3.957174e+00    3.015323e+00
  3.988925e+00    3.103426e+00
  4.020676e+00    3.080651e+00
  4.052428e+00    3.099535e+00
  4.084179e+00    3.046811e+00
  4.115930e+00    2.977284e+00
  4.147681e+00    3.094352e+00
  4.179432e+00    3.013871e+00
  4.211183e+00    3.054903e+00
  4.242935e+00    3.063910e+00
  4.274686e+00    3.067695e+00
  4.306437e+00    3.012231e+00
  4.338188e+00    3.084169e+00
  4.369939e+00    3.024253e+00
  4.401690e+00    3.082009e+00
  4.433441e+00    3.164668e+00
  4.465193e+00    3.149020e+00
  4.496944e+00    3.033748e+00
  4.528695e+00    3.157170e+00
  4.560446e+00    3.109502e+00
  4.592197e+00    3.222738e+00
  4.623948e+00    3.141978e+00
  4.655699e+00    3.095989e+00
  4.687451e+00    3.154065e+00
  4.719202e+00    3.117985e+00
  4.750953e+00    3.184333e+00
  4.782704e+00    3.099200e+00
  4.814455e+00    3.122183e+00
  4.846206e+00    3.175673e+00
  4.877957e+00    3.199622e+00
  4.909709e+00    3.193407e+00
  4.941460e+00    3.099590e+00
  4.973211e+00    3.140248e+00
  5.004962e+00    3.201256e+00
  5.036713e+00    3.084660e+00
  5.068464e+00    3.142688e+00
  5.100216e+00    3.169904e+00
  5.131967e+00    3.137766e+00
  5.163718e+00    3.159963e+00
  5.195469e+00    3.114441e+00
  5.227220e+00    3.129391e+00
  5.258971e+00    3.162012e+00
  5.290722e+00    3.186158e+00
  5.322474e+00    3.225332e+00
  5.354225e+00    3.146010e+00
  5.385976e+00    3.212387e+00
  5.417727e+00    3.146148e+00
  5.449478e+00    3.076850e+00
  5.481229e+00    3.174523e+00
  5.512980e+00    3.132097e+00
  5.544732e+00    3.117388e+00
  5.576483e+00    3.087005e+00
  5.608234e+00    3.148050e+00
  5.639985e+00    3.109669e+00
  5.671736e+00    3.126191e+00
  5.703487e+00    3.061311e+00
  5.735238e+00    3.126997e+00
  5.766990e+00    3.158583e+00
  5.798741e+00    3.013660e+00
  5.830492e+00    3.153947e+00
  5.862243e+00    3.132477e+00
  5.893994e+00    3.184815e+00
  5.925745e+00    3.176722e+00
  5.957497e+00    3.051307e+00
  5.989248e+00    3.069494e+00
  6.020999e+00    2.983440e+00
  6.052750e+00    3.065306e+00
  6.084501e+00    3.130517e+00
  6.116252e+00    3.180611e+00
  6.148003e+00    3.081782e+00
  6.179755e+00    3.075626e+00
  6.211506e+00    3.067681e+00
  6.243257e+00    3.122200e+00
  6.275008e+00    3.083698e+00
  6.306759e+00    3.068234e+00
  6.338510e+00    3.127332e+00
  6.370261e+00    3.101961e+00
  6.402013e+00    3.003183e+00
  6.433764e+00    3.120069e+00
  6.465515e+00    3.025329e+00
  6.497266e+00    3.029251e+00
  6.529017e+00    3.087733e+00
  6.560768e+00    3.022425e+00
  6.592519e+00    3.061557e+00
  6.624271e+00    3.130819e+00
  6.656022e+00    3.088420e+00
  6.687773e+00    3.069194e+00
  6.719524e+00    2.997648e+00
  6.751275e+00    3.102128e+00
  6.783026e+00    3.032750e+00
  6.814777e+00    3.065053e+00
  6.846529e+00    3.046394e+00
  6.878280e+00    3.080912e+00
  6.910031e+00    3.056291e+00
  6.941782e+00    3.094697e+00
  6.973533e+00    3.153991e+00
  7.005284e+00    3.053602e+00
  7.037036e+00    3.024394e+00
  7.068787e+00    2.990169e+00
  7.100538e+00    3.089998e+00
  7.132289e+00    3.038138e+00
  7.164040e+00    3.068556e+00
  7.195791e+00    3.091226e+00
  7.227542e+00    3.106359e+00
  7.259294e+00    3.043729e+00
  7.291045e+00    3.038302e+00
  7.322796e+00    3.051850e+00
  7.354547e+00    2.995044e+00
  7.386298e+00    3.030074e+00
  7.418049e+00    3.053349e+00
  7.449800e+00    2.986256e+00
  7.481552e+00    3.006899e+00
  7.513303e+00    3.021741e+00
  7.545054e+00    3.016719e+00
  7.576805e+00    3.017666e+00
  7.608556e+00    3.017558e+00
  7.640307e+00    3.041667e+00
  7.672058e+00    3.060517e+00
  7.703810e+00    2.969296e+00
  7.735561e+00    3.005120e+00
  7.767312e+00    2.985422e+00
  7.799063e+00    3.019992e+00
  7.830814e+00    2.970032e+00
  7.862565e+00    2.974184e+00
  7.894317e+00    2.943527e+00
  7.926068e+00    2.979613e+00
  7.957819e+00    3.034258e+00
  7.989570e+00    2.888555e+00
  8.021321e+00    2.896883e+00
  8.053072e+00    2.969213e+00
  8.084823e+00    2.985502e+00
  8.116575e+00    2.958230e+00
  8.148326e+00    2.923320e+00
  8.180077e+00    2.996357e+00
  8.211828e+00    2.972299e+00
  8.243579e+00    3.033774e+00
  8.275330e+00    2.936686e+00
  8.307081e+00    2.963523e+00
  8.338833e+00    2.898873e+00
  8.370584e+00    2.921005e+00
  8.402335e+00    2.943327e+00
  8.434086e+00    2.886711e+00
  8.465837e+00    2.941040e+00
  8.497588e+00    2.951135e+00
  8.529339e+00    2.982277e+00
  8.561091e+00    2.951483e+00
  8.592842e+00    2.857335e+00
  8.624593e+00    2.942461e+00
  8.656344e+00    2.911753e+00
  8.688095e+00    2.963590e+00
  8.719846e+00    2.874049e+00
  8.751598e+00    2.923312e+00
  8.783349e+00    2.854338e+00
  8.815100e+00    2.868861e+00
  8.846851e+00    2.836310e+00
  8.878602e+00    2.863419e+00
  8.910353e+00    2.874946e+00
  8.942104e+00    2.879379e+00
  8.973856e+00    2.824602e+00
  9.005607e+00    2.853642e+00
  9.037358e+00    2.851763e+00
  9.069109e+00    2.837656e+00
  9.100860e+00    2.862382e+00
  9.132611e+00    2.849694e+00
  9.164362e+00    2.820246e+00
  9.196114e+00    2.877890e+00
  9.227865e+00    2.858671e+00
  9.259616e+00    2.912223e+00
  9.291367e+00    2.832835e+00
  9.323118e+00    2.807312e+00
  9.354869e+00    2.809192e+00
  9.386620e+00    2.793357e+00
  9.418372e+00    2.819772e+00
  9.450123e+00    2.833449e+00
  9.481874e+00    2.770004e+00
  9.513625e+00    2.820460e+00
  9.545376e+00    2.773465e+00
  9.577127e+00    2.794043e+00
  9.608878e+00    2.791975e+00
  9.640630e+00    2.825805e+00
  9.672381e+00    2.748496e+00
  9.704132e+00    2.729300e+00
  9.735883e+00    2.769196e+00
  9.767634e+00    2.728299e+00
  9.799385e+00    2.776983e+00
  9.831137e+00    2.761928e+00
  9.862888e+00    2.737869e+00
  9.894639e+00    2.780343e+00
  9.926390e+00    2.658570e+00
  9.958141e+00    2.721749e+00
  9.989892e+00    2.758209e+00
  1.002164e+01    2.749527e+00
  1.005339e+01    2.778318e+00
  1.008515e+01    2.648003e+00
  1.011690e+01    2.747937e+00
  1.014865e+01    2.705713e+00
  1.018040e+01    2.672084e+00
  1.021215e+01    2.719501e+00
  1.024390e+01    2.671540e+00
  1.027565e+01    2.715260e+00
  1.030740e+01    2.632623e+00
  1.033915e+01    2.663770e+00
  1.037091e+01    2.695307e+00
  1.040266e+01    2.616171e+00
  1.043441e+01    2.695679e+00
  1.046616e+01    2.656593e+00
  1.049791e+01    2.658834e+00
  1.052966e+01    2.651236e+00
  1.056141e+01    2.653308e+00
  1.059316e+01    2.576528e+00
  1.062492e+01    2.633391e+00
  1.065667e+01    2.610367e+00
  1.068842e+01    2.562310e+00
  1.072017e+01    2.564650e+00
  1.075192e+01    2.563058e+00
  1.078367e+01    2.555228e+00
  1.081542e+01    2.580125e+00
  1.084717e+01    2.603261e+00
  1.087892e+01    2.557292e+00
  1.091068e+01    2.563157e+00
  1.094243e+01    2.575284e+00
  1.097418e+01    2.520490e+00
  1.100593e+01    2.571585e+00
  1.103768e+01    2.520119e+00
  1.106943e+01    2.534440e+00
  1.110118e+01    2.501319e+00
  1.113293e+01    2.517770e+00
  1.116468e+01    2.465828e+00
  1.119644e+01    2.486861e+00
  1.122819e+01    2.496094e+00
  1.125994e+01    2.430618e+00
  1.129169e+01    2.493374e+00
  1.132344e+01    2.501045e+00
  1.135519e+01    2.480253e+00
  1.138694e+01    2.507185e+00
  1.141869e+01    2.477309e+00
  1.145045e+01    2.421208e+00
  1.148220e+01    2.414369e+00
  1.151395e+01    2.467363e+00
  1.154570e+01    2.405696e+00
  1.157745e+01    2.408159e+00
  1.160920e+01    2.384475e+00
  1.164095e+01    2.423745e+00
  1.167270e+01    2.432734e+00
  1.170445e+01    2.389343e+00
  1.173621e+01    2.371567e+00
  1.176796e+01    2.383593e+00
  1.179971e+01    2.411404e+00
  1.183146e+01    2.408971e+00
  1.186321e+01    2.383631e+00
  1.189496e+01    2.433772e+00
  1.192671e+01    2.340522e+00
  1.195846e+01    2.340542e+00
  1.199021e+01    2.370024e+00
  1.202197e+01    2.427603e+00
  1.205372e+01    2.376244e+00
  1.208547e+01    2.381692e+00
  1.211722e+01    2.376054e+00
  1.214897e+01    2.359102e+00
  1.218072e+01    2.338207e+00
  1.221247e+01    2.349529e+00
  1.224422e+01    2.403008e+00
  1.227597e+01    2.385916e+00
  1.230773e+01    2.421340e+00
  1.233948e+01    2.415580e+00
  1.237123e+01    2.340600e+00
  1.240298e+01    2.341650e+00
  1.243473e+01    2.380740e+00
  1.246648e+01    2.359538e+00
  1.249823e+01    2.369526e+00
  1.252998e+01    2.398103e+00
  1.256174e+01    2.400172e+00
  1.259349e+01    2.435355e+00
  1.262524e+01    2.479749e+00
  1.265699e+01    2.449181e+00
  1.268874e+01    2.469115e+00
  1.272049e+01    2.554227e+00
  1.275224e+01    2.604096e+00
  1.278399e+01    2.664081e+00
  1.281574e+01    2.792220e+00
  1.284750e+01    2.869274e+00
  1.287925e+01    3.059139e+00
  1.291100e+01    3.383112e+00
  1.294275e+01    3.663071e+00
  1.297450e+01    4.346438e+00
  1.300625e+01    5.220344e+00
  1.303800e+01    6.684752e+00
  1.306975e+01    8.994101e+00
  1.310150e+01    1.204932e+01
  1.313326e+01    1.507581e+01
  1.316501e+01    1.794491e+01
  1.319676e+01    2.012995e+01
  1.322851e+01    1.897593e+01
  1.326026e+01    1.456936e+01
  1.329201e+01    1.030858e+01
  1.332376e+01    7.382058e+00
  1.335551e+01    5.628239e+00
  1.338727e+01    4.581096e+00
  1.341902e+01    3.855174e+00
  1.345077e+01    3.421999e+00
  1.348252e+01    3.098316e+00
  1.351427e+01    2.872618e+00
  1.354602e+01    2.785479e+00
  1.357777e+01    2.597270e+00
  1.360952e+01    2.531245e+00
  1.364127e+01    2.451456e+00
  1.367303e+01    2.394474e+00
  1.370478e+01    2.319217e+00
  1.373653e+01    2.299833e+00
  1.376828e+01    2.252193e+00
  1.380003e+01    2.274260e+00
  1.383178e+01    2.242280e+00
  1.386353e+01    2.173368e+00
  1.389528e+01    2.183572e+00
  1.392703e+01    2.164207e+00
  1.395879e+01    2.124433e+00
  1.399054e+01    2.126849e+00
  1.402229e+01    2.086668e+00
  1.405404e+01    2.101948e+00
  1.408579e+01    2.049767e+00
  1.411754e+01    2.038683e+00
  1.414929e+01    2.065963e+00
  1.418104e+01    2.047165e+00
  1.421279e+01    2.035375e+00
  1.424455e+01    2.030566e+00
  1.427630e+01    2.011974e+00
  1.430805e+01    1.992654e+00
  1.433980e+01    1.970191e+00
  1.437155e+01    1.973771e+00
  1.440330e+01    1.957021e+00
  1.443505e+01    2.033023e+00
  1.446680e+01    1.959072e+00
  1.449856e+01    1.975680e+00
  1.453031e+01    1.970946e+00
  1.456206e+01    1.924734e+00
  1.459381e+01    1.916479e+00
  1.462556e+01    1.936654e+00
  1.465731e+01    1.947555e+00
  1.468906e+01    1.952500e+00
  1.472081e+01    1.989615e+00
  1.475256e+01    1.936181e+00
  1.478432e+01    1.964501e+00
  1.481607e+01    1.938002e+00
  1.484782e+01    1.987937e+00
  1.487957e+01    1.990624e+00
  1.491132e+01    1.988671e+00
  1.494307e+01    2.025463e+00
  1.497482e+01    2.113013e+00
  1.500657e+01    2.107470e+00
  1.503832e+01    2.303345e+00
  1.507008e+01    2.466002e+00
  1.510183e+01    2.758912e+00
  1.513358e+01    3.262934e+00
  1.516533e+01    3.953913e+00
  1.519708e+01    4.906953e+00
  1.522883e+01    5.741788e+00
  1.526058e+01    6.365222e+00
  1.529233e+01    6.649753e+00
  1.532409e+01    6.405983e+00
  1.535584e+01    5.242016e+00
  1.538759e+01    4.084630e+00
  1.541934e+01    3.217208e+00
  1.545109e+01    2.732969e+00
  1.548284e+01    2.388673e+00
  1.551459e+01    2.201777e+00
  1.554634e+01    2.090141e+00
  1.557809e+01    1.990720e+00
  1.560985e+01    1.947569e+00
  1.564160e+01    1.850015e+00
  1.567335e+01    1.831945e+00
  1.570510e+01    1.814964e+00
  1.573685e+01    1.787449e+00
  1.576860e+01    1.734576e+00
  1.580035e+01    1.719297e+00
  1.583210e+01    1.728110e+00
  1.586385e+01    1.690567e+00
  1.589561e+01    1.686359e+00
  1.592736e+01    1.713941e+00
  1.595911e+01    1.662641e+00
  1.599086e+01    1.680837e+00
  1.602261e+01    1.664845e+00
  1.605436e+01    1.667767e+00
  1.608611e+01    1.622869e+00
  1.611786e+01    1.592137e+00
  1.614961e+01    1.614777e+00
  1.618137e+01    1.625554e+00
  1.621312e+01    1.616179e+00
  1.624487e+01    1.604097e+00
  1.627662e+01    1.598015e+00
  1.630837e+01    1.576337e+00
  1.634012e+01    1.569884e+00
  1.637187e+01    1.571381e+00
  1.640362e+01    1.557883e+00
  1.643538e+01    1.532919e+00
  1.646713e+01    1.554247e+00
  1.649888e+01    1.515492e+00
  1.653063e+01    1.561587e+00
  1.656238e+01    1.501724e+00
  1.659413e+01    1.511568e+00
  1.662588e+01    1.503690e+00
  1.665763e+01    1.518523e+00
  1.668938e+01    1.512862e+00
  1.672114e+01    1.499184e+00
  1.675289e+01    1.507971e+00
  1.678464e+01    1.500230e+00
  1.681639e+01    1.503142e+00
  1.684814e+01    1.465622e+00
  1.687989e+01    1.487769e+00
  1.691164e+01    1.469939e+00
  1.694339e+01    1.466022e+00
  1.697514e+01    1.447154e+00
  1.700690e+01    1.448383e+00
  1.703865e+01    1.457230e+00
  1.707040e+01    1.459187e+00
  1.710215e+01    1.430432e+00
  1.713390e+01    1.456713e+00
  1.716565e+01    1.421916e+00
  1.719740e+01    1.398546e+00
  1.722915e+01    1.422821e+00
  1.726091e+01    1.450765e+00
  1.729266e+01    1.390933e+00
  1.732441e+01    1.433780e+00
  1.735616e+01    1.419994e+00
  1.738791e+01    1.438814e+00
  1.741966e+01    1.445869e+00
  1.745141e+01    1.394928e+00
  1.748316e+01    1.406533e+00
  1.751491e+01    1.388047e+00
  1.754667e+01    1.357545e+00
  1.757842e+01    1.354434e+00
  1.761017e+01    1.370457e+00
  1.764192e+01    1.377747e+00
  1.767367e+01    1.383740e+00
  1.770542e+01    1.368724e+00
  1.773717e+01    1.386631e+00
  1.776892e+01    1.342246e+00
  1.780067e+01    1.345644e+00
  1.783243e+01    1.348007e+00
  1.786418e+01    1.351143e+00
  1.789593e+01    1.347070e+00
  1.792768e+01    1.332541e+00
  1.795943e+01    1.303536e+00
  1.799118e+01    1.326641e+00
  1.802293e+01    1.324919e+00
  1.805468e+01    1.339100e+00
  1.808643e+01    1.333898e+00
  1.811819e+01    1.315269e+00
  1.814994e+01    1.328758e+00
  1.818169e+01    1.304022e+00
  1.821344e+01    1.310696e+00
  1.824519e+01    1.296996e+00
  1.827694e+01    1.322701e+00
  1.830869e+01    1.288161e+00
  1.834044e+01    1.293059e+00
  1.837220e+01    1.272819e+00
  1.840395e+01    1.263036e+00
  1.843570e+01    1.277307e+00
  1.846745e+01    1.295016e+00
  1.849920e+01    1.264899e+00
  1.853095e+01    1.277731e+00
  1.856270e+01    1.266219e+00
  1.859445e+01    1.265742e+00
  1.862620e+01    1.279588e+00
  1.865796e+01    1.275593e+00
  1.868971e+01    1.253266e+00
  1.872146e+01    1.267787e+00
  1.875321e+01    1.280051e+00
  1.878496e+01    1.258119e+00
  1.881671e+01    1.261420e+00
  1.884846e+01    1.244365e+00
  1.888021e+01    1.245742e+00
  1.891196e+01    1.245386e+00
  1.894372e+01    1.230920e+00
  1.897547e+01    1.219720e+00
  1.900722e+01    1.220626e+00
  1.903897e+01    1.221321e+00
  1.907072e+01    1.215653e+00
  1.910247e+01    1.223926e+00
  1.913422e+01    1.232322e+00
  1.916597e+01    1.217728e+00
  1.919773e+01    1.227476e+00
  1.922948e+01    1.229894e+00
  1.926123e+01    1.240901e+00
  1.929298e+01    1.210817e+00
  1.932473e+01    1.186309e+00
  1.935648e+01    1.228886e+00
  1.938823e+01    1.227167e+00
  1.941998e+01    1.196520e+00
  1.945173e+01    1.180814e+00
  1.948349e+01    1.208977e+00
  1.951524e+01    1.208716e+00
  1.954699e+01    1.206850e+00
  1.957874e+01    1.169297e+00
  1.961049e+01    1.188448e+00
  1.964224e+01    1.172746e+00
  1.967399e+01    1.187026e+00
  1.970574e+01    1.147765e+00
  1.973749e+01    1.173604e+00
  1.976925e+01    1.143956e+00
  1.980100e+01    1.172982e+00
  1.983275e+01    1.137890e+00
  1.986450e+01    1.121577e+00
  1.989625e+01    1.146579e+00
  1.992800e+01    1.147311e+00
  1.995975e+01    1.152301e+00
  1.999150e+01    1.144095e+00
  2.002325e+01    1.143635e+00
  2.005501e+01    1.145263e+00
  2.008676e+01    1.122945e+00
  2.011851e+01    1.135911e+00
  2.015026e+01    1.158717e+00
  2.018201e+01    1.127945e+00
  2.021376e+01    1.123769e+00
  2.024551e+01    1.159969e+00
  2.027726e+01    1.103646e+00
  2.030902e+01    1.115405e+00
  2.034077e+01    1.111380e+00
  2.037252e+01    1.116243e+00
  2.040427e+01    1.108024e+00
  2.043602e+01    1.118542e+00
  2.046777e+01    1.133080e+00
  2.049952e+01    1.118223e+00
  2.053127e+01    1.108784e+00
  2.056302e+01    1.096052e+00
  2.059478e+01    1.103740e+00
  2.062653e+01    1.093728e+00
  2.065828e+01    1.104831e+00
  2.069003e+01    1.109430e+00
  2.072178e+01    1.080367e+00
  2.075353e+01    1.114518e+00
  2.078528e+01    1.120990e+00
  2.081703e+01    1.102824e+00
  2.084878e+01    1.104275e+00
  2.088054e+01    1.109607e+00
  2.091229e+01    1.104143e+00
  2.094404e+01    1.111776e+00
  2.097579e+01    1.117500e+00
  2.100754e+01    1.101265e+00
  2.103929e+01    1.107273e+00
  2.107104e+01    1.141222e+00
  2.110279e+01    1.100838e+00
  2.113455e+01    1.085846e+00
  2.116630e+01    1.128491e+00
  2.119805e+01    1.113627e+00
  2.122980e+01    1.129529e+00
  2.126155e+01    1.107535e+00
  2.129330e+01    1.150252e+00
  2.132505e+01    1.141101e+00
  2.135680e+01    1.192407e+00
  2.138855e+01    1.193096e+00
  2.142031e+01    1.199589e+00
  2.145206e+01    1.225647e+00
  2.148381e+01    1.257877e+00
  2.151556e+01    1.297930e+00
  2.154731e+01    1.382270e+00
  2.157906e+01    1.469902e+00
  2.161081e+01    1.556960e+00
  2.164256e+01    1.721038e+00
  2.167431e+01    1.968012e+00
  2.170607e+01    2.272939e+00
  2.173782e+01    2.759762e+00
  2.176957e+01    3.563195e+00
  2.180132e+01    4.732229e+00
  2.183307e+01    6.253000e+00
  2.186482e+01    7.932887e+00
  2.189657e+01    9.788741e+00
  2.192832e+01    1.113816e+01
  2.196007e+01    1.087056e+01
  2.199183e+01    8.960510e+00
  2.202358e+01    6.500776e+00
  2.205533e+01    4.694367e+00
  2.208708e+01    3.467633e+00
  2.211883e+01    2.704867e+00
  2.215058e+01    2.225194e+00
  2.218233e+01    1.906562e+00
  2.221408e+01    1.679552e+00
  2.224584e+01    1.538064e+00
  2.227759e+01    1.423821e+00
  2.230934e+01    1.320357e+00
  2.234109e+01    1.259062e+00
  2.237284e+01    1.188881e+00
  2.240459e+01    1.166810e+00
  2.243634e+01    1.128370e+00
  2.246809e+01    1.110505e+00
  2.249984e+01    1.058997e+00
  2.253160e+01    1.065745e+00
  2.256335e+01    1.071450e+00
  2.259510e+01    1.039822e+00
  2.262685e+01    1.026798e+00
  2.265860e+01    9.974543e-01
  2.269035e+01    9.681723e-01
  2.272210e+01    1.004888e+00
  2.275385e+01    9.917445e-01
  2.278560e+01    9.560311e-01
  2.281736e+01    9.736388e-01
  2.284911e+01    9.555087e-01
  2.288086e+01    9.444405e-01
  2.291261e+01    9.497615e-01
  2.294436e+01    9.272320e-01
  2.297611e+01    9.363020e-01
  2.300786e+01    9.366629e-01
  2.303961e+01    9.355294e-01
  2.307137e+01    9.018054e-01
  2.310312e+01    9.221732e-01
  2.313487e+01    8.886899e-01
  2.316662e+01    8.755367e-01
  2.319837e+01    8.997581e-01
  2.323012e+01    9.024844e-01
  2.326187e+01    9.017870e-01
  2.329362e+01    8.821362e-01
  2.332537e+01    8.636616e-01
  2.335713e+01    8.714805e-01
  2.338888e+01    8.879830e-01
  2.342063e+01    8.756824e-01
  2.345238e+01    8.768740e-01
  2.348413e+01    8.631878e-01
  2.351588e+01    8.707848e-01
  2.354763e+01    8.486322e-01
  2.357938e+01    8.575198e-01
  2.361113e+01    8.719292e-01
  2.364289e+01    8.657677e-01
  2.367464e+01    8.585811e-01
  2.370639e+01    8.488597e-01
  2.373814e+01    8.550866e-01
  2.376989e+01    8.297865e-01
  2.380164e+01    8.355710e-01
  2.383339e+01    8.205453e-01
  2.386514e+01    8.184698e-01
  2.389689e+01    8.183914e-01
  2.392865e+01    8.406928e-01
  2.396040e+01    8.436322e-01
  2.399215e+01    8.038865e-01
  2.402390e+01    8.250673e-01
  2.405565e+01    7.908106e-01
  2.408740e+01    8.088042e-01
  2.411915e+01    8.097692e-01
  2.415090e+01    8.039944e-01
  2.418266e+01    8.171173e-01
  2.421441e+01    7.942640e-01
  2.424616e+01    7.889913e-01
  2.427791e+01    8.074906e-01
  2.430966e+01    8.028594e-01
  2.434141e+01    8.107308e-01
  2.437316e+01    7.855577e-01
  2.440491e+01    8.050764e-01
  2.443666e+01    8.090858e-01
  2.446842e+01    8.207794e-01
  2.450017e+01    8.046708e-01
  2.453192e+01    7.875355e-01
  2.456367e+01    8.199762e-01
  2.459542e+01    8.097402e-01
  2.462717e+01    7.984238e-01
  2.465892e+01    8.108126e-01
  2.469067e+01    8.283268e-01
  2.472242e+01    8.007417e-01
  2.475418e+01    8.127546e-01
  2.478593e+01    8.373569e-01
  2.481768e+01    8.309472e-01
  2.484943e+01    8.221211e-01
  2.488118e+01    8.079849e-01
  2.491293e+01    8.454274e-01
  2.494468e+01    8.282806e-01
  2.497643e+01    8.359621e-01
  2.500819e+01    8.253431e-01
  2.503994e+01    8.309065e-01
  2.507169e+01    8.444815e-01
  2.510344e+01    8.258364e-01
  2.513519e+01    8.397733e-01
  2.516694e+01    8.580998e-01
  2.519869e+01    8.510174e-01
  2.523044e+01    8.902795e-01
  2.526219e+01    8.626755e-01
  2.529395e+01    8.800227e-01
  2.532570e+01    8.814933e-01
  2.535745e+01    8.978719e-01
  2.538920e+01    9.103096e-01
  2.542095e+01    9.327790e-01
  2.545270e+01    9.441957e-01
  2.548445e+01    9.818415e-01
  2.551620e+01    9.727210e-01
  2.554795e+01    1.014784e+00
  2.557971e+01    1.070001e+00
  2.561146e+01    1.128276e+00
  2.564321e+01    1.159462e+00
  2.567496e+01    1.254366e+00
  2.570671e+01    1.397944e+00
  2.573846e+01    1.565130e+00
  2.577021e+01    1.786251e+00
  2.580196e+01    2.145530e+00
  2.583371e+01    2.757144e+00
  2.586547e+01    3.545496e+00
  2.589722e+01    4.696014e+00
  2.592897e+01    6.149445e+00
  2.596072e+01    7.759829e+00
  2.599247e+01    9.122832e+00
  2.602422e+01    9.192108e+00
  2.605597e+01    7.983311e+00
  2.608772e+01    6.134699e+00
  2.611948e+01    4.485696e+00
  2.615123e+01    3.341524e+00
  2.618298e+01    2.611380e+00
  2.621473e+01    2.090496e+00
  2.624648e+01    1.752201e+00
  2.627823e+01    1.521681e+00
  2.630998e+01    1.400242e+00
  2.634173e+01    1.259798e+00
  2.637348e+01    1.178301e+00
  2.640524e+01    1.106534e+00
  2.643699e+01    1.071302e+00
  2.646874e+01    1.053065e+00
  2.650049e+01    1.059551e+00
  2.653224e+01    1.000004e+00
  2.656399e+01    9.842930e-01
  2.659574e+01    9.754703e-01
  2.662749e+01    9.555966e-01
  2.665924e+01    9.581667e-01
  2.669100e+01    9.294742e-01
  2.672275e+01    9.329088e-01
  2.675450e+01    9.501379e-01
  2.678625e+01    9.301195e-01
  2.681800e+01    9.342397e-01
  2.684975e+01    9.405084e-01
  2.688150e+01    9.353917e-01
  2.691325e+01    9.423007e-01
  2.694501e+01    9.637572e-01
  2.697676e+01    9.833835e-01
  2.700851e+01    1.005105e+00
  2.704026e+01    1.061935e+00
  2.707201e+01    1.161532e+00
  2.710376e+01    1.253797e+00
  2.713551e+01    1.421364e+00
  2.716726e+01    1.674669e+00
  2.719901e+01    2.040643e+00
  2.723077e+01    2.341228e+00
  2.726252e+01    2.675585e+00
  2.729427e+01    2.598353e+00
  2.732602e+01    2.277825e+00
  2.735777e+01    1.879635e+00
  2.738952e+01    1.570844e+00
  2.742127e+01    1.301877e+00
  2.745302e+01    1.199037e+00
  2.748477e+01    1.091650e+00
  2.751653e+01    1.054788e+00
  2.754828e+01    9.826730e-01
  2.758003e+01    9.335251e-01
  2.761178e+01    9.259515e-01
  2.764353e+01    9.033096e-01
  2.767528e+01    8.968294e-01
  2.770703e+01    8.559217e-01
  2.773878e+01    8.604120e-01
  2.777054e+01    8.589681e-01
  2.780229e+01    8.439154e-01
  2.783404e+01    8.599384e-01
  2.786579e+01    8.161040e-01
  2.789754e+01    7.996712e-01
  2.792929e+01    8.382735e-01
  2.796104e+01    7.970646e-01
  2.799279e+01    8.003455e-01
  2.802454e+01    8.149089e-01
  2.805630e+01    7.880179e-01
  2.808805e+01    8.070257e-01
  2.811980e+01    8.296971e-01
  2.815155e+01    8.049909e-01
  2.818330e+01    8.254248e-01
  2.821505e+01    8.048044e-01
  2.824680e+01    7.877458e-01
  2.827855e+01    8.195654e-01
  2.831030e+01    8.079332e-01
  2.834206e+01    7.868700e-01
  2.837381e+01    7.839391e-01
  2.840556e+01    7.833109e-01
  2.843731e+01    7.719476e-01
  2.846906e+01    7.883923e-01
  2.850081e+01    7.727997e-01
  2.853256e+01    7.715992e-01
  2.856431e+01    7.983495e-01
  2.859606e+01    7.736525e-01
  2.862782e+01    7.737766e-01
  2.865957e+01    7.882446e-01
  2.869132e+01    7.618783e-01
  2.872307e+01    7.776518e-01
  2.875482e+01    7.784318e-01
  2.878657e+01    7.711634e-01
  2.881832e+01    7.649300e-01
  2.885007e+01    7.617629e-01
  2.888183e+01    7.562435e-01
  2.891358e+01    7.574235e-01
  2.894533e+01    7.691708e-01
  2.897708e+01    7.615237e-01
  2.900883e+01    7.491746e-01
  2.904058e+01    7.787092e-01
  2.907233e+01    7.666385e-01
  2.910408e+01    7.526885e-01
  2.913583e+01    7.637639e-01
  2.916759e+01    7.583524e-01
  2.919934e+01    7.684199e-01
  2.923109e+01    7.575036e-01
  2.926284e+01    7.435728e-01
  2.929459e+01    7.553566e-01
  2.932634e+01    7.382582e-01
  2.935809e+01    7.365344e-01
  2.938984e+01    7.350469e-01
  2.942159e+01    7.320021e-01
  2.945335e+01    7.367343e-01
  2.948510e+01    7.311317e-01
  2.951685e+01    7.440791e-01
  2.954860e+01    7.394129e-01
  2.958035e+01    7.551315e-01
  2.961210e+01    7.376974e-01
  2.964385e+01    7.152600e-01
  2.967560e+01    7.456414e-01
  2.970736e+01    7.553405e-01
  2.973911e+01    7.214320e-01
  2.977086e+01    7.071252e-01
  2.980261e+01    7.458276e-01
  2.983436e+01    7.358143e-01
  2.986611e+01    7.572315e-01
  2.989786e+01    7.337501e-01
  2.992961e+01    7.452747e-01
  2.996136e+01    7.288880e-01
  2.999312e+01    7.205546e-01
  3.002487e+01    7.465019e-01
  3.005662e+01    7.497340e-01
  3.008837e+01    7.647958e-01
  3.012012e+01    7.389070e-01
  3.015187e+01    7.341746e-01
  3.018362e+01    7.344168e-01
  3.021537e+01    7.419073e-01
  3.024712e+01    7.326369e-01
  3.027888e+01    7.294377e-01
  3.031063e+01    7.565604e-01
  3.034238e+01    7.369282e-01
  3.037413e+01    7.198326e-01
  3.040588e+01    7.214148e-01
  3.043763e+01    7.376342e-01
  3.046938e+01    7.227476e-01
  3.050113e+01    7.221293e-01
  3.053288e+01    7.169896e-01
  3.056464e+01    7.434726e-01
  3.059639e+01    7.267423e-01
  3.062814e+01    7.509043e-01
  3.065989e+01    7.360798e-01
  3.069164e+01    7.254816e-01
  3.072339e+01    7.463725e-01
  3.075514e+01    7.201323e-01
  3.078689e+01    7.251297e-01
  3.081865e+01    7.600572e-01
  3.085040e+01    7.449881e-01
  3.088215e+01    7.299137e-01
  3.091390e+01    7.376708e-01
  3.094565e+01    7.442632e-01
  3.097740e+01    7.100393e-01
  3.100915e+01    7.242194e-01
  3.104090e+01    7.517218e-01
  3.107265e+01    7.192372e-01
  3.110441e+01    7.528814e-01
  3.113616e+01    7.295566e-01
  3.116791e+01    7.195894e-01
  3.119966e+01    7.563321e-01
  3.123141e+01    7.471386e-01
  3.126316e+01    7.496451e-01
  3.129491e+01    7.427031e-01
  3.132666e+01    7.623622e-01
  3.135841e+01    7.345338e-01
  3.139017e+01    7.570081e-01
  3.142192e+01    7.740843e-01
  3.145367e+01    7.841659e-01
  3.148542e+01    8.179397e-01
  3.151717e+01    7.713024e-01
  3.154892e+01    7.957022e-01
  3.158067e+01    8.052023e-01
  3.161242e+01    8.325303e-01
  3.164418e+01    8.611897e-01
  3.167593e+01    8.575718e-01
  3.170768e+01    9.162846e-01
  3.173943e+01    9.860232e-01
  3.177118e+01    1.063755e+00
  3.180293e+01    1.168596e+00
  3.183468e+01    1.399632e+00
  3.186643e+01    1.630187e+00
  3.189818e+01    1.943667e+00
  3.192994e+01    2.342520e+00
  3.196169e+01    2.611482e+00
  3.199344e+01    2.595253e+00
  3.202519e+01    2.321237e+00
  3.205694e+01    1.842219e+00
  3.208869e+01    1.489239e+00
  3.212044e+01    1.298881e+00
  3.215219e+01    1.115547e+00
  3.218394e+01    1.003389e+00
  3.221570e+01    9.420984e-01
  3.224745e+01    9.067016e-01
  3.227920e+01    8.370607e-01
  3.231095e+01    8.226468e-01
  3.234270e+01    8.054520e-01
  3.237445e+01    7.943988e-01
  3.240620e+01    7.895868e-01
  3.243795e+01    7.674005e-01
  3.246970e+01    7.816294e-01
  3.250146e+01    7.619808e-01
  3.253321e+01    7.609791e-01
  3.254908e+01    7.530765e-01