File: XRD/Activation ramp/2024-07-27_002_Ru-CGO-ex_Activtation_ramp_000002_data_000024.dat
# == pyFAI calibration ==
# Distance Sample to Detector: 0.4 m
# PONI: 9.750e-02, 1.135e-01 m
# Rotations: -0.000175 0.000000 -0.000000 rad
#
# == Fit2d calibration ==
# Distance Sample-beamCenter: 400.000 mm
# Center: x=1514.000, y=1300.000 pix
# Tilt: 0.010 deg  TiltPlanRot: 0.010 deg
#
# Detector Detector	 Spline= None	 PixelSize= 7.500e-05, 7.500e-05 m
#    Detector has a mask: False
#    Detector has a dark current: False
#    detector has a flat field: False
#
# Wavelength: 6.888e-11 m
# Mask applied: user provided
# Dark current applied: False
# Flat field applied: False
# Polarization factor: 0.99
# Normalization factor: 1.0
# --> /home/myspot/data/2024_07_Rosario/Ru-CGO-ex/2024-07-27_002_Ru-CGO-ex_Activtation_ramp_000002_data_000024.dat
#       q_nm^-1             I
  2.003187e-02    0.000000e+00
  5.178302e-02    7.387542e-02
  8.353417e-02    2.641175e-01
  1.152853e-01    3.027659e-02
  1.470365e-01    2.606170e-02
  1.787876e-01    0.000000e+00
  2.105388e-01    1.789436e-02
  2.422899e-01    1.568219e-02
  2.740411e-01    8.660309e-03
  3.057922e-01    2.776904e-02
  3.375433e-01    7.221702e-02
  3.692945e-01    6.489197e-03
  4.010456e-01    5.359163e-02
  4.327968e-01    3.952143e-02
  4.645479e-01    5.651355e-02
  4.962991e-01    7.200778e-02
  5.280502e-01    6.178751e-02
  5.598014e-01    2.857003e-02
  5.915525e-01    2.395048e-02
  6.233037e-01    2.160414e-02
  6.550548e-01    7.356135e-02
  6.868060e-01    4.333646e-02
  7.185571e-01    3.338437e-02
  7.503083e-01    5.068218e-02
  7.820594e-01    1.281691e-01
  8.138106e-01    1.773502e-01
  8.455617e-01    3.097506e-01
  8.773129e-01    5.312262e-01
  9.090640e-01    5.581551e-01
  9.408152e-01    7.783155e-01
  9.725663e-01    8.483657e-01
  1.004317e+00    1.085816e+00
  1.036069e+00    1.101696e+00
  1.067820e+00    1.330410e+00
  1.099571e+00    1.312357e+00
  1.131322e+00    1.364105e+00
  1.163073e+00    1.428194e+00
  1.194824e+00    1.699867e+00
  1.226575e+00    2.145299e+00
  1.258327e+00    2.338176e+00
  1.290078e+00    2.425869e+00
  1.321829e+00    2.635261e+00
  1.353580e+00    2.481624e+00
  1.385331e+00    2.679676e+00
  1.417082e+00    2.736506e+00
  1.448834e+00    2.627112e+00
  1.480585e+00    2.853009e+00
  1.512336e+00    3.064275e+00
  1.544087e+00    3.181739e+00
  1.575838e+00    2.947418e+00
  1.607589e+00    2.918315e+00
  1.639340e+00    2.857499e+00
  1.671092e+00    2.880617e+00
  1.702843e+00    2.952799e+00
  1.734594e+00    2.963375e+00
  1.766345e+00    2.914453e+00
  1.798096e+00    2.763563e+00
  1.829847e+00    2.797543e+00
  1.861598e+00    2.943087e+00
  1.893350e+00    2.868656e+00
  1.925101e+00    2.902404e+00
  1.956852e+00    2.583360e+00
  1.988603e+00    2.708892e+00
  2.020354e+00    2.749708e+00
  2.052105e+00    2.779274e+00
  2.083856e+00    2.844222e+00
  2.115608e+00    2.762532e+00
  2.147359e+00    2.776978e+00
  2.179110e+00    2.776614e+00
  2.210861e+00    2.702842e+00
  2.242612e+00    2.670870e+00
  2.274363e+00    2.825734e+00
  2.306115e+00    2.828529e+00
  2.337866e+00    2.821959e+00
  2.369617e+00    2.843197e+00
  2.401368e+00    2.920268e+00
  2.433119e+00    2.825558e+00
  2.464870e+00    2.819693e+00
  2.496621e+00    2.811131e+00
  2.528373e+00    2.864065e+00
  2.560124e+00    2.904901e+00
  2.591875e+00    2.698284e+00
  2.623626e+00    2.764128e+00
  2.655377e+00    2.905111e+00
  2.687128e+00    2.841991e+00
  2.718879e+00    2.961378e+00
  2.750631e+00    2.832017e+00
  2.782382e+00    2.876675e+00
  2.814133e+00    2.838910e+00
  2.845884e+00    2.880709e+00
  2.877635e+00    2.894539e+00
  2.909386e+00    2.891587e+00
  2.941137e+00    2.846219e+00
  2.972889e+00    2.963670e+00
  3.004640e+00    2.989313e+00
  3.036391e+00    2.836482e+00
  3.068142e+00    2.906267e+00
  3.099893e+00    2.934799e+00
  3.131644e+00    2.760841e+00
  3.163395e+00    2.902573e+00
  3.195147e+00    2.921122e+00
  3.226898e+00    2.939233e+00
  3.258649e+00    3.024568e+00
  3.290400e+00    2.892073e+00
  3.322151e+00    2.894608e+00
  3.353902e+00    2.900341e+00
  3.385654e+00    3.030683e+00
  3.417405e+00    2.835648e+00
  3.449156e+00    3.024454e+00
  3.480907e+00    3.022803e+00
  3.512658e+00    2.937526e+00
  3.544409e+00    3.039176e+00
  3.576160e+00    2.991016e+00
  3.607912e+00    2.997249e+00
  3.639663e+00    2.984739e+00
  3.671414e+00    3.002714e+00
  3.703165e+00    2.957740e+00
  3.734916e+00    3.014734e+00
  3.766667e+00    2.985941e+00
  3.798418e+00    3.004846e+00
  3.830170e+00    3.103540e+00
  3.861921e+00    3.030103e+00
  3.893672e+00    3.050885e+00
  3.925423e+00    2.984735e+00
  3.957174e+00    2.964810e+00
  3.988925e+00    3.050372e+00
  4.020676e+00    3.021002e+00
  4.052428e+00    3.043496e+00
  4.084179e+00    3.041043e+00
  4.115930e+00    3.045747e+00
  4.147681e+00    3.112685e+00
  4.179432e+00    3.089475e+00
  4.211183e+00    3.039706e+00
  4.242935e+00    3.142289e+00
  4.274686e+00    3.053382e+00
  4.306437e+00    3.048512e+00
  4.338188e+00    3.022244e+00
  4.369939e+00    3.081676e+00
  4.401690e+00    3.060428e+00
  4.433441e+00    3.103760e+00
  4.465193e+00    3.099870e+00
  4.496944e+00    3.059516e+00
  4.528695e+00    3.016676e+00
  4.560446e+00    3.049927e+00
  4.592197e+00    3.093969e+00
  4.623948e+00    3.104261e+00
  4.655699e+00    3.051634e+00
  4.687451e+00    3.055350e+00
  4.719202e+00    2.997707e+00
  4.750953e+00    3.166820e+00
  4.782704e+00    3.137876e+00
  4.814455e+00    3.128944e+00
  4.846206e+00    3.145327e+00
  4.877957e+00    3.115893e+00
  4.909709e+00    3.225185e+00
  4.941460e+00    3.063569e+00
  4.973211e+00    3.132355e+00
  5.004962e+00    3.070903e+00
  5.036713e+00    3.084025e+00
  5.068464e+00    3.174042e+00
  5.100216e+00    3.178691e+00
  5.131967e+00    3.148258e+00
  5.163718e+00    3.320781e+00
  5.195469e+00    3.080645e+00
  5.227220e+00    3.141149e+00
  5.258971e+00    3.095804e+00
  5.290722e+00    3.046222e+00
  5.322474e+00    3.087806e+00
  5.354225e+00    3.172352e+00
  5.385976e+00    3.103626e+00
  5.417727e+00    3.120117e+00
  5.449478e+00    3.167584e+00
  5.481229e+00    3.132104e+00
  5.512980e+00    3.176119e+00
  5.544732e+00    3.000870e+00
  5.576483e+00    3.081704e+00
  5.608234e+00    3.086596e+00
  5.639985e+00    3.075516e+00
  5.671736e+00    3.112057e+00
  5.703487e+00    3.068029e+00
  5.735238e+00    3.080714e+00
  5.766990e+00    3.095980e+00
  5.798741e+00    3.046398e+00
  5.830492e+00    3.055699e+00
  5.862243e+00    3.072322e+00
  5.893994e+00    3.034956e+00
  5.925745e+00    3.064925e+00
  5.957497e+00    3.019428e+00
  5.989248e+00    3.031622e+00
  6.020999e+00    3.040289e+00
  6.052750e+00    3.077844e+00
  6.084501e+00    3.098678e+00
  6.116252e+00    3.153525e+00
  6.148003e+00    3.056470e+00
  6.179755e+00    3.073155e+00
  6.211506e+00    3.024820e+00
  6.243257e+00    3.036726e+00
  6.275008e+00    3.043238e+00
  6.306759e+00    3.069773e+00
  6.338510e+00    3.025019e+00
  6.370261e+00    3.078969e+00
  6.402013e+00    3.182430e+00
  6.433764e+00    3.003991e+00
  6.465515e+00    3.055881e+00
  6.497266e+00    3.058621e+00
  6.529017e+00    3.140285e+00
  6.560768e+00    3.051645e+00
  6.592519e+00    3.077215e+00
  6.624271e+00    3.088320e+00
  6.656022e+00    3.125946e+00
  6.687773e+00    3.063534e+00
  6.719524e+00    3.043236e+00
  6.751275e+00    3.065294e+00
  6.783026e+00    3.012838e+00
  6.814777e+00    3.048028e+00
  6.846529e+00    3.019818e+00
  6.878280e+00    2.986676e+00
  6.910031e+00    3.004220e+00
  6.941782e+00    3.018952e+00
  6.973533e+00    3.007020e+00
  7.005284e+00    3.026531e+00
  7.037036e+00    2.978757e+00
  7.068787e+00    3.009619e+00
  7.100538e+00    3.046495e+00
  7.132289e+00    3.056299e+00
  7.164040e+00    2.986560e+00
  7.195791e+00    3.028392e+00
  7.227542e+00    2.995076e+00
  7.259294e+00    2.965006e+00
  7.291045e+00    2.983746e+00
  7.322796e+00    3.042710e+00
  7.354547e+00    2.974904e+00
  7.386298e+00    2.967588e+00
  7.418049e+00    3.067774e+00
  7.449800e+00    3.032468e+00
  7.481552e+00    3.009864e+00
  7.513303e+00    3.044812e+00
  7.545054e+00    2.964354e+00
  7.576805e+00    2.906360e+00
  7.608556e+00    3.007869e+00
  7.640307e+00    3.005341e+00
  7.672058e+00    2.959177e+00
  7.703810e+00    3.029539e+00
  7.735561e+00    2.946508e+00
  7.767312e+00    2.923856e+00
  7.799063e+00    2.917224e+00
  7.830814e+00    2.955545e+00
  7.862565e+00    2.965643e+00
  7.894317e+00    2.951448e+00
  7.926068e+00    2.950574e+00
  7.957819e+00    2.948929e+00
  7.989570e+00    2.937659e+00
  8.021321e+00    2.913622e+00
  8.053072e+00    2.825326e+00
  8.084823e+00    2.956347e+00
  8.116575e+00    2.944089e+00
  8.148326e+00    2.955925e+00
  8.180077e+00    2.956048e+00
  8.211828e+00    2.966530e+00
  8.243579e+00    2.978066e+00
  8.275330e+00    2.965144e+00
  8.307081e+00    2.966474e+00
  8.338833e+00    2.929565e+00
  8.370584e+00    2.885808e+00
  8.402335e+00    2.968211e+00
  8.434086e+00    2.911621e+00
  8.465837e+00    2.939895e+00
  8.497588e+00    2.918126e+00
  8.529339e+00    2.856274e+00
  8.561091e+00    2.838549e+00
  8.592842e+00    2.884119e+00
  8.624593e+00    2.879613e+00
  8.656344e+00    2.907196e+00
  8.688095e+00    2.913151e+00
  8.719846e+00    2.902224e+00
  8.751598e+00    2.851289e+00
  8.783349e+00    2.887929e+00
  8.815100e+00    2.878332e+00
  8.846851e+00    2.796491e+00
  8.878602e+00    2.848213e+00
  8.910353e+00    2.852220e+00
  8.942104e+00    2.820144e+00
  8.973856e+00    2.813322e+00
  9.005607e+00    2.833173e+00
  9.037358e+00    2.882711e+00
  9.069109e+00    2.832114e+00
  9.100860e+00    2.861937e+00
  9.132611e+00    2.795913e+00
  9.164362e+00    2.864172e+00
  9.196114e+00    2.820689e+00
  9.227865e+00    2.767563e+00
  9.259616e+00    2.828478e+00
  9.291367e+00    2.770007e+00
  9.323118e+00    2.790851e+00
  9.354869e+00    2.771968e+00
  9.386620e+00    2.771494e+00
  9.418372e+00    2.747180e+00
  9.450123e+00    2.771840e+00
  9.481874e+00    2.761203e+00
  9.513625e+00    2.762599e+00
  9.545376e+00    2.773387e+00
  9.577127e+00    2.789095e+00
  9.608878e+00    2.792131e+00
  9.640630e+00    2.760168e+00
  9.672381e+00    2.736994e+00
  9.704132e+00    2.710354e+00
  9.735883e+00    2.769797e+00
  9.767634e+00    2.717047e+00
  9.799385e+00    2.731613e+00
  9.831137e+00    2.725167e+00
  9.862888e+00    2.744839e+00
  9.894639e+00    2.718104e+00
  9.926390e+00    2.742733e+00
  9.958141e+00    2.742602e+00
  9.989892e+00    2.685668e+00
  1.002164e+01    2.653976e+00
  1.005339e+01    2.684523e+00
  1.008515e+01    2.704143e+00
  1.011690e+01    2.671112e+00
  1.014865e+01    2.661379e+00
  1.018040e+01    2.676421e+00
  1.021215e+01    2.642695e+00
  1.024390e+01    2.675260e+00
  1.027565e+01    2.624114e+00
  1.030740e+01    2.681226e+00
  1.033915e+01    2.666493e+00
  1.037091e+01    2.634873e+00
  1.040266e+01    2.601918e+00
  1.043441e+01    2.632211e+00
  1.046616e+01    2.669408e+00
  1.049791e+01    2.633773e+00
  1.052966e+01    2.558247e+00
  1.056141e+01    2.557557e+00
  1.059316e+01    2.594109e+00
  1.062492e+01    2.591030e+00
  1.065667e+01    2.555537e+00
  1.068842e+01    2.584765e+00
  1.072017e+01    2.518991e+00
  1.075192e+01    2.547686e+00
  1.078367e+01    2.550969e+00
  1.081542e+01    2.524894e+00
  1.084717e+01    2.543493e+00
  1.087892e+01    2.595170e+00
  1.091068e+01    2.509096e+00
  1.094243e+01    2.503797e+00
  1.097418e+01    2.533687e+00
  1.100593e+01    2.544004e+00
  1.103768e+01    2.544265e+00
  1.106943e+01    2.476674e+00
  1.110118e+01    2.435878e+00
  1.113293e+01    2.501626e+00
  1.116468e+01    2.411355e+00
  1.119644e+01    2.454750e+00
  1.122819e+01    2.514092e+00
  1.125994e+01    2.430776e+00
  1.129169e+01    2.469526e+00
  1.132344e+01    2.441108e+00
  1.135519e+01    2.469925e+00
  1.138694e+01    2.457661e+00
  1.141869e+01    2.462153e+00
  1.145045e+01    2.441325e+00
  1.148220e+01    2.471782e+00
  1.151395e+01    2.464723e+00
  1.154570e+01    2.424006e+00
  1.157745e+01    2.383837e+00
  1.160920e+01    2.438498e+00
  1.164095e+01    2.416812e+00
  1.167270e+01    2.414845e+00
  1.170445e+01    2.338956e+00
  1.173621e+01    2.332178e+00
  1.176796e+01    2.389808e+00
  1.179971e+01    2.346763e+00
  1.183146e+01    2.436696e+00
  1.186321e+01    2.345518e+00
  1.189496e+01    2.349909e+00
  1.192671e+01    2.362215e+00
  1.195846e+01    2.345691e+00
  1.199021e+01    2.374865e+00
  1.202197e+01    2.323008e+00
  1.205372e+01    2.369996e+00
  1.208547e+01    2.314752e+00
  1.211722e+01    2.332022e+00
  1.214897e+01    2.367204e+00
  1.218072e+01    2.332909e+00
  1.221247e+01    2.302718e+00
  1.224422e+01    2.369484e+00
  1.227597e+01    2.343426e+00
  1.230773e+01    2.301568e+00
  1.233948e+01    2.326755e+00
  1.237123e+01    2.367198e+00
  1.240298e+01    2.364528e+00
  1.243473e+01    2.328470e+00
  1.246648e+01    2.403351e+00
  1.249823e+01    2.358337e+00
  1.252998e+01    2.376354e+00
  1.256174e+01    2.378362e+00
  1.259349e+01    2.402277e+00
  1.262524e+01    2.425815e+00
  1.265699e+01    2.433151e+00
  1.268874e+01    2.506290e+00
  1.272049e+01    2.505082e+00
  1.275224e+01    2.594291e+00
  1.278399e+01    2.686933e+00
  1.281574e+01    2.734379e+00
  1.284750e+01    2.847982e+00
  1.287925e+01    3.036621e+00
  1.291100e+01    3.254141e+00
  1.294275e+01    3.714160e+00
  1.297450e+01    4.292003e+00
  1.300625e+01    5.230165e+00
  1.303800e+01    6.710989e+00
  1.306975e+01    9.133636e+00
  1.310150e+01    1.210892e+01
  1.313326e+01    1.507596e+01
  1.316501e+01    1.804191e+01
  1.319676e+01    1.986078e+01
  1.322851e+01    1.816054e+01
  1.326026e+01    1.385377e+01
  1.329201e+01    9.691333e+00
  1.332376e+01    7.057390e+00
  1.335551e+01    5.375518e+00
  1.338727e+01    4.362442e+00
  1.341902e+01    3.797299e+00
  1.345077e+01    3.338900e+00
  1.348252e+01    3.042474e+00
  1.351427e+01    2.828734e+00
  1.354602e+01    2.706209e+00
  1.357777e+01    2.612236e+00
  1.360952e+01    2.508630e+00
  1.364127e+01    2.410678e+00
  1.367303e+01    2.333885e+00
  1.370478e+01    2.329712e+00
  1.373653e+01    2.272240e+00
  1.376828e+01    2.230128e+00
  1.380003e+01    2.178191e+00
  1.383178e+01    2.211123e+00
  1.386353e+01    2.180037e+00
  1.389528e+01    2.140759e+00
  1.392703e+01    2.119867e+00
  1.395879e+01    2.131148e+00
  1.399054e+01    2.102164e+00
  1.402229e+01    2.103532e+00
  1.405404e+01    2.051316e+00
  1.408579e+01    2.075496e+00
  1.411754e+01    2.052346e+00
  1.414929e+01    2.041222e+00
  1.418104e+01    2.047242e+00
  1.421279e+01    2.012781e+00
  1.424455e+01    2.014945e+00
  1.427630e+01    1.953054e+00
  1.430805e+01    1.959681e+00
  1.433980e+01    1.958379e+00
  1.437155e+01    1.952188e+00
  1.440330e+01    1.976211e+00
  1.443505e+01    1.949170e+00
  1.446680e+01    1.957512e+00
  1.449856e+01    1.912697e+00
  1.453031e+01    1.949591e+00
  1.456206e+01    1.963091e+00
  1.459381e+01    1.961636e+00
  1.462556e+01    1.927479e+00
  1.465731e+01    1.930533e+00
  1.468906e+01    1.919766e+00
  1.472081e+01    1.939853e+00
  1.475256e+01    1.927205e+00
  1.478432e+01    1.924310e+00
  1.481607e+01    1.956611e+00
  1.484782e+01    1.985971e+00
  1.487957e+01    1.983893e+00
  1.491132e+01    1.921803e+00
  1.494307e+01    2.021565e+00
  1.497482e+01    2.051265e+00
  1.500657e+01    2.155457e+00
  1.503832e+01    2.257395e+00
  1.507008e+01    2.472484e+00
  1.510183e+01    2.725169e+00
  1.513358e+01    3.243387e+00
  1.516533e+01    4.008377e+00
  1.519708e+01    4.870571e+00
  1.522883e+01    5.666122e+00
  1.526058e+01    6.351747e+00
  1.529233e+01    6.586089e+00
  1.532409e+01    6.154498e+00
  1.535584e+01    5.001634e+00
  1.538759e+01    3.952908e+00
  1.541934e+01    3.155747e+00
  1.545109e+01    2.621364e+00
  1.548284e+01    2.362059e+00
  1.551459e+01    2.204252e+00
  1.554634e+01    2.074368e+00
  1.557809e+01    1.958738e+00
  1.560985e+01    1.924787e+00
  1.564160e+01    1.850224e+00
  1.567335e+01    1.832461e+00
  1.570510e+01    1.823775e+00
  1.573685e+01    1.776517e+00
  1.576860e+01    1.748655e+00
  1.580035e+01    1.729741e+00
  1.583210e+01    1.724941e+00
  1.586385e+01    1.671011e+00
  1.589561e+01    1.676216e+00
  1.592736e+01    1.642721e+00
  1.595911e+01    1.657377e+00
  1.599086e+01    1.643693e+00
  1.602261e+01    1.626634e+00
  1.605436e+01    1.592846e+00
  1.608611e+01    1.604022e+00
  1.611786e+01    1.652940e+00
  1.614961e+01    1.601904e+00
  1.618137e+01    1.615161e+00
  1.621312e+01    1.617761e+00
  1.624487e+01    1.544547e+00
  1.627662e+01    1.591407e+00
  1.630837e+01    1.564122e+00
  1.634012e+01    1.574400e+00
  1.637187e+01    1.554483e+00
  1.640362e+01    1.551521e+00
  1.643538e+01    1.538390e+00
  1.646713e+01    1.550142e+00
  1.649888e+01    1.558279e+00
  1.653063e+01    1.524889e+00
  1.656238e+01    1.552908e+00
  1.659413e+01    1.527717e+00
  1.662588e+01    1.472920e+00
  1.665763e+01    1.496841e+00
  1.668938e+01    1.488967e+00
  1.672114e+01    1.502372e+00
  1.675289e+01    1.489599e+00
  1.678464e+01    1.504910e+00
  1.681639e+01    1.449247e+00
  1.684814e+01    1.499918e+00
  1.687989e+01    1.493724e+00
  1.691164e+01    1.479152e+00
  1.694339e+01    1.455995e+00
  1.697514e+01    1.441860e+00
  1.700690e+01    1.456430e+00
  1.703865e+01    1.455373e+00
  1.707040e+01    1.432056e+00
  1.710215e+01    1.431761e+00
  1.713390e+01    1.448554e+00
  1.716565e+01    1.455694e+00
  1.719740e+01    1.406189e+00
  1.722915e+01    1.424307e+00
  1.726091e+01    1.430790e+00
  1.729266e+01    1.411125e+00
  1.732441e+01    1.382078e+00
  1.735616e+01    1.403928e+00
  1.738791e+01    1.383066e+00
  1.741966e+01    1.387525e+00
  1.745141e+01    1.408832e+00
  1.748316e+01    1.365695e+00
  1.751491e+01    1.386897e+00
  1.754667e+01    1.390602e+00
  1.757842e+01    1.367919e+00
  1.761017e+01    1.396996e+00
  1.764192e+01    1.382819e+00
  1.767367e+01    1.322715e+00
  1.770542e+01    1.354527e+00
  1.773717e+01    1.359695e+00
  1.776892e+01    1.350325e+00
  1.780067e+01    1.347279e+00
  1.783243e+01    1.337827e+00
  1.786418e+01    1.288060e+00
  1.789593e+01    1.342141e+00
  1.792768e+01    1.317916e+00
  1.795943e+01    1.336928e+00
  1.799118e+01    1.319851e+00
  1.802293e+01    1.286568e+00
  1.805468e+01    1.321933e+00
  1.808643e+01    1.282004e+00
  1.811819e+01    1.305936e+00
  1.814994e+01    1.315403e+00
  1.818169e+01    1.304871e+00
  1.821344e+01    1.306925e+00
  1.824519e+01    1.261649e+00
  1.827694e+01    1.297252e+00
  1.830869e+01    1.301040e+00
  1.834044e+01    1.295277e+00
  1.837220e+01    1.269917e+00
  1.840395e+01    1.268633e+00
  1.843570e+01    1.275714e+00
  1.846745e+01    1.275833e+00
  1.849920e+01    1.265747e+00
  1.853095e+01    1.265125e+00
  1.856270e+01    1.263281e+00
  1.859445e+01    1.258970e+00
  1.862620e+01    1.236477e+00
  1.865796e+01    1.261152e+00
  1.868971e+01    1.242290e+00
  1.872146e+01    1.245515e+00
  1.875321e+01    1.247936e+00
  1.878496e+01    1.252198e+00
  1.881671e+01    1.238282e+00
  1.884846e+01    1.210154e+00
  1.888021e+01    1.215621e+00
  1.891196e+01    1.211587e+00
  1.894372e+01    1.256003e+00
  1.897547e+01    1.228682e+00
  1.900722e+01    1.216814e+00
  1.903897e+01    1.234491e+00
  1.907072e+01    1.202017e+00
  1.910247e+01    1.207803e+00
  1.913422e+01    1.220200e+00
  1.916597e+01    1.207321e+00
  1.919773e+01    1.188998e+00
  1.922948e+01    1.180333e+00
  1.926123e+01    1.180163e+00
  1.929298e+01    1.201152e+00
  1.932473e+01    1.203173e+00
  1.935648e+01    1.189734e+00
  1.938823e+01    1.188289e+00
  1.941998e+01    1.196183e+00
  1.945173e+01    1.191734e+00
  1.948349e+01    1.181973e+00
  1.951524e+01    1.179586e+00
  1.954699e+01    1.148627e+00
  1.957874e+01    1.161655e+00
  1.961049e+01    1.190233e+00
  1.964224e+01    1.149689e+00
  1.967399e+01    1.153734e+00
  1.970574e+01    1.157091e+00
  1.973749e+01    1.159446e+00
  1.976925e+01    1.181629e+00
  1.980100e+01    1.134441e+00
  1.983275e+01    1.159695e+00
  1.986450e+01    1.118779e+00
  1.989625e+01    1.145958e+00
  1.992800e+01    1.134210e+00
  1.995975e+01    1.120920e+00
  1.999150e+01    1.137002e+00
  2.002325e+01    1.104556e+00
  2.005501e+01    1.138956e+00
  2.008676e+01    1.118893e+00
  2.011851e+01    1.100599e+00
  2.015026e+01    1.105249e+00
  2.018201e+01    1.124795e+00
  2.021376e+01    1.128005e+00
  2.024551e+01    1.106528e+00
  2.027726e+01    1.109126e+00
  2.030902e+01    1.150391e+00
  2.034077e+01    1.116241e+00
  2.037252e+01    1.126883e+00
  2.040427e+01    1.114541e+00
  2.043602e+01    1.113087e+00
  2.046777e+01    1.102365e+00
  2.049952e+01    1.121739e+00
  2.053127e+01    1.104991e+00
  2.056302e+01    1.091227e+00
  2.059478e+01    1.111912e+00
  2.062653e+01    1.110330e+00
  2.065828e+01    1.112003e+00
  2.069003e+01    1.107608e+00
  2.072178e+01    1.121884e+00
  2.075353e+01    1.083780e+00
  2.078528e+01    1.113439e+00
  2.081703e+01    1.078739e+00
  2.084878e+01    1.081384e+00
  2.088054e+01    1.088306e+00
  2.091229e+01    1.114123e+00
  2.094404e+01    1.098261e+00
  2.097579e+01    1.089919e+00
  2.100754e+01    1.101724e+00
  2.103929e+01    1.116461e+00
  2.107104e+01    1.074019e+00
  2.110279e+01    1.096529e+00
  2.113455e+01    1.097725e+00
  2.116630e+01    1.106772e+00
  2.119805e+01    1.095669e+00
  2.122980e+01    1.140892e+00
  2.126155e+01    1.136392e+00
  2.129330e+01    1.119021e+00
  2.132505e+01    1.146335e+00
  2.135680e+01    1.150369e+00
  2.138855e+01    1.156149e+00
  2.142031e+01    1.204206e+00
  2.145206e+01    1.218810e+00
  2.148381e+01    1.275361e+00
  2.151556e+01    1.301461e+00
  2.154731e+01    1.364954e+00
  2.157906e+01    1.446252e+00
  2.161081e+01    1.542677e+00
  2.164256e+01    1.700198e+00
  2.167431e+01    1.965151e+00
  2.170607e+01    2.310759e+00
  2.173782e+01    2.845108e+00
  2.176957e+01    3.687837e+00
  2.180132e+01    4.840799e+00
  2.183307e+01    6.366443e+00
  2.186482e+01    8.009636e+00
  2.189657e+01    9.860692e+00
  2.192832e+01    1.098015e+01
  2.196007e+01    1.043878e+01
  2.199183e+01    8.349799e+00
  2.202358e+01    6.012314e+00
  2.205533e+01    4.343194e+00
  2.208708e+01    3.289361e+00
  2.211883e+01    2.585934e+00
  2.215058e+01    2.164751e+00
  2.218233e+01    1.849734e+00
  2.221408e+01    1.648088e+00
  2.224584e+01    1.476981e+00
  2.227759e+01    1.370415e+00
  2.230934e+01    1.288717e+00
  2.234109e+01    1.213241e+00
  2.237284e+01    1.178741e+00
  2.240459e+01    1.146149e+00
  2.243634e+01    1.122799e+00
  2.246809e+01    1.088517e+00
  2.249984e+01    1.062602e+00
  2.253160e+01    1.057585e+00
  2.256335e+01    1.028836e+00
  2.259510e+01    1.028175e+00
  2.262685e+01    1.026736e+00
  2.265860e+01    1.015010e+00
  2.269035e+01    1.003837e+00
  2.272210e+01    1.002049e+00
  2.275385e+01    9.710490e-01
  2.278560e+01    9.666380e-01
  2.281736e+01    9.492769e-01
  2.284911e+01    9.634522e-01
  2.288086e+01    9.439961e-01
  2.291261e+01    9.413804e-01
  2.294436e+01    9.361371e-01
  2.297611e+01    9.386978e-01
  2.300786e+01    9.231446e-01
  2.303961e+01    9.099626e-01
  2.307137e+01    9.097225e-01
  2.310312e+01    9.080002e-01
  2.313487e+01    9.043306e-01
  2.316662e+01    9.097447e-01
  2.319837e+01    8.838656e-01
  2.323012e+01    8.764621e-01
  2.326187e+01    9.000289e-01
  2.329362e+01    8.739390e-01
  2.332537e+01    8.923079e-01
  2.335713e+01    8.698288e-01
  2.338888e+01    8.518493e-01
  2.342063e+01    8.760379e-01
  2.345238e+01    8.812942e-01
  2.348413e+01    8.799722e-01
  2.351588e+01    8.628242e-01
  2.354763e+01    8.607340e-01
  2.357938e+01    8.471299e-01
  2.361113e+01    8.665952e-01
  2.364289e+01    8.576018e-01
  2.367464e+01    8.421772e-01
  2.370639e+01    8.404527e-01
  2.373814e+01    8.168059e-01
  2.376989e+01    8.153366e-01
  2.380164e+01    8.405831e-01
  2.383339e+01    8.223375e-01
  2.386514e+01    8.096253e-01
  2.389689e+01    8.107775e-01
  2.392865e+01    8.041201e-01
  2.396040e+01    8.238169e-01
  2.399215e+01    8.119107e-01
  2.402390e+01    8.012103e-01
  2.405565e+01    8.093298e-01
  2.408740e+01    7.751805e-01
  2.411915e+01    8.096144e-01
  2.415090e+01    7.744476e-01
  2.418266e+01    8.069526e-01
  2.421441e+01    8.195809e-01
  2.424616e+01    7.949536e-01
  2.427791e+01    8.022481e-01
  2.430966e+01    7.955128e-01
  2.434141e+01    8.210452e-01
  2.437316e+01    8.204404e-01
  2.440491e+01    7.905477e-01
  2.443666e+01    8.116671e-01
  2.446842e+01    7.835879e-01
  2.450017e+01    8.095475e-01
  2.453192e+01    7.999208e-01
  2.456367e+01    8.037274e-01
  2.459542e+01    7.854630e-01
  2.462717e+01    8.010533e-01
  2.465892e+01    8.281269e-01
  2.469067e+01    8.187929e-01
  2.472242e+01    8.040011e-01
  2.475418e+01    8.115360e-01
  2.478593e+01    8.138282e-01
  2.481768e+01    8.031689e-01
  2.484943e+01    8.032094e-01
  2.488118e+01    8.124853e-01
  2.491293e+01    8.149300e-01
  2.494468e+01    8.185984e-01
  2.497643e+01    8.279668e-01
  2.500819e+01    8.124450e-01
  2.503994e+01    8.385309e-01
  2.507169e+01    8.193685e-01
  2.510344e+01    8.209686e-01
  2.513519e+01    8.267420e-01
  2.516694e+01    8.546187e-01
  2.519869e+01    8.368683e-01
  2.523044e+01    8.427006e-01
  2.526219e+01    8.654396e-01
  2.529395e+01    8.665112e-01
  2.532570e+01    8.876231e-01
  2.535745e+01    8.963897e-01
  2.538920e+01    9.063120e-01
  2.542095e+01    9.352809e-01
  2.545270e+01    9.367469e-01
  2.548445e+01    9.470803e-01
  2.551620e+01    9.851982e-01
  2.554795e+01    1.018029e+00
  2.557971e+01    1.073315e+00
  2.561146e+01    1.112314e+00
  2.564321e+01    1.200269e+00
  2.567496e+01    1.248804e+00
  2.570671e+01    1.400787e+00
  2.573846e+01    1.557094e+00
  2.577021e+01    1.844784e+00
  2.580196e+01    2.218588e+00
  2.583371e+01    2.767184e+00
  2.586547e+01    3.631134e+00
  2.589722e+01    4.799928e+00
  2.592897e+01    6.331706e+00
  2.596072e+01    7.925692e+00
  2.599247e+01    9.011300e+00
  2.602422e+01    8.969262e+00
  2.605597e+01    7.520348e+00
  2.608772e+01    5.667770e+00
  2.611948e+01    4.176826e+00
  2.615123e+01    3.074564e+00
  2.618298e+01    2.415631e+00
  2.621473e+01    1.966116e+00
  2.624648e+01    1.669907e+00
  2.627823e+01    1.492607e+00
  2.630998e+01    1.353636e+00
  2.634173e+01    1.207753e+00
  2.637348e+01    1.144925e+00
  2.640524e+01    1.085051e+00
  2.643699e+01    1.069933e+00
  2.646874e+01    1.028957e+00
  2.650049e+01    9.950336e-01
  2.653224e+01    9.930358e-01
  2.656399e+01    9.575090e-01
  2.659574e+01    9.564173e-01
  2.662749e+01    9.482391e-01
  2.665924e+01    9.432204e-01
  2.669100e+01    9.318716e-01
  2.672275e+01    9.224501e-01
  2.675450e+01    9.537550e-01
  2.678625e+01    9.227855e-01
  2.681800e+01    9.390281e-01
  2.684975e+01    8.906787e-01
  2.688150e+01    9.364846e-01
  2.691325e+01    9.424307e-01
  2.694501e+01    9.520685e-01
  2.697676e+01    9.883924e-01
  2.700851e+01    1.021461e+00
  2.704026e+01    1.064116e+00
  2.707201e+01    1.168000e+00
  2.710376e+01    1.265108e+00
  2.713551e+01    1.428476e+00
  2.716726e+01    1.704160e+00
  2.719901e+01    2.038629e+00
  2.723077e+01    2.420490e+00
  2.726252e+01    2.590047e+00
  2.729427e+01    2.512231e+00
  2.732602e+01    2.134927e+00
  2.735777e+01    1.804535e+00
  2.738952e+01    1.510182e+00
  2.742127e+01    1.278416e+00
  2.745302e+01    1.154150e+00
  2.748477e+01    1.057937e+00
  2.751653e+01    9.933067e-01
  2.754828e+01    9.643192e-01
  2.758003e+01    9.236686e-01
  2.761178e+01    8.857219e-01
  2.764353e+01    8.862060e-01
  2.767528e+01    8.387172e-01
  2.770703e+01    8.395719e-01
  2.773878e+01    8.487981e-01
  2.777054e+01    8.481583e-01
  2.780229e+01    8.482317e-01
  2.783404e+01    8.525634e-01
  2.786579e+01    8.380989e-01
  2.789754e+01    8.077634e-01
  2.792929e+01    8.371316e-01
  2.796104e+01    8.252964e-01
  2.799279e+01    8.072030e-01
  2.802454e+01    8.262172e-01
  2.805630e+01    7.940476e-01
  2.808805e+01    8.023728e-01
  2.811980e+01    7.821517e-01
  2.815155e+01    7.831145e-01
  2.818330e+01    7.895201e-01
  2.821505e+01    7.910086e-01
  2.824680e+01    7.942889e-01
  2.827855e+01    8.082765e-01
  2.831030e+01    7.943506e-01
  2.834206e+01    7.839609e-01
  2.837381e+01    7.938588e-01
  2.840556e+01    7.815866e-01
  2.843731e+01    7.923146e-01
  2.846906e+01    7.780848e-01
  2.850081e+01    7.849686e-01
  2.853256e+01    7.830200e-01
  2.856431e+01    7.858226e-01
  2.859606e+01    7.761124e-01
  2.862782e+01    7.656363e-01
  2.865957e+01    7.818443e-01
  2.869132e+01    7.698523e-01
  2.872307e+01    7.534741e-01
  2.875482e+01    7.744668e-01
  2.878657e+01    7.638705e-01
  2.881832e+01    7.526658e-01
  2.885007e+01    7.539049e-01
  2.888183e+01    7.578445e-01
  2.891358e+01    7.670604e-01
  2.894533e+01    7.757587e-01
  2.897708e+01    7.471331e-01
  2.900883e+01    7.342602e-01
  2.904058e+01    7.690706e-01
  2.907233e+01    7.549211e-01
  2.910408e+01    7.612550e-01
  2.913583e+01    7.587482e-01
  2.916759e+01    7.440937e-01
  2.919934e+01    7.488157e-01
  2.923109e+01    7.382457e-01
  2.926284e+01    7.599609e-01
  2.929459e+01    7.320600e-01
  2.932634e+01    7.603472e-01
  2.935809e+01    7.493641e-01
  2.938984e+01    7.228795e-01
  2.942159e+01    7.243085e-01
  2.945335e+01    7.336856e-01
  2.948510e+01    7.469626e-01
  2.951685e+01    7.357176e-01
  2.954860e+01    7.426033e-01
  2.958035e+01    7.322360e-01
  2.961210e+01    7.695602e-01
  2.964385e+01    7.458410e-01
  2.967560e+01    7.316657e-01
  2.970736e+01    7.365614e-01
  2.973911e+01    7.494281e-01
  2.977086e+01    7.262841e-01
  2.980261e+01    7.269833e-01
  2.983436e+01    7.099870e-01
  2.986611e+01    7.325491e-01
  2.989786e+01    7.390153e-01
  2.992961e+01    7.241397e-01
  2.996136e+01    7.203866e-01
  2.999312e+01    7.402437e-01
  3.002487e+01    7.351580e-01
  3.005662e+01    7.605816e-01
  3.008837e+01    7.316920e-01
  3.012012e+01    7.668290e-01
  3.015187e+01    7.214143e-01
  3.018362e+01    7.254770e-01
  3.021537e+01    7.200138e-01
  3.024712e+01    7.059792e-01
  3.027888e+01    7.220953e-01
  3.031063e+01    7.129285e-01
  3.034238e+01    7.186677e-01
  3.037413e+01    7.333818e-01
  3.040588e+01    7.383991e-01
  3.043763e+01    7.345806e-01
  3.046938e+01    7.292930e-01
  3.050113e+01    7.441120e-01
  3.053288e+01    7.069681e-01
  3.056464e+01    7.019755e-01
  3.059639e+01    7.088128e-01
  3.062814e+01    7.251225e-01
  3.065989e+01    7.289699e-01
  3.069164e+01    7.300138e-01
  3.072339e+01    7.437444e-01
  3.075514e+01    7.410012e-01
  3.078689e+01    7.218484e-01
  3.081865e+01    7.121812e-01
  3.085040e+01    7.430851e-01
  3.088215e+01    7.467113e-01
  3.091390e+01    7.459290e-01
  3.094565e+01    7.404462e-01
  3.097740e+01    7.337446e-01
  3.100915e+01    7.292947e-01
  3.104090e+01    7.175279e-01
  3.107265e+01    7.159795e-01
  3.110441e+01    7.252741e-01
  3.113616e+01    7.659032e-01
  3.116791e+01    7.305712e-01
  3.119966e+01    7.469232e-01
  3.123141e+01    7.394511e-01
  3.126316e+01    7.273599e-01
  3.129491e+01    7.406713e-01
  3.132666e+01    7.328504e-01
  3.135841e+01    7.337111e-01
  3.139017e+01    7.401293e-01
  3.142192e+01    7.342420e-01
  3.145367e+01    7.575499e-01
  3.148542e+01    7.845472e-01
  3.151717e+01    7.790000e-01
  3.154892e+01    7.839494e-01
  3.158067e+01    7.872868e-01
  3.161242e+01    8.315756e-01
  3.164418e+01    8.567526e-01
  3.167593e+01    8.817801e-01
  3.170768e+01    9.162716e-01
  3.173943e+01    9.652240e-01
  3.177118e+01    1.071259e+00
  3.180293e+01    1.218651e+00
  3.183468e+01    1.411643e+00
  3.186643e+01    1.698276e+00
  3.189818e+01    2.045305e+00
  3.192994e+01    2.392180e+00
  3.196169e+01    2.590851e+00
  3.199344e+01    2.490920e+00
  3.202519e+01    2.120154e+00
  3.205694e+01    1.750437e+00
  3.208869e+01    1.410237e+00
  3.212044e+01    1.193955e+00
  3.215219e+01    1.052802e+00
  3.218394e+01    9.513007e-01
  3.221570e+01    9.153990e-01
  3.224745e+01    8.724458e-01
  3.227920e+01    8.179714e-01
  3.231095e+01    8.057922e-01
  3.234270e+01    8.086935e-01
  3.237445e+01    7.682959e-01
  3.240620e+01    7.482336e-01
  3.243795e+01    7.664387e-01
  3.246970e+01    7.625911e-01
  3.250146e+01    7.516462e-01
  3.253321e+01    7.427607e-01
  3.254908e+01    7.464383e-01