File: XRD/Activation ramp/2024-07-27_002_Ru-CGO-ex_Activtation_ramp_000002_data_000122.dat
# == pyFAI calibration ==
# Distance Sample to Detector: 0.4 m
# PONI: 9.750e-02, 1.135e-01 m
# Rotations: -0.000175 0.000000 -0.000000 rad
#
# == Fit2d calibration ==
# Distance Sample-beamCenter: 400.000 mm
# Center: x=1514.000, y=1300.000 pix
# Tilt: 0.010 deg  TiltPlanRot: 0.010 deg
#
# Detector Detector	 Spline= None	 PixelSize= 7.500e-05, 7.500e-05 m
#    Detector has a mask: False
#    Detector has a dark current: False
#    detector has a flat field: False
#
# Wavelength: 6.888e-11 m
# Mask applied: user provided
# Dark current applied: False
# Flat field applied: False
# Polarization factor: 0.99
# Normalization factor: 1.0
# --> /home/myspot/data/2024_07_Rosario/Ru-CGO-ex/2024-07-27_002_Ru-CGO-ex_Activtation_ramp_000002_data_000122.dat
#       q_nm^-1             I
  2.003187e-02    0.000000e+00
  5.178302e-02    0.000000e+00
  8.353417e-02    1.132788e-01
  1.152853e-01    5.132032e-02
  1.470365e-01    2.690672e-02
  1.787876e-01    6.634498e-02
  2.105388e-01    1.876986e-02
  2.422899e-01    8.925681e-02
  2.740411e-01    2.931214e-02
  3.057922e-01    7.511110e-02
  3.375433e-01    9.821525e-02
  3.692945e-01    8.530868e-03
  4.010456e-01    5.753303e-02
  4.327968e-01    3.928640e-02
  4.645479e-01    3.060769e-02
  4.962991e-01    3.477603e-02
  5.280502e-01    3.948900e-02
  5.598014e-01    6.427153e-02
  5.915525e-01    4.362685e-02
  6.233037e-01    2.955760e-02
  6.550548e-01    3.673013e-02
  6.868060e-01    4.534475e-02
  7.185571e-01    4.083496e-02
  7.503083e-01    5.686490e-02
  7.820594e-01    9.464099e-02
  8.138106e-01    1.656355e-01
  8.455617e-01    2.663821e-01
  8.773129e-01    4.291209e-01
  9.090640e-01    5.723127e-01
  9.408152e-01    6.687871e-01
  9.725663e-01    9.631389e-01
  1.004317e+00    1.028323e+00
  1.036069e+00    1.211695e+00
  1.067820e+00    1.239213e+00
  1.099571e+00    1.400405e+00
  1.131322e+00    1.375048e+00
  1.163073e+00    1.515627e+00
  1.194824e+00    1.509442e+00
  1.226575e+00    2.091454e+00
  1.258327e+00    2.397263e+00
  1.290078e+00    2.300594e+00
  1.321829e+00    2.390564e+00
  1.353580e+00    2.542460e+00
  1.385331e+00    2.483259e+00
  1.417082e+00    2.577357e+00
  1.448834e+00    2.873179e+00
  1.480585e+00    2.812378e+00
  1.512336e+00    2.955307e+00
  1.544087e+00    2.833087e+00
  1.575838e+00    2.902303e+00
  1.607589e+00    2.763412e+00
  1.639340e+00    2.778586e+00
  1.671092e+00    2.817632e+00
  1.702843e+00    2.918519e+00
  1.734594e+00    2.857444e+00
  1.766345e+00    2.738078e+00
  1.798096e+00    2.678768e+00
  1.829847e+00    2.671482e+00
  1.861598e+00    2.760234e+00
  1.893350e+00    2.690130e+00
  1.925101e+00    2.706482e+00
  1.956852e+00    2.712741e+00
  1.988603e+00    2.675059e+00
  2.020354e+00    2.758893e+00
  2.052105e+00    2.592270e+00
  2.083856e+00    2.772215e+00
  2.115608e+00    2.618084e+00
  2.147359e+00    2.708445e+00
  2.179110e+00    2.686043e+00
  2.210861e+00    2.678801e+00
  2.242612e+00    2.747106e+00
  2.274363e+00    2.742430e+00
  2.306115e+00    2.602129e+00
  2.337866e+00    2.724367e+00
  2.369617e+00    2.730309e+00
  2.401368e+00    2.753534e+00
  2.433119e+00    2.753028e+00
  2.464870e+00    2.681866e+00
  2.496621e+00    2.819201e+00
  2.528373e+00    2.763199e+00
  2.560124e+00    2.661805e+00
  2.591875e+00    2.707031e+00
  2.623626e+00    2.711361e+00
  2.655377e+00    2.697897e+00
  2.687128e+00    2.794870e+00
  2.718879e+00    2.791503e+00
  2.750631e+00    2.793411e+00
  2.782382e+00    2.786935e+00
  2.814133e+00    2.801276e+00
  2.845884e+00    2.677059e+00
  2.877635e+00    2.796147e+00
  2.909386e+00    2.828126e+00
  2.941137e+00    2.816108e+00
  2.972889e+00    2.807529e+00
  3.004640e+00    2.932690e+00
  3.036391e+00    2.915248e+00
  3.068142e+00    2.799826e+00
  3.099893e+00    2.783478e+00
  3.131644e+00    2.785696e+00
  3.163395e+00    2.980756e+00
  3.195147e+00    2.938803e+00
  3.226898e+00    2.880774e+00
  3.258649e+00    2.921557e+00
  3.290400e+00    2.780791e+00
  3.322151e+00    2.929836e+00
  3.353902e+00    2.857891e+00
  3.385654e+00    2.868776e+00
  3.417405e+00    2.865428e+00
  3.449156e+00    2.880037e+00
  3.480907e+00    2.869755e+00
  3.512658e+00    2.857925e+00
  3.544409e+00    2.908439e+00
  3.576160e+00    3.024100e+00
  3.607912e+00    2.985283e+00
  3.639663e+00    2.942935e+00
  3.671414e+00    2.966612e+00
  3.703165e+00    2.887561e+00
  3.734916e+00    2.912879e+00
  3.766667e+00    2.956012e+00
  3.798418e+00    2.968828e+00
  3.830170e+00    2.948142e+00
  3.861921e+00    2.885410e+00
  3.893672e+00    2.954117e+00
  3.925423e+00    3.005228e+00
  3.957174e+00    2.946283e+00
  3.988925e+00    2.901118e+00
  4.020676e+00    2.976291e+00
  4.052428e+00    2.943900e+00
  4.084179e+00    2.857712e+00
  4.115930e+00    2.978967e+00
  4.147681e+00    2.937467e+00
  4.179432e+00    2.957054e+00
  4.211183e+00    3.050844e+00
  4.242935e+00    3.012263e+00
  4.274686e+00    3.008735e+00
  4.306437e+00    3.048711e+00
  4.338188e+00    2.970021e+00
  4.369939e+00    3.069348e+00
  4.401690e+00    3.026493e+00
  4.433441e+00    2.990024e+00
  4.465193e+00    3.070025e+00
  4.496944e+00    3.099108e+00
  4.528695e+00    3.068243e+00
  4.560446e+00    2.997742e+00
  4.592197e+00    3.034239e+00
  4.623948e+00    2.964293e+00
  4.655699e+00    3.069275e+00
  4.687451e+00    3.032778e+00
  4.719202e+00    3.060399e+00
  4.750953e+00    3.055167e+00
  4.782704e+00    3.097494e+00
  4.814455e+00    3.094620e+00
  4.846206e+00    3.063041e+00
  4.877957e+00    3.040504e+00
  4.909709e+00    3.064482e+00
  4.941460e+00    3.099410e+00
  4.973211e+00    3.064422e+00
  5.004962e+00    3.081722e+00
  5.036713e+00    3.091218e+00
  5.068464e+00    3.099014e+00
  5.100216e+00    2.991514e+00
  5.131967e+00    2.991269e+00
  5.163718e+00    3.104108e+00
  5.195469e+00    3.064352e+00
  5.227220e+00    3.130773e+00
  5.258971e+00    3.095647e+00
  5.290722e+00    3.008526e+00
  5.322474e+00    3.070896e+00
  5.354225e+00    3.092262e+00
  5.385976e+00    3.106071e+00
  5.417727e+00    3.069541e+00
  5.449478e+00    3.079675e+00
  5.481229e+00    3.032011e+00
  5.512980e+00    2.962451e+00
  5.544732e+00    3.060733e+00
  5.576483e+00    3.107630e+00
  5.608234e+00    3.075822e+00
  5.639985e+00    2.924351e+00
  5.671736e+00    3.007617e+00
  5.703487e+00    3.002240e+00
  5.735238e+00    3.092458e+00
  5.766990e+00    2.988457e+00
  5.798741e+00    2.968534e+00
  5.830492e+00    2.948125e+00
  5.862243e+00    2.995602e+00
  5.893994e+00    3.022629e+00
  5.925745e+00    2.920651e+00
  5.957497e+00    2.980740e+00
  5.989248e+00    3.070085e+00
  6.020999e+00    2.938563e+00
  6.052750e+00    2.924191e+00
  6.084501e+00    3.022596e+00
  6.116252e+00    3.094805e+00
  6.148003e+00    3.086358e+00
  6.179755e+00    3.000040e+00
  6.211506e+00    3.088690e+00
  6.243257e+00    2.943797e+00
  6.275008e+00    2.972018e+00
  6.306759e+00    2.976846e+00
  6.338510e+00    2.929569e+00
  6.370261e+00    3.027079e+00
  6.402013e+00    3.037545e+00
  6.433764e+00    3.049959e+00
  6.465515e+00    3.084785e+00
  6.497266e+00    2.958485e+00
  6.529017e+00    2.979296e+00
  6.560768e+00    2.998786e+00
  6.592519e+00    2.955301e+00
  6.624271e+00    2.942437e+00
  6.656022e+00    2.955454e+00
  6.687773e+00    2.961265e+00
  6.719524e+00    2.954285e+00
  6.751275e+00    2.988516e+00
  6.783026e+00    2.979710e+00
  6.814777e+00    2.971282e+00
  6.846529e+00    2.961566e+00
  6.878280e+00    3.058138e+00
  6.910031e+00    2.944419e+00
  6.941782e+00    2.967555e+00
  6.973533e+00    2.942868e+00
  7.005284e+00    3.015379e+00
  7.037036e+00    2.968781e+00
  7.068787e+00    2.882370e+00
  7.100538e+00    2.958033e+00
  7.132289e+00    3.016958e+00
  7.164040e+00    3.064061e+00
  7.195791e+00    2.944692e+00
  7.227542e+00    2.892325e+00
  7.259294e+00    2.996629e+00
  7.291045e+00    2.922483e+00
  7.322796e+00    2.976419e+00
  7.354547e+00    2.932074e+00
  7.386298e+00    2.840073e+00
  7.418049e+00    2.968580e+00
  7.449800e+00    2.927543e+00
  7.481552e+00    2.951933e+00
  7.513303e+00    2.894930e+00
  7.545054e+00    2.973359e+00
  7.576805e+00    2.926124e+00
  7.608556e+00    2.850273e+00
  7.640307e+00    2.907743e+00
  7.672058e+00    2.920987e+00
  7.703810e+00    2.916536e+00
  7.735561e+00    2.822061e+00
  7.767312e+00    2.864223e+00
  7.799063e+00    2.864147e+00
  7.830814e+00    2.891224e+00
  7.862565e+00    2.973790e+00
  7.894317e+00    2.886328e+00
  7.926068e+00    2.923946e+00
  7.957819e+00    2.881576e+00
  7.989570e+00    2.853271e+00
  8.021321e+00    2.849997e+00
  8.053072e+00    2.927115e+00
  8.084823e+00    2.875175e+00
  8.116575e+00    2.885651e+00
  8.148326e+00    2.892948e+00
  8.180077e+00    2.899143e+00
  8.211828e+00    2.974369e+00
  8.243579e+00    2.927851e+00
  8.275330e+00    2.873658e+00
  8.307081e+00    2.825922e+00
  8.338833e+00    2.879218e+00
  8.370584e+00    2.851214e+00
  8.402335e+00    2.861991e+00
  8.434086e+00    2.876447e+00
  8.465837e+00    2.890917e+00
  8.497588e+00    2.871646e+00
  8.529339e+00    2.840360e+00
  8.561091e+00    2.836471e+00
  8.592842e+00    2.820451e+00
  8.624593e+00    2.845111e+00
  8.656344e+00    2.821320e+00
  8.688095e+00    2.849101e+00
  8.719846e+00    2.895201e+00
  8.751598e+00    2.817267e+00
  8.783349e+00    2.822496e+00
  8.815100e+00    2.847618e+00
  8.846851e+00    2.757162e+00
  8.878602e+00    2.807048e+00
  8.910353e+00    2.824755e+00
  8.942104e+00    2.829873e+00
  8.973856e+00    2.780763e+00
  9.005607e+00    2.792574e+00
  9.037358e+00    2.822006e+00
  9.069109e+00    2.723161e+00
  9.100860e+00    2.698486e+00
  9.132611e+00    2.768684e+00
  9.164362e+00    2.799369e+00
  9.196114e+00    2.758642e+00
  9.227865e+00    2.773713e+00
  9.259616e+00    2.762092e+00
  9.291367e+00    2.728248e+00
  9.323118e+00    2.740854e+00
  9.354869e+00    2.737846e+00
  9.386620e+00    2.689778e+00
  9.418372e+00    2.697818e+00
  9.450123e+00    2.691009e+00
  9.481874e+00    2.714685e+00
  9.513625e+00    2.687906e+00
  9.545376e+00    2.759837e+00
  9.577127e+00    2.698950e+00
  9.608878e+00    2.742627e+00
  9.640630e+00    2.681905e+00
  9.672381e+00    2.683946e+00
  9.704132e+00    2.683422e+00
  9.735883e+00    2.724092e+00
  9.767634e+00    2.691182e+00
  9.799385e+00    2.628670e+00
  9.831137e+00    2.681471e+00
  9.862888e+00    2.585416e+00
  9.894639e+00    2.618803e+00
  9.926390e+00    2.607765e+00
  9.958141e+00    2.615645e+00
  9.989892e+00    2.596954e+00
  1.002164e+01    2.603776e+00
  1.005339e+01    2.635706e+00
  1.008515e+01    2.644116e+00
  1.011690e+01    2.646159e+00
  1.014865e+01    2.574473e+00
  1.018040e+01    2.614570e+00
  1.021215e+01    2.601550e+00
  1.024390e+01    2.608706e+00
  1.027565e+01    2.592880e+00
  1.030740e+01    2.604252e+00
  1.033915e+01    2.546624e+00
  1.037091e+01    2.608500e+00
  1.040266e+01    2.569167e+00
  1.043441e+01    2.500175e+00
  1.046616e+01    2.602825e+00
  1.049791e+01    2.599579e+00
  1.052966e+01    2.553881e+00
  1.056141e+01    2.588925e+00
  1.059316e+01    2.580932e+00
  1.062492e+01    2.539322e+00
  1.065667e+01    2.536476e+00
  1.068842e+01    2.491326e+00
  1.072017e+01    2.484629e+00
  1.075192e+01    2.520540e+00
  1.078367e+01    2.478908e+00
  1.081542e+01    2.508779e+00
  1.084717e+01    2.465081e+00
  1.087892e+01    2.500119e+00
  1.091068e+01    2.468326e+00
  1.094243e+01    2.442179e+00
  1.097418e+01    2.435286e+00
  1.100593e+01    2.468665e+00
  1.103768e+01    2.419462e+00
  1.106943e+01    2.467913e+00
  1.110118e+01    2.420292e+00
  1.113293e+01    2.426488e+00
  1.116468e+01    2.406086e+00
  1.119644e+01    2.421391e+00
  1.122819e+01    2.412966e+00
  1.125994e+01    2.431002e+00
  1.129169e+01    2.372679e+00
  1.132344e+01    2.381982e+00
  1.135519e+01    2.394136e+00
  1.138694e+01    2.420773e+00
  1.141869e+01    2.375564e+00
  1.145045e+01    2.383048e+00
  1.148220e+01    2.359387e+00
  1.151395e+01    2.391049e+00
  1.154570e+01    2.355432e+00
  1.157745e+01    2.353639e+00
  1.160920e+01    2.307607e+00
  1.164095e+01    2.347920e+00
  1.167270e+01    2.379490e+00
  1.170445e+01    2.312464e+00
  1.173621e+01    2.324358e+00
  1.176796e+01    2.316333e+00
  1.179971e+01    2.308582e+00
  1.183146e+01    2.335474e+00
  1.186321e+01    2.302483e+00
  1.189496e+01    2.320796e+00
  1.192671e+01    2.292213e+00
  1.195846e+01    2.313924e+00
  1.199021e+01    2.300265e+00
  1.202197e+01    2.313360e+00
  1.205372e+01    2.297273e+00
  1.208547e+01    2.334486e+00
  1.211722e+01    2.270401e+00
  1.214897e+01    2.325113e+00
  1.218072e+01    2.325940e+00
  1.221247e+01    2.302272e+00
  1.224422e+01    2.274167e+00
  1.227597e+01    2.268742e+00
  1.230773e+01    2.266197e+00
  1.233948e+01    2.258089e+00
  1.237123e+01    2.291918e+00
  1.240298e+01    2.300308e+00
  1.243473e+01    2.254474e+00
  1.246648e+01    2.320299e+00
  1.249823e+01    2.319291e+00
  1.252998e+01    2.284887e+00
  1.256174e+01    2.349508e+00
  1.259349e+01    2.332967e+00
  1.262524e+01    2.373925e+00
  1.265699e+01    2.435241e+00
  1.268874e+01    2.437258e+00
  1.272049e+01    2.412434e+00
  1.275224e+01    2.512416e+00
  1.278399e+01    2.566175e+00
  1.281574e+01    2.693193e+00
  1.284750e+01    2.792455e+00
  1.287925e+01    2.996666e+00
  1.291100e+01    3.261853e+00
  1.294275e+01    3.640522e+00
  1.297450e+01    4.343694e+00
  1.300625e+01    5.378644e+00
  1.303800e+01    6.986350e+00
  1.306975e+01    9.449781e+00
  1.310150e+01    1.214653e+01
  1.313326e+01    1.455941e+01
  1.316501e+01    1.676885e+01
  1.319676e+01    1.699652e+01
  1.322851e+01    1.406573e+01
  1.326026e+01    1.003841e+01
  1.329201e+01    7.270517e+00
  1.332376e+01    5.524813e+00
  1.335551e+01    4.401583e+00
  1.338727e+01    3.737498e+00
  1.341902e+01    3.275604e+00
  1.345077e+01    2.968575e+00
  1.348252e+01    2.726851e+00
  1.351427e+01    2.570383e+00
  1.354602e+01    2.473552e+00
  1.357777e+01    2.422448e+00
  1.360952e+01    2.386123e+00
  1.364127e+01    2.307063e+00
  1.367303e+01    2.232955e+00
  1.370478e+01    2.211068e+00
  1.373653e+01    2.182875e+00
  1.376828e+01    2.169594e+00
  1.380003e+01    2.096355e+00
  1.383178e+01    2.130085e+00
  1.386353e+01    2.087575e+00
  1.389528e+01    2.056941e+00
  1.392703e+01    2.042594e+00
  1.395879e+01    2.032340e+00
  1.399054e+01    2.039886e+00
  1.402229e+01    2.040408e+00
  1.405404e+01    2.043749e+00
  1.408579e+01    2.004490e+00
  1.411754e+01    2.010947e+00
  1.414929e+01    1.991701e+00
  1.418104e+01    1.985456e+00
  1.421279e+01    1.965186e+00
  1.424455e+01    1.968761e+00
  1.427630e+01    1.918264e+00
  1.430805e+01    1.933971e+00
  1.433980e+01    1.933394e+00
  1.437155e+01    1.949882e+00
  1.440330e+01    1.903950e+00
  1.443505e+01    1.893223e+00
  1.446680e+01    1.883402e+00
  1.449856e+01    1.878084e+00
  1.453031e+01    1.918574e+00
  1.456206e+01    1.866619e+00
  1.459381e+01    1.867317e+00
  1.462556e+01    1.920891e+00
  1.465731e+01    1.916282e+00
  1.468906e+01    1.858186e+00
  1.472081e+01    1.886882e+00
  1.475256e+01    1.880968e+00
  1.478432e+01    1.840078e+00
  1.481607e+01    1.876055e+00
  1.484782e+01    1.891069e+00
  1.487957e+01    1.905102e+00
  1.491132e+01    1.937963e+00
  1.494307e+01    1.977371e+00
  1.497482e+01    2.065213e+00
  1.500657e+01    2.120968e+00
  1.503832e+01    2.277607e+00
  1.507008e+01    2.460854e+00
  1.510183e+01    2.833506e+00
  1.513358e+01    3.441062e+00
  1.516533e+01    4.183385e+00
  1.519708e+01    4.904397e+00
  1.522883e+01    5.493593e+00
  1.526058e+01    5.882507e+00
  1.529233e+01    5.692190e+00
  1.532409e+01    4.936385e+00
  1.535584e+01    3.870394e+00
  1.538759e+01    3.115679e+00
  1.541934e+01    2.589961e+00
  1.545109e+01    2.284587e+00
  1.548284e+01    2.125580e+00
  1.551459e+01    1.950987e+00
  1.554634e+01    1.899844e+00
  1.557809e+01    1.854170e+00
  1.560985e+01    1.790689e+00
  1.564160e+01    1.763777e+00
  1.567335e+01    1.707585e+00
  1.570510e+01    1.725124e+00
  1.573685e+01    1.699638e+00
  1.576860e+01    1.690928e+00
  1.580035e+01    1.694864e+00
  1.583210e+01    1.608443e+00
  1.586385e+01    1.636914e+00
  1.589561e+01    1.633871e+00
  1.592736e+01    1.642578e+00
  1.595911e+01    1.614570e+00
  1.599086e+01    1.584746e+00
  1.602261e+01    1.588597e+00
  1.605436e+01    1.571491e+00
  1.608611e+01    1.597513e+00
  1.611786e+01    1.559466e+00
  1.614961e+01    1.563113e+00
  1.618137e+01    1.541610e+00
  1.621312e+01    1.523966e+00
  1.624487e+01    1.535849e+00
  1.627662e+01    1.510195e+00
  1.630837e+01    1.549415e+00
  1.634012e+01    1.527932e+00
  1.637187e+01    1.505085e+00
  1.640362e+01    1.528432e+00
  1.643538e+01    1.505975e+00
  1.646713e+01    1.499819e+00
  1.649888e+01    1.478750e+00
  1.653063e+01    1.475713e+00
  1.656238e+01    1.472578e+00
  1.659413e+01    1.472464e+00
  1.662588e+01    1.458503e+00
  1.665763e+01    1.480354e+00
  1.668938e+01    1.479553e+00
  1.672114e+01    1.434012e+00
  1.675289e+01    1.440472e+00
  1.678464e+01    1.452928e+00
  1.681639e+01    1.444877e+00
  1.684814e+01    1.426880e+00
  1.687989e+01    1.423758e+00
  1.691164e+01    1.441043e+00
  1.694339e+01    1.426150e+00
  1.697514e+01    1.403990e+00
  1.700690e+01    1.408858e+00
  1.703865e+01    1.415283e+00
  1.707040e+01    1.441267e+00
  1.710215e+01    1.388998e+00
  1.713390e+01    1.412630e+00
  1.716565e+01    1.393118e+00
  1.719740e+01    1.364288e+00
  1.722915e+01    1.378615e+00
  1.726091e+01    1.381258e+00
  1.729266e+01    1.325494e+00
  1.732441e+01    1.367595e+00
  1.735616e+01    1.377294e+00
  1.738791e+01    1.371201e+00
  1.741966e+01    1.364656e+00
  1.745141e+01    1.343977e+00
  1.748316e+01    1.351559e+00
  1.751491e+01    1.347052e+00
  1.754667e+01    1.342244e+00
  1.757842e+01    1.345150e+00
  1.761017e+01    1.337162e+00
  1.764192e+01    1.352467e+00
  1.767367e+01    1.356413e+00
  1.770542e+01    1.344843e+00
  1.773717e+01    1.323264e+00
  1.776892e+01    1.303507e+00
  1.780067e+01    1.278221e+00
  1.783243e+01    1.308327e+00
  1.786418e+01    1.305518e+00
  1.789593e+01    1.287594e+00
  1.792768e+01    1.297771e+00
  1.795943e+01    1.280917e+00
  1.799118e+01    1.282681e+00
  1.802293e+01    1.294782e+00
  1.805468e+01    1.265987e+00
  1.808643e+01    1.266287e+00
  1.811819e+01    1.250335e+00
  1.814994e+01    1.295667e+00
  1.818169e+01    1.250363e+00
  1.821344e+01    1.248244e+00
  1.824519e+01    1.247871e+00
  1.827694e+01    1.254364e+00
  1.830869e+01    1.264404e+00
  1.834044e+01    1.238083e+00
  1.837220e+01    1.250774e+00
  1.840395e+01    1.232046e+00
  1.843570e+01    1.215495e+00
  1.846745e+01    1.238335e+00
  1.849920e+01    1.225126e+00
  1.853095e+01    1.238486e+00
  1.856270e+01    1.214184e+00
  1.859445e+01    1.216291e+00
  1.862620e+01    1.222523e+00
  1.865796e+01    1.233586e+00
  1.868971e+01    1.223110e+00
  1.872146e+01    1.211859e+00
  1.875321e+01    1.194423e+00
  1.878496e+01    1.173760e+00
  1.881671e+01    1.201580e+00
  1.884846e+01    1.177246e+00
  1.888021e+01    1.226608e+00
  1.891196e+01    1.169814e+00
  1.894372e+01    1.193901e+00
  1.897547e+01    1.194208e+00
  1.900722e+01    1.200057e+00
  1.903897e+01    1.172701e+00
  1.907072e+01    1.177909e+00
  1.910247e+01    1.164295e+00
  1.913422e+01    1.162468e+00
  1.916597e+01    1.177370e+00
  1.919773e+01    1.168873e+00
  1.922948e+01    1.164524e+00
  1.926123e+01    1.159133e+00
  1.929298e+01    1.143643e+00
  1.932473e+01    1.162011e+00
  1.935648e+01    1.169821e+00
  1.938823e+01    1.142460e+00
  1.941998e+01    1.171407e+00
  1.945173e+01    1.168306e+00
  1.948349e+01    1.166138e+00
  1.951524e+01    1.139620e+00
  1.954699e+01    1.131494e+00
  1.957874e+01    1.143732e+00
  1.961049e+01    1.136968e+00
  1.964224e+01    1.090092e+00
  1.967399e+01    1.115122e+00
  1.970574e+01    1.115889e+00
  1.973749e+01    1.137391e+00
  1.976925e+01    1.126228e+00
  1.980100e+01    1.133458e+00
  1.983275e+01    1.115626e+00
  1.986450e+01    1.111573e+00
  1.989625e+01    1.096558e+00
  1.992800e+01    1.100258e+00
  1.995975e+01    1.115359e+00
  1.999150e+01    1.100853e+00
  2.002325e+01    1.098257e+00
  2.005501e+01    1.112656e+00
  2.008676e+01    1.090991e+00
  2.011851e+01    1.115482e+00
  2.015026e+01    1.103370e+00
  2.018201e+01    1.068320e+00
  2.021376e+01    1.092761e+00
  2.024551e+01    1.089767e+00
  2.027726e+01    1.105581e+00
  2.030902e+01    1.070546e+00
  2.034077e+01    1.068481e+00
  2.037252e+01    1.083023e+00
  2.040427e+01    1.067921e+00
  2.043602e+01    1.061617e+00
  2.046777e+01    1.093227e+00
  2.049952e+01    1.097283e+00
  2.053127e+01    1.073763e+00
  2.056302e+01    1.081071e+00
  2.059478e+01    1.082434e+00
  2.062653e+01    1.072937e+00
  2.065828e+01    1.077358e+00
  2.069003e+01    1.063697e+00
  2.072178e+01    1.067438e+00
  2.075353e+01    1.048058e+00
  2.078528e+01    1.083462e+00
  2.081703e+01    1.082868e+00
  2.084878e+01    1.059391e+00
  2.088054e+01    1.059901e+00
  2.091229e+01    1.081347e+00
  2.094404e+01    1.087510e+00
  2.097579e+01    1.036610e+00
  2.100754e+01    1.058118e+00
  2.103929e+01    1.062055e+00
  2.107104e+01    1.072047e+00
  2.110279e+01    1.070988e+00
  2.113455e+01    1.058537e+00
  2.116630e+01    1.069843e+00
  2.119805e+01    1.073768e+00
  2.122980e+01    1.077270e+00
  2.126155e+01    1.082104e+00
  2.129330e+01    1.117690e+00
  2.132505e+01    1.115498e+00
  2.135680e+01    1.130364e+00
  2.138855e+01    1.144097e+00
  2.142031e+01    1.157127e+00
  2.145206e+01    1.181683e+00
  2.148381e+01    1.219457e+00
  2.151556e+01    1.268525e+00
  2.154731e+01    1.360097e+00
  2.157906e+01    1.474648e+00
  2.161081e+01    1.588513e+00
  2.164256e+01    1.776325e+00
  2.167431e+01    2.106793e+00
  2.170607e+01    2.513189e+00
  2.173782e+01    3.170302e+00
  2.176957e+01    4.116545e+00
  2.180132e+01    5.422375e+00
  2.183307e+01    6.847814e+00
  2.186482e+01    8.350474e+00
  2.189657e+01    9.427369e+00
  2.192832e+01    9.159242e+00
  2.196007e+01    7.553866e+00
  2.199183e+01    5.512917e+00
  2.202358e+01    3.996629e+00
  2.205533e+01    3.022547e+00
  2.208708e+01    2.411033e+00
  2.211883e+01    1.994072e+00
  2.215058e+01    1.721856e+00
  2.218233e+01    1.519677e+00
  2.221408e+01    1.404340e+00
  2.224584e+01    1.292662e+00
  2.227759e+01    1.221803e+00
  2.230934e+01    1.195735e+00
  2.234109e+01    1.128279e+00
  2.237284e+01    1.109316e+00
  2.240459e+01    1.069564e+00
  2.243634e+01    1.029574e+00
  2.246809e+01    1.019304e+00
  2.249984e+01    9.992974e-01
  2.253160e+01    9.840311e-01
  2.256335e+01    1.009509e+00
  2.259510e+01    9.837263e-01
  2.262685e+01    9.706183e-01
  2.265860e+01    9.878919e-01
  2.269035e+01    9.508755e-01
  2.272210e+01    9.370230e-01
  2.275385e+01    9.228228e-01
  2.278560e+01    9.208252e-01
  2.281736e+01    9.117177e-01
  2.284911e+01    9.131022e-01
  2.288086e+01    9.116744e-01
  2.291261e+01    9.071183e-01
  2.294436e+01    8.873606e-01
  2.297611e+01    8.790907e-01
  2.300786e+01    9.024097e-01
  2.303961e+01    8.958899e-01
  2.307137e+01    8.964806e-01
  2.310312e+01    8.907511e-01
  2.313487e+01    8.720027e-01
  2.316662e+01    8.771934e-01
  2.319837e+01    8.785341e-01
  2.323012e+01    8.596191e-01
  2.326187e+01    8.524981e-01
  2.329362e+01    8.694464e-01
  2.332537e+01    8.464400e-01
  2.335713e+01    8.560645e-01
  2.338888e+01    8.348359e-01
  2.342063e+01    8.379434e-01
  2.345238e+01    8.475730e-01
  2.348413e+01    8.396445e-01
  2.351588e+01    8.447157e-01
  2.354763e+01    8.165177e-01
  2.357938e+01    8.425155e-01
  2.361113e+01    8.297764e-01
  2.364289e+01    8.443957e-01
  2.367464e+01    8.265640e-01
  2.370639e+01    8.117641e-01
  2.373814e+01    8.129099e-01
  2.376989e+01    7.926679e-01
  2.380164e+01    8.188738e-01
  2.383339e+01    8.073627e-01
  2.386514e+01    7.749885e-01
  2.389689e+01    8.149043e-01
  2.392865e+01    7.966796e-01
  2.396040e+01    7.723641e-01
  2.399215e+01    7.850690e-01
  2.402390e+01    7.912513e-01
  2.405565e+01    7.832599e-01
  2.408740e+01    7.805393e-01
  2.411915e+01    7.802573e-01
  2.415090e+01    7.906716e-01
  2.418266e+01    7.854571e-01
  2.421441e+01    7.724143e-01
  2.424616e+01    7.521766e-01
  2.427791e+01    7.843893e-01
  2.430966e+01    7.887560e-01
  2.434141e+01    7.758679e-01
  2.437316e+01    7.769391e-01
  2.440491e+01    7.646931e-01
  2.443666e+01    7.679725e-01
  2.446842e+01    7.706519e-01
  2.450017e+01    7.750560e-01
  2.453192e+01    7.792724e-01
  2.456367e+01    8.135821e-01
  2.459542e+01    7.701391e-01
  2.462717e+01    7.760962e-01
  2.465892e+01    7.844404e-01
  2.469067e+01    7.788227e-01
  2.472242e+01    7.909286e-01
  2.475418e+01    7.878358e-01
  2.478593e+01    7.796912e-01
  2.481768e+01    7.935322e-01
  2.484943e+01    8.012206e-01
  2.488118e+01    7.731465e-01
  2.491293e+01    7.829579e-01
  2.494468e+01    7.869763e-01
  2.497643e+01    7.871668e-01
  2.500819e+01    7.958529e-01
  2.503994e+01    7.990335e-01
  2.507169e+01    8.086669e-01
  2.510344e+01    8.008025e-01
  2.513519e+01    8.044431e-01
  2.516694e+01    8.133609e-01
  2.519869e+01    8.165454e-01
  2.523044e+01    8.511938e-01
  2.526219e+01    8.308144e-01
  2.529395e+01    8.544953e-01
  2.532570e+01    8.642659e-01
  2.535745e+01    8.714999e-01
  2.538920e+01    8.994905e-01
  2.542095e+01    8.935689e-01
  2.545270e+01    9.173738e-01
  2.548445e+01    9.373618e-01
  2.551620e+01    9.633238e-01
  2.554795e+01    9.936506e-01
  2.557971e+01    1.068598e+00
  2.561146e+01    1.139239e+00
  2.564321e+01    1.202873e+00
  2.567496e+01    1.322777e+00
  2.570671e+01    1.480357e+00
  2.573846e+01    1.688534e+00
  2.577021e+01    2.075519e+00
  2.580196e+01    2.528384e+00
  2.583371e+01    3.268910e+00
  2.586547e+01    4.273957e+00
  2.589722e+01    5.580533e+00
  2.592897e+01    6.839017e+00
  2.596072e+01    7.744324e+00
  2.599247e+01    7.594744e+00
  2.602422e+01    6.400721e+00
  2.605597e+01    4.793996e+00
  2.608772e+01    3.535511e+00
  2.611948e+01    2.654473e+00
  2.615123e+01    2.134846e+00
  2.618298e+01    1.736059e+00
  2.621473e+01    1.514573e+00
  2.624648e+01    1.333423e+00
  2.627823e+01    1.242584e+00
  2.630998e+01    1.129296e+00
  2.634173e+01    1.080843e+00
  2.637348e+01    1.022625e+00
  2.640524e+01    9.727907e-01
  2.643699e+01    9.753795e-01
  2.646874e+01    9.583293e-01
  2.650049e+01    9.558088e-01
  2.653224e+01    9.079770e-01
  2.656399e+01    9.135770e-01
  2.659574e+01    8.939846e-01
  2.662749e+01    9.180468e-01
  2.665924e+01    8.848628e-01
  2.669100e+01    8.768664e-01
  2.672275e+01    8.882666e-01
  2.675450e+01    8.785256e-01
  2.678625e+01    9.053819e-01
  2.681800e+01    8.867265e-01
  2.684975e+01    9.054011e-01
  2.688150e+01    9.101189e-01
  2.691325e+01    9.293386e-01
  2.694501e+01    9.317994e-01
  2.697676e+01    9.679852e-01
  2.700851e+01    1.005274e+00
  2.704026e+01    1.094500e+00
  2.707201e+01    1.188294e+00
  2.710376e+01    1.358878e+00
  2.713551e+01    1.590056e+00
  2.716726e+01    1.874755e+00
  2.719901e+01    2.163803e+00
  2.723077e+01    2.298253e+00
  2.726252e+01    2.172111e+00
  2.729427e+01    1.889404e+00
  2.732602e+01    1.581668e+00
  2.735777e+01    1.345049e+00
  2.738952e+01    1.163440e+00
  2.742127e+01    1.083539e+00
  2.745302e+01    9.851843e-01
  2.748477e+01    9.465951e-01
  2.751653e+01    9.324969e-01
  2.754828e+01    8.834445e-01
  2.758003e+01    8.792512e-01
  2.761178e+01    8.388203e-01
  2.764353e+01    8.311300e-01
  2.767528e+01    8.393602e-01
  2.770703e+01    8.189775e-01
  2.773878e+01    8.238849e-01
  2.777054e+01    8.194845e-01
  2.780229e+01    8.063351e-01
  2.783404e+01    7.883596e-01
  2.786579e+01    7.859567e-01
  2.789754e+01    7.820283e-01
  2.792929e+01    7.902919e-01
  2.796104e+01    7.964191e-01
  2.799279e+01    7.857057e-01
  2.802454e+01    7.755786e-01
  2.805630e+01    7.556974e-01
  2.808805e+01    7.587240e-01
  2.811980e+01    7.887309e-01
  2.815155e+01    7.707088e-01
  2.818330e+01    7.582594e-01
  2.821505e+01    7.602876e-01
  2.824680e+01    7.543563e-01
  2.827855e+01    7.417275e-01
  2.831030e+01    7.603348e-01
  2.834206e+01    7.485451e-01
  2.837381e+01    7.515025e-01
  2.840556e+01    7.563791e-01
  2.843731e+01    7.538053e-01
  2.846906e+01    7.496858e-01
  2.850081e+01    7.541316e-01
  2.853256e+01    7.407594e-01
  2.856431e+01    7.321587e-01
  2.859606e+01    7.495893e-01
  2.862782e+01    7.306967e-01
  2.865957e+01    7.634041e-01
  2.869132e+01    7.436376e-01
  2.872307e+01    7.266935e-01
  2.875482e+01    7.360885e-01
  2.878657e+01    7.454860e-01
  2.881832e+01    7.325595e-01
  2.885007e+01    7.430390e-01
  2.888183e+01    7.332628e-01
  2.891358e+01    7.400974e-01
  2.894533e+01    7.471755e-01
  2.897708e+01    7.315630e-01
  2.900883e+01    7.376112e-01
  2.904058e+01    7.263581e-01
  2.907233e+01    7.215711e-01
  2.910408e+01    7.272153e-01
  2.913583e+01    7.392813e-01
  2.916759e+01    7.250782e-01
  2.919934e+01    7.339283e-01
  2.923109e+01    7.241952e-01
  2.926284e+01    7.195302e-01
  2.929459e+01    7.279093e-01
  2.932634e+01    7.208437e-01
  2.935809e+01    7.189890e-01
  2.938984e+01    7.228512e-01
  2.942159e+01    7.234965e-01
  2.945335e+01    7.189615e-01
  2.948510e+01    7.193688e-01
  2.951685e+01    7.144801e-01
  2.954860e+01    7.232679e-01
  2.958035e+01    7.333811e-01
  2.961210e+01    7.262797e-01
  2.964385e+01    7.284815e-01
  2.967560e+01    6.964591e-01
  2.970736e+01    7.093953e-01
  2.973911e+01    7.264299e-01
  2.977086e+01    7.119137e-01
  2.980261e+01    7.186875e-01
  2.983436e+01    7.095670e-01
  2.986611e+01    7.161800e-01
  2.989786e+01    7.282822e-01
  2.992961e+01    7.168321e-01
  2.996136e+01    7.185431e-01
  2.999312e+01    7.367593e-01
  3.002487e+01    7.290214e-01
  3.005662e+01    7.326197e-01
  3.008837e+01    7.371641e-01
  3.012012e+01    7.233422e-01
  3.015187e+01    6.827114e-01
  3.018362e+01    6.950516e-01
  3.021537e+01    6.932244e-01
  3.024712e+01    7.362546e-01
  3.027888e+01    6.654789e-01
  3.031063e+01    7.120343e-01
  3.034238e+01    7.135907e-01
  3.037413e+01    7.256752e-01
  3.040588e+01    6.983474e-01
  3.043763e+01    7.075793e-01
  3.046938e+01    7.262086e-01
  3.050113e+01    7.030526e-01
  3.053288e+01    7.065443e-01
  3.056464e+01    7.303036e-01
  3.059639e+01    7.358184e-01
  3.062814e+01    7.108395e-01
  3.065989e+01    7.051148e-01
  3.069164e+01    7.000162e-01
  3.072339e+01    7.225590e-01
  3.075514e+01    7.061109e-01
  3.078689e+01    7.051513e-01
  3.081865e+01    7.116119e-01
  3.085040e+01    7.133431e-01
  3.088215e+01    7.181055e-01
  3.091390e+01    7.217319e-01
  3.094565e+01    7.081657e-01
  3.097740e+01    7.082115e-01
  3.100915e+01    7.116031e-01
  3.104090e+01    7.143328e-01
  3.107265e+01    7.045825e-01
  3.110441e+01    7.273218e-01
  3.113616e+01    7.142576e-01
  3.116791e+01    7.012724e-01
  3.119966e+01    7.164832e-01
  3.123141e+01    7.235601e-01
  3.126316e+01    7.374805e-01
  3.129491e+01    7.300546e-01
  3.132666e+01    7.207338e-01
  3.135841e+01    7.309652e-01
  3.139017e+01    7.653037e-01
  3.142192e+01    7.159854e-01
  3.145367e+01    7.129844e-01
  3.148542e+01    7.535535e-01
  3.151717e+01    7.656246e-01
  3.154892e+01    7.744785e-01
  3.158067e+01    7.782032e-01
  3.161242e+01    8.047146e-01
  3.164418e+01    8.641090e-01
  3.167593e+01    8.965875e-01
  3.170768e+01    9.529300e-01
  3.173943e+01    1.043528e+00
  3.177118e+01    1.168641e+00
  3.180293e+01    1.399093e+00
  3.183468e+01    1.583880e+00
  3.186643e+01    1.926601e+00
  3.189818e+01    2.164875e+00
  3.192994e+01    2.261762e+00
  3.196169e+01    2.112348e+00
  3.199344e+01    1.771478e+00
  3.202519e+01    1.462720e+00
  3.205694e+01    1.216980e+00
  3.208869e+01    1.070236e+00
  3.212044e+01    9.532720e-01
  3.215219e+01    8.916553e-01
  3.218394e+01    8.316479e-01
  3.221570e+01    8.248366e-01
  3.224745e+01    7.950136e-01
  3.227920e+01    8.003958e-01
  3.231095e+01    7.512740e-01
  3.234270e+01    7.562378e-01
  3.237445e+01    7.371006e-01
  3.240620e+01    7.481214e-01
  3.243795e+01    7.481228e-01
  3.246970e+01    7.269854e-01
  3.250146e+01    7.298126e-01
  3.253321e+01    7.014041e-01
  3.254908e+01    7.188615e-01