File: XRD/Activation ramp/2024-07-27_002_Ru-CGO-ex_Activtation_ramp_000002_data_000051.dat
# == pyFAI calibration ==
# Distance Sample to Detector: 0.4 m
# PONI: 9.750e-02, 1.135e-01 m
# Rotations: -0.000175 0.000000 -0.000000 rad
#
# == Fit2d calibration ==
# Distance Sample-beamCenter: 400.000 mm
# Center: x=1514.000, y=1300.000 pix
# Tilt: 0.010 deg  TiltPlanRot: 0.010 deg
#
# Detector Detector	 Spline= None	 PixelSize= 7.500e-05, 7.500e-05 m
#    Detector has a mask: False
#    Detector has a dark current: False
#    detector has a flat field: False
#
# Wavelength: 6.888e-11 m
# Mask applied: user provided
# Dark current applied: False
# Flat field applied: False
# Polarization factor: 0.99
# Normalization factor: 1.0
# --> /home/myspot/data/2024_07_Rosario/Ru-CGO-ex/2024-07-27_002_Ru-CGO-ex_Activtation_ramp_000002_data_000051.dat
#       q_nm^-1             I
  2.003187e-02    1.647358e-01
  5.178302e-02    1.410979e-01
  8.353417e-02    1.378339e-01
  1.152853e-01    7.298946e-02
  1.470365e-01    7.812933e-02
  1.787876e-01    2.238120e-02
  2.105388e-01    1.180838e-02
  2.422899e-01    2.733039e-02
  2.740411e-01    2.489663e-02
  3.057922e-01    1.376922e-02
  3.375433e-01    1.170573e-02
  3.692945e-01    5.733496e-02
  4.010456e-01    3.345161e-02
  4.327968e-01    5.829272e-02
  4.645479e-01    5.557971e-02
  4.962991e-01    4.778662e-02
  5.280502e-01    1.218858e-02
  5.598014e-01    4.092792e-02
  5.915525e-01    6.803512e-02
  6.233037e-01    2.335853e-02
  6.550548e-01    6.466477e-02
  6.868060e-01    4.869859e-02
  7.185571e-01    6.985049e-02
  7.503083e-01    7.358783e-02
  7.820594e-01    1.333493e-01
  8.138106e-01    1.741303e-01
  8.455617e-01    2.396712e-01
  8.773129e-01    4.641663e-01
  9.090640e-01    5.592756e-01
  9.408152e-01    7.164174e-01
  9.725663e-01    8.620686e-01
  1.004317e+00    1.155328e+00
  1.036069e+00    1.178507e+00
  1.067820e+00    1.322949e+00
  1.099571e+00    1.385290e+00
  1.131322e+00    1.444013e+00
  1.163073e+00    1.508793e+00
  1.194824e+00    1.703703e+00
  1.226575e+00    1.967618e+00
  1.258327e+00    2.434298e+00
  1.290078e+00    2.546242e+00
  1.321829e+00    2.511726e+00
  1.353580e+00    2.698526e+00
  1.385331e+00    2.568195e+00
  1.417082e+00    2.661765e+00
  1.448834e+00    2.731025e+00
  1.480585e+00    2.834448e+00
  1.512336e+00    2.844972e+00
  1.544087e+00    3.081391e+00
  1.575838e+00    2.979130e+00
  1.607589e+00    3.063269e+00
  1.639340e+00    2.866943e+00
  1.671092e+00    2.967807e+00
  1.702843e+00    2.849512e+00
  1.734594e+00    2.813306e+00
  1.766345e+00    2.931813e+00
  1.798096e+00    2.908432e+00
  1.829847e+00    2.887375e+00
  1.861598e+00    2.794758e+00
  1.893350e+00    2.822647e+00
  1.925101e+00    2.839116e+00
  1.956852e+00    2.804044e+00
  1.988603e+00    2.868190e+00
  2.020354e+00    2.858206e+00
  2.052105e+00    2.679947e+00
  2.083856e+00    2.708646e+00
  2.115608e+00    2.721010e+00
  2.147359e+00    2.850491e+00
  2.179110e+00    2.763660e+00
  2.210861e+00    2.723253e+00
  2.242612e+00    2.815341e+00
  2.274363e+00    2.870398e+00
  2.306115e+00    2.792056e+00
  2.337866e+00    2.888598e+00
  2.369617e+00    2.765783e+00
  2.401368e+00    2.674953e+00
  2.433119e+00    2.820010e+00
  2.464870e+00    2.828113e+00
  2.496621e+00    2.786251e+00
  2.528373e+00    2.797653e+00
  2.560124e+00    2.793252e+00
  2.591875e+00    2.829284e+00
  2.623626e+00    2.745316e+00
  2.655377e+00    2.817222e+00
  2.687128e+00    2.803226e+00
  2.718879e+00    2.785473e+00
  2.750631e+00    2.882706e+00
  2.782382e+00    2.734145e+00
  2.814133e+00    2.802937e+00
  2.845884e+00    2.895747e+00
  2.877635e+00    2.858049e+00
  2.909386e+00    2.818493e+00
  2.941137e+00    2.929018e+00
  2.972889e+00    2.926118e+00
  3.004640e+00    2.977917e+00
  3.036391e+00    2.889699e+00
  3.068142e+00    2.999168e+00
  3.099893e+00    2.920373e+00
  3.131644e+00    2.947923e+00
  3.163395e+00    2.909074e+00
  3.195147e+00    2.941133e+00
  3.226898e+00    2.974422e+00
  3.258649e+00    2.834991e+00
  3.290400e+00    2.958602e+00
  3.322151e+00    2.913963e+00
  3.353902e+00    3.014202e+00
  3.385654e+00    2.893358e+00
  3.417405e+00    2.940227e+00
  3.449156e+00    2.991883e+00
  3.480907e+00    2.921185e+00
  3.512658e+00    2.968948e+00
  3.544409e+00    2.952058e+00
  3.576160e+00    2.902720e+00
  3.607912e+00    2.953547e+00
  3.639663e+00    3.053027e+00
  3.671414e+00    3.062606e+00
  3.703165e+00    2.962363e+00
  3.734916e+00    2.973145e+00
  3.766667e+00    3.042321e+00
  3.798418e+00    3.048480e+00
  3.830170e+00    2.956094e+00
  3.861921e+00    3.012427e+00
  3.893672e+00    3.069584e+00
  3.925423e+00    3.033134e+00
  3.957174e+00    2.967872e+00
  3.988925e+00    2.994798e+00
  4.020676e+00    2.927327e+00
  4.052428e+00    3.142194e+00
  4.084179e+00    3.065418e+00
  4.115930e+00    3.034902e+00
  4.147681e+00    3.057813e+00
  4.179432e+00    3.061589e+00
  4.211183e+00    3.074554e+00
  4.242935e+00    3.033283e+00
  4.274686e+00    3.072207e+00
  4.306437e+00    3.025951e+00
  4.338188e+00    3.067284e+00
  4.369939e+00    3.025588e+00
  4.401690e+00    3.123511e+00
  4.433441e+00    3.041202e+00
  4.465193e+00    3.021418e+00
  4.496944e+00    3.057148e+00
  4.528695e+00    3.049707e+00
  4.560446e+00    3.008675e+00
  4.592197e+00    3.018129e+00
  4.623948e+00    3.049729e+00
  4.655699e+00    3.078544e+00
  4.687451e+00    3.069351e+00
  4.719202e+00    3.010041e+00
  4.750953e+00    3.157114e+00
  4.782704e+00    3.125375e+00
  4.814455e+00    3.140893e+00
  4.846206e+00    3.125621e+00
  4.877957e+00    3.150127e+00
  4.909709e+00    3.112463e+00
  4.941460e+00    3.172534e+00
  4.973211e+00    3.137827e+00
  5.004962e+00    3.095261e+00
  5.036713e+00    3.123872e+00
  5.068464e+00    3.108257e+00
  5.100216e+00    3.138546e+00
  5.131967e+00    3.104335e+00
  5.163718e+00    3.083492e+00
  5.195469e+00    3.036787e+00
  5.227220e+00    3.054279e+00
  5.258971e+00    3.154041e+00
  5.290722e+00    3.139304e+00
  5.322474e+00    3.094738e+00
  5.354225e+00    3.188968e+00
  5.385976e+00    3.112526e+00
  5.417727e+00    3.047672e+00
  5.449478e+00    3.122519e+00
  5.481229e+00    3.089014e+00
  5.512980e+00    2.940858e+00
  5.544732e+00    3.055573e+00
  5.576483e+00    3.104034e+00
  5.608234e+00    3.081833e+00
  5.639985e+00    3.067414e+00
  5.671736e+00    3.063695e+00
  5.703487e+00    3.055378e+00
  5.735238e+00    3.137568e+00
  5.766990e+00    3.057193e+00
  5.798741e+00    2.994971e+00
  5.830492e+00    2.966615e+00
  5.862243e+00    3.031397e+00
  5.893994e+00    3.017653e+00
  5.925745e+00    3.052002e+00
  5.957497e+00    3.023897e+00
  5.989248e+00    3.052812e+00
  6.020999e+00    2.991788e+00
  6.052750e+00    3.067954e+00
  6.084501e+00    3.067936e+00
  6.116252e+00    2.971959e+00
  6.148003e+00    3.098734e+00
  6.179755e+00    3.102808e+00
  6.211506e+00    3.064406e+00
  6.243257e+00    2.959025e+00
  6.275008e+00    2.980891e+00
  6.306759e+00    3.027498e+00
  6.338510e+00    3.070784e+00
  6.370261e+00    3.012000e+00
  6.402013e+00    3.061913e+00
  6.433764e+00    3.040802e+00
  6.465515e+00    3.039922e+00
  6.497266e+00    3.051994e+00
  6.529017e+00    3.030805e+00
  6.560768e+00    2.984993e+00
  6.592519e+00    3.097772e+00
  6.624271e+00    3.055827e+00
  6.656022e+00    3.000519e+00
  6.687773e+00    2.965333e+00
  6.719524e+00    3.049224e+00
  6.751275e+00    3.103102e+00
  6.783026e+00    2.992641e+00
  6.814777e+00    3.036586e+00
  6.846529e+00    3.035129e+00
  6.878280e+00    2.962610e+00
  6.910031e+00    2.926759e+00
  6.941782e+00    2.975986e+00
  6.973533e+00    3.002932e+00
  7.005284e+00    3.012915e+00
  7.037036e+00    2.964816e+00
  7.068787e+00    2.994916e+00
  7.100538e+00    3.023015e+00
  7.132289e+00    3.010602e+00
  7.164040e+00    2.988594e+00
  7.195791e+00    2.980012e+00
  7.227542e+00    3.057716e+00
  7.259294e+00    2.970313e+00
  7.291045e+00    3.043169e+00
  7.322796e+00    3.079871e+00
  7.354547e+00    2.967369e+00
  7.386298e+00    2.998505e+00
  7.418049e+00    2.986391e+00
  7.449800e+00    2.992774e+00
  7.481552e+00    2.950448e+00
  7.513303e+00    2.986041e+00
  7.545054e+00    2.924812e+00
  7.576805e+00    2.932074e+00
  7.608556e+00    2.982383e+00
  7.640307e+00    2.938190e+00
  7.672058e+00    2.983022e+00
  7.703810e+00    2.957228e+00
  7.735561e+00    2.924441e+00
  7.767312e+00    2.944891e+00
  7.799063e+00    2.927425e+00
  7.830814e+00    2.920431e+00
  7.862565e+00    2.962815e+00
  7.894317e+00    2.874950e+00
  7.926068e+00    2.878397e+00
  7.957819e+00    2.948281e+00
  7.989570e+00    2.910390e+00
  8.021321e+00    2.933301e+00
  8.053072e+00    2.931195e+00
  8.084823e+00    2.900136e+00
  8.116575e+00    2.925554e+00
  8.148326e+00    2.919106e+00
  8.180077e+00    2.944463e+00
  8.211828e+00    3.040455e+00
  8.243579e+00    3.050713e+00
  8.275330e+00    2.929545e+00
  8.307081e+00    2.899124e+00
  8.338833e+00    2.869433e+00
  8.370584e+00    2.834836e+00
  8.402335e+00    2.945519e+00
  8.434086e+00    2.957036e+00
  8.465837e+00    2.890473e+00
  8.497588e+00    2.889583e+00
  8.529339e+00    2.838250e+00
  8.561091e+00    2.870530e+00
  8.592842e+00    2.860302e+00
  8.624593e+00    2.891062e+00
  8.656344e+00    2.822460e+00
  8.688095e+00    2.853105e+00
  8.719846e+00    2.830396e+00
  8.751598e+00    2.874475e+00
  8.783349e+00    2.793636e+00
  8.815100e+00    2.860831e+00
  8.846851e+00    2.791964e+00
  8.878602e+00    2.799239e+00
  8.910353e+00    2.803460e+00
  8.942104e+00    2.833486e+00
  8.973856e+00    2.798094e+00
  9.005607e+00    2.848199e+00
  9.037358e+00    2.852478e+00
  9.069109e+00    2.846679e+00
  9.100860e+00    2.839404e+00
  9.132611e+00    2.819555e+00
  9.164362e+00    2.818269e+00
  9.196114e+00    2.770176e+00
  9.227865e+00    2.812174e+00
  9.259616e+00    2.774654e+00
  9.291367e+00    2.806597e+00
  9.323118e+00    2.825471e+00
  9.354869e+00    2.760859e+00
  9.386620e+00    2.808957e+00
  9.418372e+00    2.739916e+00
  9.450123e+00    2.799667e+00
  9.481874e+00    2.733339e+00
  9.513625e+00    2.809203e+00
  9.545376e+00    2.780920e+00
  9.577127e+00    2.771582e+00
  9.608878e+00    2.795629e+00
  9.640630e+00    2.788265e+00
  9.672381e+00    2.735954e+00
  9.704132e+00    2.702909e+00
  9.735883e+00    2.759746e+00
  9.767634e+00    2.710344e+00
  9.799385e+00    2.711424e+00
  9.831137e+00    2.655846e+00
  9.862888e+00    2.717521e+00
  9.894639e+00    2.644077e+00
  9.926390e+00    2.637936e+00
  9.958141e+00    2.674839e+00
  9.989892e+00    2.663466e+00
  1.002164e+01    2.673981e+00
  1.005339e+01    2.648198e+00
  1.008515e+01    2.661861e+00
  1.011690e+01    2.668730e+00
  1.014865e+01    2.634373e+00
  1.018040e+01    2.609248e+00
  1.021215e+01    2.640768e+00
  1.024390e+01    2.640229e+00
  1.027565e+01    2.585502e+00
  1.030740e+01    2.690866e+00
  1.033915e+01    2.666311e+00
  1.037091e+01    2.636469e+00
  1.040266e+01    2.593069e+00
  1.043441e+01    2.636489e+00
  1.046616e+01    2.592635e+00
  1.049791e+01    2.580485e+00
  1.052966e+01    2.529637e+00
  1.056141e+01    2.580446e+00
  1.059316e+01    2.559343e+00
  1.062492e+01    2.582835e+00
  1.065667e+01    2.572441e+00
  1.068842e+01    2.576967e+00
  1.072017e+01    2.594298e+00
  1.075192e+01    2.513178e+00
  1.078367e+01    2.522413e+00
  1.081542e+01    2.544650e+00
  1.084717e+01    2.542490e+00
  1.087892e+01    2.499252e+00
  1.091068e+01    2.497546e+00
  1.094243e+01    2.514141e+00
  1.097418e+01    2.491670e+00
  1.100593e+01    2.478008e+00
  1.103768e+01    2.410591e+00
  1.106943e+01    2.486810e+00
  1.110118e+01    2.487006e+00
  1.113293e+01    2.487689e+00
  1.116468e+01    2.468036e+00
  1.119644e+01    2.484846e+00
  1.122819e+01    2.464207e+00
  1.125994e+01    2.455598e+00
  1.129169e+01    2.425738e+00
  1.132344e+01    2.469619e+00
  1.135519e+01    2.436945e+00
  1.138694e+01    2.366751e+00
  1.141869e+01    2.416991e+00
  1.145045e+01    2.437174e+00
  1.148220e+01    2.443051e+00
  1.151395e+01    2.396037e+00
  1.154570e+01    2.371774e+00
  1.157745e+01    2.387805e+00
  1.160920e+01    2.379801e+00
  1.164095e+01    2.356748e+00
  1.167270e+01    2.386222e+00
  1.170445e+01    2.369836e+00
  1.173621e+01    2.391513e+00
  1.176796e+01    2.362743e+00
  1.179971e+01    2.394228e+00
  1.183146e+01    2.308597e+00
  1.186321e+01    2.403938e+00
  1.189496e+01    2.351652e+00
  1.192671e+01    2.336145e+00
  1.195846e+01    2.373239e+00
  1.199021e+01    2.313535e+00
  1.202197e+01    2.314964e+00
  1.205372e+01    2.334625e+00
  1.208547e+01    2.353588e+00
  1.211722e+01    2.361937e+00
  1.214897e+01    2.325097e+00
  1.218072e+01    2.291119e+00
  1.221247e+01    2.345940e+00
  1.224422e+01    2.340968e+00
  1.227597e+01    2.284499e+00
  1.230773e+01    2.340665e+00
  1.233948e+01    2.324293e+00
  1.237123e+01    2.338643e+00
  1.240298e+01    2.292227e+00
  1.243473e+01    2.350040e+00
  1.246648e+01    2.352818e+00
  1.249823e+01    2.357546e+00
  1.252998e+01    2.383246e+00
  1.256174e+01    2.355878e+00
  1.259349e+01    2.408894e+00
  1.262524e+01    2.437010e+00
  1.265699e+01    2.421634e+00
  1.268874e+01    2.451996e+00
  1.272049e+01    2.524807e+00
  1.275224e+01    2.592664e+00
  1.278399e+01    2.649420e+00
  1.281574e+01    2.731356e+00
  1.284750e+01    2.830976e+00
  1.287925e+01    3.038635e+00
  1.291100e+01    3.246240e+00
  1.294275e+01    3.688704e+00
  1.297450e+01    4.282276e+00
  1.300625e+01    5.280479e+00
  1.303800e+01    6.825217e+00
  1.306975e+01    9.204153e+00
  1.310150e+01    1.221978e+01
  1.313326e+01    1.502406e+01
  1.316501e+01    1.774249e+01
  1.319676e+01    1.902862e+01
  1.322851e+01    1.698543e+01
  1.326026e+01    1.276992e+01
  1.329201e+01    8.978456e+00
  1.332376e+01    6.583768e+00
  1.335551e+01    5.020460e+00
  1.338727e+01    4.223055e+00
  1.341902e+01    3.642676e+00
  1.345077e+01    3.217563e+00
  1.348252e+01    2.919392e+00
  1.351427e+01    2.787151e+00
  1.354602e+01    2.605513e+00
  1.357777e+01    2.472002e+00
  1.360952e+01    2.457448e+00
  1.364127e+01    2.400845e+00
  1.367303e+01    2.349014e+00
  1.370478e+01    2.326996e+00
  1.373653e+01    2.255784e+00
  1.376828e+01    2.188702e+00
  1.380003e+01    2.178734e+00
  1.383178e+01    2.159177e+00
  1.386353e+01    2.130533e+00
  1.389528e+01    2.130145e+00
  1.392703e+01    2.060294e+00
  1.395879e+01    2.076798e+00
  1.399054e+01    2.049003e+00
  1.402229e+01    2.079492e+00
  1.405404e+01    2.025955e+00
  1.408579e+01    2.068401e+00
  1.411754e+01    2.025107e+00
  1.414929e+01    1.984034e+00
  1.418104e+01    2.016087e+00
  1.421279e+01    2.034987e+00
  1.424455e+01    1.967255e+00
  1.427630e+01    1.966439e+00
  1.430805e+01    2.021586e+00
  1.433980e+01    1.953758e+00
  1.437155e+01    1.955925e+00
  1.440330e+01    1.922582e+00
  1.443505e+01    1.920477e+00
  1.446680e+01    1.936788e+00
  1.449856e+01    1.954643e+00
  1.453031e+01    1.957570e+00
  1.456206e+01    1.919127e+00
  1.459381e+01    1.914671e+00
  1.462556e+01    1.923446e+00
  1.465731e+01    1.914512e+00
  1.468906e+01    1.948584e+00
  1.472081e+01    1.909321e+00
  1.475256e+01    1.911978e+00
  1.478432e+01    1.939941e+00
  1.481607e+01    1.929328e+00
  1.484782e+01    1.894873e+00
  1.487957e+01    1.952282e+00
  1.491132e+01    1.983119e+00
  1.494307e+01    1.974451e+00
  1.497482e+01    2.097363e+00
  1.500657e+01    2.128302e+00
  1.503832e+01    2.273723e+00
  1.507008e+01    2.424759e+00
  1.510183e+01    2.797586e+00
  1.513358e+01    3.259533e+00
  1.516533e+01    4.058532e+00
  1.519708e+01    4.916790e+00
  1.522883e+01    5.648188e+00
  1.526058e+01    6.196537e+00
  1.529233e+01    6.362325e+00
  1.532409e+01    5.850661e+00
  1.535584e+01    4.627761e+00
  1.538759e+01    3.648591e+00
  1.541934e+01    2.948348e+00
  1.545109e+01    2.544372e+00
  1.548284e+01    2.331533e+00
  1.551459e+01    2.125228e+00
  1.554634e+01    2.054235e+00
  1.557809e+01    1.934775e+00
  1.560985e+01    1.875197e+00
  1.564160e+01    1.825370e+00
  1.567335e+01    1.779233e+00
  1.570510e+01    1.761070e+00
  1.573685e+01    1.730741e+00
  1.576860e+01    1.727974e+00
  1.580035e+01    1.691533e+00
  1.583210e+01    1.647790e+00
  1.586385e+01    1.699433e+00
  1.589561e+01    1.622797e+00
  1.592736e+01    1.656773e+00
  1.595911e+01    1.620439e+00
  1.599086e+01    1.615261e+00
  1.602261e+01    1.608361e+00
  1.605436e+01    1.615573e+00
  1.608611e+01    1.615047e+00
  1.611786e+01    1.590312e+00
  1.614961e+01    1.590620e+00
  1.618137e+01    1.578588e+00
  1.621312e+01    1.613593e+00
  1.624487e+01    1.534558e+00
  1.627662e+01    1.559590e+00
  1.630837e+01    1.526428e+00
  1.634012e+01    1.525187e+00
  1.637187e+01    1.568941e+00
  1.640362e+01    1.559333e+00
  1.643538e+01    1.496169e+00
  1.646713e+01    1.509202e+00
  1.649888e+01    1.556379e+00
  1.653063e+01    1.512382e+00
  1.656238e+01    1.497613e+00
  1.659413e+01    1.520130e+00
  1.662588e+01    1.481434e+00
  1.665763e+01    1.506060e+00
  1.668938e+01    1.453694e+00
  1.672114e+01    1.446445e+00
  1.675289e+01    1.451524e+00
  1.678464e+01    1.469618e+00
  1.681639e+01    1.456942e+00
  1.684814e+01    1.480917e+00
  1.687989e+01    1.459235e+00
  1.691164e+01    1.476335e+00
  1.694339e+01    1.451713e+00
  1.697514e+01    1.413585e+00
  1.700690e+01    1.450698e+00
  1.703865e+01    1.439202e+00
  1.707040e+01    1.422454e+00
  1.710215e+01    1.434720e+00
  1.713390e+01    1.436298e+00
  1.716565e+01    1.407837e+00
  1.719740e+01    1.390985e+00
  1.722915e+01    1.361409e+00
  1.726091e+01    1.404961e+00
  1.729266e+01    1.385835e+00
  1.732441e+01    1.400152e+00
  1.735616e+01    1.386194e+00
  1.738791e+01    1.386529e+00
  1.741966e+01    1.376067e+00
  1.745141e+01    1.366418e+00
  1.748316e+01    1.353866e+00
  1.751491e+01    1.382801e+00
  1.754667e+01    1.344917e+00
  1.757842e+01    1.371222e+00
  1.761017e+01    1.355878e+00
  1.764192e+01    1.349312e+00
  1.767367e+01    1.339647e+00
  1.770542e+01    1.315900e+00
  1.773717e+01    1.333037e+00
  1.776892e+01    1.346938e+00
  1.780067e+01    1.360410e+00
  1.783243e+01    1.314214e+00
  1.786418e+01    1.329999e+00
  1.789593e+01    1.293177e+00
  1.792768e+01    1.283236e+00
  1.795943e+01    1.312396e+00
  1.799118e+01    1.325195e+00
  1.802293e+01    1.283019e+00
  1.805468e+01    1.309585e+00
  1.808643e+01    1.280288e+00
  1.811819e+01    1.302220e+00
  1.814994e+01    1.286362e+00
  1.818169e+01    1.250213e+00
  1.821344e+01    1.254570e+00
  1.824519e+01    1.286415e+00
  1.827694e+01    1.281168e+00
  1.830869e+01    1.296596e+00
  1.834044e+01    1.275132e+00
  1.837220e+01    1.264861e+00
  1.840395e+01    1.267347e+00
  1.843570e+01    1.276701e+00
  1.846745e+01    1.259375e+00
  1.849920e+01    1.265549e+00
  1.853095e+01    1.236399e+00
  1.856270e+01    1.263415e+00
  1.859445e+01    1.255245e+00
  1.862620e+01    1.213877e+00
  1.865796e+01    1.245132e+00
  1.868971e+01    1.246518e+00
  1.872146e+01    1.231708e+00
  1.875321e+01    1.239026e+00
  1.878496e+01    1.245910e+00
  1.881671e+01    1.218653e+00
  1.884846e+01    1.200305e+00
  1.888021e+01    1.216803e+00
  1.891196e+01    1.227911e+00
  1.894372e+01    1.182536e+00
  1.897547e+01    1.205169e+00
  1.900722e+01    1.200962e+00
  1.903897e+01    1.217247e+00
  1.907072e+01    1.183032e+00
  1.910247e+01    1.185985e+00
  1.913422e+01    1.203038e+00
  1.916597e+01    1.195617e+00
  1.919773e+01    1.168655e+00
  1.922948e+01    1.207174e+00
  1.926123e+01    1.174787e+00
  1.929298e+01    1.150848e+00
  1.932473e+01    1.169047e+00
  1.935648e+01    1.156061e+00
  1.938823e+01    1.201557e+00
  1.941998e+01    1.169315e+00
  1.945173e+01    1.177473e+00
  1.948349e+01    1.166572e+00
  1.951524e+01    1.146033e+00
  1.954699e+01    1.167378e+00
  1.957874e+01    1.177084e+00
  1.961049e+01    1.177465e+00
  1.964224e+01    1.173616e+00
  1.967399e+01    1.163469e+00
  1.970574e+01    1.149492e+00
  1.973749e+01    1.148024e+00
  1.976925e+01    1.154296e+00
  1.980100e+01    1.170773e+00
  1.983275e+01    1.146818e+00
  1.986450e+01    1.132786e+00
  1.989625e+01    1.150456e+00
  1.992800e+01    1.128998e+00
  1.995975e+01    1.131354e+00
  1.999150e+01    1.103609e+00
  2.002325e+01    1.110907e+00
  2.005501e+01    1.130389e+00
  2.008676e+01    1.097772e+00
  2.011851e+01    1.117913e+00
  2.015026e+01    1.111903e+00
  2.018201e+01    1.138108e+00
  2.021376e+01    1.113563e+00
  2.024551e+01    1.111453e+00
  2.027726e+01    1.097913e+00
  2.030902e+01    1.129508e+00
  2.034077e+01    1.106226e+00
  2.037252e+01    1.103573e+00
  2.040427e+01    1.112321e+00
  2.043602e+01    1.080332e+00
  2.046777e+01    1.070463e+00
  2.049952e+01    1.078166e+00
  2.053127e+01    1.097232e+00
  2.056302e+01    1.067093e+00
  2.059478e+01    1.099913e+00
  2.062653e+01    1.078605e+00
  2.065828e+01    1.093501e+00
  2.069003e+01    1.082120e+00
  2.072178e+01    1.072536e+00
  2.075353e+01    1.067924e+00
  2.078528e+01    1.079139e+00
  2.081703e+01    1.095248e+00
  2.084878e+01    1.081193e+00
  2.088054e+01    1.073776e+00
  2.091229e+01    1.111339e+00
  2.094404e+01    1.089703e+00
  2.097579e+01    1.092493e+00
  2.100754e+01    1.071035e+00
  2.103929e+01    1.103885e+00
  2.107104e+01    1.085744e+00
  2.110279e+01    1.089963e+00
  2.113455e+01    1.102026e+00
  2.116630e+01    1.099663e+00
  2.119805e+01    1.127652e+00
  2.122980e+01    1.121244e+00
  2.126155e+01    1.136640e+00
  2.129330e+01    1.138842e+00
  2.132505e+01    1.145906e+00
  2.135680e+01    1.130543e+00
  2.138855e+01    1.164803e+00
  2.142031e+01    1.190126e+00
  2.145206e+01    1.197934e+00
  2.148381e+01    1.257371e+00
  2.151556e+01    1.335407e+00
  2.154731e+01    1.386332e+00
  2.157906e+01    1.442014e+00
  2.161081e+01    1.563950e+00
  2.164256e+01    1.708143e+00
  2.167431e+01    1.972794e+00
  2.170607e+01    2.389097e+00
  2.173782e+01    2.953020e+00
  2.176957e+01    3.776256e+00
  2.180132e+01    5.006725e+00
  2.183307e+01    6.590315e+00
  2.186482e+01    8.225774e+00
  2.189657e+01    9.865792e+00
  2.192832e+01    1.059016e+01
  2.196007e+01    9.670182e+00
  2.199183e+01    7.433656e+00
  2.202358e+01    5.325548e+00
  2.205533e+01    3.895424e+00
  2.208708e+01    2.941929e+00
  2.211883e+01    2.369009e+00
  2.215058e+01    2.018980e+00
  2.218233e+01    1.737171e+00
  2.221408e+01    1.557906e+00
  2.224584e+01    1.447626e+00
  2.227759e+01    1.334559e+00
  2.230934e+01    1.261681e+00
  2.234109e+01    1.180318e+00
  2.237284e+01    1.158715e+00
  2.240459e+01    1.121656e+00
  2.243634e+01    1.098125e+00
  2.246809e+01    1.068336e+00
  2.249984e+01    1.063269e+00
  2.253160e+01    1.042382e+00
  2.256335e+01    1.004918e+00
  2.259510e+01    1.025306e+00
  2.262685e+01    1.010593e+00
  2.265860e+01    9.874105e-01
  2.269035e+01    9.573089e-01
  2.272210e+01    9.895973e-01
  2.275385e+01    9.869401e-01
  2.278560e+01    9.290591e-01
  2.281736e+01    9.291384e-01
  2.284911e+01    9.242796e-01
  2.288086e+01    9.268781e-01
  2.291261e+01    9.084746e-01
  2.294436e+01    9.197738e-01
  2.297611e+01    9.076657e-01
  2.300786e+01    8.918547e-01
  2.303961e+01    9.012030e-01
  2.307137e+01    9.200181e-01
  2.310312e+01    8.946794e-01
  2.313487e+01    9.046341e-01
  2.316662e+01    8.826482e-01
  2.319837e+01    8.700507e-01
  2.323012e+01    8.865834e-01
  2.326187e+01    8.837901e-01
  2.329362e+01    8.609130e-01
  2.332537e+01    8.951332e-01
  2.335713e+01    8.643616e-01
  2.338888e+01    8.673921e-01
  2.342063e+01    8.781818e-01
  2.345238e+01    8.551108e-01
  2.348413e+01    8.407615e-01
  2.351588e+01    8.576097e-01
  2.354763e+01    8.506392e-01
  2.357938e+01    8.613318e-01
  2.361113e+01    8.604773e-01
  2.364289e+01    8.351717e-01
  2.367464e+01    8.456218e-01
  2.370639e+01    8.392439e-01
  2.373814e+01    8.132676e-01
  2.376989e+01    8.052615e-01
  2.380164e+01    8.195803e-01
  2.383339e+01    8.252499e-01
  2.386514e+01    8.231447e-01
  2.389689e+01    8.142730e-01
  2.392865e+01    8.120733e-01
  2.396040e+01    7.972952e-01
  2.399215e+01    7.771149e-01
  2.402390e+01    7.887273e-01
  2.405565e+01    7.944633e-01
  2.408740e+01    7.846168e-01
  2.411915e+01    7.939451e-01
  2.415090e+01    7.752834e-01
  2.418266e+01    8.083885e-01
  2.421441e+01    7.981315e-01
  2.424616e+01    7.822948e-01
  2.427791e+01    7.877296e-01
  2.430966e+01    7.996593e-01
  2.434141e+01    8.016537e-01
  2.437316e+01    8.103458e-01
  2.440491e+01    7.889387e-01
  2.443666e+01    7.797257e-01
  2.446842e+01    8.012824e-01
  2.450017e+01    7.942564e-01
  2.453192e+01    7.899554e-01
  2.456367e+01    8.115287e-01
  2.459542e+01    7.974182e-01
  2.462717e+01    8.090721e-01
  2.465892e+01    7.869459e-01
  2.469067e+01    8.193453e-01
  2.472242e+01    7.927395e-01
  2.475418e+01    8.173108e-01
  2.478593e+01    8.025268e-01
  2.481768e+01    7.898921e-01
  2.484943e+01    7.838869e-01
  2.488118e+01    8.060957e-01
  2.491293e+01    8.067506e-01
  2.494468e+01    7.804943e-01
  2.497643e+01    8.004214e-01
  2.500819e+01    8.218263e-01
  2.503994e+01    8.190134e-01
  2.507169e+01    8.043287e-01
  2.510344e+01    8.372561e-01
  2.513519e+01    8.205105e-01
  2.516694e+01    8.347167e-01
  2.519869e+01    8.378544e-01
  2.523044e+01    8.521701e-01
  2.526219e+01    8.571211e-01
  2.529395e+01    8.706599e-01
  2.532570e+01    9.009586e-01
  2.535745e+01    8.877972e-01
  2.538920e+01    8.935022e-01
  2.542095e+01    9.071805e-01
  2.545270e+01    9.505854e-01
  2.548445e+01    9.506321e-01
  2.551620e+01    9.919719e-01
  2.554795e+01    1.002400e+00
  2.557971e+01    1.081748e+00
  2.561146e+01    1.102461e+00
  2.564321e+01    1.198284e+00
  2.567496e+01    1.297479e+00
  2.570671e+01    1.411022e+00
  2.573846e+01    1.616873e+00
  2.577021e+01    1.919930e+00
  2.580196e+01    2.316325e+00
  2.583371e+01    2.980019e+00
  2.586547e+01    3.860459e+00
  2.589722e+01    5.076142e+00
  2.592897e+01    6.574548e+00
  2.596072e+01    7.996738e+00
  2.599247e+01    8.739617e+00
  2.602422e+01    8.209719e+00
  2.605597e+01    6.723482e+00
  2.608772e+01    4.948220e+00
  2.611948e+01    3.590542e+00
  2.615123e+01    2.727774e+00
  2.618298e+01    2.177629e+00
  2.621473e+01    1.833309e+00
  2.624648e+01    1.568580e+00
  2.627823e+01    1.385039e+00
  2.630998e+01    1.268647e+00
  2.634173e+01    1.188688e+00
  2.637348e+01    1.107047e+00
  2.640524e+01    1.051764e+00
  2.643699e+01    1.037811e+00
  2.646874e+01    1.002439e+00
  2.650049e+01    9.805521e-01
  2.653224e+01    9.593079e-01
  2.656399e+01    9.478067e-01
  2.659574e+01    9.354414e-01
  2.662749e+01    9.374574e-01
  2.665924e+01    9.315886e-01
  2.669100e+01    9.071814e-01
  2.672275e+01    9.416147e-01
  2.675450e+01    9.293149e-01
  2.678625e+01    9.176630e-01
  2.681800e+01    9.127515e-01
  2.684975e+01    9.262906e-01
  2.688150e+01    9.262244e-01
  2.691325e+01    9.200568e-01
  2.694501e+01    9.794065e-01
  2.697676e+01    9.808422e-01
  2.700851e+01    1.010053e+00
  2.704026e+01    1.050600e+00
  2.707201e+01    1.176798e+00
  2.710376e+01    1.271927e+00
  2.713551e+01    1.462495e+00
  2.716726e+01    1.756098e+00
  2.719901e+01    2.122327e+00
  2.723077e+01    2.396119e+00
  2.726252e+01    2.499862e+00
  2.729427e+01    2.309746e+00
  2.732602e+01    1.976910e+00
  2.735777e+01    1.595970e+00
  2.738952e+01    1.381467e+00
  2.742127e+01    1.188133e+00
  2.745302e+01    1.104941e+00
  2.748477e+01    1.028062e+00
  2.751653e+01    9.939781e-01
  2.754828e+01    9.401064e-01
  2.758003e+01    8.848752e-01
  2.761178e+01    8.848420e-01
  2.764353e+01    8.861858e-01
  2.767528e+01    8.733080e-01
  2.770703e+01    8.458642e-01
  2.773878e+01    8.317329e-01
  2.777054e+01    8.427877e-01
  2.780229e+01    8.155457e-01
  2.783404e+01    8.162758e-01
  2.786579e+01    8.021448e-01
  2.789754e+01    8.225844e-01
  2.792929e+01    8.133591e-01
  2.796104e+01    8.171301e-01
  2.799279e+01    8.071111e-01
  2.802454e+01    8.175540e-01
  2.805630e+01    7.943826e-01
  2.808805e+01    7.837722e-01
  2.811980e+01    7.775028e-01
  2.815155e+01    7.860990e-01
  2.818330e+01    7.819759e-01
  2.821505e+01    7.828183e-01
  2.824680e+01    8.052433e-01
  2.827855e+01    7.774174e-01
  2.831030e+01    7.792222e-01
  2.834206e+01    7.562960e-01
  2.837381e+01    7.681144e-01
  2.840556e+01    7.582515e-01
  2.843731e+01    7.645267e-01
  2.846906e+01    7.629948e-01
  2.850081e+01    7.720898e-01
  2.853256e+01    7.746520e-01
  2.856431e+01    7.824365e-01
  2.859606e+01    7.734419e-01
  2.862782e+01    7.583466e-01
  2.865957e+01    7.547246e-01
  2.869132e+01    7.433783e-01
  2.872307e+01    7.482353e-01
  2.875482e+01    7.420515e-01
  2.878657e+01    7.632267e-01
  2.881832e+01    7.677742e-01
  2.885007e+01    7.426749e-01
  2.888183e+01    7.431113e-01
  2.891358e+01    7.573876e-01
  2.894533e+01    7.392300e-01
  2.897708e+01    7.507665e-01
  2.900883e+01    7.270963e-01
  2.904058e+01    7.549762e-01
  2.907233e+01    7.536730e-01
  2.910408e+01    7.584291e-01
  2.913583e+01    7.598619e-01
  2.916759e+01    7.298026e-01
  2.919934e+01    7.512304e-01
  2.923109e+01    7.527218e-01
  2.926284e+01    7.265351e-01
  2.929459e+01    7.365986e-01
  2.932634e+01    7.227561e-01
  2.935809e+01    7.487043e-01
  2.938984e+01    7.397198e-01
  2.942159e+01    7.399918e-01
  2.945335e+01    7.198542e-01
  2.948510e+01    7.103155e-01
  2.951685e+01    7.340407e-01
  2.954860e+01    6.985919e-01
  2.958035e+01    7.369538e-01
  2.961210e+01    7.316626e-01
  2.964385e+01    7.234983e-01
  2.967560e+01    7.196406e-01
  2.970736e+01    7.235656e-01
  2.973911e+01    7.158958e-01
  2.977086e+01    7.321660e-01
  2.980261e+01    7.273847e-01
  2.983436e+01    7.249337e-01
  2.986611e+01    7.228950e-01
  2.989786e+01    7.065010e-01
  2.992961e+01    7.310405e-01
  2.996136e+01    7.422873e-01
  2.999312e+01    7.473252e-01
  3.002487e+01    7.348173e-01
  3.005662e+01    7.301794e-01
  3.008837e+01    7.587793e-01
  3.012012e+01    7.588394e-01
  3.015187e+01    7.155320e-01
  3.018362e+01    7.270497e-01
  3.021537e+01    7.001558e-01
  3.024712e+01    7.038154e-01
  3.027888e+01    7.145424e-01
  3.031063e+01    7.218001e-01
  3.034238e+01    7.347046e-01
  3.037413e+01    7.269507e-01
  3.040588e+01    7.189974e-01
  3.043763e+01    7.227178e-01
  3.046938e+01    7.264988e-01
  3.050113e+01    7.232534e-01
  3.053288e+01    7.283862e-01
  3.056464e+01    7.071826e-01
  3.059639e+01    7.319282e-01
  3.062814e+01    7.140481e-01
  3.065989e+01    7.035156e-01
  3.069164e+01    7.149898e-01
  3.072339e+01    7.467390e-01
  3.075514e+01    7.180601e-01
  3.078689e+01    7.049302e-01
  3.081865e+01    7.424501e-01
  3.085040e+01    7.357821e-01
  3.088215e+01    7.330438e-01
  3.091390e+01    7.372959e-01
  3.094565e+01    7.070931e-01
  3.097740e+01    7.279384e-01
  3.100915e+01    7.507643e-01
  3.104090e+01    7.225819e-01
  3.107265e+01    7.093936e-01
  3.110441e+01    7.095935e-01
  3.113616e+01    7.506307e-01
  3.116791e+01    7.298272e-01
  3.119966e+01    7.173492e-01
  3.123141e+01    7.395739e-01
  3.126316e+01    7.487283e-01
  3.129491e+01    7.284656e-01
  3.132666e+01    7.318281e-01
  3.135841e+01    7.545834e-01
  3.139017e+01    7.598496e-01
  3.142192e+01    7.478787e-01
  3.145367e+01    7.673551e-01
  3.148542e+01    7.700149e-01
  3.151717e+01    7.780021e-01
  3.154892e+01    7.809195e-01
  3.158067e+01    8.160114e-01
  3.161242e+01    8.179306e-01
  3.164418e+01    8.294026e-01
  3.167593e+01    8.940958e-01
  3.170768e+01    9.372578e-01
  3.173943e+01    1.001320e+00
  3.177118e+01    1.099284e+00
  3.180293e+01    1.257641e+00
  3.183468e+01    1.462669e+00
  3.186643e+01    1.776007e+00
  3.189818e+01    2.129359e+00
  3.192994e+01    2.392742e+00
  3.196169e+01    2.481127e+00
  3.199344e+01    2.274860e+00
  3.202519e+01    1.913001e+00
  3.205694e+01    1.568205e+00
  3.208869e+01    1.256489e+00
  3.212044e+01    1.122032e+00
  3.215219e+01    1.001914e+00
  3.218394e+01    9.288313e-01
  3.221570e+01    8.663778e-01
  3.224745e+01    8.289323e-01
  3.227920e+01    8.108495e-01
  3.231095e+01    8.190237e-01
  3.234270e+01    7.611159e-01
  3.237445e+01    7.788403e-01
  3.240620e+01    7.740489e-01
  3.243795e+01    7.801627e-01
  3.246970e+01    7.266071e-01
  3.250146e+01    7.473697e-01
  3.253321e+01    7.469180e-01
  3.254908e+01    7.266783e-01