File: XRD/Activation ramp/2024-07-27_002_Ru-CGO-ex_Activtation_ramp_000002_data_000008.dat
# == pyFAI calibration ==
# Distance Sample to Detector: 0.4 m
# PONI: 9.750e-02, 1.135e-01 m
# Rotations: -0.000175 0.000000 -0.000000 rad
#
# == Fit2d calibration ==
# Distance Sample-beamCenter: 400.000 mm
# Center: x=1514.000, y=1300.000 pix
# Tilt: 0.010 deg  TiltPlanRot: 0.010 deg
#
# Detector Detector	 Spline= None	 PixelSize= 7.500e-05, 7.500e-05 m
#    Detector has a mask: False
#    Detector has a dark current: False
#    detector has a flat field: False
#
# Wavelength: 6.888e-11 m
# Mask applied: user provided
# Dark current applied: False
# Flat field applied: False
# Polarization factor: 0.99
# Normalization factor: 1.0
# --> /home/myspot/data/2024_07_Rosario/Ru-CGO-ex/2024-07-27_002_Ru-CGO-ex_Activtation_ramp_000002_data_000008.dat
#       q_nm^-1             I
  2.003187e-02    0.000000e+00
  5.178302e-02    1.849798e-01
  8.353417e-02    8.497079e-02
  1.152853e-01    4.940803e-02
  1.470365e-01    1.320582e-01
  1.787876e-01    3.293341e-02
  2.105388e-01    7.960437e-02
  2.422899e-01    4.598907e-02
  2.740411e-01    1.006980e-02
  3.057922e-01    2.475732e-02
  3.375433e-01    1.202467e-02
  3.692945e-01    4.373946e-02
  4.010456e-01    3.799324e-02
  4.327968e-01    5.948724e-02
  4.645479e-01    3.754138e-02
  4.962991e-01    3.438126e-02
  5.280502e-01    7.085704e-02
  5.598014e-01    5.168355e-02
  5.915525e-01    4.300997e-02
  6.233037e-01    1.223993e-02
  6.550548e-01    2.988057e-02
  6.868060e-01    3.898361e-02
  7.185571e-01    1.914559e-02
  7.503083e-01    4.449651e-02
  7.820594e-01    9.129348e-02
  8.138106e-01    1.642881e-01
  8.455617e-01    3.231723e-01
  8.773129e-01    3.951845e-01
  9.090640e-01    6.443627e-01
  9.408152e-01    7.521965e-01
  9.725663e-01    9.553878e-01
  1.004317e+00    1.069414e+00
  1.036069e+00    1.224755e+00
  1.067820e+00    1.277436e+00
  1.099571e+00    1.360256e+00
  1.131322e+00    1.351485e+00
  1.163073e+00    1.442049e+00
  1.194824e+00    1.572165e+00
  1.226575e+00    2.092157e+00
  1.258327e+00    2.346757e+00
  1.290078e+00    2.451161e+00
  1.321829e+00    2.564228e+00
  1.353580e+00    2.501215e+00
  1.385331e+00    2.795593e+00
  1.417082e+00    2.724901e+00
  1.448834e+00    2.801822e+00
  1.480585e+00    2.910505e+00
  1.512336e+00    2.980938e+00
  1.544087e+00    3.094303e+00
  1.575838e+00    3.053293e+00
  1.607589e+00    3.001050e+00
  1.639340e+00    3.069224e+00
  1.671092e+00    2.805348e+00
  1.702843e+00    2.917814e+00
  1.734594e+00    2.893944e+00
  1.766345e+00    2.898936e+00
  1.798096e+00    2.934089e+00
  1.829847e+00    2.984989e+00
  1.861598e+00    2.887972e+00
  1.893350e+00    2.846466e+00
  1.925101e+00    2.805359e+00
  1.956852e+00    2.844968e+00
  1.988603e+00    2.853243e+00
  2.020354e+00    2.850644e+00
  2.052105e+00    2.918108e+00
  2.083856e+00    2.828055e+00
  2.115608e+00    2.849393e+00
  2.147359e+00    2.772123e+00
  2.179110e+00    2.794787e+00
  2.210861e+00    2.814366e+00
  2.242612e+00    2.721926e+00
  2.274363e+00    2.826002e+00
  2.306115e+00    2.845333e+00
  2.337866e+00    2.838425e+00
  2.369617e+00    2.853988e+00
  2.401368e+00    2.885286e+00
  2.433119e+00    2.822193e+00
  2.464870e+00    2.832508e+00
  2.496621e+00    2.868200e+00
  2.528373e+00    2.911066e+00
  2.560124e+00    2.909386e+00
  2.591875e+00    2.912730e+00
  2.623626e+00    2.924732e+00
  2.655377e+00    2.889571e+00
  2.687128e+00    2.918986e+00
  2.718879e+00    2.815789e+00
  2.750631e+00    2.946604e+00
  2.782382e+00    2.960327e+00
  2.814133e+00    2.757168e+00
  2.845884e+00    3.022216e+00
  2.877635e+00    2.917568e+00
  2.909386e+00    2.868342e+00
  2.941137e+00    2.902974e+00
  2.972889e+00    2.913409e+00
  3.004640e+00    2.973605e+00
  3.036391e+00    2.870146e+00
  3.068142e+00    2.921884e+00
  3.099893e+00    3.014935e+00
  3.131644e+00    2.942499e+00
  3.163395e+00    2.909749e+00
  3.195147e+00    2.948191e+00
  3.226898e+00    2.990846e+00
  3.258649e+00    2.985388e+00
  3.290400e+00    2.938678e+00
  3.322151e+00    2.930101e+00
  3.353902e+00    3.007906e+00
  3.385654e+00    3.054169e+00
  3.417405e+00    3.022434e+00
  3.449156e+00    2.980290e+00
  3.480907e+00    2.969688e+00
  3.512658e+00    2.913911e+00
  3.544409e+00    2.960962e+00
  3.576160e+00    3.004498e+00
  3.607912e+00    2.981949e+00
  3.639663e+00    2.968776e+00
  3.671414e+00    3.014704e+00
  3.703165e+00    3.051135e+00
  3.734916e+00    2.978918e+00
  3.766667e+00    2.994034e+00
  3.798418e+00    3.014593e+00
  3.830170e+00    3.036673e+00
  3.861921e+00    3.068154e+00
  3.893672e+00    3.071641e+00
  3.925423e+00    3.166827e+00
  3.957174e+00    3.075743e+00
  3.988925e+00    3.050477e+00
  4.020676e+00    3.059574e+00
  4.052428e+00    3.052445e+00
  4.084179e+00    3.009019e+00
  4.115930e+00    3.126589e+00
  4.147681e+00    3.021305e+00
  4.179432e+00    2.975059e+00
  4.211183e+00    3.159923e+00
  4.242935e+00    3.059399e+00
  4.274686e+00    3.049341e+00
  4.306437e+00    3.111367e+00
  4.338188e+00    3.103524e+00
  4.369939e+00    3.036127e+00
  4.401690e+00    3.116167e+00
  4.433441e+00    3.055490e+00
  4.465193e+00    3.018870e+00
  4.496944e+00    3.159578e+00
  4.528695e+00    3.118282e+00
  4.560446e+00    3.102074e+00
  4.592197e+00    3.213546e+00
  4.623948e+00    3.171724e+00
  4.655699e+00    3.056829e+00
  4.687451e+00    3.152400e+00
  4.719202e+00    3.148181e+00
  4.750953e+00    3.154112e+00
  4.782704e+00    3.109821e+00
  4.814455e+00    3.178780e+00
  4.846206e+00    3.266547e+00
  4.877957e+00    3.176361e+00
  4.909709e+00    3.110162e+00
  4.941460e+00    3.208533e+00
  4.973211e+00    3.103298e+00
  5.004962e+00    3.165629e+00
  5.036713e+00    3.130502e+00
  5.068464e+00    3.171440e+00
  5.100216e+00    3.135787e+00
  5.131967e+00    3.173253e+00
  5.163718e+00    3.150611e+00
  5.195469e+00    3.143011e+00
  5.227220e+00    3.169469e+00
  5.258971e+00    3.098752e+00
  5.290722e+00    3.131920e+00
  5.322474e+00    3.061543e+00
  5.354225e+00    3.182057e+00
  5.385976e+00    3.254532e+00
  5.417727e+00    3.094484e+00
  5.449478e+00    3.079539e+00
  5.481229e+00    3.094842e+00
  5.512980e+00    3.070173e+00
  5.544732e+00    3.081445e+00
  5.576483e+00    3.153735e+00
  5.608234e+00    3.162396e+00
  5.639985e+00    3.129957e+00
  5.671736e+00    3.151701e+00
  5.703487e+00    3.110150e+00
  5.735238e+00    3.147101e+00
  5.766990e+00    3.143373e+00
  5.798741e+00    3.026197e+00
  5.830492e+00    3.052560e+00
  5.862243e+00    3.082416e+00
  5.893994e+00    3.143936e+00
  5.925745e+00    3.140739e+00
  5.957497e+00    3.062336e+00
  5.989248e+00    3.041048e+00
  6.020999e+00    3.026830e+00
  6.052750e+00    3.070473e+00
  6.084501e+00    3.070729e+00
  6.116252e+00    3.224436e+00
  6.148003e+00    3.050606e+00
  6.179755e+00    3.045765e+00
  6.211506e+00    3.162142e+00
  6.243257e+00    3.119922e+00
  6.275008e+00    3.103007e+00
  6.306759e+00    3.086643e+00
  6.338510e+00    3.099682e+00
  6.370261e+00    3.079677e+00
  6.402013e+00    3.008166e+00
  6.433764e+00    3.093929e+00
  6.465515e+00    3.012831e+00
  6.497266e+00    3.115221e+00
  6.529017e+00    3.107837e+00
  6.560768e+00    3.131405e+00
  6.592519e+00    3.049333e+00
  6.624271e+00    3.007827e+00
  6.656022e+00    3.003545e+00
  6.687773e+00    3.077896e+00
  6.719524e+00    3.101846e+00
  6.751275e+00    2.994409e+00
  6.783026e+00    3.052036e+00
  6.814777e+00    3.065276e+00
  6.846529e+00    3.031337e+00
  6.878280e+00    3.017542e+00
  6.910031e+00    3.030633e+00
  6.941782e+00    2.991556e+00
  6.973533e+00    3.002825e+00
  7.005284e+00    3.051790e+00
  7.037036e+00    3.047875e+00
  7.068787e+00    3.052149e+00
  7.100538e+00    3.053689e+00
  7.132289e+00    3.053268e+00
  7.164040e+00    3.085157e+00
  7.195791e+00    3.035479e+00
  7.227542e+00    3.019997e+00
  7.259294e+00    3.059244e+00
  7.291045e+00    3.049750e+00
  7.322796e+00    3.007295e+00
  7.354547e+00    3.046204e+00
  7.386298e+00    3.015796e+00
  7.418049e+00    2.994462e+00
  7.449800e+00    3.023651e+00
  7.481552e+00    2.962176e+00
  7.513303e+00    3.025959e+00
  7.545054e+00    3.012187e+00
  7.576805e+00    2.936855e+00
  7.608556e+00    3.017915e+00
  7.640307e+00    2.959031e+00
  7.672058e+00    2.987123e+00
  7.703810e+00    2.979043e+00
  7.735561e+00    2.982008e+00
  7.767312e+00    2.939597e+00
  7.799063e+00    3.029670e+00
  7.830814e+00    2.955685e+00
  7.862565e+00    2.943748e+00
  7.894317e+00    3.024789e+00
  7.926068e+00    2.906948e+00
  7.957819e+00    3.025628e+00
  7.989570e+00    2.980353e+00
  8.021321e+00    2.970448e+00
  8.053072e+00    3.012459e+00
  8.084823e+00    2.946240e+00
  8.116575e+00    2.908601e+00
  8.148326e+00    2.999320e+00
  8.180077e+00    3.021657e+00
  8.211828e+00    2.919747e+00
  8.243579e+00    2.952883e+00
  8.275330e+00    2.937079e+00
  8.307081e+00    2.939651e+00
  8.338833e+00    2.965740e+00
  8.370584e+00    2.875606e+00
  8.402335e+00    2.892152e+00
  8.434086e+00    2.885903e+00
  8.465837e+00    2.944063e+00
  8.497588e+00    2.930646e+00
  8.529339e+00    2.890317e+00
  8.561091e+00    2.907480e+00
  8.592842e+00    2.963696e+00
  8.624593e+00    2.867612e+00
  8.656344e+00    2.925484e+00
  8.688095e+00    2.870800e+00
  8.719846e+00    2.858743e+00
  8.751598e+00    2.896538e+00
  8.783349e+00    2.870226e+00
  8.815100e+00    2.878020e+00
  8.846851e+00    2.853844e+00
  8.878602e+00    2.808689e+00
  8.910353e+00    2.878755e+00
  8.942104e+00    2.837835e+00
  8.973856e+00    2.899283e+00
  9.005607e+00    2.815631e+00
  9.037358e+00    2.839348e+00
  9.069109e+00    2.852211e+00
  9.100860e+00    2.858650e+00
  9.132611e+00    2.781233e+00
  9.164362e+00    2.800518e+00
  9.196114e+00    2.833967e+00
  9.227865e+00    2.886388e+00
  9.259616e+00    2.827819e+00
  9.291367e+00    2.813053e+00
  9.323118e+00    2.757454e+00
  9.354869e+00    2.776390e+00
  9.386620e+00    2.793813e+00
  9.418372e+00    2.732956e+00
  9.450123e+00    2.751223e+00
  9.481874e+00    2.799014e+00
  9.513625e+00    2.815523e+00
  9.545376e+00    2.807707e+00
  9.577127e+00    2.722316e+00
  9.608878e+00    2.788569e+00
  9.640630e+00    2.771725e+00
  9.672381e+00    2.831666e+00
  9.704132e+00    2.810994e+00
  9.735883e+00    2.693897e+00
  9.767634e+00    2.763283e+00
  9.799385e+00    2.754309e+00
  9.831137e+00    2.714126e+00
  9.862888e+00    2.789859e+00
  9.894639e+00    2.763742e+00
  9.926390e+00    2.785183e+00
  9.958141e+00    2.712946e+00
  9.989892e+00    2.726650e+00
  1.002164e+01    2.680362e+00
  1.005339e+01    2.752088e+00
  1.008515e+01    2.711403e+00
  1.011690e+01    2.650133e+00
  1.014865e+01    2.644310e+00
  1.018040e+01    2.660469e+00
  1.021215e+01    2.740465e+00
  1.024390e+01    2.677322e+00
  1.027565e+01    2.649965e+00
  1.030740e+01    2.721388e+00
  1.033915e+01    2.657427e+00
  1.037091e+01    2.682151e+00
  1.040266e+01    2.677526e+00
  1.043441e+01    2.637805e+00
  1.046616e+01    2.623951e+00
  1.049791e+01    2.624829e+00
  1.052966e+01    2.617131e+00
  1.056141e+01    2.626369e+00
  1.059316e+01    2.646108e+00
  1.062492e+01    2.565945e+00
  1.065667e+01    2.598420e+00
  1.068842e+01    2.602874e+00
  1.072017e+01    2.599068e+00
  1.075192e+01    2.549242e+00
  1.078367e+01    2.556332e+00
  1.081542e+01    2.563397e+00
  1.084717e+01    2.536838e+00
  1.087892e+01    2.551448e+00
  1.091068e+01    2.537464e+00
  1.094243e+01    2.461988e+00
  1.097418e+01    2.489642e+00
  1.100593e+01    2.522022e+00
  1.103768e+01    2.512547e+00
  1.106943e+01    2.486391e+00
  1.110118e+01    2.483330e+00
  1.113293e+01    2.544993e+00
  1.116468e+01    2.490754e+00
  1.119644e+01    2.460188e+00
  1.122819e+01    2.513984e+00
  1.125994e+01    2.465485e+00
  1.129169e+01    2.473169e+00
  1.132344e+01    2.449830e+00
  1.135519e+01    2.460879e+00
  1.138694e+01    2.431077e+00
  1.141869e+01    2.415698e+00
  1.145045e+01    2.415164e+00
  1.148220e+01    2.423306e+00
  1.151395e+01    2.438217e+00
  1.154570e+01    2.399956e+00
  1.157745e+01    2.424646e+00
  1.160920e+01    2.416831e+00
  1.164095e+01    2.413915e+00
  1.167270e+01    2.444176e+00
  1.170445e+01    2.394626e+00
  1.173621e+01    2.351856e+00
  1.176796e+01    2.363861e+00
  1.179971e+01    2.370679e+00
  1.183146e+01    2.403646e+00
  1.186321e+01    2.414844e+00
  1.189496e+01    2.394727e+00
  1.192671e+01    2.375384e+00
  1.195846e+01    2.328597e+00
  1.199021e+01    2.361958e+00
  1.202197e+01    2.317986e+00
  1.205372e+01    2.407089e+00
  1.208547e+01    2.398812e+00
  1.211722e+01    2.376752e+00
  1.214897e+01    2.386160e+00
  1.218072e+01    2.346984e+00
  1.221247e+01    2.373647e+00
  1.224422e+01    2.300508e+00
  1.227597e+01    2.369094e+00
  1.230773e+01    2.362420e+00
  1.233948e+01    2.341042e+00
  1.237123e+01    2.378644e+00
  1.240298e+01    2.345684e+00
  1.243473e+01    2.408803e+00
  1.246648e+01    2.389593e+00
  1.249823e+01    2.410750e+00
  1.252998e+01    2.408137e+00
  1.256174e+01    2.358649e+00
  1.259349e+01    2.449599e+00
  1.262524e+01    2.487976e+00
  1.265699e+01    2.474145e+00
  1.268874e+01    2.527150e+00
  1.272049e+01    2.489353e+00
  1.275224e+01    2.609157e+00
  1.278399e+01    2.679958e+00
  1.281574e+01    2.730097e+00
  1.284750e+01    2.825664e+00
  1.287925e+01    2.994919e+00
  1.291100e+01    3.325351e+00
  1.294275e+01    3.667052e+00
  1.297450e+01    4.330625e+00
  1.300625e+01    5.200753e+00
  1.303800e+01    6.554789e+00
  1.306975e+01    8.899197e+00
  1.310150e+01    1.200755e+01
  1.313326e+01    1.511808e+01
  1.316501e+01    1.801203e+01
  1.319676e+01    1.998302e+01
  1.322851e+01    1.878370e+01
  1.326026e+01    1.446434e+01
  1.329201e+01    1.010832e+01
  1.332376e+01    7.215349e+00
  1.335551e+01    5.566133e+00
  1.338727e+01    4.532060e+00
  1.341902e+01    3.855180e+00
  1.345077e+01    3.416299e+00
  1.348252e+01    3.098314e+00
  1.351427e+01    2.885483e+00
  1.354602e+01    2.703132e+00
  1.357777e+01    2.602587e+00
  1.360952e+01    2.523313e+00
  1.364127e+01    2.396591e+00
  1.367303e+01    2.394396e+00
  1.370478e+01    2.310644e+00
  1.373653e+01    2.310956e+00
  1.376828e+01    2.265719e+00
  1.380003e+01    2.321382e+00
  1.383178e+01    2.215357e+00
  1.386353e+01    2.146207e+00
  1.389528e+01    2.187737e+00
  1.392703e+01    2.133642e+00
  1.395879e+01    2.118220e+00
  1.399054e+01    2.096759e+00
  1.402229e+01    2.098965e+00
  1.405404e+01    2.086117e+00
  1.408579e+01    2.050047e+00
  1.411754e+01    2.088821e+00
  1.414929e+01    2.043344e+00
  1.418104e+01    1.999794e+00
  1.421279e+01    2.011858e+00
  1.424455e+01    2.026394e+00
  1.427630e+01    1.976802e+00
  1.430805e+01    2.017162e+00
  1.433980e+01    1.988608e+00
  1.437155e+01    1.996010e+00
  1.440330e+01    1.995424e+00
  1.443505e+01    1.970107e+00
  1.446680e+01    1.951779e+00
  1.449856e+01    1.930317e+00
  1.453031e+01    1.973189e+00
  1.456206e+01    1.953778e+00
  1.459381e+01    1.964669e+00
  1.462556e+01    1.963271e+00
  1.465731e+01    1.946666e+00
  1.468906e+01    1.976251e+00
  1.472081e+01    1.965821e+00
  1.475256e+01    1.943170e+00
  1.478432e+01    1.946294e+00
  1.481607e+01    1.922264e+00
  1.484782e+01    1.957037e+00
  1.487957e+01    1.966710e+00
  1.491132e+01    1.975043e+00
  1.494307e+01    2.056650e+00
  1.497482e+01    2.052171e+00
  1.500657e+01    2.145288e+00
  1.503832e+01    2.263854e+00
  1.507008e+01    2.446472e+00
  1.510183e+01    2.727427e+00
  1.513358e+01    3.219824e+00
  1.516533e+01    3.920909e+00
  1.519708e+01    4.863070e+00
  1.522883e+01    5.652462e+00
  1.526058e+01    6.386210e+00
  1.529233e+01    6.662906e+00
  1.532409e+01    6.332665e+00
  1.535584e+01    5.249010e+00
  1.538759e+01    4.020304e+00
  1.541934e+01    3.183204e+00
  1.545109e+01    2.699654e+00
  1.548284e+01    2.425414e+00
  1.551459e+01    2.169797e+00
  1.554634e+01    2.073521e+00
  1.557809e+01    1.936237e+00
  1.560985e+01    1.970373e+00
  1.564160e+01    1.864414e+00
  1.567335e+01    1.819426e+00
  1.570510e+01    1.804659e+00
  1.573685e+01    1.724971e+00
  1.576860e+01    1.785962e+00
  1.580035e+01    1.725766e+00
  1.583210e+01    1.764557e+00
  1.586385e+01    1.681429e+00
  1.589561e+01    1.694739e+00
  1.592736e+01    1.686913e+00
  1.595911e+01    1.658234e+00
  1.599086e+01    1.654040e+00
  1.602261e+01    1.650808e+00
  1.605436e+01    1.670931e+00
  1.608611e+01    1.645521e+00
  1.611786e+01    1.639864e+00
  1.614961e+01    1.611991e+00
  1.618137e+01    1.591402e+00
  1.621312e+01    1.569733e+00
  1.624487e+01    1.603552e+00
  1.627662e+01    1.561158e+00
  1.630837e+01    1.565294e+00
  1.634012e+01    1.545586e+00
  1.637187e+01    1.562289e+00
  1.640362e+01    1.554471e+00
  1.643538e+01    1.547432e+00
  1.646713e+01    1.553205e+00
  1.649888e+01    1.556057e+00
  1.653063e+01    1.525640e+00
  1.656238e+01    1.509680e+00
  1.659413e+01    1.552632e+00
  1.662588e+01    1.503178e+00
  1.665763e+01    1.545897e+00
  1.668938e+01    1.530946e+00
  1.672114e+01    1.517068e+00
  1.675289e+01    1.497076e+00
  1.678464e+01    1.500597e+00
  1.681639e+01    1.474136e+00
  1.684814e+01    1.502616e+00
  1.687989e+01    1.489077e+00
  1.691164e+01    1.477150e+00
  1.694339e+01    1.463482e+00
  1.697514e+01    1.488799e+00
  1.700690e+01    1.458273e+00
  1.703865e+01    1.471787e+00
  1.707040e+01    1.451837e+00
  1.710215e+01    1.462930e+00
  1.713390e+01    1.449348e+00
  1.716565e+01    1.434973e+00
  1.719740e+01    1.426683e+00
  1.722915e+01    1.436084e+00
  1.726091e+01    1.404797e+00
  1.729266e+01    1.404072e+00
  1.732441e+01    1.414374e+00
  1.735616e+01    1.446878e+00
  1.738791e+01    1.387447e+00
  1.741966e+01    1.427124e+00
  1.745141e+01    1.405315e+00
  1.748316e+01    1.406541e+00
  1.751491e+01    1.367411e+00
  1.754667e+01    1.407628e+00
  1.757842e+01    1.388316e+00
  1.761017e+01    1.379138e+00
  1.764192e+01    1.369343e+00
  1.767367e+01    1.354850e+00
  1.770542e+01    1.371765e+00
  1.773717e+01    1.367575e+00
  1.776892e+01    1.338265e+00
  1.780067e+01    1.361159e+00
  1.783243e+01    1.357788e+00
  1.786418e+01    1.338094e+00
  1.789593e+01    1.333010e+00
  1.792768e+01    1.358668e+00
  1.795943e+01    1.322701e+00
  1.799118e+01    1.348278e+00
  1.802293e+01    1.322691e+00
  1.805468e+01    1.346644e+00
  1.808643e+01    1.301318e+00
  1.811819e+01    1.331248e+00
  1.814994e+01    1.316993e+00
  1.818169e+01    1.286102e+00
  1.821344e+01    1.307903e+00
  1.824519e+01    1.282296e+00
  1.827694e+01    1.300356e+00
  1.830869e+01    1.298354e+00
  1.834044e+01    1.306017e+00
  1.837220e+01    1.292898e+00
  1.840395e+01    1.323511e+00
  1.843570e+01    1.288215e+00
  1.846745e+01    1.289986e+00
  1.849920e+01    1.268548e+00
  1.853095e+01    1.268675e+00
  1.856270e+01    1.286039e+00
  1.859445e+01    1.263385e+00
  1.862620e+01    1.263369e+00
  1.865796e+01    1.269309e+00
  1.868971e+01    1.230986e+00
  1.872146e+01    1.258328e+00
  1.875321e+01    1.258757e+00
  1.878496e+01    1.239322e+00
  1.881671e+01    1.220363e+00
  1.884846e+01    1.210849e+00
  1.888021e+01    1.221565e+00
  1.891196e+01    1.240703e+00
  1.894372e+01    1.207244e+00
  1.897547e+01    1.223261e+00
  1.900722e+01    1.201106e+00
  1.903897e+01    1.188017e+00
  1.907072e+01    1.204725e+00
  1.910247e+01    1.219179e+00
  1.913422e+01    1.220867e+00
  1.916597e+01    1.217824e+00
  1.919773e+01    1.220994e+00
  1.922948e+01    1.216807e+00
  1.926123e+01    1.211350e+00
  1.929298e+01    1.211378e+00
  1.932473e+01    1.222904e+00
  1.935648e+01    1.184696e+00
  1.938823e+01    1.186439e+00
  1.941998e+01    1.184068e+00
  1.945173e+01    1.179389e+00
  1.948349e+01    1.171214e+00
  1.951524e+01    1.172508e+00
  1.954699e+01    1.178815e+00
  1.957874e+01    1.164606e+00
  1.961049e+01    1.166717e+00
  1.964224e+01    1.178915e+00
  1.967399e+01    1.173047e+00
  1.970574e+01    1.162264e+00
  1.973749e+01    1.153677e+00
  1.976925e+01    1.140968e+00
  1.980100e+01    1.178663e+00
  1.983275e+01    1.186029e+00
  1.986450e+01    1.158347e+00
  1.989625e+01    1.128417e+00
  1.992800e+01    1.125345e+00
  1.995975e+01    1.154007e+00
  1.999150e+01    1.169829e+00
  2.002325e+01    1.146745e+00
  2.005501e+01    1.161408e+00
  2.008676e+01    1.122934e+00
  2.011851e+01    1.131392e+00
  2.015026e+01    1.163237e+00
  2.018201e+01    1.133997e+00
  2.021376e+01    1.136372e+00
  2.024551e+01    1.144432e+00
  2.027726e+01    1.126046e+00
  2.030902e+01    1.119541e+00
  2.034077e+01    1.097552e+00
  2.037252e+01    1.124605e+00
  2.040427e+01    1.089143e+00
  2.043602e+01    1.107098e+00
  2.046777e+01    1.100815e+00
  2.049952e+01    1.096993e+00
  2.053127e+01    1.098148e+00
  2.056302e+01    1.112546e+00
  2.059478e+01    1.098868e+00
  2.062653e+01    1.091739e+00
  2.065828e+01    1.092978e+00
  2.069003e+01    1.098237e+00
  2.072178e+01    1.094639e+00
  2.075353e+01    1.084395e+00
  2.078528e+01    1.092781e+00
  2.081703e+01    1.109024e+00
  2.084878e+01    1.089724e+00
  2.088054e+01    1.116909e+00
  2.091229e+01    1.112397e+00
  2.094404e+01    1.130276e+00
  2.097579e+01    1.103612e+00
  2.100754e+01    1.103230e+00
  2.103929e+01    1.077018e+00
  2.107104e+01    1.112931e+00
  2.110279e+01    1.091508e+00
  2.113455e+01    1.100793e+00
  2.116630e+01    1.121724e+00
  2.119805e+01    1.107383e+00
  2.122980e+01    1.133861e+00
  2.126155e+01    1.131133e+00
  2.129330e+01    1.158746e+00
  2.132505e+01    1.162401e+00
  2.135680e+01    1.162903e+00
  2.138855e+01    1.189741e+00
  2.142031e+01    1.191536e+00
  2.145206e+01    1.246014e+00
  2.148381e+01    1.279461e+00
  2.151556e+01    1.297578e+00
  2.154731e+01    1.352028e+00
  2.157906e+01    1.482782e+00
  2.161081e+01    1.549690e+00
  2.164256e+01    1.705355e+00
  2.167431e+01    1.934881e+00
  2.170607e+01    2.294546e+00
  2.173782e+01    2.786479e+00
  2.176957e+01    3.558681e+00
  2.180132e+01    4.745056e+00
  2.183307e+01    6.244842e+00
  2.186482e+01    7.971507e+00
  2.189657e+01    9.808230e+00
  2.192832e+01    1.108201e+01
  2.196007e+01    1.076245e+01
  2.199183e+01    8.858726e+00
  2.202358e+01    6.438662e+00
  2.205533e+01    4.632275e+00
  2.208708e+01    3.419720e+00
  2.211883e+01    2.656562e+00
  2.215058e+01    2.213415e+00
  2.218233e+01    1.888941e+00
  2.221408e+01    1.673033e+00
  2.224584e+01    1.543700e+00
  2.227759e+01    1.433361e+00
  2.230934e+01    1.320227e+00
  2.234109e+01    1.263442e+00
  2.237284e+01    1.198287e+00
  2.240459e+01    1.172358e+00
  2.243634e+01    1.131350e+00
  2.246809e+01    1.110108e+00
  2.249984e+01    1.064634e+00
  2.253160e+01    1.040195e+00
  2.256335e+01    1.049497e+00
  2.259510e+01    1.037066e+00
  2.262685e+01    1.024966e+00
  2.265860e+01    9.987062e-01
  2.269035e+01    9.849077e-01
  2.272210e+01    9.908727e-01
  2.275385e+01    9.644812e-01
  2.278560e+01    9.731079e-01
  2.281736e+01    9.384862e-01
  2.284911e+01    9.687898e-01
  2.288086e+01    9.475516e-01
  2.291261e+01    9.546651e-01
  2.294436e+01    9.422533e-01
  2.297611e+01    9.370800e-01
  2.300786e+01    9.256171e-01
  2.303961e+01    9.117672e-01
  2.307137e+01    9.001774e-01
  2.310312e+01    8.939201e-01
  2.313487e+01    9.232085e-01
  2.316662e+01    8.748966e-01
  2.319837e+01    8.954976e-01
  2.323012e+01    8.751770e-01
  2.326187e+01    8.749761e-01
  2.329362e+01    8.983600e-01
  2.332537e+01    8.815264e-01
  2.335713e+01    8.809180e-01
  2.338888e+01    8.604635e-01
  2.342063e+01    8.798051e-01
  2.345238e+01    8.620503e-01
  2.348413e+01    8.776035e-01
  2.351588e+01    8.713106e-01
  2.354763e+01    8.595372e-01
  2.357938e+01    8.661019e-01
  2.361113e+01    8.515368e-01
  2.364289e+01    8.659042e-01
  2.367464e+01    8.415771e-01
  2.370639e+01    8.776576e-01
  2.373814e+01    8.190894e-01
  2.376989e+01    8.208172e-01
  2.380164e+01    8.456092e-01
  2.383339e+01    8.426131e-01
  2.386514e+01    8.144797e-01
  2.389689e+01    8.410532e-01
  2.392865e+01    8.332616e-01
  2.396040e+01    7.915803e-01
  2.399215e+01    8.100994e-01
  2.402390e+01    7.926362e-01
  2.405565e+01    8.078222e-01
  2.408740e+01    8.158752e-01
  2.411915e+01    8.072851e-01
  2.415090e+01    7.911513e-01
  2.418266e+01    7.849832e-01
  2.421441e+01    7.817156e-01
  2.424616e+01    7.993021e-01
  2.427791e+01    8.085223e-01
  2.430966e+01    8.105735e-01
  2.434141e+01    8.087863e-01
  2.437316e+01    8.198960e-01
  2.440491e+01    8.088309e-01
  2.443666e+01    8.354592e-01
  2.446842e+01    8.085125e-01
  2.450017e+01    8.094227e-01
  2.453192e+01    7.949151e-01
  2.456367e+01    8.142451e-01
  2.459542e+01    8.058684e-01
  2.462717e+01    7.969337e-01
  2.465892e+01    7.870608e-01
  2.469067e+01    8.161132e-01
  2.472242e+01    8.239729e-01
  2.475418e+01    8.148437e-01
  2.478593e+01    8.210328e-01
  2.481768e+01    7.947999e-01
  2.484943e+01    8.320886e-01
  2.488118e+01    8.127025e-01
  2.491293e+01    8.156959e-01
  2.494468e+01    8.458904e-01
  2.497643e+01    8.161625e-01
  2.500819e+01    8.077676e-01
  2.503994e+01    8.110850e-01
  2.507169e+01    8.195580e-01
  2.510344e+01    8.193824e-01
  2.513519e+01    8.330298e-01
  2.516694e+01    8.412699e-01
  2.519869e+01    8.223577e-01
  2.523044e+01    8.415194e-01
  2.526219e+01    8.856261e-01
  2.529395e+01    8.664737e-01
  2.532570e+01    8.965529e-01
  2.535745e+01    9.011919e-01
  2.538920e+01    9.182147e-01
  2.542095e+01    9.349879e-01
  2.545270e+01    9.576935e-01
  2.548445e+01    9.525235e-01
  2.551620e+01    9.988300e-01
  2.554795e+01    1.021560e+00
  2.557971e+01    1.054105e+00
  2.561146e+01    1.120245e+00
  2.564321e+01    1.141714e+00
  2.567496e+01    1.278958e+00
  2.570671e+01    1.391869e+00
  2.573846e+01    1.573206e+00
  2.577021e+01    1.796901e+00
  2.580196e+01    2.163918e+00
  2.583371e+01    2.664393e+00
  2.586547e+01    3.532469e+00
  2.589722e+01    4.648969e+00
  2.592897e+01    6.214131e+00
  2.596072e+01    7.815041e+00
  2.599247e+01    9.013830e+00
  2.602422e+01    9.122567e+00
  2.605597e+01    7.958550e+00
  2.608772e+01    6.048544e+00
  2.611948e+01    4.432662e+00
  2.615123e+01    3.280565e+00
  2.618298e+01    2.556915e+00
  2.621473e+01    2.066536e+00
  2.624648e+01    1.715177e+00
  2.627823e+01    1.534223e+00
  2.630998e+01    1.359365e+00
  2.634173e+01    1.250769e+00
  2.637348e+01    1.189747e+00
  2.640524e+01    1.133833e+00
  2.643699e+01    1.066243e+00
  2.646874e+01    1.032653e+00
  2.650049e+01    1.010013e+00
  2.653224e+01    9.760602e-01
  2.656399e+01    9.997779e-01
  2.659574e+01    9.345984e-01
  2.662749e+01    9.578424e-01
  2.665924e+01    9.325377e-01
  2.669100e+01    9.576890e-01
  2.672275e+01    9.350237e-01
  2.675450e+01    9.205216e-01
  2.678625e+01    9.078479e-01
  2.681800e+01    9.330676e-01
  2.684975e+01    9.449425e-01
  2.688150e+01    9.484078e-01
  2.691325e+01    9.319293e-01
  2.694501e+01    9.523059e-01
  2.697676e+01    9.765635e-01
  2.700851e+01    9.959398e-01
  2.704026e+01    1.041529e+00
  2.707201e+01    1.152388e+00
  2.710376e+01    1.256325e+00
  2.713551e+01    1.435758e+00
  2.716726e+01    1.719590e+00
  2.719901e+01    2.037673e+00
  2.723077e+01    2.388116e+00
  2.726252e+01    2.594614e+00
  2.729427e+01    2.593692e+00
  2.732602e+01    2.261048e+00
  2.735777e+01    1.892025e+00
  2.738952e+01    1.568434e+00
  2.742127e+01    1.371231e+00
  2.745302e+01    1.169045e+00
  2.748477e+01    1.082863e+00
  2.751653e+01    9.873610e-01
  2.754828e+01    9.603252e-01
  2.758003e+01    9.373435e-01
  2.761178e+01    9.197635e-01
  2.764353e+01    8.753881e-01
  2.767528e+01    8.798059e-01
  2.770703e+01    8.826970e-01
  2.773878e+01    8.409278e-01
  2.777054e+01    8.401377e-01
  2.780229e+01    8.443066e-01
  2.783404e+01    8.457120e-01
  2.786579e+01    8.371087e-01
  2.789754e+01    8.108169e-01
  2.792929e+01    8.146437e-01
  2.796104e+01    8.128571e-01
  2.799279e+01    7.924067e-01
  2.802454e+01    8.007116e-01
  2.805630e+01    8.157935e-01
  2.808805e+01    7.917477e-01
  2.811980e+01    7.984735e-01
  2.815155e+01    8.035371e-01
  2.818330e+01    7.983232e-01
  2.821505e+01    7.923704e-01
  2.824680e+01    7.969771e-01
  2.827855e+01    8.136827e-01
  2.831030e+01    7.801947e-01
  2.834206e+01    8.024971e-01
  2.837381e+01    7.804968e-01
  2.840556e+01    7.752168e-01
  2.843731e+01    7.988507e-01
  2.846906e+01    7.939467e-01
  2.850081e+01    7.554586e-01
  2.853256e+01    7.912750e-01
  2.856431e+01    7.803034e-01
  2.859606e+01    7.862198e-01
  2.862782e+01    7.696040e-01
  2.865957e+01    7.874767e-01
  2.869132e+01    7.614357e-01
  2.872307e+01    7.827330e-01
  2.875482e+01    7.651149e-01
  2.878657e+01    7.708302e-01
  2.881832e+01    7.631422e-01
  2.885007e+01    7.528574e-01
  2.888183e+01    7.547318e-01
  2.891358e+01    7.636414e-01
  2.894533e+01    7.626566e-01
  2.897708e+01    7.538276e-01
  2.900883e+01    7.527288e-01
  2.904058e+01    7.543498e-01
  2.907233e+01    7.588853e-01
  2.910408e+01    7.530144e-01
  2.913583e+01    7.568793e-01
  2.916759e+01    7.674897e-01
  2.919934e+01    7.656335e-01
  2.923109e+01    7.449775e-01
  2.926284e+01    7.532111e-01
  2.929459e+01    7.486287e-01
  2.932634e+01    7.578925e-01
  2.935809e+01    7.543041e-01
  2.938984e+01    7.576237e-01
  2.942159e+01    7.507204e-01
  2.945335e+01    7.490499e-01
  2.948510e+01    7.441638e-01
  2.951685e+01    7.426907e-01
  2.954860e+01    7.310290e-01
  2.958035e+01    7.308610e-01
  2.961210e+01    7.182552e-01
  2.964385e+01    7.581525e-01
  2.967560e+01    7.482078e-01
  2.970736e+01    7.493398e-01
  2.973911e+01    7.371594e-01
  2.977086e+01    7.301250e-01
  2.980261e+01    7.138408e-01
  2.983436e+01    7.222684e-01
  2.986611e+01    7.512666e-01
  2.989786e+01    7.152628e-01
  2.992961e+01    7.223153e-01
  2.996136e+01    7.378612e-01
  2.999312e+01    7.666140e-01
  3.002487e+01    7.691535e-01
  3.005662e+01    7.237561e-01
  3.008837e+01    7.336892e-01
  3.012012e+01    7.492735e-01
  3.015187e+01    7.260733e-01
  3.018362e+01    7.323915e-01
  3.021537e+01    7.075530e-01
  3.024712e+01    7.289544e-01
  3.027888e+01    7.197354e-01
  3.031063e+01    7.449101e-01
  3.034238e+01    7.429371e-01
  3.037413e+01    7.257629e-01
  3.040588e+01    7.414557e-01
  3.043763e+01    7.259839e-01
  3.046938e+01    7.207728e-01
  3.050113e+01    7.188628e-01
  3.053288e+01    7.265576e-01
  3.056464e+01    7.192571e-01
  3.059639e+01    7.204916e-01
  3.062814e+01    7.225106e-01
  3.065989e+01    7.280439e-01
  3.069164e+01    7.155982e-01
  3.072339e+01    7.189291e-01
  3.075514e+01    7.207619e-01
  3.078689e+01    7.201686e-01
  3.081865e+01    7.396656e-01
  3.085040e+01    7.427477e-01
  3.088215e+01    7.545627e-01
  3.091390e+01    7.429722e-01
  3.094565e+01    7.031963e-01
  3.097740e+01    7.285242e-01
  3.100915e+01    7.162988e-01
  3.104090e+01    7.295682e-01
  3.107265e+01    7.485001e-01
  3.110441e+01    7.322335e-01
  3.113616e+01    7.372374e-01
  3.116791e+01    7.546187e-01
  3.119966e+01    7.343273e-01
  3.123141e+01    7.523953e-01
  3.126316e+01    7.581806e-01
  3.129491e+01    7.517271e-01
  3.132666e+01    7.547986e-01
  3.135841e+01    7.537616e-01
  3.139017e+01    7.520308e-01
  3.142192e+01    7.938877e-01
  3.145367e+01    7.582711e-01
  3.148542e+01    7.709553e-01
  3.151717e+01    7.993413e-01
  3.154892e+01    8.011843e-01
  3.158067e+01    8.208517e-01
  3.161242e+01    8.244379e-01
  3.164418e+01    8.570772e-01
  3.167593e+01    8.600408e-01
  3.170768e+01    9.141890e-01
  3.173943e+01    9.622852e-01
  3.177118e+01    1.061820e+00
  3.180293e+01    1.170256e+00
  3.183468e+01    1.366553e+00
  3.186643e+01    1.624397e+00
  3.189818e+01    2.016826e+00
  3.192994e+01    2.396579e+00
  3.196169e+01    2.606011e+00
  3.199344e+01    2.570314e+00
  3.202519e+01    2.239665e+00
  3.205694e+01    1.828298e+00
  3.208869e+01    1.480562e+00
  3.212044e+01    1.245890e+00
  3.215219e+01    1.105835e+00
  3.218394e+01    1.013455e+00
  3.221570e+01    9.378293e-01
  3.224745e+01    9.192572e-01
  3.227920e+01    8.526626e-01
  3.231095e+01    8.139831e-01
  3.234270e+01    8.177937e-01
  3.237445e+01    7.959235e-01
  3.240620e+01    7.779186e-01
  3.243795e+01    7.623279e-01
  3.246970e+01    7.603633e-01
  3.250146e+01    7.396613e-01
  3.253321e+01    7.531868e-01
  3.254908e+01    7.677528e-01