File: XRD/Activation ramp/2024-07-27_002_Ru-CGO-ex_Activtation_ramp_000002_data_000012.dat
# == pyFAI calibration ==
# Distance Sample to Detector: 0.4 m
# PONI: 9.750e-02, 1.135e-01 m
# Rotations: -0.000175 0.000000 -0.000000 rad
#
# == Fit2d calibration ==
# Distance Sample-beamCenter: 400.000 mm
# Center: x=1514.000, y=1300.000 pix
# Tilt: 0.010 deg  TiltPlanRot: 0.010 deg
#
# Detector Detector	 Spline= None	 PixelSize= 7.500e-05, 7.500e-05 m
#    Detector has a mask: False
#    Detector has a dark current: False
#    detector has a flat field: False
#
# Wavelength: 6.888e-11 m
# Mask applied: user provided
# Dark current applied: False
# Flat field applied: False
# Polarization factor: 0.99
# Normalization factor: 1.0
# --> /home/myspot/data/2024_07_Rosario/Ru-CGO-ex/2024-07-27_002_Ru-CGO-ex_Activtation_ramp_000002_data_000012.dat
#       q_nm^-1             I
  2.003187e-02    2.195834e-01
  5.178302e-02    0.000000e+00
  8.353417e-02    4.263245e-02
  1.152853e-01    0.000000e+00
  1.470365e-01    2.605884e-02
  1.787876e-01    6.710804e-02
  2.105388e-01    2.767756e-03
  2.422899e-01    3.538205e-02
  2.740411e-01    0.000000e+00
  3.057922e-01    2.180311e-02
  3.375433e-01    7.021633e-03
  3.692945e-01    1.487649e-02
  4.010456e-01    2.382456e-02
  4.327968e-01    3.403869e-02
  4.645479e-01    3.018977e-02
  4.962991e-01    5.287620e-02
  5.280502e-01    1.388101e-02
  5.598014e-01    3.113854e-02
  5.915525e-01    4.093808e-02
  6.233037e-01    4.221966e-02
  6.550548e-01    2.470673e-02
  6.868060e-01    2.395844e-02
  7.185571e-01    3.260411e-02
  7.503083e-01    6.692620e-02
  7.820594e-01    1.472940e-01
  8.138106e-01    1.690958e-01
  8.455617e-01    3.296899e-01
  8.773129e-01    4.052648e-01
  9.090640e-01    5.048952e-01
  9.408152e-01    7.014009e-01
  9.725663e-01    8.925759e-01
  1.004317e+00    1.052466e+00
  1.036069e+00    1.248350e+00
  1.067820e+00    1.366152e+00
  1.099571e+00    1.306453e+00
  1.131322e+00    1.367669e+00
  1.163073e+00    1.558046e+00
  1.194824e+00    1.618122e+00
  1.226575e+00    2.111576e+00
  1.258327e+00    2.275137e+00
  1.290078e+00    2.569688e+00
  1.321829e+00    2.534309e+00
  1.353580e+00    2.729210e+00
  1.385331e+00    2.732196e+00
  1.417082e+00    2.821030e+00
  1.448834e+00    2.729937e+00
  1.480585e+00    2.989904e+00
  1.512336e+00    3.030434e+00
  1.544087e+00    3.201187e+00
  1.575838e+00    3.069863e+00
  1.607589e+00    3.016122e+00
  1.639340e+00    3.134162e+00
  1.671092e+00    2.904847e+00
  1.702843e+00    2.862008e+00
  1.734594e+00    2.884214e+00
  1.766345e+00    2.784722e+00
  1.798096e+00    2.893122e+00
  1.829847e+00    2.805044e+00
  1.861598e+00    2.773846e+00
  1.893350e+00    2.780541e+00
  1.925101e+00    2.809866e+00
  1.956852e+00    2.862272e+00
  1.988603e+00    2.990895e+00
  2.020354e+00    2.790605e+00
  2.052105e+00    2.743119e+00
  2.083856e+00    2.736882e+00
  2.115608e+00    2.973424e+00
  2.147359e+00    2.869169e+00
  2.179110e+00    2.852774e+00
  2.210861e+00    2.779548e+00
  2.242612e+00    2.743952e+00
  2.274363e+00    2.764114e+00
  2.306115e+00    2.847497e+00
  2.337866e+00    2.826019e+00
  2.369617e+00    2.787468e+00
  2.401368e+00    2.842176e+00
  2.433119e+00    2.823690e+00
  2.464870e+00    2.825687e+00
  2.496621e+00    2.949655e+00
  2.528373e+00    2.798526e+00
  2.560124e+00    2.853327e+00
  2.591875e+00    2.844571e+00
  2.623626e+00    2.846601e+00
  2.655377e+00    2.843505e+00
  2.687128e+00    2.733773e+00
  2.718879e+00    2.834199e+00
  2.750631e+00    2.949316e+00
  2.782382e+00    2.772275e+00
  2.814133e+00    2.882051e+00
  2.845884e+00    2.933809e+00
  2.877635e+00    2.986588e+00
  2.909386e+00    2.814322e+00
  2.941137e+00    2.971235e+00
  2.972889e+00    2.894287e+00
  3.004640e+00    3.067216e+00
  3.036391e+00    2.877824e+00
  3.068142e+00    2.940134e+00
  3.099893e+00    2.912359e+00
  3.131644e+00    2.921082e+00
  3.163395e+00    2.986266e+00
  3.195147e+00    2.930893e+00
  3.226898e+00    2.960845e+00
  3.258649e+00    3.103636e+00
  3.290400e+00    2.933021e+00
  3.322151e+00    2.877526e+00
  3.353902e+00    3.046372e+00
  3.385654e+00    2.920982e+00
  3.417405e+00    2.968388e+00
  3.449156e+00    2.986606e+00
  3.480907e+00    2.954416e+00
  3.512658e+00    2.870169e+00
  3.544409e+00    2.985476e+00
  3.576160e+00    3.022374e+00
  3.607912e+00    2.973198e+00
  3.639663e+00    3.002931e+00
  3.671414e+00    2.998866e+00
  3.703165e+00    2.912647e+00
  3.734916e+00    3.064944e+00
  3.766667e+00    3.075662e+00
  3.798418e+00    3.056363e+00
  3.830170e+00    3.136959e+00
  3.861921e+00    3.021597e+00
  3.893672e+00    2.978588e+00
  3.925423e+00    3.087538e+00
  3.957174e+00    2.995520e+00
  3.988925e+00    2.988771e+00
  4.020676e+00    3.034045e+00
  4.052428e+00    3.093902e+00
  4.084179e+00    3.113170e+00
  4.115930e+00    3.118441e+00
  4.147681e+00    3.084921e+00
  4.179432e+00    3.093714e+00
  4.211183e+00    3.091342e+00
  4.242935e+00    3.116227e+00
  4.274686e+00    3.071573e+00
  4.306437e+00    3.093230e+00
  4.338188e+00    3.065702e+00
  4.369939e+00    3.108400e+00
  4.401690e+00    3.004086e+00
  4.433441e+00    3.039490e+00
  4.465193e+00    3.127196e+00
  4.496944e+00    3.055135e+00
  4.528695e+00    3.034324e+00
  4.560446e+00    3.066807e+00
  4.592197e+00    3.000443e+00
  4.623948e+00    3.122684e+00
  4.655699e+00    3.200671e+00
  4.687451e+00    3.135164e+00
  4.719202e+00    3.051314e+00
  4.750953e+00    3.055514e+00
  4.782704e+00    3.148162e+00
  4.814455e+00    3.132149e+00
  4.846206e+00    3.237291e+00
  4.877957e+00    3.117316e+00
  4.909709e+00    3.132020e+00
  4.941460e+00    3.074759e+00
  4.973211e+00    3.094568e+00
  5.004962e+00    3.044302e+00
  5.036713e+00    3.124444e+00
  5.068464e+00    3.139792e+00
  5.100216e+00    3.144993e+00
  5.131967e+00    3.219886e+00
  5.163718e+00    3.176831e+00
  5.195469e+00    3.127802e+00
  5.227220e+00    3.099399e+00
  5.258971e+00    3.232144e+00
  5.290722e+00    3.121050e+00
  5.322474e+00    3.176976e+00
  5.354225e+00    3.305158e+00
  5.385976e+00    3.258522e+00
  5.417727e+00    3.162320e+00
  5.449478e+00    3.074957e+00
  5.481229e+00    3.115582e+00
  5.512980e+00    3.081173e+00
  5.544732e+00    3.152820e+00
  5.576483e+00    3.082605e+00
  5.608234e+00    3.084366e+00
  5.639985e+00    3.103779e+00
  5.671736e+00    3.146881e+00
  5.703487e+00    3.083836e+00
  5.735238e+00    3.047107e+00
  5.766990e+00    3.134841e+00
  5.798741e+00    3.082812e+00
  5.830492e+00    3.000790e+00
  5.862243e+00    3.072639e+00
  5.893994e+00    3.094183e+00
  5.925745e+00    3.020797e+00
  5.957497e+00    3.056581e+00
  5.989248e+00    3.055483e+00
  6.020999e+00    2.953067e+00
  6.052750e+00    3.031452e+00
  6.084501e+00    3.036504e+00
  6.116252e+00    3.087310e+00
  6.148003e+00    3.074655e+00
  6.179755e+00    3.073259e+00
  6.211506e+00    3.062644e+00
  6.243257e+00    3.069404e+00
  6.275008e+00    3.047089e+00
  6.306759e+00    3.084459e+00
  6.338510e+00    3.038175e+00
  6.370261e+00    3.033697e+00
  6.402013e+00    3.067924e+00
  6.433764e+00    3.031689e+00
  6.465515e+00    3.061828e+00
  6.497266e+00    3.029558e+00
  6.529017e+00    3.019001e+00
  6.560768e+00    3.049986e+00
  6.592519e+00    3.116498e+00
  6.624271e+00    3.079016e+00
  6.656022e+00    3.067483e+00
  6.687773e+00    2.988198e+00
  6.719524e+00    2.981388e+00
  6.751275e+00    3.067710e+00
  6.783026e+00    3.004047e+00
  6.814777e+00    3.019643e+00
  6.846529e+00    3.064161e+00
  6.878280e+00    3.156016e+00
  6.910031e+00    2.995244e+00
  6.941782e+00    3.047889e+00
  6.973533e+00    3.048460e+00
  7.005284e+00    2.965814e+00
  7.037036e+00    2.988216e+00
  7.068787e+00    3.078305e+00
  7.100538e+00    3.004261e+00
  7.132289e+00    3.077983e+00
  7.164040e+00    3.041703e+00
  7.195791e+00    3.035967e+00
  7.227542e+00    2.948404e+00
  7.259294e+00    2.986180e+00
  7.291045e+00    3.006564e+00
  7.322796e+00    3.047695e+00
  7.354547e+00    3.056982e+00
  7.386298e+00    2.937823e+00
  7.418049e+00    3.054318e+00
  7.449800e+00    3.018785e+00
  7.481552e+00    2.953405e+00
  7.513303e+00    3.068354e+00
  7.545054e+00    2.970160e+00
  7.576805e+00    2.940749e+00
  7.608556e+00    3.007183e+00
  7.640307e+00    3.023579e+00
  7.672058e+00    3.016751e+00
  7.703810e+00    2.893566e+00
  7.735561e+00    2.987875e+00
  7.767312e+00    2.972301e+00
  7.799063e+00    2.991729e+00
  7.830814e+00    2.951671e+00
  7.862565e+00    2.962220e+00
  7.894317e+00    2.947367e+00
  7.926068e+00    2.958966e+00
  7.957819e+00    2.939327e+00
  7.989570e+00    2.968369e+00
  8.021321e+00    2.971437e+00
  8.053072e+00    2.955605e+00
  8.084823e+00    3.017791e+00
  8.116575e+00    2.983787e+00
  8.148326e+00    3.008849e+00
  8.180077e+00    2.982691e+00
  8.211828e+00    3.005401e+00
  8.243579e+00    2.984748e+00
  8.275330e+00    2.928557e+00
  8.307081e+00    2.905318e+00
  8.338833e+00    2.858728e+00
  8.370584e+00    2.916954e+00
  8.402335e+00    2.953274e+00
  8.434086e+00    2.914535e+00
  8.465837e+00    2.925342e+00
  8.497588e+00    2.925154e+00
  8.529339e+00    2.844722e+00
  8.561091e+00    2.868686e+00
  8.592842e+00    2.868625e+00
  8.624593e+00    2.907998e+00
  8.656344e+00    2.911400e+00
  8.688095e+00    2.898801e+00
  8.719846e+00    2.932344e+00
  8.751598e+00    2.862805e+00
  8.783349e+00    2.883065e+00
  8.815100e+00    2.848953e+00
  8.846851e+00    2.913000e+00
  8.878602e+00    2.789178e+00
  8.910353e+00    2.866855e+00
  8.942104e+00    2.808877e+00
  8.973856e+00    2.856645e+00
  9.005607e+00    2.795449e+00
  9.037358e+00    2.831653e+00
  9.069109e+00    2.817540e+00
  9.100860e+00    2.844226e+00
  9.132611e+00    2.821629e+00
  9.164362e+00    2.829218e+00
  9.196114e+00    2.834543e+00
  9.227865e+00    2.738724e+00
  9.259616e+00    2.851970e+00
  9.291367e+00    2.840700e+00
  9.323118e+00    2.828281e+00
  9.354869e+00    2.792537e+00
  9.386620e+00    2.842692e+00
  9.418372e+00    2.784913e+00
  9.450123e+00    2.831995e+00
  9.481874e+00    2.775330e+00
  9.513625e+00    2.828146e+00
  9.545376e+00    2.763154e+00
  9.577127e+00    2.857272e+00
  9.608878e+00    2.790820e+00
  9.640630e+00    2.754178e+00
  9.672381e+00    2.760882e+00
  9.704132e+00    2.757054e+00
  9.735883e+00    2.750441e+00
  9.767634e+00    2.684711e+00
  9.799385e+00    2.789731e+00
  9.831137e+00    2.726023e+00
  9.862888e+00    2.715507e+00
  9.894639e+00    2.703185e+00
  9.926390e+00    2.689466e+00
  9.958141e+00    2.729300e+00
  9.989892e+00    2.714083e+00
  1.002164e+01    2.664538e+00
  1.005339e+01    2.676119e+00
  1.008515e+01    2.706155e+00
  1.011690e+01    2.693681e+00
  1.014865e+01    2.700053e+00
  1.018040e+01    2.680456e+00
  1.021215e+01    2.680190e+00
  1.024390e+01    2.686962e+00
  1.027565e+01    2.684552e+00
  1.030740e+01    2.684468e+00
  1.033915e+01    2.648568e+00
  1.037091e+01    2.593174e+00
  1.040266e+01    2.623275e+00
  1.043441e+01    2.601646e+00
  1.046616e+01    2.596272e+00
  1.049791e+01    2.582694e+00
  1.052966e+01    2.548010e+00
  1.056141e+01    2.678151e+00
  1.059316e+01    2.590240e+00
  1.062492e+01    2.606294e+00
  1.065667e+01    2.547287e+00
  1.068842e+01    2.570598e+00
  1.072017e+01    2.593952e+00
  1.075192e+01    2.587313e+00
  1.078367e+01    2.605105e+00
  1.081542e+01    2.536808e+00
  1.084717e+01    2.527073e+00
  1.087892e+01    2.546064e+00
  1.091068e+01    2.508983e+00
  1.094243e+01    2.531619e+00
  1.097418e+01    2.480656e+00
  1.100593e+01    2.511508e+00
  1.103768e+01    2.504135e+00
  1.106943e+01    2.498939e+00
  1.110118e+01    2.518881e+00
  1.113293e+01    2.481003e+00
  1.116468e+01    2.433512e+00
  1.119644e+01    2.433827e+00
  1.122819e+01    2.441265e+00
  1.125994e+01    2.469054e+00
  1.129169e+01    2.515531e+00
  1.132344e+01    2.498680e+00
  1.135519e+01    2.459840e+00
  1.138694e+01    2.417354e+00
  1.141869e+01    2.476478e+00
  1.145045e+01    2.467300e+00
  1.148220e+01    2.471105e+00
  1.151395e+01    2.429228e+00
  1.154570e+01    2.433715e+00
  1.157745e+01    2.397594e+00
  1.160920e+01    2.384494e+00
  1.164095e+01    2.393289e+00
  1.167270e+01    2.392457e+00
  1.170445e+01    2.399734e+00
  1.173621e+01    2.364395e+00
  1.176796e+01    2.434808e+00
  1.179971e+01    2.401714e+00
  1.183146e+01    2.356659e+00
  1.186321e+01    2.393677e+00
  1.189496e+01    2.358032e+00
  1.192671e+01    2.352538e+00
  1.195846e+01    2.364583e+00
  1.199021e+01    2.363532e+00
  1.202197e+01    2.301038e+00
  1.205372e+01    2.371493e+00
  1.208547e+01    2.378611e+00
  1.211722e+01    2.326710e+00
  1.214897e+01    2.285180e+00
  1.218072e+01    2.328823e+00
  1.221247e+01    2.331315e+00
  1.224422e+01    2.307953e+00
  1.227597e+01    2.317456e+00
  1.230773e+01    2.353484e+00
  1.233948e+01    2.360384e+00
  1.237123e+01    2.377352e+00
  1.240298e+01    2.327163e+00
  1.243473e+01    2.295242e+00
  1.246648e+01    2.370836e+00
  1.249823e+01    2.407365e+00
  1.252998e+01    2.367955e+00
  1.256174e+01    2.389202e+00
  1.259349e+01    2.374136e+00
  1.262524e+01    2.466205e+00
  1.265699e+01    2.447012e+00
  1.268874e+01    2.456125e+00
  1.272049e+01    2.533787e+00
  1.275224e+01    2.543617e+00
  1.278399e+01    2.654025e+00
  1.281574e+01    2.745466e+00
  1.284750e+01    2.811682e+00
  1.287925e+01    3.021750e+00
  1.291100e+01    3.310432e+00
  1.294275e+01    3.684547e+00
  1.297450e+01    4.246931e+00
  1.300625e+01    5.245016e+00
  1.303800e+01    6.603593e+00
  1.306975e+01    8.943704e+00
  1.310150e+01    1.194699e+01
  1.313326e+01    1.488371e+01
  1.316501e+01    1.781834e+01
  1.319676e+01    2.003328e+01
  1.322851e+01    1.845800e+01
  1.326026e+01    1.427782e+01
  1.329201e+01    1.002283e+01
  1.332376e+01    7.205617e+00
  1.335551e+01    5.542212e+00
  1.338727e+01    4.504204e+00
  1.341902e+01    3.862757e+00
  1.345077e+01    3.386500e+00
  1.348252e+01    3.068625e+00
  1.351427e+01    2.846173e+00
  1.354602e+01    2.722612e+00
  1.357777e+01    2.600658e+00
  1.360952e+01    2.497163e+00
  1.364127e+01    2.427039e+00
  1.367303e+01    2.389928e+00
  1.370478e+01    2.320178e+00
  1.373653e+01    2.319963e+00
  1.376828e+01    2.263420e+00
  1.380003e+01    2.238429e+00
  1.383178e+01    2.176227e+00
  1.386353e+01    2.156672e+00
  1.389528e+01    2.134208e+00
  1.392703e+01    2.131604e+00
  1.395879e+01    2.098446e+00
  1.399054e+01    2.074150e+00
  1.402229e+01    2.087792e+00
  1.405404e+01    2.085987e+00
  1.408579e+01    2.038713e+00
  1.411754e+01    2.064435e+00
  1.414929e+01    2.020914e+00
  1.418104e+01    2.033766e+00
  1.421279e+01    2.046161e+00
  1.424455e+01    2.011060e+00
  1.427630e+01    1.996850e+00
  1.430805e+01    1.968779e+00
  1.433980e+01    2.007341e+00
  1.437155e+01    2.001651e+00
  1.440330e+01    1.963775e+00
  1.443505e+01    1.970945e+00
  1.446680e+01    1.915572e+00
  1.449856e+01    1.950217e+00
  1.453031e+01    1.956113e+00
  1.456206e+01    1.959304e+00
  1.459381e+01    1.906150e+00
  1.462556e+01    1.911358e+00
  1.465731e+01    1.973533e+00
  1.468906e+01    1.922392e+00
  1.472081e+01    1.950718e+00
  1.475256e+01    1.967910e+00
  1.478432e+01    1.930052e+00
  1.481607e+01    1.931863e+00
  1.484782e+01    1.992694e+00
  1.487957e+01    1.949578e+00
  1.491132e+01    2.004321e+00
  1.494307e+01    2.024788e+00
  1.497482e+01    2.057374e+00
  1.500657e+01    2.160650e+00
  1.503832e+01    2.281339e+00
  1.507008e+01    2.381449e+00
  1.510183e+01    2.729096e+00
  1.513358e+01    3.178132e+00
  1.516533e+01    3.892917e+00
  1.519708e+01    4.856220e+00
  1.522883e+01    5.598959e+00
  1.526058e+01    6.260391e+00
  1.529233e+01    6.568656e+00
  1.532409e+01    6.355884e+00
  1.535584e+01    5.137544e+00
  1.538759e+01    3.944288e+00
  1.541934e+01    3.159547e+00
  1.545109e+01    2.692282e+00
  1.548284e+01    2.370180e+00
  1.551459e+01    2.206243e+00
  1.554634e+01    2.086366e+00
  1.557809e+01    1.985133e+00
  1.560985e+01    1.883088e+00
  1.564160e+01    1.883175e+00
  1.567335e+01    1.847534e+00
  1.570510e+01    1.798424e+00
  1.573685e+01    1.754265e+00
  1.576860e+01    1.744541e+00
  1.580035e+01    1.736639e+00
  1.583210e+01    1.670156e+00
  1.586385e+01    1.722686e+00
  1.589561e+01    1.675040e+00
  1.592736e+01    1.665560e+00
  1.595911e+01    1.613457e+00
  1.599086e+01    1.616179e+00
  1.602261e+01    1.610627e+00
  1.605436e+01    1.610847e+00
  1.608611e+01    1.659589e+00
  1.611786e+01    1.627656e+00
  1.614961e+01    1.621319e+00
  1.618137e+01    1.599347e+00
  1.621312e+01    1.647768e+00
  1.624487e+01    1.577254e+00
  1.627662e+01    1.579737e+00
  1.630837e+01    1.550225e+00
  1.634012e+01    1.593261e+00
  1.637187e+01    1.546683e+00
  1.640362e+01    1.565126e+00
  1.643538e+01    1.511117e+00
  1.646713e+01    1.500355e+00
  1.649888e+01    1.530857e+00
  1.653063e+01    1.513535e+00
  1.656238e+01    1.529262e+00
  1.659413e+01    1.510415e+00
  1.662588e+01    1.476776e+00
  1.665763e+01    1.501708e+00
  1.668938e+01    1.498607e+00
  1.672114e+01    1.479301e+00
  1.675289e+01    1.508742e+00
  1.678464e+01    1.479728e+00
  1.681639e+01    1.502665e+00
  1.684814e+01    1.478515e+00
  1.687989e+01    1.473945e+00
  1.691164e+01    1.489122e+00
  1.694339e+01    1.468482e+00
  1.697514e+01    1.445998e+00
  1.700690e+01    1.462504e+00
  1.703865e+01    1.462309e+00
  1.707040e+01    1.464273e+00
  1.710215e+01    1.474656e+00
  1.713390e+01    1.425856e+00
  1.716565e+01    1.437246e+00
  1.719740e+01    1.444422e+00
  1.722915e+01    1.384343e+00
  1.726091e+01    1.420157e+00
  1.729266e+01    1.386721e+00
  1.732441e+01    1.418527e+00
  1.735616e+01    1.393897e+00
  1.738791e+01    1.361360e+00
  1.741966e+01    1.391414e+00
  1.745141e+01    1.382718e+00
  1.748316e+01    1.365496e+00
  1.751491e+01    1.376487e+00
  1.754667e+01    1.394061e+00
  1.757842e+01    1.363316e+00
  1.761017e+01    1.362264e+00
  1.764192e+01    1.385494e+00
  1.767367e+01    1.376431e+00
  1.770542e+01    1.343134e+00
  1.773717e+01    1.323408e+00
  1.776892e+01    1.344739e+00
  1.780067e+01    1.349103e+00
  1.783243e+01    1.345780e+00
  1.786418e+01    1.347888e+00
  1.789593e+01    1.320019e+00
  1.792768e+01    1.350294e+00
  1.795943e+01    1.328012e+00
  1.799118e+01    1.299549e+00
  1.802293e+01    1.326670e+00
  1.805468e+01    1.312699e+00
  1.808643e+01    1.315625e+00
  1.811819e+01    1.329470e+00
  1.814994e+01    1.323140e+00
  1.818169e+01    1.301499e+00
  1.821344e+01    1.295552e+00
  1.824519e+01    1.302230e+00
  1.827694e+01    1.297254e+00
  1.830869e+01    1.308477e+00
  1.834044e+01    1.296312e+00
  1.837220e+01    1.257595e+00
  1.840395e+01    1.291637e+00
  1.843570e+01    1.286391e+00
  1.846745e+01    1.271839e+00
  1.849920e+01    1.282376e+00
  1.853095e+01    1.265082e+00
  1.856270e+01    1.272468e+00
  1.859445e+01    1.251187e+00
  1.862620e+01    1.236489e+00
  1.865796e+01    1.258103e+00
  1.868971e+01    1.236061e+00
  1.872146e+01    1.221915e+00
  1.875321e+01    1.252042e+00
  1.878496e+01    1.235690e+00
  1.881671e+01    1.249262e+00
  1.884846e+01    1.231729e+00
  1.888021e+01    1.225576e+00
  1.891196e+01    1.229753e+00
  1.894372e+01    1.237685e+00
  1.897547e+01    1.235526e+00
  1.900722e+01    1.200631e+00
  1.903897e+01    1.187689e+00
  1.907072e+01    1.201604e+00
  1.910247e+01    1.199523e+00
  1.913422e+01    1.207672e+00
  1.916597e+01    1.202949e+00
  1.919773e+01    1.203530e+00
  1.922948e+01    1.198653e+00
  1.926123e+01    1.225299e+00
  1.929298e+01    1.206644e+00
  1.932473e+01    1.196275e+00
  1.935648e+01    1.186766e+00
  1.938823e+01    1.185465e+00
  1.941998e+01    1.153250e+00
  1.945173e+01    1.185644e+00
  1.948349e+01    1.203761e+00
  1.951524e+01    1.169334e+00
  1.954699e+01    1.174574e+00
  1.957874e+01    1.185281e+00
  1.961049e+01    1.176117e+00
  1.964224e+01    1.148799e+00
  1.967399e+01    1.175445e+00
  1.970574e+01    1.154343e+00
  1.973749e+01    1.160420e+00
  1.976925e+01    1.158363e+00
  1.980100e+01    1.156019e+00
  1.983275e+01    1.147263e+00
  1.986450e+01    1.149046e+00
  1.989625e+01    1.143245e+00
  1.992800e+01    1.144989e+00
  1.995975e+01    1.132562e+00
  1.999150e+01    1.158493e+00
  2.002325e+01    1.159018e+00
  2.005501e+01    1.167090e+00
  2.008676e+01    1.138294e+00
  2.011851e+01    1.119339e+00
  2.015026e+01    1.123902e+00
  2.018201e+01    1.130655e+00
  2.021376e+01    1.097356e+00
  2.024551e+01    1.111273e+00
  2.027726e+01    1.119365e+00
  2.030902e+01    1.118686e+00
  2.034077e+01    1.145409e+00
  2.037252e+01    1.117743e+00
  2.040427e+01    1.084329e+00
  2.043602e+01    1.122565e+00
  2.046777e+01    1.114821e+00
  2.049952e+01    1.109235e+00
  2.053127e+01    1.111323e+00
  2.056302e+01    1.092781e+00
  2.059478e+01    1.103364e+00
  2.062653e+01    1.104882e+00
  2.065828e+01    1.111265e+00
  2.069003e+01    1.085309e+00
  2.072178e+01    1.108953e+00
  2.075353e+01    1.109220e+00
  2.078528e+01    1.093471e+00
  2.081703e+01    1.076459e+00
  2.084878e+01    1.089962e+00
  2.088054e+01    1.109469e+00
  2.091229e+01    1.102427e+00
  2.094404e+01    1.084417e+00
  2.097579e+01    1.103875e+00
  2.100754e+01    1.107579e+00
  2.103929e+01    1.105169e+00
  2.107104e+01    1.079088e+00
  2.110279e+01    1.122671e+00
  2.113455e+01    1.114183e+00
  2.116630e+01    1.101631e+00
  2.119805e+01    1.122113e+00
  2.122980e+01    1.136312e+00
  2.126155e+01    1.134491e+00
  2.129330e+01    1.102924e+00
  2.132505e+01    1.166435e+00
  2.135680e+01    1.170105e+00
  2.138855e+01    1.184559e+00
  2.142031e+01    1.213410e+00
  2.145206e+01    1.198373e+00
  2.148381e+01    1.268516e+00
  2.151556e+01    1.318977e+00
  2.154731e+01    1.369162e+00
  2.157906e+01    1.431787e+00
  2.161081e+01    1.545074e+00
  2.164256e+01    1.720494e+00
  2.167431e+01    1.937627e+00
  2.170607e+01    2.259354e+00
  2.173782e+01    2.754241e+00
  2.176957e+01    3.586212e+00
  2.180132e+01    4.772275e+00
  2.183307e+01    6.204347e+00
  2.186482e+01    8.046115e+00
  2.189657e+01    9.773724e+00
  2.192832e+01    1.095789e+01
  2.196007e+01    1.068373e+01
  2.199183e+01    8.631809e+00
  2.202358e+01    6.320667e+00
  2.205533e+01    4.561435e+00
  2.208708e+01    3.369048e+00
  2.211883e+01    2.658749e+00
  2.215058e+01    2.205043e+00
  2.218233e+01    1.835289e+00
  2.221408e+01    1.664708e+00
  2.224584e+01    1.524008e+00
  2.227759e+01    1.397981e+00
  2.230934e+01    1.343970e+00
  2.234109e+01    1.227073e+00
  2.237284e+01    1.182946e+00
  2.240459e+01    1.163260e+00
  2.243634e+01    1.117489e+00
  2.246809e+01    1.094642e+00
  2.249984e+01    1.064547e+00
  2.253160e+01    1.033434e+00
  2.256335e+01    1.046885e+00
  2.259510e+01    1.019351e+00
  2.262685e+01    1.022776e+00
  2.265860e+01    1.011762e+00
  2.269035e+01    9.960049e-01
  2.272210e+01    9.941320e-01
  2.275385e+01    9.978693e-01
  2.278560e+01    9.698871e-01
  2.281736e+01    9.530454e-01
  2.284911e+01    9.235681e-01
  2.288086e+01    9.691608e-01
  2.291261e+01    9.454369e-01
  2.294436e+01    9.399161e-01
  2.297611e+01    9.161727e-01
  2.300786e+01    9.198937e-01
  2.303961e+01    9.283469e-01
  2.307137e+01    8.783783e-01
  2.310312e+01    9.053705e-01
  2.313487e+01    8.871444e-01
  2.316662e+01    8.944740e-01
  2.319837e+01    8.908582e-01
  2.323012e+01    8.811558e-01
  2.326187e+01    8.888334e-01
  2.329362e+01    8.757038e-01
  2.332537e+01    8.664331e-01
  2.335713e+01    8.688691e-01
  2.338888e+01    8.809231e-01
  2.342063e+01    8.665733e-01
  2.345238e+01    8.609217e-01
  2.348413e+01    8.606043e-01
  2.351588e+01    8.498513e-01
  2.354763e+01    8.321815e-01
  2.357938e+01    8.469537e-01
  2.361113e+01    8.477762e-01
  2.364289e+01    8.320012e-01
  2.367464e+01    8.460321e-01
  2.370639e+01    8.563986e-01
  2.373814e+01    8.493721e-01
  2.376989e+01    8.137283e-01
  2.380164e+01    8.355285e-01
  2.383339e+01    8.191316e-01
  2.386514e+01    8.045842e-01
  2.389689e+01    8.073863e-01
  2.392865e+01    8.132688e-01
  2.396040e+01    7.898970e-01
  2.399215e+01    8.144971e-01
  2.402390e+01    8.065792e-01
  2.405565e+01    8.034077e-01
  2.408740e+01    8.146483e-01
  2.411915e+01    8.065244e-01
  2.415090e+01    7.929624e-01
  2.418266e+01    8.191018e-01
  2.421441e+01    7.940988e-01
  2.424616e+01    7.890298e-01
  2.427791e+01    8.177530e-01
  2.430966e+01    8.006112e-01
  2.434141e+01    8.041890e-01
  2.437316e+01    7.926143e-01
  2.440491e+01    7.883715e-01
  2.443666e+01    8.149513e-01
  2.446842e+01    7.998980e-01
  2.450017e+01    8.079743e-01
  2.453192e+01    8.075432e-01
  2.456367e+01    8.139285e-01
  2.459542e+01    7.998775e-01
  2.462717e+01    7.994280e-01
  2.465892e+01    8.107708e-01
  2.469067e+01    8.157242e-01
  2.472242e+01    8.121271e-01
  2.475418e+01    8.113375e-01
  2.478593e+01    8.008103e-01
  2.481768e+01    8.008151e-01
  2.484943e+01    7.990457e-01
  2.488118e+01    8.079198e-01
  2.491293e+01    7.980151e-01
  2.494468e+01    8.225787e-01
  2.497643e+01    8.049750e-01
  2.500819e+01    8.117090e-01
  2.503994e+01    8.166348e-01
  2.507169e+01    8.422853e-01
  2.510344e+01    8.378773e-01
  2.513519e+01    8.139128e-01
  2.516694e+01    8.375222e-01
  2.519869e+01    8.533551e-01
  2.523044e+01    8.476641e-01
  2.526219e+01    8.576725e-01
  2.529395e+01    8.688532e-01
  2.532570e+01    8.789920e-01
  2.535745e+01    9.027159e-01
  2.538920e+01    9.188566e-01
  2.542095e+01    9.363531e-01
  2.545270e+01    9.429905e-01
  2.548445e+01    9.644575e-01
  2.551620e+01    9.973144e-01
  2.554795e+01    1.026827e+00
  2.557971e+01    1.059235e+00
  2.561146e+01    1.122054e+00
  2.564321e+01    1.164356e+00
  2.567496e+01    1.262362e+00
  2.570671e+01    1.391136e+00
  2.573846e+01    1.555194e+00
  2.577021e+01    1.816799e+00
  2.580196e+01    2.165468e+00
  2.583371e+01    2.706485e+00
  2.586547e+01    3.536261e+00
  2.589722e+01    4.652142e+00
  2.592897e+01    6.155035e+00
  2.596072e+01    7.747063e+00
  2.599247e+01    9.016322e+00
  2.602422e+01    9.039141e+00
  2.605597e+01    7.813218e+00
  2.608772e+01    5.958241e+00
  2.611948e+01    4.343524e+00
  2.615123e+01    3.208488e+00
  2.618298e+01    2.503664e+00
  2.621473e+01    2.041494e+00
  2.624648e+01    1.724553e+00
  2.627823e+01    1.516816e+00
  2.630998e+01    1.333342e+00
  2.634173e+01    1.264559e+00
  2.637348e+01    1.145205e+00
  2.640524e+01    1.120670e+00
  2.643699e+01    1.087284e+00
  2.646874e+01    1.034781e+00
  2.650049e+01    9.960235e-01
  2.653224e+01    9.908474e-01
  2.656399e+01    9.467785e-01
  2.659574e+01    9.765874e-01
  2.662749e+01    9.425569e-01
  2.665924e+01    9.239851e-01
  2.669100e+01    9.573393e-01
  2.672275e+01    9.121010e-01
  2.675450e+01    9.305677e-01
  2.678625e+01    9.163150e-01
  2.681800e+01    9.186922e-01
  2.684975e+01    9.350720e-01
  2.688150e+01    9.410935e-01
  2.691325e+01    9.629010e-01
  2.694501e+01    9.568859e-01
  2.697676e+01    9.832054e-01
  2.700851e+01    1.025385e+00
  2.704026e+01    1.051730e+00
  2.707201e+01    1.140217e+00
  2.710376e+01    1.253791e+00
  2.713551e+01    1.441108e+00
  2.716726e+01    1.689949e+00
  2.719901e+01    2.026886e+00
  2.723077e+01    2.392708e+00
  2.726252e+01    2.616380e+00
  2.729427e+01    2.544626e+00
  2.732602e+01    2.216194e+00
  2.735777e+01    1.826407e+00
  2.738952e+01    1.524454e+00
  2.742127e+01    1.322240e+00
  2.745302e+01    1.178156e+00
  2.748477e+01    1.095871e+00
  2.751653e+01    1.007541e+00
  2.754828e+01    9.727514e-01
  2.758003e+01    9.310936e-01
  2.761178e+01    9.019536e-01
  2.764353e+01    8.748325e-01
  2.767528e+01    8.731737e-01
  2.770703e+01    8.564233e-01
  2.773878e+01    8.569225e-01
  2.777054e+01    8.300994e-01
  2.780229e+01    8.422661e-01
  2.783404e+01    8.685567e-01
  2.786579e+01    8.246385e-01
  2.789754e+01    8.241649e-01
  2.792929e+01    8.261524e-01
  2.796104e+01    8.147711e-01
  2.799279e+01    8.143457e-01
  2.802454e+01    8.106150e-01
  2.805630e+01    8.092822e-01
  2.808805e+01    8.157787e-01
  2.811980e+01    7.936587e-01
  2.815155e+01    8.199587e-01
  2.818330e+01    7.891368e-01
  2.821505e+01    8.047619e-01
  2.824680e+01    8.012289e-01
  2.827855e+01    7.921556e-01
  2.831030e+01    7.829615e-01
  2.834206e+01    7.999011e-01
  2.837381e+01    7.832291e-01
  2.840556e+01    7.682775e-01
  2.843731e+01    7.882455e-01
  2.846906e+01    7.835892e-01
  2.850081e+01    7.884467e-01
  2.853256e+01    7.530637e-01
  2.856431e+01    7.719375e-01
  2.859606e+01    7.666645e-01
  2.862782e+01    7.653259e-01
  2.865957e+01    7.795375e-01
  2.869132e+01    7.759517e-01
  2.872307e+01    7.891142e-01
  2.875482e+01    7.734085e-01
  2.878657e+01    7.608147e-01
  2.881832e+01    7.690473e-01
  2.885007e+01    7.674501e-01
  2.888183e+01    7.484277e-01
  2.891358e+01    7.530321e-01
  2.894533e+01    7.572984e-01
  2.897708e+01    7.613441e-01
  2.900883e+01    7.726692e-01
  2.904058e+01    7.474147e-01
  2.907233e+01    7.538626e-01
  2.910408e+01    7.549769e-01
  2.913583e+01    7.531524e-01
  2.916759e+01    7.644678e-01
  2.919934e+01    7.466789e-01
  2.923109e+01    7.488321e-01
  2.926284e+01    7.619810e-01
  2.929459e+01    7.471099e-01
  2.932634e+01    7.475398e-01
  2.935809e+01    7.429974e-01
  2.938984e+01    7.368569e-01
  2.942159e+01    7.484719e-01
  2.945335e+01    7.486891e-01
  2.948510e+01    7.443147e-01
  2.951685e+01    7.319188e-01
  2.954860e+01    7.219160e-01
  2.958035e+01    7.358618e-01
  2.961210e+01    7.342530e-01
  2.964385e+01    7.418557e-01
  2.967560e+01    7.266119e-01
  2.970736e+01    7.342876e-01
  2.973911e+01    7.212591e-01
  2.977086e+01    7.419640e-01
  2.980261e+01    7.304198e-01
  2.983436e+01    7.453831e-01
  2.986611e+01    7.291520e-01
  2.989786e+01    7.336351e-01
  2.992961e+01    7.488482e-01
  2.996136e+01    7.581850e-01
  2.999312e+01    7.620375e-01
  3.002487e+01    7.615864e-01
  3.005662e+01    7.576424e-01
  3.008837e+01    7.382335e-01
  3.012012e+01    7.365893e-01
  3.015187e+01    7.533260e-01
  3.018362e+01    7.112385e-01
  3.021537e+01    7.289034e-01
  3.024712e+01    7.196087e-01
  3.027888e+01    7.247536e-01
  3.031063e+01    7.251663e-01
  3.034238e+01    7.257798e-01
  3.037413e+01    7.379301e-01
  3.040588e+01    7.191459e-01
  3.043763e+01    7.174785e-01
  3.046938e+01    7.278998e-01
  3.050113e+01    7.332508e-01
  3.053288e+01    7.504798e-01
  3.056464e+01    7.138715e-01
  3.059639e+01    7.103678e-01
  3.062814e+01    7.310405e-01
  3.065989e+01    7.255199e-01
  3.069164e+01    7.175275e-01
  3.072339e+01    7.263103e-01
  3.075514e+01    7.378387e-01
  3.078689e+01    7.318758e-01
  3.081865e+01    7.620723e-01
  3.085040e+01    7.386638e-01
  3.088215e+01    7.343964e-01
  3.091390e+01    7.294579e-01
  3.094565e+01    7.320542e-01
  3.097740e+01    7.266639e-01
  3.100915e+01    7.426907e-01
  3.104090e+01    7.570093e-01
  3.107265e+01    7.266929e-01
  3.110441e+01    7.180961e-01
  3.113616e+01    7.454911e-01
  3.116791e+01    7.527314e-01
  3.119966e+01    7.215132e-01
  3.123141e+01    7.316329e-01
  3.126316e+01    7.442131e-01
  3.129491e+01    7.538877e-01
  3.132666e+01    7.444923e-01
  3.135841e+01    7.456845e-01
  3.139017e+01    7.458717e-01
  3.142192e+01    7.542660e-01
  3.145367e+01    7.763805e-01
  3.148542e+01    7.547247e-01
  3.151717e+01    7.431240e-01
  3.154892e+01    7.751730e-01
  3.158067e+01    8.165681e-01
  3.161242e+01    8.392892e-01
  3.164418e+01    8.609843e-01
  3.167593e+01    8.681347e-01
  3.170768e+01    9.108633e-01
  3.173943e+01    9.651203e-01
  3.177118e+01    1.065471e+00
  3.180293e+01    1.170495e+00
  3.183468e+01    1.374076e+00
  3.186643e+01    1.645254e+00
  3.189818e+01    2.011675e+00
  3.192994e+01    2.331293e+00
  3.196169e+01    2.576689e+00
  3.199344e+01    2.541346e+00
  3.202519e+01    2.211190e+00
  3.205694e+01    1.803995e+00
  3.208869e+01    1.456155e+00
  3.212044e+01    1.235193e+00
  3.215219e+01    1.072949e+00
  3.218394e+01    9.668483e-01
  3.221570e+01    9.508701e-01
  3.224745e+01    8.673229e-01
  3.227920e+01    8.440385e-01
  3.231095e+01    8.102834e-01
  3.234270e+01    7.903872e-01
  3.237445e+01    7.878559e-01
  3.240620e+01    7.870349e-01
  3.243795e+01    7.378618e-01
  3.246970e+01    7.572193e-01
  3.250146e+01    7.674980e-01
  3.253321e+01    7.635082e-01
  3.254908e+01    7.523022e-01