File: XRD/Activation ramp/2024-07-27_002_Ru-CGO-ex_Activtation_ramp_000002_data_000165.dat
# == pyFAI calibration ==
# Distance Sample to Detector: 0.4 m
# PONI: 9.750e-02, 1.135e-01 m
# Rotations: -0.000175 0.000000 -0.000000 rad
#
# == Fit2d calibration ==
# Distance Sample-beamCenter: 400.000 mm
# Center: x=1514.000, y=1300.000 pix
# Tilt: 0.010 deg  TiltPlanRot: 0.010 deg
#
# Detector Detector	 Spline= None	 PixelSize= 7.500e-05, 7.500e-05 m
#    Detector has a mask: False
#    Detector has a dark current: False
#    detector has a flat field: False
#
# Wavelength: 6.888e-11 m
# Mask applied: user provided
# Dark current applied: False
# Flat field applied: False
# Polarization factor: 0.99
# Normalization factor: 1.0
# --> /home/myspot/data/2024_07_Rosario/Ru-CGO-ex/2024-07-27_002_Ru-CGO-ex_Activtation_ramp_000002_data_000165.dat
#       q_nm^-1             I
  2.003187e-02    0.000000e+00
  5.178302e-02    1.922968e-01
  8.353417e-02    5.264984e-02
  1.152853e-01    4.374819e-02
  1.470365e-01    2.886013e-02
  1.787876e-01    5.052418e-02
  2.105388e-01    7.027114e-03
  2.422899e-01    4.960593e-02
  2.740411e-01    5.629131e-02
  3.057922e-01    5.395940e-02
  3.375433e-01    4.229457e-02
  3.692945e-01    7.590440e-02
  4.010456e-01    6.721946e-02
  4.327968e-01    3.782858e-02
  4.645479e-01    3.020974e-02
  4.962991e-01    3.596568e-02
  5.280502e-01    3.544670e-02
  5.598014e-01    4.267341e-02
  5.915525e-01    2.144911e-02
  6.233037e-01    5.057312e-02
  6.550548e-01    1.853348e-02
  6.868060e-01    3.173828e-02
  7.185571e-01    6.335980e-02
  7.503083e-01    3.728595e-02
  7.820594e-01    1.129329e-01
  8.138106e-01    1.740747e-01
  8.455617e-01    3.125783e-01
  8.773129e-01    5.080100e-01
  9.090640e-01    6.016486e-01
  9.408152e-01    7.069644e-01
  9.725663e-01    8.435530e-01
  1.004317e+00    1.019571e+00
  1.036069e+00    1.270534e+00
  1.067820e+00    1.248474e+00
  1.099571e+00    1.435467e+00
  1.131322e+00    1.385111e+00
  1.163073e+00    1.561628e+00
  1.194824e+00    1.608764e+00
  1.226575e+00    2.110878e+00
  1.258327e+00    2.299374e+00
  1.290078e+00    2.384498e+00
  1.321829e+00    2.579742e+00
  1.353580e+00    2.424708e+00
  1.385331e+00    2.502973e+00
  1.417082e+00    2.718672e+00
  1.448834e+00    2.612592e+00
  1.480585e+00    2.784059e+00
  1.512336e+00    2.898301e+00
  1.544087e+00    2.849273e+00
  1.575838e+00    2.905645e+00
  1.607589e+00    2.898807e+00
  1.639340e+00    2.830607e+00
  1.671092e+00    2.949915e+00
  1.702843e+00    2.736072e+00
  1.734594e+00    2.729179e+00
  1.766345e+00    2.891772e+00
  1.798096e+00    2.579983e+00
  1.829847e+00    2.610274e+00
  1.861598e+00    2.702188e+00
  1.893350e+00    2.632092e+00
  1.925101e+00    2.700802e+00
  1.956852e+00    2.519875e+00
  1.988603e+00    2.702233e+00
  2.020354e+00    2.739919e+00
  2.052105e+00    2.699683e+00
  2.083856e+00    2.684810e+00
  2.115608e+00    2.761018e+00
  2.147359e+00    2.742805e+00
  2.179110e+00    2.728599e+00
  2.210861e+00    2.756409e+00
  2.242612e+00    2.587974e+00
  2.274363e+00    2.784571e+00
  2.306115e+00    2.775683e+00
  2.337866e+00    2.705463e+00
  2.369617e+00    2.669443e+00
  2.401368e+00    2.757617e+00
  2.433119e+00    2.757093e+00
  2.464870e+00    2.883634e+00
  2.496621e+00    2.854696e+00
  2.528373e+00    2.752372e+00
  2.560124e+00    2.653058e+00
  2.591875e+00    2.715566e+00
  2.623626e+00    2.778601e+00
  2.655377e+00    2.844794e+00
  2.687128e+00    2.856496e+00
  2.718879e+00    2.871669e+00
  2.750631e+00    2.820845e+00
  2.782382e+00    2.757503e+00
  2.814133e+00    2.857535e+00
  2.845884e+00    2.856278e+00
  2.877635e+00    2.842558e+00
  2.909386e+00    2.876373e+00
  2.941137e+00    2.773000e+00
  2.972889e+00    2.954772e+00
  3.004640e+00    2.905765e+00
  3.036391e+00    2.789978e+00
  3.068142e+00    2.860750e+00
  3.099893e+00    2.932604e+00
  3.131644e+00    2.852401e+00
  3.163395e+00    2.857423e+00
  3.195147e+00    2.822421e+00
  3.226898e+00    2.926814e+00
  3.258649e+00    2.916679e+00
  3.290400e+00    2.941116e+00
  3.322151e+00    2.916194e+00
  3.353902e+00    2.914072e+00
  3.385654e+00    2.845524e+00
  3.417405e+00    2.884499e+00
  3.449156e+00    3.015938e+00
  3.480907e+00    2.912687e+00
  3.512658e+00    2.982694e+00
  3.544409e+00    2.983212e+00
  3.576160e+00    2.873646e+00
  3.607912e+00    2.918460e+00
  3.639663e+00    2.952200e+00
  3.671414e+00    3.022489e+00
  3.703165e+00    3.028699e+00
  3.734916e+00    2.988588e+00
  3.766667e+00    3.035964e+00
  3.798418e+00    3.030284e+00
  3.830170e+00    2.986123e+00
  3.861921e+00    3.022396e+00
  3.893672e+00    3.004505e+00
  3.925423e+00    3.055913e+00
  3.957174e+00    3.011500e+00
  3.988925e+00    3.075095e+00
  4.020676e+00    2.975350e+00
  4.052428e+00    3.047345e+00
  4.084179e+00    3.061302e+00
  4.115930e+00    3.059303e+00
  4.147681e+00    3.067151e+00
  4.179432e+00    3.082125e+00
  4.211183e+00    2.993589e+00
  4.242935e+00    2.997652e+00
  4.274686e+00    2.994657e+00
  4.306437e+00    3.106143e+00
  4.338188e+00    3.065206e+00
  4.369939e+00    3.127928e+00
  4.401690e+00    3.042781e+00
  4.433441e+00    3.059885e+00
  4.465193e+00    3.024956e+00
  4.496944e+00    3.110535e+00
  4.528695e+00    3.021674e+00
  4.560446e+00    3.077338e+00
  4.592197e+00    3.047777e+00
  4.623948e+00    3.065410e+00
  4.655699e+00    3.065086e+00
  4.687451e+00    3.096838e+00
  4.719202e+00    3.114638e+00
  4.750953e+00    3.201520e+00
  4.782704e+00    3.057513e+00
  4.814455e+00    3.069047e+00
  4.846206e+00    3.137680e+00
  4.877957e+00    3.095413e+00
  4.909709e+00    3.140750e+00
  4.941460e+00    3.108621e+00
  4.973211e+00    3.193736e+00
  5.004962e+00    3.122949e+00
  5.036713e+00    3.132034e+00
  5.068464e+00    3.093696e+00
  5.100216e+00    3.064420e+00
  5.131967e+00    3.177421e+00
  5.163718e+00    3.194446e+00
  5.195469e+00    3.135245e+00
  5.227220e+00    3.163157e+00
  5.258971e+00    3.132062e+00
  5.290722e+00    3.095222e+00
  5.322474e+00    3.121560e+00
  5.354225e+00    3.133199e+00
  5.385976e+00    3.129181e+00
  5.417727e+00    3.059867e+00
  5.449478e+00    3.056298e+00
  5.481229e+00    3.005954e+00
  5.512980e+00    3.196839e+00
  5.544732e+00    3.014691e+00
  5.576483e+00    3.109285e+00
  5.608234e+00    3.047065e+00
  5.639985e+00    3.168651e+00
  5.671736e+00    3.014129e+00
  5.703487e+00    3.070625e+00
  5.735238e+00    3.115487e+00
  5.766990e+00    2.966402e+00
  5.798741e+00    3.042255e+00
  5.830492e+00    3.040369e+00
  5.862243e+00    3.120964e+00
  5.893994e+00    3.052530e+00
  5.925745e+00    3.004533e+00
  5.957497e+00    2.966768e+00
  5.989248e+00    3.030548e+00
  6.020999e+00    3.046957e+00
  6.052750e+00    3.054717e+00
  6.084501e+00    3.004081e+00
  6.116252e+00    3.111722e+00
  6.148003e+00    3.151265e+00
  6.179755e+00    3.036596e+00
  6.211506e+00    3.090455e+00
  6.243257e+00    3.091004e+00
  6.275008e+00    3.028990e+00
  6.306759e+00    2.998154e+00
  6.338510e+00    3.091823e+00
  6.370261e+00    3.041575e+00
  6.402013e+00    2.992144e+00
  6.433764e+00    3.124233e+00
  6.465515e+00    2.994680e+00
  6.497266e+00    3.107008e+00
  6.529017e+00    3.044758e+00
  6.560768e+00    3.095701e+00
  6.592519e+00    3.070396e+00
  6.624271e+00    2.993610e+00
  6.656022e+00    3.035161e+00
  6.687773e+00    2.995551e+00
  6.719524e+00    3.017031e+00
  6.751275e+00    3.113931e+00
  6.783026e+00    3.006495e+00
  6.814777e+00    3.067568e+00
  6.846529e+00    3.085998e+00
  6.878280e+00    2.994143e+00
  6.910031e+00    2.980539e+00
  6.941782e+00    3.112541e+00
  6.973533e+00    3.106009e+00
  7.005284e+00    3.037818e+00
  7.037036e+00    3.159082e+00
  7.068787e+00    3.029545e+00
  7.100538e+00    3.050418e+00
  7.132289e+00    2.971280e+00
  7.164040e+00    3.075187e+00
  7.195791e+00    3.051102e+00
  7.227542e+00    3.008851e+00
  7.259294e+00    3.030066e+00
  7.291045e+00    3.017546e+00
  7.322796e+00    3.008867e+00
  7.354547e+00    3.037094e+00
  7.386298e+00    3.049034e+00
  7.418049e+00    2.964268e+00
  7.449800e+00    3.019915e+00
  7.481552e+00    2.953689e+00
  7.513303e+00    2.990300e+00
  7.545054e+00    2.930080e+00
  7.576805e+00    2.980542e+00
  7.608556e+00    2.971228e+00
  7.640307e+00    2.978295e+00
  7.672058e+00    2.952190e+00
  7.703810e+00    2.971159e+00
  7.735561e+00    2.975219e+00
  7.767312e+00    2.921419e+00
  7.799063e+00    2.942027e+00
  7.830814e+00    3.039568e+00
  7.862565e+00    3.032742e+00
  7.894317e+00    2.937543e+00
  7.926068e+00    2.902231e+00
  7.957819e+00    2.974846e+00
  7.989570e+00    2.873966e+00
  8.021321e+00    2.960961e+00
  8.053072e+00    2.970811e+00
  8.084823e+00    2.922771e+00
  8.116575e+00    2.932456e+00
  8.148326e+00    2.919220e+00
  8.180077e+00    3.031822e+00
  8.211828e+00    3.024118e+00
  8.243579e+00    3.003633e+00
  8.275330e+00    2.928102e+00
  8.307081e+00    2.879477e+00
  8.338833e+00    2.925809e+00
  8.370584e+00    2.923671e+00
  8.402335e+00    2.940251e+00
  8.434086e+00    2.876428e+00
  8.465837e+00    2.952580e+00
  8.497588e+00    2.865039e+00
  8.529339e+00    2.930600e+00
  8.561091e+00    2.900591e+00
  8.592842e+00    2.921537e+00
  8.624593e+00    2.938856e+00
  8.656344e+00    2.835771e+00
  8.688095e+00    2.813585e+00
  8.719846e+00    2.827576e+00
  8.751598e+00    2.881505e+00
  8.783349e+00    2.853468e+00
  8.815100e+00    2.869993e+00
  8.846851e+00    2.844727e+00
  8.878602e+00    2.903319e+00
  8.910353e+00    2.806265e+00
  8.942104e+00    2.827642e+00
  8.973856e+00    2.816753e+00
  9.005607e+00    2.872141e+00
  9.037358e+00    2.773448e+00
  9.069109e+00    2.788527e+00
  9.100860e+00    2.861043e+00
  9.132611e+00    2.809020e+00
  9.164362e+00    2.771661e+00
  9.196114e+00    2.843710e+00
  9.227865e+00    2.857236e+00
  9.259616e+00    2.779964e+00
  9.291367e+00    2.756965e+00
  9.323118e+00    2.762966e+00
  9.354869e+00    2.794047e+00
  9.386620e+00    2.717649e+00
  9.418372e+00    2.754513e+00
  9.450123e+00    2.796775e+00
  9.481874e+00    2.795196e+00
  9.513625e+00    2.840145e+00
  9.545376e+00    2.794762e+00
  9.577127e+00    2.761136e+00
  9.608878e+00    2.763627e+00
  9.640630e+00    2.776327e+00
  9.672381e+00    2.729196e+00
  9.704132e+00    2.747923e+00
  9.735883e+00    2.740780e+00
  9.767634e+00    2.785958e+00
  9.799385e+00    2.708165e+00
  9.831137e+00    2.734848e+00
  9.862888e+00    2.748275e+00
  9.894639e+00    2.710741e+00
  9.926390e+00    2.625901e+00
  9.958141e+00    2.672349e+00
  9.989892e+00    2.668290e+00
  1.002164e+01    2.643816e+00
  1.005339e+01    2.662095e+00
  1.008515e+01    2.642117e+00
  1.011690e+01    2.710711e+00
  1.014865e+01    2.638776e+00
  1.018040e+01    2.696885e+00
  1.021215e+01    2.609652e+00
  1.024390e+01    2.579708e+00
  1.027565e+01    2.695983e+00
  1.030740e+01    2.624671e+00
  1.033915e+01    2.595548e+00
  1.037091e+01    2.640062e+00
  1.040266e+01    2.683012e+00
  1.043441e+01    2.615869e+00
  1.046616e+01    2.620331e+00
  1.049791e+01    2.561695e+00
  1.052966e+01    2.617738e+00
  1.056141e+01    2.609167e+00
  1.059316e+01    2.601956e+00
  1.062492e+01    2.556139e+00
  1.065667e+01    2.586622e+00
  1.068842e+01    2.561821e+00
  1.072017e+01    2.541892e+00
  1.075192e+01    2.568159e+00
  1.078367e+01    2.555828e+00
  1.081542e+01    2.549035e+00
  1.084717e+01    2.548065e+00
  1.087892e+01    2.496332e+00
  1.091068e+01    2.520093e+00
  1.094243e+01    2.505166e+00
  1.097418e+01    2.512142e+00
  1.100593e+01    2.445109e+00
  1.103768e+01    2.514836e+00
  1.106943e+01    2.491614e+00
  1.110118e+01    2.551847e+00
  1.113293e+01    2.497458e+00
  1.116468e+01    2.501880e+00
  1.119644e+01    2.469900e+00
  1.122819e+01    2.404812e+00
  1.125994e+01    2.447513e+00
  1.129169e+01    2.451592e+00
  1.132344e+01    2.488352e+00
  1.135519e+01    2.425741e+00
  1.138694e+01    2.488582e+00
  1.141869e+01    2.438985e+00
  1.145045e+01    2.425357e+00
  1.148220e+01    2.459851e+00
  1.151395e+01    2.442794e+00
  1.154570e+01    2.434636e+00
  1.157745e+01    2.394614e+00
  1.160920e+01    2.412006e+00
  1.164095e+01    2.397323e+00
  1.167270e+01    2.393616e+00
  1.170445e+01    2.386511e+00
  1.173621e+01    2.376318e+00
  1.176796e+01    2.378540e+00
  1.179971e+01    2.336565e+00
  1.183146e+01    2.379857e+00
  1.186321e+01    2.347636e+00
  1.189496e+01    2.333517e+00
  1.192671e+01    2.368651e+00
  1.195846e+01    2.343287e+00
  1.199021e+01    2.361694e+00
  1.202197e+01    2.322392e+00
  1.205372e+01    2.339586e+00
  1.208547e+01    2.331452e+00
  1.211722e+01    2.371253e+00
  1.214897e+01    2.299998e+00
  1.218072e+01    2.297098e+00
  1.221247e+01    2.330408e+00
  1.224422e+01    2.343077e+00
  1.227597e+01    2.323779e+00
  1.230773e+01    2.291718e+00
  1.233948e+01    2.313929e+00
  1.237123e+01    2.317975e+00
  1.240298e+01    2.293744e+00
  1.243473e+01    2.343667e+00
  1.246648e+01    2.383936e+00
  1.249823e+01    2.377747e+00
  1.252998e+01    2.337262e+00
  1.256174e+01    2.357420e+00
  1.259349e+01    2.400159e+00
  1.262524e+01    2.428763e+00
  1.265699e+01    2.412750e+00
  1.268874e+01    2.510625e+00
  1.272049e+01    2.538406e+00
  1.275224e+01    2.580233e+00
  1.278399e+01    2.620474e+00
  1.281574e+01    2.672586e+00
  1.284750e+01    2.868789e+00
  1.287925e+01    2.987864e+00
  1.291100e+01    3.276565e+00
  1.294275e+01    3.700495e+00
  1.297450e+01    4.440961e+00
  1.300625e+01    5.445794e+00
  1.303800e+01    7.144342e+00
  1.306975e+01    9.541656e+00
  1.310150e+01    1.199201e+01
  1.313326e+01    1.429929e+01
  1.316501e+01    1.604064e+01
  1.319676e+01    1.580114e+01
  1.322851e+01    1.267640e+01
  1.326026e+01    9.073268e+00
  1.329201e+01    6.513701e+00
  1.332376e+01    5.012302e+00
  1.335551e+01    4.165212e+00
  1.338727e+01    3.572141e+00
  1.341902e+01    3.146227e+00
  1.345077e+01    2.928917e+00
  1.348252e+01    2.759560e+00
  1.351427e+01    2.640487e+00
  1.354602e+01    2.540755e+00
  1.357777e+01    2.449437e+00
  1.360952e+01    2.379161e+00
  1.364127e+01    2.311261e+00
  1.367303e+01    2.323753e+00
  1.370478e+01    2.230435e+00
  1.373653e+01    2.166966e+00
  1.376828e+01    2.225317e+00
  1.380003e+01    2.117626e+00
  1.383178e+01    2.136945e+00
  1.386353e+01    2.137839e+00
  1.389528e+01    2.079463e+00
  1.392703e+01    2.131279e+00
  1.395879e+01    2.087356e+00
  1.399054e+01    2.063407e+00
  1.402229e+01    2.072125e+00
  1.405404e+01    2.019422e+00
  1.408579e+01    2.009396e+00
  1.411754e+01    2.013986e+00
  1.414929e+01    2.012892e+00
  1.418104e+01    1.965540e+00
  1.421279e+01    2.014101e+00
  1.424455e+01    1.975114e+00
  1.427630e+01    1.972557e+00
  1.430805e+01    1.998571e+00
  1.433980e+01    1.934743e+00
  1.437155e+01    1.960696e+00
  1.440330e+01    1.930064e+00
  1.443505e+01    1.956003e+00
  1.446680e+01    1.963682e+00
  1.449856e+01    1.910316e+00
  1.453031e+01    1.944387e+00
  1.456206e+01    1.899477e+00
  1.459381e+01    1.910298e+00
  1.462556e+01    1.906826e+00
  1.465731e+01    1.937393e+00
  1.468906e+01    1.939144e+00
  1.472081e+01    1.937900e+00
  1.475256e+01    1.918764e+00
  1.478432e+01    1.917539e+00
  1.481607e+01    1.935084e+00
  1.484782e+01    1.932055e+00
  1.487957e+01    1.924594e+00
  1.491132e+01    1.949806e+00
  1.494307e+01    2.047095e+00
  1.497482e+01    2.068643e+00
  1.500657e+01    2.175777e+00
  1.503832e+01    2.346186e+00
  1.507008e+01    2.586684e+00
  1.510183e+01    2.932045e+00
  1.513358e+01    3.534214e+00
  1.516533e+01    4.151986e+00
  1.519708e+01    4.843579e+00
  1.522883e+01    5.281474e+00
  1.526058e+01    5.632186e+00
  1.529233e+01    5.351453e+00
  1.532409e+01    4.516189e+00
  1.535584e+01    3.569473e+00
  1.538759e+01    2.899020e+00
  1.541934e+01    2.550874e+00
  1.545109e+01    2.257085e+00
  1.548284e+01    2.101578e+00
  1.551459e+01    1.964570e+00
  1.554634e+01    1.909112e+00
  1.557809e+01    1.846923e+00
  1.560985e+01    1.789014e+00
  1.564160e+01    1.786144e+00
  1.567335e+01    1.774036e+00
  1.570510e+01    1.782310e+00
  1.573685e+01    1.716721e+00
  1.576860e+01    1.680687e+00
  1.580035e+01    1.659801e+00
  1.583210e+01    1.669930e+00
  1.586385e+01    1.657468e+00
  1.589561e+01    1.630201e+00
  1.592736e+01    1.629359e+00
  1.595911e+01    1.632264e+00
  1.599086e+01    1.662111e+00
  1.602261e+01    1.623032e+00
  1.605436e+01    1.620241e+00
  1.608611e+01    1.592051e+00
  1.611786e+01    1.601220e+00
  1.614961e+01    1.606240e+00
  1.618137e+01    1.572477e+00
  1.621312e+01    1.562631e+00
  1.624487e+01    1.562574e+00
  1.627662e+01    1.568735e+00
  1.630837e+01    1.554930e+00
  1.634012e+01    1.577263e+00
  1.637187e+01    1.551306e+00
  1.640362e+01    1.553322e+00
  1.643538e+01    1.543896e+00
  1.646713e+01    1.528226e+00
  1.649888e+01    1.493981e+00
  1.653063e+01    1.530290e+00
  1.656238e+01    1.504304e+00
  1.659413e+01    1.492219e+00
  1.662588e+01    1.476087e+00
  1.665763e+01    1.513124e+00
  1.668938e+01    1.474874e+00
  1.672114e+01    1.503246e+00
  1.675289e+01    1.460756e+00
  1.678464e+01    1.480450e+00
  1.681639e+01    1.466502e+00
  1.684814e+01    1.473545e+00
  1.687989e+01    1.449936e+00
  1.691164e+01    1.491401e+00
  1.694339e+01    1.481556e+00
  1.697514e+01    1.456027e+00
  1.700690e+01    1.448263e+00
  1.703865e+01    1.449381e+00
  1.707040e+01    1.429029e+00
  1.710215e+01    1.414352e+00
  1.713390e+01    1.443632e+00
  1.716565e+01    1.382959e+00
  1.719740e+01    1.419013e+00
  1.722915e+01    1.397843e+00
  1.726091e+01    1.393955e+00
  1.729266e+01    1.399425e+00
  1.732441e+01    1.396436e+00
  1.735616e+01    1.400984e+00
  1.738791e+01    1.350188e+00
  1.741966e+01    1.376523e+00
  1.745141e+01    1.364025e+00
  1.748316e+01    1.380512e+00
  1.751491e+01    1.353135e+00
  1.754667e+01    1.378837e+00
  1.757842e+01    1.308007e+00
  1.761017e+01    1.334200e+00
  1.764192e+01    1.356675e+00
  1.767367e+01    1.351152e+00
  1.770542e+01    1.357151e+00
  1.773717e+01    1.342942e+00
  1.776892e+01    1.330778e+00
  1.780067e+01    1.347255e+00
  1.783243e+01    1.372395e+00
  1.786418e+01    1.302919e+00
  1.789593e+01    1.325013e+00
  1.792768e+01    1.328876e+00
  1.795943e+01    1.309150e+00
  1.799118e+01    1.319930e+00
  1.802293e+01    1.324630e+00
  1.805468e+01    1.297311e+00
  1.808643e+01    1.281223e+00
  1.811819e+01    1.307418e+00
  1.814994e+01    1.291763e+00
  1.818169e+01    1.275892e+00
  1.821344e+01    1.268878e+00
  1.824519e+01    1.251010e+00
  1.827694e+01    1.256963e+00
  1.830869e+01    1.268884e+00
  1.834044e+01    1.268779e+00
  1.837220e+01    1.287976e+00
  1.840395e+01    1.271172e+00
  1.843570e+01    1.268092e+00
  1.846745e+01    1.269528e+00
  1.849920e+01    1.278679e+00
  1.853095e+01    1.272045e+00
  1.856270e+01    1.218083e+00
  1.859445e+01    1.246454e+00
  1.862620e+01    1.239643e+00
  1.865796e+01    1.257770e+00
  1.868971e+01    1.219555e+00
  1.872146e+01    1.205404e+00
  1.875321e+01    1.241060e+00
  1.878496e+01    1.215853e+00
  1.881671e+01    1.229770e+00
  1.884846e+01    1.214131e+00
  1.888021e+01    1.236283e+00
  1.891196e+01    1.229313e+00
  1.894372e+01    1.208708e+00
  1.897547e+01    1.186855e+00
  1.900722e+01    1.182782e+00
  1.903897e+01    1.221468e+00
  1.907072e+01    1.200924e+00
  1.910247e+01    1.176283e+00
  1.913422e+01    1.210292e+00
  1.916597e+01    1.226246e+00
  1.919773e+01    1.194783e+00
  1.922948e+01    1.199924e+00
  1.926123e+01    1.169873e+00
  1.929298e+01    1.156931e+00
  1.932473e+01    1.174921e+00
  1.935648e+01    1.173457e+00
  1.938823e+01    1.167212e+00
  1.941998e+01    1.172687e+00
  1.945173e+01    1.149039e+00
  1.948349e+01    1.163416e+00
  1.951524e+01    1.137363e+00
  1.954699e+01    1.158796e+00
  1.957874e+01    1.156824e+00
  1.961049e+01    1.142566e+00
  1.964224e+01    1.143379e+00
  1.967399e+01    1.134662e+00
  1.970574e+01    1.121746e+00
  1.973749e+01    1.155768e+00
  1.976925e+01    1.148270e+00
  1.980100e+01    1.141096e+00
  1.983275e+01    1.112143e+00
  1.986450e+01    1.121879e+00
  1.989625e+01    1.158444e+00
  1.992800e+01    1.113704e+00
  1.995975e+01    1.141809e+00
  1.999150e+01    1.106212e+00
  2.002325e+01    1.100409e+00
  2.005501e+01    1.113181e+00
  2.008676e+01    1.128901e+00
  2.011851e+01    1.098079e+00
  2.015026e+01    1.118475e+00
  2.018201e+01    1.116906e+00
  2.021376e+01    1.100259e+00
  2.024551e+01    1.113834e+00
  2.027726e+01    1.097848e+00
  2.030902e+01    1.105519e+00
  2.034077e+01    1.074852e+00
  2.037252e+01    1.101189e+00
  2.040427e+01    1.083760e+00
  2.043602e+01    1.103810e+00
  2.046777e+01    1.105646e+00
  2.049952e+01    1.100735e+00
  2.053127e+01    1.110034e+00
  2.056302e+01    1.078993e+00
  2.059478e+01    1.099547e+00
  2.062653e+01    1.092301e+00
  2.065828e+01    1.069889e+00
  2.069003e+01    1.075402e+00
  2.072178e+01    1.092098e+00
  2.075353e+01    1.069978e+00
  2.078528e+01    1.068440e+00
  2.081703e+01    1.082339e+00
  2.084878e+01    1.069776e+00
  2.088054e+01    1.084524e+00
  2.091229e+01    1.088337e+00
  2.094404e+01    1.090883e+00
  2.097579e+01    1.096054e+00
  2.100754e+01    1.082112e+00
  2.103929e+01    1.065345e+00
  2.107104e+01    1.081501e+00
  2.110279e+01    1.074584e+00
  2.113455e+01    1.075200e+00
  2.116630e+01    1.086851e+00
  2.119805e+01    1.079994e+00
  2.122980e+01    1.073885e+00
  2.126155e+01    1.097023e+00
  2.129330e+01    1.110508e+00
  2.132505e+01    1.117523e+00
  2.135680e+01    1.149199e+00
  2.138855e+01    1.161701e+00
  2.142031e+01    1.193758e+00
  2.145206e+01    1.241733e+00
  2.148381e+01    1.273747e+00
  2.151556e+01    1.347072e+00
  2.154731e+01    1.360025e+00
  2.157906e+01    1.481564e+00
  2.161081e+01    1.645087e+00
  2.164256e+01    1.831090e+00
  2.167431e+01    2.142730e+00
  2.170607e+01    2.623050e+00
  2.173782e+01    3.327225e+00
  2.176957e+01    4.340416e+00
  2.180132e+01    5.594764e+00
  2.183307e+01    6.909303e+00
  2.186482e+01    8.211353e+00
  2.189657e+01    8.991412e+00
  2.192832e+01    8.455912e+00
  2.196007e+01    6.629155e+00
  2.199183e+01    4.819268e+00
  2.202358e+01    3.533900e+00
  2.205533e+01    2.671956e+00
  2.208708e+01    2.205806e+00
  2.211883e+01    1.873078e+00
  2.215058e+01    1.632346e+00
  2.218233e+01    1.447755e+00
  2.221408e+01    1.354455e+00
  2.224584e+01    1.284089e+00
  2.227759e+01    1.205520e+00
  2.230934e+01    1.152434e+00
  2.234109e+01    1.150295e+00
  2.237284e+01    1.083837e+00
  2.240459e+01    1.064964e+00
  2.243634e+01    1.057035e+00
  2.246809e+01    1.025440e+00
  2.249984e+01    1.013893e+00
  2.253160e+01    1.004961e+00
  2.256335e+01    9.920387e-01
  2.259510e+01    9.819760e-01
  2.262685e+01    9.917631e-01
  2.265860e+01    9.728094e-01
  2.269035e+01    9.572359e-01
  2.272210e+01    9.429502e-01
  2.275385e+01    9.197430e-01
  2.278560e+01    9.430720e-01
  2.281736e+01    9.476706e-01
  2.284911e+01    9.351683e-01
  2.288086e+01    9.182307e-01
  2.291261e+01    9.085984e-01
  2.294436e+01    9.065244e-01
  2.297611e+01    9.017946e-01
  2.300786e+01    8.915496e-01
  2.303961e+01    9.237190e-01
  2.307137e+01    8.766796e-01
  2.310312e+01    8.954354e-01
  2.313487e+01    8.815151e-01
  2.316662e+01    8.796125e-01
  2.319837e+01    8.933986e-01
  2.323012e+01    8.931707e-01
  2.326187e+01    8.658385e-01
  2.329362e+01    8.726833e-01
  2.332537e+01    8.728923e-01
  2.335713e+01    8.507499e-01
  2.338888e+01    8.650852e-01
  2.342063e+01    8.591899e-01
  2.345238e+01    8.200608e-01
  2.348413e+01    8.693404e-01
  2.351588e+01    8.430169e-01
  2.354763e+01    8.420568e-01
  2.357938e+01    8.554933e-01
  2.361113e+01    8.324360e-01
  2.364289e+01    8.337680e-01
  2.367464e+01    8.268809e-01
  2.370639e+01    8.329529e-01
  2.373814e+01    8.221241e-01
  2.376989e+01    8.260735e-01
  2.380164e+01    8.324544e-01
  2.383339e+01    7.938670e-01
  2.386514e+01    8.105087e-01
  2.389689e+01    7.959722e-01
  2.392865e+01    7.835114e-01
  2.396040e+01    7.987617e-01
  2.399215e+01    7.931029e-01
  2.402390e+01    7.940084e-01
  2.405565e+01    7.789165e-01
  2.408740e+01    7.994056e-01
  2.411915e+01    7.784904e-01
  2.415090e+01    8.027089e-01
  2.418266e+01    7.804857e-01
  2.421441e+01    7.677239e-01
  2.424616e+01    7.903526e-01
  2.427791e+01    7.878145e-01
  2.430966e+01    8.011749e-01
  2.434141e+01    7.805618e-01
  2.437316e+01    8.042344e-01
  2.440491e+01    7.684867e-01
  2.443666e+01    7.600501e-01
  2.446842e+01    7.984238e-01
  2.450017e+01    7.886525e-01
  2.453192e+01    7.915935e-01
  2.456367e+01    7.861395e-01
  2.459542e+01    7.828092e-01
  2.462717e+01    7.990434e-01
  2.465892e+01    7.848008e-01
  2.469067e+01    7.945164e-01
  2.472242e+01    7.777969e-01
  2.475418e+01    8.182313e-01
  2.478593e+01    7.974440e-01
  2.481768e+01    7.984879e-01
  2.484943e+01    7.938991e-01
  2.488118e+01    7.927294e-01
  2.491293e+01    7.990774e-01
  2.494468e+01    8.015953e-01
  2.497643e+01    8.177804e-01
  2.500819e+01    8.071667e-01
  2.503994e+01    7.934365e-01
  2.507169e+01    8.018800e-01
  2.510344e+01    8.085842e-01
  2.513519e+01    7.992911e-01
  2.516694e+01    8.082054e-01
  2.519869e+01    8.057742e-01
  2.523044e+01    8.293149e-01
  2.526219e+01    8.264865e-01
  2.529395e+01    8.561848e-01
  2.532570e+01    8.839461e-01
  2.535745e+01    8.804598e-01
  2.538920e+01    8.902933e-01
  2.542095e+01    9.234017e-01
  2.545270e+01    9.402440e-01
  2.548445e+01    9.594953e-01
  2.551620e+01    9.888908e-01
  2.554795e+01    1.048598e+00
  2.557971e+01    1.064430e+00
  2.561146e+01    1.126658e+00
  2.564321e+01    1.221679e+00
  2.567496e+01    1.362297e+00
  2.570671e+01    1.525011e+00
  2.573846e+01    1.726835e+00
  2.577021e+01    2.147236e+00
  2.580196e+01    2.699847e+00
  2.583371e+01    3.499444e+00
  2.586547e+01    4.531533e+00
  2.589722e+01    5.723549e+00
  2.592897e+01    6.790492e+00
  2.596072e+01    7.340179e+00
  2.599247e+01    6.777799e+00
  2.602422e+01    5.394465e+00
  2.605597e+01    4.008566e+00
  2.608772e+01    3.008111e+00
  2.611948e+01    2.327301e+00
  2.615123e+01    1.896100e+00
  2.618298e+01    1.580652e+00
  2.621473e+01    1.422866e+00
  2.624648e+01    1.250232e+00
  2.627823e+01    1.164583e+00
  2.630998e+01    1.090187e+00
  2.634173e+01    1.041021e+00
  2.637348e+01    9.891097e-01
  2.640524e+01    9.238123e-01
  2.643699e+01    9.603525e-01
  2.646874e+01    9.196739e-01
  2.650049e+01    9.413667e-01
  2.653224e+01    9.076097e-01
  2.656399e+01    9.024052e-01
  2.659574e+01    9.108841e-01
  2.662749e+01    8.790383e-01
  2.665924e+01    8.850302e-01
  2.669100e+01    8.599929e-01
  2.672275e+01    8.755106e-01
  2.675450e+01    8.846501e-01
  2.678625e+01    8.974171e-01
  2.681800e+01    8.605371e-01
  2.684975e+01    8.813089e-01
  2.688150e+01    8.934163e-01
  2.691325e+01    9.288713e-01
  2.694501e+01    9.327507e-01
  2.697676e+01    9.709232e-01
  2.700851e+01    1.011729e+00
  2.704026e+01    1.112175e+00
  2.707201e+01    1.196097e+00
  2.710376e+01    1.419345e+00
  2.713551e+01    1.621496e+00
  2.716726e+01    1.880984e+00
  2.719901e+01    2.111383e+00
  2.723077e+01    2.144892e+00
  2.726252e+01    2.038276e+00
  2.729427e+01    1.675482e+00
  2.732602e+01    1.390536e+00
  2.735777e+01    1.230391e+00
  2.738952e+01    1.093771e+00
  2.742127e+01    1.028310e+00
  2.745302e+01    9.336457e-01
  2.748477e+01    9.262013e-01
  2.751653e+01    8.734434e-01
  2.754828e+01    8.860486e-01
  2.758003e+01    8.394921e-01
  2.761178e+01    8.427266e-01
  2.764353e+01    8.441261e-01
  2.767528e+01    8.353963e-01
  2.770703e+01    8.266776e-01
  2.773878e+01    8.247572e-01
  2.777054e+01    8.159219e-01
  2.780229e+01    8.166282e-01
  2.783404e+01    7.888150e-01
  2.786579e+01    7.806383e-01
  2.789754e+01    7.775360e-01
  2.792929e+01    7.899958e-01
  2.796104e+01    7.878925e-01
  2.799279e+01    7.731853e-01
  2.802454e+01    7.712659e-01
  2.805630e+01    7.643026e-01
  2.808805e+01    7.681259e-01
  2.811980e+01    7.592138e-01
  2.815155e+01    7.539320e-01
  2.818330e+01    7.801861e-01
  2.821505e+01    7.516170e-01
  2.824680e+01    7.699552e-01
  2.827855e+01    7.870352e-01
  2.831030e+01    7.615855e-01
  2.834206e+01    7.673329e-01
  2.837381e+01    7.528486e-01
  2.840556e+01    7.758409e-01
  2.843731e+01    7.494683e-01
  2.846906e+01    7.473966e-01
  2.850081e+01    7.530299e-01
  2.853256e+01    7.611526e-01
  2.856431e+01    7.607083e-01
  2.859606e+01    7.321064e-01
  2.862782e+01    7.534932e-01
  2.865957e+01    7.584064e-01
  2.869132e+01    7.610637e-01
  2.872307e+01    7.201434e-01
  2.875482e+01    7.329924e-01
  2.878657e+01    7.457917e-01
  2.881832e+01    7.366821e-01
  2.885007e+01    7.436615e-01
  2.888183e+01    7.375087e-01
  2.891358e+01    7.238482e-01
  2.894533e+01    7.464661e-01
  2.897708e+01    7.424271e-01
  2.900883e+01    7.232293e-01
  2.904058e+01    7.303344e-01
  2.907233e+01    7.330021e-01
  2.910408e+01    7.330623e-01
  2.913583e+01    7.408062e-01
  2.916759e+01    7.366036e-01
  2.919934e+01    7.370493e-01
  2.923109e+01    7.397962e-01
  2.926284e+01    7.256899e-01
  2.929459e+01    7.434123e-01
  2.932634e+01    7.112845e-01
  2.935809e+01    7.350688e-01
  2.938984e+01    7.244394e-01
  2.942159e+01    7.197438e-01
  2.945335e+01    7.269340e-01
  2.948510e+01    7.108086e-01
  2.951685e+01    7.425049e-01
  2.954860e+01    7.355358e-01
  2.958035e+01    7.195780e-01
  2.961210e+01    7.356983e-01
  2.964385e+01    7.389165e-01
  2.967560e+01    7.318570e-01
  2.970736e+01    7.133449e-01
  2.973911e+01    7.117957e-01
  2.977086e+01    7.303681e-01
  2.980261e+01    7.219498e-01
  2.983436e+01    6.996590e-01
  2.986611e+01    7.236420e-01
  2.989786e+01    7.293797e-01
  2.992961e+01    7.220938e-01
  2.996136e+01    7.112498e-01
  2.999312e+01    7.277933e-01
  3.002487e+01    7.333618e-01
  3.005662e+01    7.407872e-01
  3.008837e+01    7.535468e-01
  3.012012e+01    7.391060e-01
  3.015187e+01    7.254936e-01
  3.018362e+01    7.092348e-01
  3.021537e+01    7.136441e-01
  3.024712e+01    6.862101e-01
  3.027888e+01    7.050505e-01
  3.031063e+01    7.102195e-01
  3.034238e+01    6.981751e-01
  3.037413e+01    7.118236e-01
  3.040588e+01    7.135778e-01
  3.043763e+01    7.006659e-01
  3.046938e+01    7.144546e-01
  3.050113e+01    6.921644e-01
  3.053288e+01    6.976663e-01
  3.056464e+01    7.248198e-01
  3.059639e+01    7.092591e-01
  3.062814e+01    7.192947e-01
  3.065989e+01    6.974127e-01
  3.069164e+01    7.036815e-01
  3.072339e+01    6.862023e-01
  3.075514e+01    7.105996e-01
  3.078689e+01    7.053754e-01
  3.081865e+01    7.073241e-01
  3.085040e+01    7.310722e-01
  3.088215e+01    7.221565e-01
  3.091390e+01    6.870127e-01
  3.094565e+01    7.006952e-01
  3.097740e+01    7.040878e-01
  3.100915e+01    7.111528e-01
  3.104090e+01    7.218276e-01
  3.107265e+01    7.078851e-01
  3.110441e+01    6.980671e-01
  3.113616e+01    7.089013e-01
  3.116791e+01    6.931191e-01
  3.119966e+01    7.282676e-01
  3.123141e+01    7.126974e-01
  3.126316e+01    7.206829e-01
  3.129491e+01    7.387257e-01
  3.132666e+01    7.386880e-01
  3.135841e+01    7.303845e-01
  3.139017e+01    7.330062e-01
  3.142192e+01    7.512396e-01
  3.145367e+01    7.431565e-01
  3.148542e+01    7.437297e-01
  3.151717e+01    7.788193e-01
  3.154892e+01    7.850585e-01
  3.158067e+01    8.086909e-01
  3.161242e+01    8.286184e-01
  3.164418e+01    8.475768e-01
  3.167593e+01    9.074502e-01
  3.170768e+01    9.651068e-01
  3.173943e+01    1.056355e+00
  3.177118e+01    1.203692e+00
  3.180293e+01    1.402334e+00
  3.183468e+01    1.658496e+00
  3.186643e+01    1.937435e+00
  3.189818e+01    2.119216e+00
  3.192994e+01    2.104183e+00
  3.196169e+01    1.828721e+00
  3.199344e+01    1.560423e+00
  3.202519e+01    1.309789e+00
  3.205694e+01    1.103167e+00
  3.208869e+01    9.943578e-01
  3.212044e+01    8.979421e-01
  3.215219e+01    8.345131e-01
  3.218394e+01    8.356569e-01
  3.221570e+01    7.975631e-01
  3.224745e+01    8.034495e-01
  3.227920e+01    7.604914e-01
  3.231095e+01    7.462992e-01
  3.234270e+01    7.375895e-01
  3.237445e+01    7.170113e-01
  3.240620e+01    7.224371e-01
  3.243795e+01    7.390047e-01
  3.246970e+01    7.286552e-01
  3.250146e+01    7.116043e-01
  3.253321e+01    7.263904e-01
  3.254908e+01    7.148507e-01