File: XRD/Activation ramp/2024-07-27_002_Ru-CGO-ex_Activtation_ramp_000002_data_000130.dat
# == pyFAI calibration ==
# Distance Sample to Detector: 0.4 m
# PONI: 9.750e-02, 1.135e-01 m
# Rotations: -0.000175 0.000000 -0.000000 rad
#
# == Fit2d calibration ==
# Distance Sample-beamCenter: 400.000 mm
# Center: x=1514.000, y=1300.000 pix
# Tilt: 0.010 deg  TiltPlanRot: 0.010 deg
#
# Detector Detector	 Spline= None	 PixelSize= 7.500e-05, 7.500e-05 m
#    Detector has a mask: False
#    Detector has a dark current: False
#    detector has a flat field: False
#
# Wavelength: 6.888e-11 m
# Mask applied: user provided
# Dark current applied: False
# Flat field applied: False
# Polarization factor: 0.99
# Normalization factor: 1.0
# --> /home/myspot/data/2024_07_Rosario/Ru-CGO-ex/2024-07-27_002_Ru-CGO-ex_Activtation_ramp_000002_data_000130.dat
#       q_nm^-1             I
  2.003187e-02    0.000000e+00
  5.178302e-02    0.000000e+00
  8.353417e-02    9.270435e-02
  1.152853e-01    8.244902e-02
  1.470365e-01    5.984161e-02
  1.787876e-01    6.858924e-02
  2.105388e-01    1.907337e-02
  2.422899e-01    3.839773e-02
  2.740411e-01    2.403923e-02
  3.057922e-01    3.321360e-02
  3.375433e-01    5.082503e-02
  3.692945e-01    3.303592e-02
  4.010456e-01    3.849253e-02
  4.327968e-01    4.234445e-02
  4.645479e-01    2.786201e-02
  4.962991e-01    2.934034e-02
  5.280502e-01    5.340462e-02
  5.598014e-01    6.537060e-03
  5.915525e-01    2.740261e-02
  6.233037e-01    4.124546e-02
  6.550548e-01    3.766419e-02
  6.868060e-01    2.205343e-02
  7.185571e-01    1.842698e-02
  7.503083e-01    3.919793e-02
  7.820594e-01    6.723905e-02
  8.138106e-01    1.846647e-01
  8.455617e-01    3.972713e-01
  8.773129e-01    4.486764e-01
  9.090640e-01    5.649285e-01
  9.408152e-01    6.451306e-01
  9.725663e-01    8.958418e-01
  1.004317e+00    1.006041e+00
  1.036069e+00    1.205830e+00
  1.067820e+00    1.205652e+00
  1.099571e+00    1.343042e+00
  1.131322e+00    1.455432e+00
  1.163073e+00    1.584951e+00
  1.194824e+00    1.487230e+00
  1.226575e+00    2.038151e+00
  1.258327e+00    2.352009e+00
  1.290078e+00    2.450383e+00
  1.321829e+00    2.424701e+00
  1.353580e+00    2.455511e+00
  1.385331e+00    2.629640e+00
  1.417082e+00    2.460151e+00
  1.448834e+00    2.653573e+00
  1.480585e+00    2.534599e+00
  1.512336e+00    2.774152e+00
  1.544087e+00    2.986839e+00
  1.575838e+00    2.792119e+00
  1.607589e+00    2.986030e+00
  1.639340e+00    2.798604e+00
  1.671092e+00    2.787427e+00
  1.702843e+00    2.857737e+00
  1.734594e+00    2.912314e+00
  1.766345e+00    2.725628e+00
  1.798096e+00    2.698425e+00
  1.829847e+00    2.733007e+00
  1.861598e+00    2.739759e+00
  1.893350e+00    2.720781e+00
  1.925101e+00    2.642986e+00
  1.956852e+00    2.677582e+00
  1.988603e+00    2.701943e+00
  2.020354e+00    2.830553e+00
  2.052105e+00    2.631290e+00
  2.083856e+00    2.742641e+00
  2.115608e+00    2.680724e+00
  2.147359e+00    2.680157e+00
  2.179110e+00    2.736388e+00
  2.210861e+00    2.634433e+00
  2.242612e+00    2.755823e+00
  2.274363e+00    2.710282e+00
  2.306115e+00    2.695928e+00
  2.337866e+00    2.648464e+00
  2.369617e+00    2.737810e+00
  2.401368e+00    2.740816e+00
  2.433119e+00    2.751312e+00
  2.464870e+00    2.729403e+00
  2.496621e+00    2.772985e+00
  2.528373e+00    2.678522e+00
  2.560124e+00    2.749589e+00
  2.591875e+00    2.800621e+00
  2.623626e+00    2.730741e+00
  2.655377e+00    2.785007e+00
  2.687128e+00    2.823415e+00
  2.718879e+00    2.816068e+00
  2.750631e+00    2.820674e+00
  2.782382e+00    2.842136e+00
  2.814133e+00    2.795059e+00
  2.845884e+00    2.850094e+00
  2.877635e+00    2.941007e+00
  2.909386e+00    2.738925e+00
  2.941137e+00    2.898849e+00
  2.972889e+00    2.891085e+00
  3.004640e+00    2.836456e+00
  3.036391e+00    2.797313e+00
  3.068142e+00    2.938779e+00
  3.099893e+00    2.897823e+00
  3.131644e+00    2.866792e+00
  3.163395e+00    2.813539e+00
  3.195147e+00    2.872245e+00
  3.226898e+00    2.927956e+00
  3.258649e+00    2.816281e+00
  3.290400e+00    2.852334e+00
  3.322151e+00    2.885730e+00
  3.353902e+00    2.894857e+00
  3.385654e+00    2.961479e+00
  3.417405e+00    2.880807e+00
  3.449156e+00    2.853624e+00
  3.480907e+00    2.944610e+00
  3.512658e+00    2.905716e+00
  3.544409e+00    3.045124e+00
  3.576160e+00    2.985023e+00
  3.607912e+00    2.968143e+00
  3.639663e+00    2.941158e+00
  3.671414e+00    2.969003e+00
  3.703165e+00    2.866876e+00
  3.734916e+00    3.020262e+00
  3.766667e+00    3.047978e+00
  3.798418e+00    3.048613e+00
  3.830170e+00    2.980235e+00
  3.861921e+00    2.979371e+00
  3.893672e+00    2.899421e+00
  3.925423e+00    2.972733e+00
  3.957174e+00    2.974031e+00
  3.988925e+00    2.899037e+00
  4.020676e+00    2.971255e+00
  4.052428e+00    3.021708e+00
  4.084179e+00    3.021080e+00
  4.115930e+00    2.964039e+00
  4.147681e+00    3.039107e+00
  4.179432e+00    2.930111e+00
  4.211183e+00    3.016606e+00
  4.242935e+00    3.049105e+00
  4.274686e+00    3.020918e+00
  4.306437e+00    3.048644e+00
  4.338188e+00    3.021079e+00
  4.369939e+00    3.030090e+00
  4.401690e+00    3.070189e+00
  4.433441e+00    3.005844e+00
  4.465193e+00    3.081394e+00
  4.496944e+00    3.111540e+00
  4.528695e+00    3.087223e+00
  4.560446e+00    3.030877e+00
  4.592197e+00    3.023404e+00
  4.623948e+00    3.025910e+00
  4.655699e+00    3.006392e+00
  4.687451e+00    3.066198e+00
  4.719202e+00    3.015058e+00
  4.750953e+00    3.025031e+00
  4.782704e+00    3.022992e+00
  4.814455e+00    3.056707e+00
  4.846206e+00    3.136940e+00
  4.877957e+00    3.138054e+00
  4.909709e+00    3.086709e+00
  4.941460e+00    3.073112e+00
  4.973211e+00    3.043617e+00
  5.004962e+00    3.151604e+00
  5.036713e+00    3.120304e+00
  5.068464e+00    3.139255e+00
  5.100216e+00    3.058347e+00
  5.131967e+00    3.080901e+00
  5.163718e+00    3.007098e+00
  5.195469e+00    3.070086e+00
  5.227220e+00    3.144991e+00
  5.258971e+00    3.158338e+00
  5.290722e+00    3.109093e+00
  5.322474e+00    3.050503e+00
  5.354225e+00    3.120226e+00
  5.385976e+00    3.101998e+00
  5.417727e+00    3.002586e+00
  5.449478e+00    3.088902e+00
  5.481229e+00    3.070431e+00
  5.512980e+00    3.122600e+00
  5.544732e+00    3.025587e+00
  5.576483e+00    3.035828e+00
  5.608234e+00    3.135672e+00
  5.639985e+00    3.019358e+00
  5.671736e+00    3.035300e+00
  5.703487e+00    3.085563e+00
  5.735238e+00    3.054799e+00
  5.766990e+00    3.013198e+00
  5.798741e+00    2.962748e+00
  5.830492e+00    3.043976e+00
  5.862243e+00    3.009094e+00
  5.893994e+00    3.002103e+00
  5.925745e+00    2.996572e+00
  5.957497e+00    3.003651e+00
  5.989248e+00    2.979481e+00
  6.020999e+00    2.917770e+00
  6.052750e+00    2.962204e+00
  6.084501e+00    3.062658e+00
  6.116252e+00    2.986052e+00
  6.148003e+00    3.038555e+00
  6.179755e+00    3.051131e+00
  6.211506e+00    3.032039e+00
  6.243257e+00    3.048613e+00
  6.275008e+00    3.032988e+00
  6.306759e+00    3.028502e+00
  6.338510e+00    3.018777e+00
  6.370261e+00    2.951235e+00
  6.402013e+00    3.048600e+00
  6.433764e+00    3.025828e+00
  6.465515e+00    2.955612e+00
  6.497266e+00    2.914361e+00
  6.529017e+00    2.988339e+00
  6.560768e+00    3.102668e+00
  6.592519e+00    2.946643e+00
  6.624271e+00    3.021436e+00
  6.656022e+00    3.012231e+00
  6.687773e+00    2.908516e+00
  6.719524e+00    2.957047e+00
  6.751275e+00    2.968928e+00
  6.783026e+00    3.008683e+00
  6.814777e+00    2.944492e+00
  6.846529e+00    2.930538e+00
  6.878280e+00    3.056541e+00
  6.910031e+00    3.005193e+00
  6.941782e+00    2.958176e+00
  6.973533e+00    2.994008e+00
  7.005284e+00    3.080369e+00
  7.037036e+00    3.016289e+00
  7.068787e+00    2.940290e+00
  7.100538e+00    2.939564e+00
  7.132289e+00    2.953292e+00
  7.164040e+00    3.003376e+00
  7.195791e+00    2.978579e+00
  7.227542e+00    2.902592e+00
  7.259294e+00    2.929862e+00
  7.291045e+00    2.993076e+00
  7.322796e+00    2.926120e+00
  7.354547e+00    2.908504e+00
  7.386298e+00    2.983456e+00
  7.418049e+00    2.947682e+00
  7.449800e+00    2.952465e+00
  7.481552e+00    2.953423e+00
  7.513303e+00    2.914330e+00
  7.545054e+00    2.960006e+00
  7.576805e+00    2.918531e+00
  7.608556e+00    2.908038e+00
  7.640307e+00    2.921252e+00
  7.672058e+00    2.897901e+00
  7.703810e+00    2.887045e+00
  7.735561e+00    2.942045e+00
  7.767312e+00    2.844441e+00
  7.799063e+00    2.983678e+00
  7.830814e+00    2.885296e+00
  7.862565e+00    2.990698e+00
  7.894317e+00    2.929613e+00
  7.926068e+00    2.905500e+00
  7.957819e+00    2.909659e+00
  7.989570e+00    2.906371e+00
  8.021321e+00    2.951982e+00
  8.053072e+00    2.897317e+00
  8.084823e+00    2.931668e+00
  8.116575e+00    2.910911e+00
  8.148326e+00    2.947518e+00
  8.180077e+00    2.888623e+00
  8.211828e+00    2.992325e+00
  8.243579e+00    2.943688e+00
  8.275330e+00    2.884760e+00
  8.307081e+00    2.873245e+00
  8.338833e+00    2.841577e+00
  8.370584e+00    2.868695e+00
  8.402335e+00    2.878638e+00
  8.434086e+00    2.851301e+00
  8.465837e+00    2.869769e+00
  8.497588e+00    2.890973e+00
  8.529339e+00    2.851478e+00
  8.561091e+00    2.792192e+00
  8.592842e+00    2.878954e+00
  8.624593e+00    2.881404e+00
  8.656344e+00    2.860058e+00
  8.688095e+00    2.774044e+00
  8.719846e+00    2.821674e+00
  8.751598e+00    2.844895e+00
  8.783349e+00    2.788858e+00
  8.815100e+00    2.791019e+00
  8.846851e+00    2.793040e+00
  8.878602e+00    2.756406e+00
  8.910353e+00    2.796757e+00
  8.942104e+00    2.845782e+00
  8.973856e+00    2.769721e+00
  9.005607e+00    2.771188e+00
  9.037358e+00    2.782038e+00
  9.069109e+00    2.778178e+00
  9.100860e+00    2.749125e+00
  9.132611e+00    2.822452e+00
  9.164362e+00    2.698663e+00
  9.196114e+00    2.778461e+00
  9.227865e+00    2.800949e+00
  9.259616e+00    2.747819e+00
  9.291367e+00    2.694056e+00
  9.323118e+00    2.695736e+00
  9.354869e+00    2.708129e+00
  9.386620e+00    2.750870e+00
  9.418372e+00    2.751327e+00
  9.450123e+00    2.741701e+00
  9.481874e+00    2.754274e+00
  9.513625e+00    2.763495e+00
  9.545376e+00    2.720002e+00
  9.577127e+00    2.756198e+00
  9.608878e+00    2.752426e+00
  9.640630e+00    2.714530e+00
  9.672381e+00    2.724321e+00
  9.704132e+00    2.739240e+00
  9.735883e+00    2.689810e+00
  9.767634e+00    2.709699e+00
  9.799385e+00    2.643380e+00
  9.831137e+00    2.664549e+00
  9.862888e+00    2.734015e+00
  9.894639e+00    2.696320e+00
  9.926390e+00    2.680300e+00
  9.958141e+00    2.646218e+00
  9.989892e+00    2.601225e+00
  1.002164e+01    2.647413e+00
  1.005339e+01    2.639438e+00
  1.008515e+01    2.618703e+00
  1.011690e+01    2.650142e+00
  1.014865e+01    2.630911e+00
  1.018040e+01    2.593573e+00
  1.021215e+01    2.578076e+00
  1.024390e+01    2.580936e+00
  1.027565e+01    2.597053e+00
  1.030740e+01    2.577346e+00
  1.033915e+01    2.648538e+00
  1.037091e+01    2.622439e+00
  1.040266e+01    2.588403e+00
  1.043441e+01    2.547985e+00
  1.046616e+01    2.542012e+00
  1.049791e+01    2.568072e+00
  1.052966e+01    2.597122e+00
  1.056141e+01    2.527448e+00
  1.059316e+01    2.532953e+00
  1.062492e+01    2.491626e+00
  1.065667e+01    2.565269e+00
  1.068842e+01    2.550754e+00
  1.072017e+01    2.498544e+00
  1.075192e+01    2.551729e+00
  1.078367e+01    2.530715e+00
  1.081542e+01    2.483690e+00
  1.084717e+01    2.484522e+00
  1.087892e+01    2.525359e+00
  1.091068e+01    2.505503e+00
  1.094243e+01    2.470402e+00
  1.097418e+01    2.470402e+00
  1.100593e+01    2.462150e+00
  1.103768e+01    2.476498e+00
  1.106943e+01    2.482393e+00
  1.110118e+01    2.454931e+00
  1.113293e+01    2.456089e+00
  1.116468e+01    2.467661e+00
  1.119644e+01    2.433644e+00
  1.122819e+01    2.415388e+00
  1.125994e+01    2.406026e+00
  1.129169e+01    2.324513e+00
  1.132344e+01    2.421377e+00
  1.135519e+01    2.402094e+00
  1.138694e+01    2.368917e+00
  1.141869e+01    2.375283e+00
  1.145045e+01    2.412774e+00
  1.148220e+01    2.354732e+00
  1.151395e+01    2.391946e+00
  1.154570e+01    2.330066e+00
  1.157745e+01    2.411605e+00
  1.160920e+01    2.361879e+00
  1.164095e+01    2.361747e+00
  1.167270e+01    2.369565e+00
  1.170445e+01    2.320953e+00
  1.173621e+01    2.322656e+00
  1.176796e+01    2.306194e+00
  1.179971e+01    2.307130e+00
  1.183146e+01    2.305273e+00
  1.186321e+01    2.319691e+00
  1.189496e+01    2.327915e+00
  1.192671e+01    2.329595e+00
  1.195846e+01    2.348105e+00
  1.199021e+01    2.322026e+00
  1.202197e+01    2.331030e+00
  1.205372e+01    2.313073e+00
  1.208547e+01    2.281169e+00
  1.211722e+01    2.322188e+00
  1.214897e+01    2.316448e+00
  1.218072e+01    2.302917e+00
  1.221247e+01    2.329738e+00
  1.224422e+01    2.302856e+00
  1.227597e+01    2.319387e+00
  1.230773e+01    2.316448e+00
  1.233948e+01    2.285150e+00
  1.237123e+01    2.287522e+00
  1.240298e+01    2.326501e+00
  1.243473e+01    2.281338e+00
  1.246648e+01    2.308040e+00
  1.249823e+01    2.297644e+00
  1.252998e+01    2.337367e+00
  1.256174e+01    2.354852e+00
  1.259349e+01    2.353780e+00
  1.262524e+01    2.398543e+00
  1.265699e+01    2.417090e+00
  1.268874e+01    2.415735e+00
  1.272049e+01    2.471005e+00
  1.275224e+01    2.501958e+00
  1.278399e+01    2.570804e+00
  1.281574e+01    2.681691e+00
  1.284750e+01    2.812381e+00
  1.287925e+01    2.923555e+00
  1.291100e+01    3.280259e+00
  1.294275e+01    3.669799e+00
  1.297450e+01    4.332028e+00
  1.300625e+01    5.301010e+00
  1.303800e+01    7.063648e+00
  1.306975e+01    9.508983e+00
  1.310150e+01    1.212278e+01
  1.313326e+01    1.448395e+01
  1.316501e+01    1.654366e+01
  1.319676e+01    1.704885e+01
  1.322851e+01    1.410944e+01
  1.326026e+01    9.959332e+00
  1.329201e+01    7.219980e+00
  1.332376e+01    5.466035e+00
  1.335551e+01    4.384827e+00
  1.338727e+01    3.699849e+00
  1.341902e+01    3.225515e+00
  1.345077e+01    2.934336e+00
  1.348252e+01    2.736411e+00
  1.351427e+01    2.602701e+00
  1.354602e+01    2.476961e+00
  1.357777e+01    2.403309e+00
  1.360952e+01    2.372603e+00
  1.364127e+01    2.301296e+00
  1.367303e+01    2.261516e+00
  1.370478e+01    2.241362e+00
  1.373653e+01    2.158573e+00
  1.376828e+01    2.161016e+00
  1.380003e+01    2.127339e+00
  1.383178e+01    2.118775e+00
  1.386353e+01    2.121525e+00
  1.389528e+01    2.084302e+00
  1.392703e+01    2.092786e+00
  1.395879e+01    2.021799e+00
  1.399054e+01    2.046817e+00
  1.402229e+01    2.022944e+00
  1.405404e+01    1.983184e+00
  1.408579e+01    1.989554e+00
  1.411754e+01    2.057290e+00
  1.414929e+01    1.992986e+00
  1.418104e+01    1.938510e+00
  1.421279e+01    1.929074e+00
  1.424455e+01    1.940178e+00
  1.427630e+01    1.942012e+00
  1.430805e+01    1.959455e+00
  1.433980e+01    1.985450e+00
  1.437155e+01    1.939300e+00
  1.440330e+01    1.921212e+00
  1.443505e+01    1.896230e+00
  1.446680e+01    1.910534e+00
  1.449856e+01    1.896636e+00
  1.453031e+01    1.912830e+00
  1.456206e+01    1.929717e+00
  1.459381e+01    1.824000e+00
  1.462556e+01    1.904709e+00
  1.465731e+01    1.934747e+00
  1.468906e+01    1.925689e+00
  1.472081e+01    1.920118e+00
  1.475256e+01    1.910344e+00
  1.478432e+01    1.914401e+00
  1.481607e+01    1.872442e+00
  1.484782e+01    1.934022e+00
  1.487957e+01    1.912504e+00
  1.491132e+01    1.936510e+00
  1.494307e+01    2.005455e+00
  1.497482e+01    2.024030e+00
  1.500657e+01    2.156005e+00
  1.503832e+01    2.260681e+00
  1.507008e+01    2.453530e+00
  1.510183e+01    2.821819e+00
  1.513358e+01    3.372149e+00
  1.516533e+01    4.120939e+00
  1.519708e+01    4.849358e+00
  1.522883e+01    5.455054e+00
  1.526058e+01    5.808391e+00
  1.529233e+01    5.645066e+00
  1.532409e+01    4.942780e+00
  1.535584e+01    3.861249e+00
  1.538759e+01    3.091557e+00
  1.541934e+01    2.600754e+00
  1.545109e+01    2.359157e+00
  1.548284e+01    2.144887e+00
  1.551459e+01    1.991141e+00
  1.554634e+01    1.868530e+00
  1.557809e+01    1.863109e+00
  1.560985e+01    1.831390e+00
  1.564160e+01    1.789835e+00
  1.567335e+01    1.777944e+00
  1.570510e+01    1.743450e+00
  1.573685e+01    1.688668e+00
  1.576860e+01    1.710000e+00
  1.580035e+01    1.716699e+00
  1.583210e+01    1.653035e+00
  1.586385e+01    1.684169e+00
  1.589561e+01    1.635886e+00
  1.592736e+01    1.608796e+00
  1.595911e+01    1.597388e+00
  1.599086e+01    1.624231e+00
  1.602261e+01    1.626469e+00
  1.605436e+01    1.572490e+00
  1.608611e+01    1.569412e+00
  1.611786e+01    1.579080e+00
  1.614961e+01    1.585484e+00
  1.618137e+01    1.557622e+00
  1.621312e+01    1.559128e+00
  1.624487e+01    1.599914e+00
  1.627662e+01    1.538760e+00
  1.630837e+01    1.573109e+00
  1.634012e+01    1.541947e+00
  1.637187e+01    1.516944e+00
  1.640362e+01    1.469605e+00
  1.643538e+01    1.507044e+00
  1.646713e+01    1.527554e+00
  1.649888e+01    1.490410e+00
  1.653063e+01    1.524466e+00
  1.656238e+01    1.499168e+00
  1.659413e+01    1.474996e+00
  1.662588e+01    1.459136e+00
  1.665763e+01    1.466766e+00
  1.668938e+01    1.469545e+00
  1.672114e+01    1.436980e+00
  1.675289e+01    1.480483e+00
  1.678464e+01    1.504408e+00
  1.681639e+01    1.434428e+00
  1.684814e+01    1.463652e+00
  1.687989e+01    1.446623e+00
  1.691164e+01    1.486678e+00
  1.694339e+01    1.464406e+00
  1.697514e+01    1.430273e+00
  1.700690e+01    1.388086e+00
  1.703865e+01    1.458164e+00
  1.707040e+01    1.379294e+00
  1.710215e+01    1.397071e+00
  1.713390e+01    1.407974e+00
  1.716565e+01    1.388206e+00
  1.719740e+01    1.366145e+00
  1.722915e+01    1.386198e+00
  1.726091e+01    1.426862e+00
  1.729266e+01    1.342679e+00
  1.732441e+01    1.357043e+00
  1.735616e+01    1.364822e+00
  1.738791e+01    1.356700e+00
  1.741966e+01    1.355429e+00
  1.745141e+01    1.353611e+00
  1.748316e+01    1.362755e+00
  1.751491e+01    1.345923e+00
  1.754667e+01    1.356038e+00
  1.757842e+01    1.366457e+00
  1.761017e+01    1.360918e+00
  1.764192e+01    1.335838e+00
  1.767367e+01    1.332381e+00
  1.770542e+01    1.336259e+00
  1.773717e+01    1.322475e+00
  1.776892e+01    1.326485e+00
  1.780067e+01    1.349213e+00
  1.783243e+01    1.317401e+00
  1.786418e+01    1.310475e+00
  1.789593e+01    1.301383e+00
  1.792768e+01    1.303637e+00
  1.795943e+01    1.323353e+00
  1.799118e+01    1.281003e+00
  1.802293e+01    1.284710e+00
  1.805468e+01    1.307718e+00
  1.808643e+01    1.288516e+00
  1.811819e+01    1.303357e+00
  1.814994e+01    1.257284e+00
  1.818169e+01    1.275287e+00
  1.821344e+01    1.283431e+00
  1.824519e+01    1.257024e+00
  1.827694e+01    1.289101e+00
  1.830869e+01    1.250776e+00
  1.834044e+01    1.287464e+00
  1.837220e+01    1.257642e+00
  1.840395e+01    1.248707e+00
  1.843570e+01    1.212409e+00
  1.846745e+01    1.242824e+00
  1.849920e+01    1.222356e+00
  1.853095e+01    1.214500e+00
  1.856270e+01    1.234355e+00
  1.859445e+01    1.236955e+00
  1.862620e+01    1.234812e+00
  1.865796e+01    1.223462e+00
  1.868971e+01    1.216314e+00
  1.872146e+01    1.223899e+00
  1.875321e+01    1.221081e+00
  1.878496e+01    1.228152e+00
  1.881671e+01    1.199914e+00
  1.884846e+01    1.229244e+00
  1.888021e+01    1.195986e+00
  1.891196e+01    1.184307e+00
  1.894372e+01    1.179467e+00
  1.897547e+01    1.208846e+00
  1.900722e+01    1.187283e+00
  1.903897e+01    1.202533e+00
  1.907072e+01    1.172648e+00
  1.910247e+01    1.152463e+00
  1.913422e+01    1.191176e+00
  1.916597e+01    1.185064e+00
  1.919773e+01    1.194203e+00
  1.922948e+01    1.200081e+00
  1.926123e+01    1.158317e+00
  1.929298e+01    1.169799e+00
  1.932473e+01    1.175856e+00
  1.935648e+01    1.188027e+00
  1.938823e+01    1.170976e+00
  1.941998e+01    1.162316e+00
  1.945173e+01    1.145874e+00
  1.948349e+01    1.152302e+00
  1.951524e+01    1.166100e+00
  1.954699e+01    1.142228e+00
  1.957874e+01    1.145681e+00
  1.961049e+01    1.138114e+00
  1.964224e+01    1.140742e+00
  1.967399e+01    1.130845e+00
  1.970574e+01    1.127629e+00
  1.973749e+01    1.152172e+00
  1.976925e+01    1.129935e+00
  1.980100e+01    1.125522e+00
  1.983275e+01    1.127690e+00
  1.986450e+01    1.111029e+00
  1.989625e+01    1.109120e+00
  1.992800e+01    1.143220e+00
  1.995975e+01    1.116110e+00
  1.999150e+01    1.107087e+00
  2.002325e+01    1.101124e+00
  2.005501e+01    1.087424e+00
  2.008676e+01    1.131234e+00
  2.011851e+01    1.086733e+00
  2.015026e+01    1.089946e+00
  2.018201e+01    1.089503e+00
  2.021376e+01    1.087856e+00
  2.024551e+01    1.091978e+00
  2.027726e+01    1.073496e+00
  2.030902e+01    1.069722e+00
  2.034077e+01    1.094630e+00
  2.037252e+01    1.095356e+00
  2.040427e+01    1.084325e+00
  2.043602e+01    1.074228e+00
  2.046777e+01    1.081236e+00
  2.049952e+01    1.070251e+00
  2.053127e+01    1.056404e+00
  2.056302e+01    1.084293e+00
  2.059478e+01    1.075280e+00
  2.062653e+01    1.078590e+00
  2.065828e+01    1.067430e+00
  2.069003e+01    1.090327e+00
  2.072178e+01    1.061910e+00
  2.075353e+01    1.078642e+00
  2.078528e+01    1.050932e+00
  2.081703e+01    1.091017e+00
  2.084878e+01    1.067180e+00
  2.088054e+01    1.076188e+00
  2.091229e+01    1.051162e+00
  2.094404e+01    1.033452e+00
  2.097579e+01    1.073280e+00
  2.100754e+01    1.088001e+00
  2.103929e+01    1.073054e+00
  2.107104e+01    1.056985e+00
  2.110279e+01    1.087738e+00
  2.113455e+01    1.067458e+00
  2.116630e+01    1.089049e+00
  2.119805e+01    1.071745e+00
  2.122980e+01    1.080551e+00
  2.126155e+01    1.097920e+00
  2.129330e+01    1.125608e+00
  2.132505e+01    1.122764e+00
  2.135680e+01    1.157007e+00
  2.138855e+01    1.146725e+00
  2.142031e+01    1.162092e+00
  2.145206e+01    1.217766e+00
  2.148381e+01    1.256544e+00
  2.151556e+01    1.304012e+00
  2.154731e+01    1.349379e+00
  2.157906e+01    1.464348e+00
  2.161081e+01    1.599457e+00
  2.164256e+01    1.792025e+00
  2.167431e+01    2.107720e+00
  2.170607e+01    2.515607e+00
  2.173782e+01    3.182481e+00
  2.176957e+01    4.164342e+00
  2.180132e+01    5.466913e+00
  2.183307e+01    6.852586e+00
  2.186482e+01    8.276436e+00
  2.189657e+01    9.285368e+00
  2.192832e+01    9.171762e+00
  2.196007e+01    7.422169e+00
  2.199183e+01    5.481603e+00
  2.202358e+01    3.949358e+00
  2.205533e+01    2.970181e+00
  2.208708e+01    2.375838e+00
  2.211883e+01    1.954089e+00
  2.215058e+01    1.721376e+00
  2.218233e+01    1.552834e+00
  2.221408e+01    1.413131e+00
  2.224584e+01    1.307672e+00
  2.227759e+01    1.248823e+00
  2.230934e+01    1.181559e+00
  2.234109e+01    1.136650e+00
  2.237284e+01    1.106014e+00
  2.240459e+01    1.078749e+00
  2.243634e+01    1.069515e+00
  2.246809e+01    1.027890e+00
  2.249984e+01    1.003571e+00
  2.253160e+01    9.808905e-01
  2.256335e+01    1.001244e+00
  2.259510e+01    9.674340e-01
  2.262685e+01    9.395733e-01
  2.265860e+01    9.385812e-01
  2.269035e+01    9.452512e-01
  2.272210e+01    9.381633e-01
  2.275385e+01    9.297892e-01
  2.278560e+01    9.362962e-01
  2.281736e+01    9.286878e-01
  2.284911e+01    9.286126e-01
  2.288086e+01    9.089296e-01
  2.291261e+01    9.187490e-01
  2.294436e+01    9.016529e-01
  2.297611e+01    9.127575e-01
  2.300786e+01    9.029363e-01
  2.303961e+01    8.882501e-01
  2.307137e+01    8.943849e-01
  2.310312e+01    8.772995e-01
  2.313487e+01    8.905043e-01
  2.316662e+01    8.804094e-01
  2.319837e+01    8.703859e-01
  2.323012e+01    8.629557e-01
  2.326187e+01    8.517557e-01
  2.329362e+01    8.469487e-01
  2.332537e+01    8.524593e-01
  2.335713e+01    8.477025e-01
  2.338888e+01    8.464810e-01
  2.342063e+01    8.506963e-01
  2.345238e+01    8.487362e-01
  2.348413e+01    8.489292e-01
  2.351588e+01    8.421543e-01
  2.354763e+01    8.384187e-01
  2.357938e+01    8.364043e-01
  2.361113e+01    8.576591e-01
  2.364289e+01    8.557914e-01
  2.367464e+01    8.127064e-01
  2.370639e+01    8.067668e-01
  2.373814e+01    8.279300e-01
  2.376989e+01    8.004799e-01
  2.380164e+01    8.015798e-01
  2.383339e+01    7.942566e-01
  2.386514e+01    8.013901e-01
  2.389689e+01    7.827373e-01
  2.392865e+01    7.985514e-01
  2.396040e+01    7.612957e-01
  2.399215e+01    7.779763e-01
  2.402390e+01    7.897537e-01
  2.405565e+01    7.892850e-01
  2.408740e+01    7.779505e-01
  2.411915e+01    7.639094e-01
  2.415090e+01    7.689307e-01
  2.418266e+01    7.627338e-01
  2.421441e+01    7.605789e-01
  2.424616e+01    7.864386e-01
  2.427791e+01    7.884342e-01
  2.430966e+01    7.866376e-01
  2.434141e+01    7.677973e-01
  2.437316e+01    7.835477e-01
  2.440491e+01    7.887456e-01
  2.443666e+01    7.724067e-01
  2.446842e+01    7.694104e-01
  2.450017e+01    7.737973e-01
  2.453192e+01    7.970877e-01
  2.456367e+01    7.892268e-01
  2.459542e+01    8.090732e-01
  2.462717e+01    7.972323e-01
  2.465892e+01    7.854123e-01
  2.469067e+01    7.734701e-01
  2.472242e+01    8.000389e-01
  2.475418e+01    7.866806e-01
  2.478593e+01    7.713958e-01
  2.481768e+01    7.985499e-01
  2.484943e+01    7.884028e-01
  2.488118e+01    7.982364e-01
  2.491293e+01    7.890744e-01
  2.494468e+01    8.149906e-01
  2.497643e+01    7.983983e-01
  2.500819e+01    7.634847e-01
  2.503994e+01    7.885632e-01
  2.507169e+01    8.083325e-01
  2.510344e+01    8.014545e-01
  2.513519e+01    8.119484e-01
  2.516694e+01    8.176070e-01
  2.519869e+01    8.227773e-01
  2.523044e+01    8.066356e-01
  2.526219e+01    8.663365e-01
  2.529395e+01    8.645540e-01
  2.532570e+01    8.589294e-01
  2.535745e+01    8.789533e-01
  2.538920e+01    9.014599e-01
  2.542095e+01    9.042940e-01
  2.545270e+01    9.321719e-01
  2.548445e+01    9.325564e-01
  2.551620e+01    9.839368e-01
  2.554795e+01    1.021313e+00
  2.557971e+01    1.067420e+00
  2.561146e+01    1.113830e+00
  2.564321e+01    1.206117e+00
  2.567496e+01    1.292570e+00
  2.570671e+01    1.480102e+00
  2.573846e+01    1.701182e+00
  2.577021e+01    2.038915e+00
  2.580196e+01    2.556570e+00
  2.583371e+01    3.289778e+00
  2.586547e+01    4.321091e+00
  2.589722e+01    5.551501e+00
  2.592897e+01    6.902517e+00
  2.596072e+01    7.659512e+00
  2.599247e+01    7.472445e+00
  2.602422e+01    6.281785e+00
  2.605597e+01    4.719126e+00
  2.608772e+01    3.461972e+00
  2.611948e+01    2.594613e+00
  2.615123e+01    2.076708e+00
  2.618298e+01    1.755499e+00
  2.621473e+01    1.495441e+00
  2.624648e+01    1.306462e+00
  2.627823e+01    1.203323e+00
  2.630998e+01    1.120033e+00
  2.634173e+01    1.080556e+00
  2.637348e+01    1.044957e+00
  2.640524e+01    9.829113e-01
  2.643699e+01    9.794732e-01
  2.646874e+01    9.498382e-01
  2.650049e+01    9.251055e-01
  2.653224e+01    9.215422e-01
  2.656399e+01    9.255476e-01
  2.659574e+01    8.926380e-01
  2.662749e+01    8.907006e-01
  2.665924e+01    9.077792e-01
  2.669100e+01    8.818768e-01
  2.672275e+01    8.604172e-01
  2.675450e+01    8.788412e-01
  2.678625e+01    8.743258e-01
  2.681800e+01    9.095343e-01
  2.684975e+01    9.089257e-01
  2.688150e+01    9.132004e-01
  2.691325e+01    8.845937e-01
  2.694501e+01    9.358297e-01
  2.697676e+01    9.728897e-01
  2.700851e+01    1.027714e+00
  2.704026e+01    1.066230e+00
  2.707201e+01    1.229990e+00
  2.710376e+01    1.342015e+00
  2.713551e+01    1.628633e+00
  2.716726e+01    1.857126e+00
  2.719901e+01    2.133293e+00
  2.723077e+01    2.282967e+00
  2.726252e+01    2.192558e+00
  2.729427e+01    1.855212e+00
  2.732602e+01    1.567740e+00
  2.735777e+01    1.294129e+00
  2.738952e+01    1.134001e+00
  2.742127e+01    1.033352e+00
  2.745302e+01    9.679039e-01
  2.748477e+01    9.444950e-01
  2.751653e+01    9.080129e-01
  2.754828e+01    8.771205e-01
  2.758003e+01    8.437080e-01
  2.761178e+01    8.432782e-01
  2.764353e+01    8.479133e-01
  2.767528e+01    8.439100e-01
  2.770703e+01    8.015431e-01
  2.773878e+01    7.996745e-01
  2.777054e+01    8.110822e-01
  2.780229e+01    8.076805e-01
  2.783404e+01    7.893191e-01
  2.786579e+01    7.954079e-01
  2.789754e+01    8.073673e-01
  2.792929e+01    8.067133e-01
  2.796104e+01    7.961447e-01
  2.799279e+01    7.774695e-01
  2.802454e+01    7.897385e-01
  2.805630e+01    7.817621e-01
  2.808805e+01    7.881180e-01
  2.811980e+01    7.827488e-01
  2.815155e+01    7.878839e-01
  2.818330e+01    7.728118e-01
  2.821505e+01    7.553197e-01
  2.824680e+01    7.618580e-01
  2.827855e+01    7.616770e-01
  2.831030e+01    7.722017e-01
  2.834206e+01    7.571382e-01
  2.837381e+01    7.874569e-01
  2.840556e+01    7.733220e-01
  2.843731e+01    7.517954e-01
  2.846906e+01    7.657761e-01
  2.850081e+01    7.723712e-01
  2.853256e+01    7.566835e-01
  2.856431e+01    7.400952e-01
  2.859606e+01    7.653316e-01
  2.862782e+01    7.565213e-01
  2.865957e+01    7.247728e-01
  2.869132e+01    7.275580e-01
  2.872307e+01    7.388966e-01
  2.875482e+01    7.659848e-01
  2.878657e+01    7.651434e-01
  2.881832e+01    7.389619e-01
  2.885007e+01    7.512264e-01
  2.888183e+01    7.327479e-01
  2.891358e+01    7.462342e-01
  2.894533e+01    7.422960e-01
  2.897708e+01    7.527038e-01
  2.900883e+01    7.282919e-01
  2.904058e+01    7.208635e-01
  2.907233e+01    7.149947e-01
  2.910408e+01    7.130901e-01
  2.913583e+01    7.202902e-01
  2.916759e+01    7.206129e-01
  2.919934e+01    7.425522e-01
  2.923109e+01    7.203625e-01
  2.926284e+01    7.239140e-01
  2.929459e+01    7.267214e-01
  2.932634e+01    7.164645e-01
  2.935809e+01    7.046145e-01
  2.938984e+01    7.179092e-01
  2.942159e+01    7.079561e-01
  2.945335e+01    7.241409e-01
  2.948510e+01    7.160303e-01
  2.951685e+01    6.951556e-01
  2.954860e+01    7.047818e-01
  2.958035e+01    7.247891e-01
  2.961210e+01    7.196103e-01
  2.964385e+01    7.217952e-01
  2.967560e+01    7.209382e-01
  2.970736e+01    7.196661e-01
  2.973911e+01    7.090412e-01
  2.977086e+01    7.084938e-01
  2.980261e+01    7.143918e-01
  2.983436e+01    7.056696e-01
  2.986611e+01    7.193190e-01
  2.989786e+01    7.103841e-01
  2.992961e+01    7.165635e-01
  2.996136e+01    6.844078e-01
  2.999312e+01    7.182924e-01
  3.002487e+01    7.203490e-01
  3.005662e+01    7.455238e-01
  3.008837e+01    7.455611e-01
  3.012012e+01    7.160045e-01
  3.015187e+01    7.066709e-01
  3.018362e+01    7.138452e-01
  3.021537e+01    7.225696e-01
  3.024712e+01    7.098231e-01
  3.027888e+01    7.002051e-01
  3.031063e+01    7.072225e-01
  3.034238e+01    7.104324e-01
  3.037413e+01    6.986484e-01
  3.040588e+01    6.852944e-01
  3.043763e+01    6.993434e-01
  3.046938e+01    7.075104e-01
  3.050113e+01    7.058179e-01
  3.053288e+01    7.019510e-01
  3.056464e+01    6.962962e-01
  3.059639e+01    6.978290e-01
  3.062814e+01    7.106465e-01
  3.065989e+01    7.121761e-01
  3.069164e+01    6.975650e-01
  3.072339e+01    7.045752e-01
  3.075514e+01    7.267199e-01
  3.078689e+01    7.191883e-01
  3.081865e+01    7.085080e-01
  3.085040e+01    7.147121e-01
  3.088215e+01    6.940885e-01
  3.091390e+01    7.204044e-01
  3.094565e+01    7.323223e-01
  3.097740e+01    7.264785e-01
  3.100915e+01    7.142709e-01
  3.104090e+01    7.183277e-01
  3.107265e+01    7.107211e-01
  3.110441e+01    7.025066e-01
  3.113616e+01    7.153296e-01
  3.116791e+01    7.093691e-01
  3.119966e+01    7.248844e-01
  3.123141e+01    7.396374e-01
  3.126316e+01    7.221300e-01
  3.129491e+01    7.376972e-01
  3.132666e+01    7.412571e-01
  3.135841e+01    7.574202e-01
  3.139017e+01    7.296071e-01
  3.142192e+01    7.366266e-01
  3.145367e+01    7.437825e-01
  3.148542e+01    7.629679e-01
  3.151717e+01    7.627311e-01
  3.154892e+01    7.793454e-01
  3.158067e+01    8.015049e-01
  3.161242e+01    8.095157e-01
  3.164418e+01    8.580098e-01
  3.167593e+01    8.988552e-01
  3.170768e+01    9.362144e-01
  3.173943e+01    1.024857e+00
  3.177118e+01    1.152424e+00
  3.180293e+01    1.345538e+00
  3.183468e+01    1.607138e+00
  3.186643e+01    1.918110e+00
  3.189818e+01    2.194581e+00
  3.192994e+01    2.301067e+00
  3.196169e+01    2.065582e+00
  3.199344e+01    1.756452e+00
  3.202519e+01    1.425799e+00
  3.205694e+01    1.211339e+00
  3.208869e+01    1.072332e+00
  3.212044e+01    9.409068e-01
  3.215219e+01    9.038668e-01
  3.218394e+01    8.656797e-01
  3.221570e+01    8.210015e-01
  3.224745e+01    7.780592e-01
  3.227920e+01    7.829112e-01
  3.231095e+01    7.870293e-01
  3.234270e+01    7.671982e-01
  3.237445e+01    7.423052e-01
  3.240620e+01    7.522088e-01
  3.243795e+01    7.133737e-01
  3.246970e+01    6.944994e-01
  3.250146e+01    7.165510e-01
  3.253321e+01    7.291802e-01
  3.254908e+01    7.124755e-01