File: XRD/Activation ramp/2024-07-27_002_Ru-CGO-ex_Activtation_ramp_000002_data_000112.dat
# == pyFAI calibration ==
# Distance Sample to Detector: 0.4 m
# PONI: 9.750e-02, 1.135e-01 m
# Rotations: -0.000175 0.000000 -0.000000 rad
#
# == Fit2d calibration ==
# Distance Sample-beamCenter: 400.000 mm
# Center: x=1514.000, y=1300.000 pix
# Tilt: 0.010 deg  TiltPlanRot: 0.010 deg
#
# Detector Detector	 Spline= None	 PixelSize= 7.500e-05, 7.500e-05 m
#    Detector has a mask: False
#    Detector has a dark current: False
#    detector has a flat field: False
#
# Wavelength: 6.888e-11 m
# Mask applied: user provided
# Dark current applied: False
# Flat field applied: False
# Polarization factor: 0.99
# Normalization factor: 1.0
# --> /home/myspot/data/2024_07_Rosario/Ru-CGO-ex/2024-07-27_002_Ru-CGO-ex_Activtation_ramp_000002_data_000112.dat
#       q_nm^-1             I
  2.003187e-02    9.939744e-02
  5.178302e-02    1.161017e-01
  8.353417e-02    1.729611e-01
  1.152853e-01    4.398035e-03
  1.470365e-01    2.606039e-02
  1.787876e-01    4.551537e-02
  2.105388e-01    1.039867e-02
  2.422899e-01    4.299632e-02
  2.740411e-01    4.942555e-02
  3.057922e-01    7.226754e-03
  3.375433e-01    2.954456e-02
  3.692945e-01    4.386901e-02
  4.010456e-01    3.108934e-02
  4.327968e-01    3.085552e-02
  4.645479e-01    1.699816e-02
  4.962991e-01    9.637572e-03
  5.280502e-01    3.212026e-02
  5.598014e-01    7.627946e-02
  5.915525e-01    6.863012e-02
  6.233037e-01    2.321314e-02
  6.550548e-01    2.836208e-02
  6.868060e-01    2.689925e-02
  7.185571e-01    2.453023e-02
  7.503083e-01    4.307344e-02
  7.820594e-01    1.383776e-01
  8.138106e-01    1.901673e-01
  8.455617e-01    3.028675e-01
  8.773129e-01    3.854670e-01
  9.090640e-01    5.853785e-01
  9.408152e-01    6.399558e-01
  9.725663e-01    8.734860e-01
  1.004317e+00    1.064075e+00
  1.036069e+00    1.160119e+00
  1.067820e+00    1.284073e+00
  1.099571e+00    1.382505e+00
  1.131322e+00    1.376507e+00
  1.163073e+00    1.428875e+00
  1.194824e+00    1.526427e+00
  1.226575e+00    2.110385e+00
  1.258327e+00    2.237390e+00
  1.290078e+00    2.415787e+00
  1.321829e+00    2.452351e+00
  1.353580e+00    2.579565e+00
  1.385331e+00    2.505653e+00
  1.417082e+00    2.608063e+00
  1.448834e+00    2.657526e+00
  1.480585e+00    2.666332e+00
  1.512336e+00    2.889625e+00
  1.544087e+00    3.034321e+00
  1.575838e+00    2.975484e+00
  1.607589e+00    2.822274e+00
  1.639340e+00    2.713434e+00
  1.671092e+00    2.927079e+00
  1.702843e+00    2.925509e+00
  1.734594e+00    2.835224e+00
  1.766345e+00    2.736728e+00
  1.798096e+00    2.665294e+00
  1.829847e+00    2.647501e+00
  1.861598e+00    2.733715e+00
  1.893350e+00    2.713508e+00
  1.925101e+00    2.640723e+00
  1.956852e+00    2.650095e+00
  1.988603e+00    2.680672e+00
  2.020354e+00    2.637022e+00
  2.052105e+00    2.637211e+00
  2.083856e+00    2.616381e+00
  2.115608e+00    2.706253e+00
  2.147359e+00    2.605500e+00
  2.179110e+00    2.733123e+00
  2.210861e+00    2.753690e+00
  2.242612e+00    2.689740e+00
  2.274363e+00    2.620219e+00
  2.306115e+00    2.718294e+00
  2.337866e+00    2.535967e+00
  2.369617e+00    2.703559e+00
  2.401368e+00    2.760936e+00
  2.433119e+00    2.698181e+00
  2.464870e+00    2.690688e+00
  2.496621e+00    2.693643e+00
  2.528373e+00    2.671500e+00
  2.560124e+00    2.650971e+00
  2.591875e+00    2.663431e+00
  2.623626e+00    2.909258e+00
  2.655377e+00    2.721535e+00
  2.687128e+00    2.755936e+00
  2.718879e+00    2.811245e+00
  2.750631e+00    2.754508e+00
  2.782382e+00    2.743237e+00
  2.814133e+00    2.848529e+00
  2.845884e+00    2.904008e+00
  2.877635e+00    2.788619e+00
  2.909386e+00    2.873401e+00
  2.941137e+00    2.711063e+00
  2.972889e+00    2.827484e+00
  3.004640e+00    2.890401e+00
  3.036391e+00    2.979037e+00
  3.068142e+00    2.758621e+00
  3.099893e+00    2.810419e+00
  3.131644e+00    2.826085e+00
  3.163395e+00    2.856241e+00
  3.195147e+00    2.915344e+00
  3.226898e+00    2.966042e+00
  3.258649e+00    2.816835e+00
  3.290400e+00    2.846450e+00
  3.322151e+00    2.873535e+00
  3.353902e+00    2.871373e+00
  3.385654e+00    2.850421e+00
  3.417405e+00    2.812341e+00
  3.449156e+00    2.936301e+00
  3.480907e+00    2.870777e+00
  3.512658e+00    2.896603e+00
  3.544409e+00    2.897708e+00
  3.576160e+00    3.023258e+00
  3.607912e+00    2.864356e+00
  3.639663e+00    2.877725e+00
  3.671414e+00    3.039386e+00
  3.703165e+00    2.894957e+00
  3.734916e+00    2.901388e+00
  3.766667e+00    3.020782e+00
  3.798418e+00    2.942843e+00
  3.830170e+00    2.974674e+00
  3.861921e+00    2.923694e+00
  3.893672e+00    2.937537e+00
  3.925423e+00    2.839244e+00
  3.957174e+00    2.955613e+00
  3.988925e+00    2.959864e+00
  4.020676e+00    2.999386e+00
  4.052428e+00    2.993920e+00
  4.084179e+00    3.020725e+00
  4.115930e+00    2.949730e+00
  4.147681e+00    2.938554e+00
  4.179432e+00    2.977733e+00
  4.211183e+00    2.976126e+00
  4.242935e+00    2.889559e+00
  4.274686e+00    2.961462e+00
  4.306437e+00    2.978224e+00
  4.338188e+00    3.051084e+00
  4.369939e+00    2.863371e+00
  4.401690e+00    3.025169e+00
  4.433441e+00    2.997063e+00
  4.465193e+00    3.054465e+00
  4.496944e+00    3.013777e+00
  4.528695e+00    3.076003e+00
  4.560446e+00    3.011202e+00
  4.592197e+00    3.001764e+00
  4.623948e+00    2.976093e+00
  4.655699e+00    3.055982e+00
  4.687451e+00    3.005968e+00
  4.719202e+00    3.018932e+00
  4.750953e+00    3.062282e+00
  4.782704e+00    3.136589e+00
  4.814455e+00    3.081972e+00
  4.846206e+00    3.054410e+00
  4.877957e+00    3.002434e+00
  4.909709e+00    3.011200e+00
  4.941460e+00    3.088112e+00
  4.973211e+00    3.050343e+00
  5.004962e+00    3.049740e+00
  5.036713e+00    3.065300e+00
  5.068464e+00    3.081503e+00
  5.100216e+00    3.111422e+00
  5.131967e+00    3.008618e+00
  5.163718e+00    3.064138e+00
  5.195469e+00    3.056846e+00
  5.227220e+00    3.172010e+00
  5.258971e+00    3.090040e+00
  5.290722e+00    3.049432e+00
  5.322474e+00    3.049348e+00
  5.354225e+00    3.056736e+00
  5.385976e+00    3.112758e+00
  5.417727e+00    3.056601e+00
  5.449478e+00    2.957568e+00
  5.481229e+00    2.967845e+00
  5.512980e+00    2.987336e+00
  5.544732e+00    3.049616e+00
  5.576483e+00    3.065678e+00
  5.608234e+00    3.017138e+00
  5.639985e+00    3.100787e+00
  5.671736e+00    3.017102e+00
  5.703487e+00    2.978905e+00
  5.735238e+00    2.960878e+00
  5.766990e+00    2.994357e+00
  5.798741e+00    2.997683e+00
  5.830492e+00    2.967231e+00
  5.862243e+00    2.951077e+00
  5.893994e+00    3.030388e+00
  5.925745e+00    2.959043e+00
  5.957497e+00    3.029923e+00
  5.989248e+00    3.051675e+00
  6.020999e+00    2.918903e+00
  6.052750e+00    2.903363e+00
  6.084501e+00    2.984387e+00
  6.116252e+00    3.051051e+00
  6.148003e+00    2.990910e+00
  6.179755e+00    3.049877e+00
  6.211506e+00    2.976520e+00
  6.243257e+00    2.933143e+00
  6.275008e+00    3.081699e+00
  6.306759e+00    2.965486e+00
  6.338510e+00    2.972555e+00
  6.370261e+00    3.033928e+00
  6.402013e+00    2.973037e+00
  6.433764e+00    2.930278e+00
  6.465515e+00    2.923458e+00
  6.497266e+00    2.954594e+00
  6.529017e+00    3.066166e+00
  6.560768e+00    2.973064e+00
  6.592519e+00    2.979778e+00
  6.624271e+00    2.977076e+00
  6.656022e+00    3.033892e+00
  6.687773e+00    3.009970e+00
  6.719524e+00    2.947584e+00
  6.751275e+00    2.944375e+00
  6.783026e+00    2.907947e+00
  6.814777e+00    2.896288e+00
  6.846529e+00    2.970024e+00
  6.878280e+00    3.018154e+00
  6.910031e+00    2.996916e+00
  6.941782e+00    2.892411e+00
  6.973533e+00    2.928105e+00
  7.005284e+00    2.953869e+00
  7.037036e+00    2.945646e+00
  7.068787e+00    2.980970e+00
  7.100538e+00    2.944155e+00
  7.132289e+00    2.951809e+00
  7.164040e+00    3.000037e+00
  7.195791e+00    2.945827e+00
  7.227542e+00    2.967147e+00
  7.259294e+00    2.955661e+00
  7.291045e+00    2.895571e+00
  7.322796e+00    2.930668e+00
  7.354547e+00    2.997017e+00
  7.386298e+00    2.940806e+00
  7.418049e+00    2.938193e+00
  7.449800e+00    2.974660e+00
  7.481552e+00    2.964522e+00
  7.513303e+00    2.873765e+00
  7.545054e+00    2.938294e+00
  7.576805e+00    2.896597e+00
  7.608556e+00    2.897302e+00
  7.640307e+00    2.855893e+00
  7.672058e+00    2.944984e+00
  7.703810e+00    2.879149e+00
  7.735561e+00    2.858254e+00
  7.767312e+00    2.870419e+00
  7.799063e+00    2.927990e+00
  7.830814e+00    2.919487e+00
  7.862565e+00    2.873104e+00
  7.894317e+00    2.881639e+00
  7.926068e+00    2.882987e+00
  7.957819e+00    2.908339e+00
  7.989570e+00    2.824611e+00
  8.021321e+00    2.947773e+00
  8.053072e+00    2.878849e+00
  8.084823e+00    2.840457e+00
  8.116575e+00    2.877688e+00
  8.148326e+00    2.844988e+00
  8.180077e+00    2.825619e+00
  8.211828e+00    2.909097e+00
  8.243579e+00    2.964294e+00
  8.275330e+00    2.882869e+00
  8.307081e+00    2.892539e+00
  8.338833e+00    2.827601e+00
  8.370584e+00    2.919214e+00
  8.402335e+00    2.838501e+00
  8.434086e+00    2.875374e+00
  8.465837e+00    2.775931e+00
  8.497588e+00    2.873237e+00
  8.529339e+00    2.857092e+00
  8.561091e+00    2.858602e+00
  8.592842e+00    2.813262e+00
  8.624593e+00    2.847357e+00
  8.656344e+00    2.836585e+00
  8.688095e+00    2.761437e+00
  8.719846e+00    2.821604e+00
  8.751598e+00    2.769454e+00
  8.783349e+00    2.720616e+00
  8.815100e+00    2.772002e+00
  8.846851e+00    2.768851e+00
  8.878602e+00    2.825928e+00
  8.910353e+00    2.796679e+00
  8.942104e+00    2.784257e+00
  8.973856e+00    2.757535e+00
  9.005607e+00    2.732646e+00
  9.037358e+00    2.722901e+00
  9.069109e+00    2.716419e+00
  9.100860e+00    2.723000e+00
  9.132611e+00    2.727171e+00
  9.164362e+00    2.687555e+00
  9.196114e+00    2.674091e+00
  9.227865e+00    2.751798e+00
  9.259616e+00    2.765592e+00
  9.291367e+00    2.733653e+00
  9.323118e+00    2.725809e+00
  9.354869e+00    2.748405e+00
  9.386620e+00    2.726593e+00
  9.418372e+00    2.745304e+00
  9.450123e+00    2.742261e+00
  9.481874e+00    2.705328e+00
  9.513625e+00    2.759703e+00
  9.545376e+00    2.745149e+00
  9.577127e+00    2.743686e+00
  9.608878e+00    2.778628e+00
  9.640630e+00    2.696811e+00
  9.672381e+00    2.651265e+00
  9.704132e+00    2.704817e+00
  9.735883e+00    2.689115e+00
  9.767634e+00    2.732137e+00
  9.799385e+00    2.651707e+00
  9.831137e+00    2.689121e+00
  9.862888e+00    2.717221e+00
  9.894639e+00    2.654163e+00
  9.926390e+00    2.678325e+00
  9.958141e+00    2.590817e+00
  9.989892e+00    2.641436e+00
  1.002164e+01    2.672255e+00
  1.005339e+01    2.572357e+00
  1.008515e+01    2.645977e+00
  1.011690e+01    2.625514e+00
  1.014865e+01    2.635606e+00
  1.018040e+01    2.605403e+00
  1.021215e+01    2.542222e+00
  1.024390e+01    2.613779e+00
  1.027565e+01    2.560805e+00
  1.030740e+01    2.610093e+00
  1.033915e+01    2.582994e+00
  1.037091e+01    2.593646e+00
  1.040266e+01    2.608917e+00
  1.043441e+01    2.523968e+00
  1.046616e+01    2.554243e+00
  1.049791e+01    2.518079e+00
  1.052966e+01    2.488590e+00
  1.056141e+01    2.526365e+00
  1.059316e+01    2.502365e+00
  1.062492e+01    2.522957e+00
  1.065667e+01    2.538627e+00
  1.068842e+01    2.488168e+00
  1.072017e+01    2.506375e+00
  1.075192e+01    2.479163e+00
  1.078367e+01    2.490234e+00
  1.081542e+01    2.473610e+00
  1.084717e+01    2.463613e+00
  1.087892e+01    2.477919e+00
  1.091068e+01    2.492077e+00
  1.094243e+01    2.502850e+00
  1.097418e+01    2.447548e+00
  1.100593e+01    2.458267e+00
  1.103768e+01    2.466395e+00
  1.106943e+01    2.428891e+00
  1.110118e+01    2.421956e+00
  1.113293e+01    2.411194e+00
  1.116468e+01    2.411211e+00
  1.119644e+01    2.423108e+00
  1.122819e+01    2.451384e+00
  1.125994e+01    2.399497e+00
  1.129169e+01    2.375160e+00
  1.132344e+01    2.354434e+00
  1.135519e+01    2.369406e+00
  1.138694e+01    2.421278e+00
  1.141869e+01    2.395165e+00
  1.145045e+01    2.375978e+00
  1.148220e+01    2.393748e+00
  1.151395e+01    2.349044e+00
  1.154570e+01    2.317051e+00
  1.157745e+01    2.330830e+00
  1.160920e+01    2.312555e+00
  1.164095e+01    2.374318e+00
  1.167270e+01    2.369228e+00
  1.170445e+01    2.334003e+00
  1.173621e+01    2.296304e+00
  1.176796e+01    2.322976e+00
  1.179971e+01    2.279775e+00
  1.183146e+01    2.279283e+00
  1.186321e+01    2.304212e+00
  1.189496e+01    2.317848e+00
  1.192671e+01    2.311804e+00
  1.195846e+01    2.230963e+00
  1.199021e+01    2.296478e+00
  1.202197e+01    2.292645e+00
  1.205372e+01    2.312589e+00
  1.208547e+01    2.289643e+00
  1.211722e+01    2.302359e+00
  1.214897e+01    2.276379e+00
  1.218072e+01    2.282693e+00
  1.221247e+01    2.303418e+00
  1.224422e+01    2.242017e+00
  1.227597e+01    2.296839e+00
  1.230773e+01    2.293402e+00
  1.233948e+01    2.294981e+00
  1.237123e+01    2.267118e+00
  1.240298e+01    2.265550e+00
  1.243473e+01    2.325234e+00
  1.246648e+01    2.289384e+00
  1.249823e+01    2.277756e+00
  1.252998e+01    2.330532e+00
  1.256174e+01    2.313516e+00
  1.259349e+01    2.322238e+00
  1.262524e+01    2.359912e+00
  1.265699e+01    2.371532e+00
  1.268874e+01    2.359570e+00
  1.272049e+01    2.427492e+00
  1.275224e+01    2.531288e+00
  1.278399e+01    2.584158e+00
  1.281574e+01    2.683574e+00
  1.284750e+01    2.799948e+00
  1.287925e+01    3.002724e+00
  1.291100e+01    3.296134e+00
  1.294275e+01    3.628684e+00
  1.297450e+01    4.276682e+00
  1.300625e+01    5.266348e+00
  1.303800e+01    6.979786e+00
  1.306975e+01    9.395110e+00
  1.310150e+01    1.212045e+01
  1.313326e+01    1.461080e+01
  1.316501e+01    1.690459e+01
  1.319676e+01    1.731119e+01
  1.322851e+01    1.448982e+01
  1.326026e+01    1.041642e+01
  1.329201e+01    7.453266e+00
  1.332376e+01    5.636011e+00
  1.335551e+01    4.432107e+00
  1.338727e+01    3.798719e+00
  1.341902e+01    3.329848e+00
  1.345077e+01    3.003001e+00
  1.348252e+01    2.773030e+00
  1.351427e+01    2.622358e+00
  1.354602e+01    2.500060e+00
  1.357777e+01    2.391281e+00
  1.360952e+01    2.368791e+00
  1.364127e+01    2.304064e+00
  1.367303e+01    2.287986e+00
  1.370478e+01    2.265944e+00
  1.373653e+01    2.151431e+00
  1.376828e+01    2.136368e+00
  1.380003e+01    2.125293e+00
  1.383178e+01    2.126307e+00
  1.386353e+01    2.100145e+00
  1.389528e+01    2.044991e+00
  1.392703e+01    2.067589e+00
  1.395879e+01    2.075274e+00
  1.399054e+01    2.049620e+00
  1.402229e+01    2.033268e+00
  1.405404e+01    2.014655e+00
  1.408579e+01    1.990431e+00
  1.411754e+01    2.005850e+00
  1.414929e+01    1.961877e+00
  1.418104e+01    1.976682e+00
  1.421279e+01    1.984728e+00
  1.424455e+01    1.946720e+00
  1.427630e+01    1.923702e+00
  1.430805e+01    1.912453e+00
  1.433980e+01    1.939114e+00
  1.437155e+01    1.943736e+00
  1.440330e+01    1.867906e+00
  1.443505e+01    1.914985e+00
  1.446680e+01    1.904089e+00
  1.449856e+01    1.887048e+00
  1.453031e+01    1.936388e+00
  1.456206e+01    1.896608e+00
  1.459381e+01    1.883473e+00
  1.462556e+01    1.882274e+00
  1.465731e+01    1.870178e+00
  1.468906e+01    1.889166e+00
  1.472081e+01    1.930117e+00
  1.475256e+01    1.884553e+00
  1.478432e+01    1.891041e+00
  1.481607e+01    1.899174e+00
  1.484782e+01    1.897483e+00
  1.487957e+01    1.909978e+00
  1.491132e+01    1.937791e+00
  1.494307e+01    1.969252e+00
  1.497482e+01    2.035793e+00
  1.500657e+01    2.124712e+00
  1.503832e+01    2.261764e+00
  1.507008e+01    2.418141e+00
  1.510183e+01    2.812978e+00
  1.513358e+01    3.320157e+00
  1.516533e+01    4.035650e+00
  1.519708e+01    4.808155e+00
  1.522883e+01    5.480601e+00
  1.526058e+01    5.882497e+00
  1.529233e+01    5.816334e+00
  1.532409e+01    5.031006e+00
  1.535584e+01    3.923166e+00
  1.538759e+01    3.162117e+00
  1.541934e+01    2.638161e+00
  1.545109e+01    2.300320e+00
  1.548284e+01    2.133956e+00
  1.551459e+01    2.009629e+00
  1.554634e+01    1.879487e+00
  1.557809e+01    1.876808e+00
  1.560985e+01    1.797985e+00
  1.564160e+01    1.761346e+00
  1.567335e+01    1.730879e+00
  1.570510e+01    1.735645e+00
  1.573685e+01    1.676253e+00
  1.576860e+01    1.686676e+00
  1.580035e+01    1.659229e+00
  1.583210e+01    1.672862e+00
  1.586385e+01    1.619658e+00
  1.589561e+01    1.628795e+00
  1.592736e+01    1.624930e+00
  1.595911e+01    1.556213e+00
  1.599086e+01    1.600846e+00
  1.602261e+01    1.572600e+00
  1.605436e+01    1.590065e+00
  1.608611e+01    1.564946e+00
  1.611786e+01    1.556668e+00
  1.614961e+01    1.545005e+00
  1.618137e+01    1.565029e+00
  1.621312e+01    1.550582e+00
  1.624487e+01    1.559849e+00
  1.627662e+01    1.502685e+00
  1.630837e+01    1.512503e+00
  1.634012e+01    1.494486e+00
  1.637187e+01    1.528872e+00
  1.640362e+01    1.513561e+00
  1.643538e+01    1.534167e+00
  1.646713e+01    1.536729e+00
  1.649888e+01    1.483048e+00
  1.653063e+01    1.463194e+00
  1.656238e+01    1.504184e+00
  1.659413e+01    1.442378e+00
  1.662588e+01    1.438661e+00
  1.665763e+01    1.441982e+00
  1.668938e+01    1.423697e+00
  1.672114e+01    1.444103e+00
  1.675289e+01    1.414777e+00
  1.678464e+01    1.465184e+00
  1.681639e+01    1.434394e+00
  1.684814e+01    1.430221e+00
  1.687989e+01    1.427515e+00
  1.691164e+01    1.427853e+00
  1.694339e+01    1.444280e+00
  1.697514e+01    1.423425e+00
  1.700690e+01    1.420353e+00
  1.703865e+01    1.408450e+00
  1.707040e+01    1.403992e+00
  1.710215e+01    1.379801e+00
  1.713390e+01    1.367925e+00
  1.716565e+01    1.392588e+00
  1.719740e+01    1.395048e+00
  1.722915e+01    1.377984e+00
  1.726091e+01    1.373776e+00
  1.729266e+01    1.388402e+00
  1.732441e+01    1.352147e+00
  1.735616e+01    1.371529e+00
  1.738791e+01    1.373289e+00
  1.741966e+01    1.343850e+00
  1.745141e+01    1.355297e+00
  1.748316e+01    1.318927e+00
  1.751491e+01    1.306854e+00
  1.754667e+01    1.367215e+00
  1.757842e+01    1.328441e+00
  1.761017e+01    1.311426e+00
  1.764192e+01    1.316277e+00
  1.767367e+01    1.312821e+00
  1.770542e+01    1.294969e+00
  1.773717e+01    1.310300e+00
  1.776892e+01    1.300588e+00
  1.780067e+01    1.290122e+00
  1.783243e+01    1.294819e+00
  1.786418e+01    1.290482e+00
  1.789593e+01    1.268479e+00
  1.792768e+01    1.277709e+00
  1.795943e+01    1.281105e+00
  1.799118e+01    1.301771e+00
  1.802293e+01    1.283160e+00
  1.805468e+01    1.285208e+00
  1.808643e+01    1.282161e+00
  1.811819e+01    1.253445e+00
  1.814994e+01    1.270907e+00
  1.818169e+01    1.267083e+00
  1.821344e+01    1.240038e+00
  1.824519e+01    1.281788e+00
  1.827694e+01    1.279012e+00
  1.830869e+01    1.224230e+00
  1.834044e+01    1.257896e+00
  1.837220e+01    1.232964e+00
  1.840395e+01    1.234034e+00
  1.843570e+01    1.228862e+00
  1.846745e+01    1.225182e+00
  1.849920e+01    1.216373e+00
  1.853095e+01    1.230757e+00
  1.856270e+01    1.222768e+00
  1.859445e+01    1.225612e+00
  1.862620e+01    1.211793e+00
  1.865796e+01    1.206246e+00
  1.868971e+01    1.202013e+00
  1.872146e+01    1.205241e+00
  1.875321e+01    1.186363e+00
  1.878496e+01    1.225984e+00
  1.881671e+01    1.194732e+00
  1.884846e+01    1.207846e+00
  1.888021e+01    1.167199e+00
  1.891196e+01    1.193583e+00
  1.894372e+01    1.193630e+00
  1.897547e+01    1.159320e+00
  1.900722e+01    1.177726e+00
  1.903897e+01    1.193988e+00
  1.907072e+01    1.178729e+00
  1.910247e+01    1.159219e+00
  1.913422e+01    1.190752e+00
  1.916597e+01    1.179460e+00
  1.919773e+01    1.181146e+00
  1.922948e+01    1.181731e+00
  1.926123e+01    1.181142e+00
  1.929298e+01    1.168357e+00
  1.932473e+01    1.145617e+00
  1.935648e+01    1.142618e+00
  1.938823e+01    1.149440e+00
  1.941998e+01    1.165250e+00
  1.945173e+01    1.139129e+00
  1.948349e+01    1.134676e+00
  1.951524e+01    1.152014e+00
  1.954699e+01    1.155036e+00
  1.957874e+01    1.132071e+00
  1.961049e+01    1.121350e+00
  1.964224e+01    1.135008e+00
  1.967399e+01    1.107094e+00
  1.970574e+01    1.156096e+00
  1.973749e+01    1.116666e+00
  1.976925e+01    1.091998e+00
  1.980100e+01    1.091379e+00
  1.983275e+01    1.096248e+00
  1.986450e+01    1.133114e+00
  1.989625e+01    1.095426e+00
  1.992800e+01    1.121479e+00
  1.995975e+01    1.119814e+00
  1.999150e+01    1.097902e+00
  2.002325e+01    1.088144e+00
  2.005501e+01    1.106393e+00
  2.008676e+01    1.099232e+00
  2.011851e+01    1.110105e+00
  2.015026e+01    1.097778e+00
  2.018201e+01    1.119289e+00
  2.021376e+01    1.079207e+00
  2.024551e+01    1.114487e+00
  2.027726e+01    1.089011e+00
  2.030902e+01    1.095230e+00
  2.034077e+01    1.089653e+00
  2.037252e+01    1.072525e+00
  2.040427e+01    1.087689e+00
  2.043602e+01    1.103284e+00
  2.046777e+01    1.090401e+00
  2.049952e+01    1.076724e+00
  2.053127e+01    1.060456e+00
  2.056302e+01    1.066211e+00
  2.059478e+01    1.064781e+00
  2.062653e+01    1.070967e+00
  2.065828e+01    1.066336e+00
  2.069003e+01    1.048244e+00
  2.072178e+01    1.059127e+00
  2.075353e+01    1.044715e+00
  2.078528e+01    1.073750e+00
  2.081703e+01    1.056203e+00
  2.084878e+01    1.046548e+00
  2.088054e+01    1.067657e+00
  2.091229e+01    1.044880e+00
  2.094404e+01    1.076383e+00
  2.097579e+01    1.063219e+00
  2.100754e+01    1.059074e+00
  2.103929e+01    1.046327e+00
  2.107104e+01    1.058484e+00
  2.110279e+01    1.075631e+00
  2.113455e+01    1.067657e+00
  2.116630e+01    1.058390e+00
  2.119805e+01    1.044382e+00
  2.122980e+01    1.059534e+00
  2.126155e+01    1.107515e+00
  2.129330e+01    1.121361e+00
  2.132505e+01    1.118779e+00
  2.135680e+01    1.138938e+00
  2.138855e+01    1.150557e+00
  2.142031e+01    1.174238e+00
  2.145206e+01    1.193616e+00
  2.148381e+01    1.227835e+00
  2.151556e+01    1.286648e+00
  2.154731e+01    1.382334e+00
  2.157906e+01    1.467893e+00
  2.161081e+01    1.564842e+00
  2.164256e+01    1.795218e+00
  2.167431e+01    2.074349e+00
  2.170607e+01    2.480582e+00
  2.173782e+01    3.140282e+00
  2.176957e+01    4.079940e+00
  2.180132e+01    5.350905e+00
  2.183307e+01    6.762891e+00
  2.186482e+01    8.246971e+00
  2.189657e+01    9.362498e+00
  2.192832e+01    9.477433e+00
  2.196007e+01    7.822690e+00
  2.199183e+01    5.740346e+00
  2.202358e+01    4.108104e+00
  2.205533e+01    3.081665e+00
  2.208708e+01    2.441059e+00
  2.211883e+01    2.014881e+00
  2.215058e+01    1.747083e+00
  2.218233e+01    1.582711e+00
  2.221408e+01    1.407334e+00
  2.224584e+01    1.319981e+00
  2.227759e+01    1.232785e+00
  2.230934e+01    1.192547e+00
  2.234109e+01    1.143396e+00
  2.237284e+01    1.103843e+00
  2.240459e+01    1.068966e+00
  2.243634e+01    1.044839e+00
  2.246809e+01    1.033473e+00
  2.249984e+01    1.020624e+00
  2.253160e+01    1.007090e+00
  2.256335e+01    9.800535e-01
  2.259510e+01    9.589285e-01
  2.262685e+01    9.642485e-01
  2.265860e+01    9.588007e-01
  2.269035e+01    9.509237e-01
  2.272210e+01    9.626886e-01
  2.275385e+01    9.190976e-01
  2.278560e+01    9.075784e-01
  2.281736e+01    9.367772e-01
  2.284911e+01    9.046365e-01
  2.288086e+01    9.216309e-01
  2.291261e+01    9.086778e-01
  2.294436e+01    8.987319e-01
  2.297611e+01    8.827380e-01
  2.300786e+01    8.903166e-01
  2.303961e+01    8.733039e-01
  2.307137e+01    8.953844e-01
  2.310312e+01    8.510837e-01
  2.313487e+01    8.771863e-01
  2.316662e+01    8.710085e-01
  2.319837e+01    8.653833e-01
  2.323012e+01    8.611442e-01
  2.326187e+01    8.359283e-01
  2.329362e+01    8.754234e-01
  2.332537e+01    8.708752e-01
  2.335713e+01    8.577636e-01
  2.338888e+01    8.333080e-01
  2.342063e+01    8.313603e-01
  2.345238e+01    8.349273e-01
  2.348413e+01    8.349051e-01
  2.351588e+01    8.308275e-01
  2.354763e+01    8.262864e-01
  2.357938e+01    8.482134e-01
  2.361113e+01    8.412204e-01
  2.364289e+01    8.096352e-01
  2.367464e+01    8.325558e-01
  2.370639e+01    8.107976e-01
  2.373814e+01    8.052323e-01
  2.376989e+01    8.088060e-01
  2.380164e+01    7.847749e-01
  2.383339e+01    7.889469e-01
  2.386514e+01    8.192650e-01
  2.389689e+01    8.004445e-01
  2.392865e+01    7.858472e-01
  2.396040e+01    7.958635e-01
  2.399215e+01    7.881365e-01
  2.402390e+01    7.701362e-01
  2.405565e+01    8.001100e-01
  2.408740e+01    7.736048e-01
  2.411915e+01    7.572461e-01
  2.415090e+01    7.821428e-01
  2.418266e+01    7.909244e-01
  2.421441e+01    7.447172e-01
  2.424616e+01    7.608600e-01
  2.427791e+01    7.766051e-01
  2.430966e+01    7.745957e-01
  2.434141e+01    7.720962e-01
  2.437316e+01    7.903211e-01
  2.440491e+01    7.633883e-01
  2.443666e+01    7.855888e-01
  2.446842e+01    7.750534e-01
  2.450017e+01    8.058679e-01
  2.453192e+01    7.966069e-01
  2.456367e+01    7.700466e-01
  2.459542e+01    7.580854e-01
  2.462717e+01    7.936916e-01
  2.465892e+01    7.692286e-01
  2.469067e+01    8.007129e-01
  2.472242e+01    7.870681e-01
  2.475418e+01    7.953754e-01
  2.478593e+01    7.785954e-01
  2.481768e+01    7.884179e-01
  2.484943e+01    7.871540e-01
  2.488118e+01    7.866293e-01
  2.491293e+01    7.890596e-01
  2.494468e+01    7.970988e-01
  2.497643e+01    7.878417e-01
  2.500819e+01    7.872760e-01
  2.503994e+01    7.896925e-01
  2.507169e+01    7.841040e-01
  2.510344e+01    8.026081e-01
  2.513519e+01    7.946817e-01
  2.516694e+01    8.173516e-01
  2.519869e+01    8.316829e-01
  2.523044e+01    8.499352e-01
  2.526219e+01    8.415323e-01
  2.529395e+01    8.476326e-01
  2.532570e+01    8.509381e-01
  2.535745e+01    8.831764e-01
  2.538920e+01    8.844332e-01
  2.542095e+01    9.152222e-01
  2.545270e+01    9.349351e-01
  2.548445e+01    9.375247e-01
  2.551620e+01    9.700318e-01
  2.554795e+01    1.016190e+00
  2.557971e+01    1.035619e+00
  2.561146e+01    1.109782e+00
  2.564321e+01    1.208745e+00
  2.567496e+01    1.285793e+00
  2.570671e+01    1.433720e+00
  2.573846e+01    1.652785e+00
  2.577021e+01    1.993233e+00
  2.580196e+01    2.466300e+00
  2.583371e+01    3.197576e+00
  2.586547e+01    4.224813e+00
  2.589722e+01    5.527024e+00
  2.592897e+01    6.713331e+00
  2.596072e+01    7.759133e+00
  2.599247e+01    7.724243e+00
  2.602422e+01    6.668226e+00
  2.605597e+01    4.986257e+00
  2.608772e+01    3.670790e+00
  2.611948e+01    2.780060e+00
  2.615123e+01    2.145077e+00
  2.618298e+01    1.786918e+00
  2.621473e+01    1.575941e+00
  2.624648e+01    1.320848e+00
  2.627823e+01    1.264034e+00
  2.630998e+01    1.170899e+00
  2.634173e+01    1.091320e+00
  2.637348e+01    1.041967e+00
  2.640524e+01    9.890031e-01
  2.643699e+01    9.400094e-01
  2.646874e+01    9.645832e-01
  2.650049e+01    9.321682e-01
  2.653224e+01    9.257887e-01
  2.656399e+01    9.158903e-01
  2.659574e+01    9.125952e-01
  2.662749e+01    8.893836e-01
  2.665924e+01    8.946691e-01
  2.669100e+01    8.820194e-01
  2.672275e+01    8.824016e-01
  2.675450e+01    8.960220e-01
  2.678625e+01    8.895985e-01
  2.681800e+01    8.869616e-01
  2.684975e+01    9.004681e-01
  2.688150e+01    8.885754e-01
  2.691325e+01    9.170723e-01
  2.694501e+01    9.436700e-01
  2.697676e+01    9.486084e-01
  2.700851e+01    1.031524e+00
  2.704026e+01    1.095074e+00
  2.707201e+01    1.177568e+00
  2.710376e+01    1.348911e+00
  2.713551e+01    1.592352e+00
  2.716726e+01    1.857447e+00
  2.719901e+01    2.143560e+00
  2.723077e+01    2.317374e+00
  2.726252e+01    2.250456e+00
  2.729427e+01    1.947142e+00
  2.732602e+01    1.595338e+00
  2.735777e+01    1.367560e+00
  2.738952e+01    1.178836e+00
  2.742127e+01    1.066497e+00
  2.745302e+01    1.012308e+00
  2.748477e+01    9.782196e-01
  2.751653e+01    9.139823e-01
  2.754828e+01    8.990743e-01
  2.758003e+01    8.433512e-01
  2.761178e+01    8.438488e-01
  2.764353e+01    8.293874e-01
  2.767528e+01    8.039755e-01
  2.770703e+01    8.026107e-01
  2.773878e+01    8.029129e-01
  2.777054e+01    8.023511e-01
  2.780229e+01    7.950900e-01
  2.783404e+01    8.201941e-01
  2.786579e+01    7.811477e-01
  2.789754e+01    7.849345e-01
  2.792929e+01    8.122370e-01
  2.796104e+01    8.011470e-01
  2.799279e+01    7.671632e-01
  2.802454e+01    8.059219e-01
  2.805630e+01    7.914642e-01
  2.808805e+01    7.758662e-01
  2.811980e+01    7.765574e-01
  2.815155e+01    7.622306e-01
  2.818330e+01    7.686710e-01
  2.821505e+01    7.429442e-01
  2.824680e+01    7.679368e-01
  2.827855e+01    7.529041e-01
  2.831030e+01    7.631097e-01
  2.834206e+01    7.693961e-01
  2.837381e+01    7.537927e-01
  2.840556e+01    7.482974e-01
  2.843731e+01    7.513439e-01
  2.846906e+01    7.663690e-01
  2.850081e+01    7.647441e-01
  2.853256e+01    7.200757e-01
  2.856431e+01    7.596313e-01
  2.859606e+01    7.521330e-01
  2.862782e+01    7.502342e-01
  2.865957e+01    7.713535e-01
  2.869132e+01    7.621500e-01
  2.872307e+01    7.517264e-01
  2.875482e+01    7.363722e-01
  2.878657e+01    7.380971e-01
  2.881832e+01    7.239625e-01
  2.885007e+01    7.466358e-01
  2.888183e+01    7.473125e-01
  2.891358e+01    7.278948e-01
  2.894533e+01    7.239931e-01
  2.897708e+01    7.280219e-01
  2.900883e+01    7.357435e-01
  2.904058e+01    7.408087e-01
  2.907233e+01    7.258444e-01
  2.910408e+01    7.308123e-01
  2.913583e+01    7.307890e-01
  2.916759e+01    7.217269e-01
  2.919934e+01    7.186744e-01
  2.923109e+01    7.388214e-01
  2.926284e+01    7.334455e-01
  2.929459e+01    7.257349e-01
  2.932634e+01    7.174622e-01
  2.935809e+01    7.135581e-01
  2.938984e+01    7.176133e-01
  2.942159e+01    7.188529e-01
  2.945335e+01    7.309531e-01
  2.948510e+01    7.158657e-01
  2.951685e+01    7.252212e-01
  2.954860e+01    7.136486e-01
  2.958035e+01    7.425774e-01
  2.961210e+01    7.082699e-01
  2.964385e+01    7.285134e-01
  2.967560e+01    7.045989e-01
  2.970736e+01    7.271517e-01
  2.973911e+01    7.028322e-01
  2.977086e+01    6.990552e-01
  2.980261e+01    7.064150e-01
  2.983436e+01    7.126765e-01
  2.986611e+01    7.010062e-01
  2.989786e+01    6.966938e-01
  2.992961e+01    6.820092e-01
  2.996136e+01    7.226768e-01
  2.999312e+01    7.180754e-01
  3.002487e+01    7.220910e-01
  3.005662e+01    7.226716e-01
  3.008837e+01    7.300631e-01
  3.012012e+01    6.999277e-01
  3.015187e+01    7.161161e-01
  3.018362e+01    7.230937e-01
  3.021537e+01    6.968568e-01
  3.024712e+01    6.994903e-01
  3.027888e+01    7.096446e-01
  3.031063e+01    7.131209e-01
  3.034238e+01    6.878160e-01
  3.037413e+01    6.943915e-01
  3.040588e+01    7.019886e-01
  3.043763e+01    6.923985e-01
  3.046938e+01    7.041217e-01
  3.050113e+01    6.969344e-01
  3.053288e+01    6.819307e-01
  3.056464e+01    7.006937e-01
  3.059639e+01    7.090136e-01
  3.062814e+01    7.132038e-01
  3.065989e+01    7.071311e-01
  3.069164e+01    6.878353e-01
  3.072339e+01    7.139448e-01
  3.075514e+01    7.192339e-01
  3.078689e+01    7.089640e-01
  3.081865e+01    6.903079e-01
  3.085040e+01    7.154737e-01
  3.088215e+01    7.263826e-01
  3.091390e+01    7.024046e-01
  3.094565e+01    7.011690e-01
  3.097740e+01    6.891557e-01
  3.100915e+01    6.999310e-01
  3.104090e+01    7.082059e-01
  3.107265e+01    7.085260e-01
  3.110441e+01    7.175316e-01
  3.113616e+01    7.177998e-01
  3.116791e+01    7.187132e-01
  3.119966e+01    7.182221e-01
  3.123141e+01    7.246536e-01
  3.126316e+01    7.330800e-01
  3.129491e+01    7.199300e-01
  3.132666e+01    7.280755e-01
  3.135841e+01    7.322139e-01
  3.139017e+01    7.345328e-01
  3.142192e+01    7.297359e-01
  3.145367e+01    7.547693e-01
  3.148542e+01    7.430458e-01
  3.151717e+01    7.472243e-01
  3.154892e+01    7.603396e-01
  3.158067e+01    7.762022e-01
  3.161242e+01    8.351921e-01
  3.164418e+01    8.513842e-01
  3.167593e+01    9.076304e-01
  3.170768e+01    9.580434e-01
  3.173943e+01    1.027614e+00
  3.177118e+01    1.128928e+00
  3.180293e+01    1.313638e+00
  3.183468e+01    1.617764e+00
  3.186643e+01    1.897590e+00
  3.189818e+01    2.194713e+00
  3.192994e+01    2.292285e+00
  3.196169e+01    2.155080e+00
  3.199344e+01    1.841894e+00
  3.202519e+01    1.480981e+00
  3.205694e+01    1.256088e+00
  3.208869e+01    1.084022e+00
  3.212044e+01    9.889443e-01
  3.215219e+01    8.885937e-01
  3.218394e+01    8.630390e-01
  3.221570e+01    8.511782e-01
  3.224745e+01    7.836940e-01
  3.227920e+01    7.928171e-01
  3.231095e+01    7.600403e-01
  3.234270e+01    7.454703e-01
  3.237445e+01    7.201185e-01
  3.240620e+01    7.177090e-01
  3.243795e+01    7.220868e-01
  3.246970e+01    7.131684e-01
  3.250146e+01    7.175237e-01
  3.253321e+01    7.195436e-01
  3.254908e+01    7.003898e-01