File: XRD/Activation ramp/2024-07-27_002_Ru-CGO-ex_Activtation_ramp_000002_data_000093.dat
# == pyFAI calibration ==
# Distance Sample to Detector: 0.4 m
# PONI: 9.750e-02, 1.135e-01 m
# Rotations: -0.000175 0.000000 -0.000000 rad
#
# == Fit2d calibration ==
# Distance Sample-beamCenter: 400.000 mm
# Center: x=1514.000, y=1300.000 pix
# Tilt: 0.010 deg  TiltPlanRot: 0.010 deg
#
# Detector Detector	 Spline= None	 PixelSize= 7.500e-05, 7.500e-05 m
#    Detector has a mask: False
#    Detector has a dark current: False
#    detector has a flat field: False
#
# Wavelength: 6.888e-11 m
# Mask applied: user provided
# Dark current applied: False
# Flat field applied: False
# Polarization factor: 0.99
# Normalization factor: 1.0
# --> /home/myspot/data/2024_07_Rosario/Ru-CGO-ex/2024-07-27_002_Ru-CGO-ex_Activtation_ramp_000002_data_000093.dat
#       q_nm^-1             I
  2.003187e-02    0.000000e+00
  5.178302e-02    9.527961e-02
  8.353417e-02    1.724706e-01
  1.152853e-01    1.324316e-01
  1.470365e-01    1.604889e-02
  1.787876e-01    1.797003e-03
  2.105388e-01    1.941700e-02
  2.422899e-01    5.799422e-02
  2.740411e-01    4.219547e-03
  3.057922e-01    2.157723e-02
  3.375433e-01    6.560403e-02
  3.692945e-01    1.335052e-02
  4.010456e-01    5.003750e-02
  4.327968e-01    3.989166e-02
  4.645479e-01    2.596617e-02
  4.962991e-01    3.718830e-02
  5.280502e-01    2.898464e-02
  5.598014e-01    1.693749e-02
  5.915525e-01    5.561252e-02
  6.233037e-01    3.063992e-02
  6.550548e-01    1.635412e-02
  6.868060e-01    3.882701e-02
  7.185571e-01    5.097487e-02
  7.503083e-01    4.878873e-02
  7.820594e-01    1.198070e-01
  8.138106e-01    2.020776e-01
  8.455617e-01    3.292083e-01
  8.773129e-01    4.548656e-01
  9.090640e-01    5.786728e-01
  9.408152e-01    6.630343e-01
  9.725663e-01    8.367453e-01
  1.004317e+00    9.149253e-01
  1.036069e+00    1.159179e+00
  1.067820e+00    1.239583e+00
  1.099571e+00    1.395564e+00
  1.131322e+00    1.565760e+00
  1.163073e+00    1.428294e+00
  1.194824e+00    1.574567e+00
  1.226575e+00    1.974535e+00
  1.258327e+00    2.218714e+00
  1.290078e+00    2.455635e+00
  1.321829e+00    2.602561e+00
  1.353580e+00    2.629880e+00
  1.385331e+00    2.525010e+00
  1.417082e+00    2.664356e+00
  1.448834e+00    2.650629e+00
  1.480585e+00    2.867304e+00
  1.512336e+00    2.836060e+00
  1.544087e+00    2.758970e+00
  1.575838e+00    2.952351e+00
  1.607589e+00    2.835289e+00
  1.639340e+00    2.838870e+00
  1.671092e+00    2.832166e+00
  1.702843e+00    2.830765e+00
  1.734594e+00    2.807683e+00
  1.766345e+00    2.731975e+00
  1.798096e+00    2.935715e+00
  1.829847e+00    2.713471e+00
  1.861598e+00    2.716802e+00
  1.893350e+00    2.674576e+00
  1.925101e+00    2.881037e+00
  1.956852e+00    2.730265e+00
  1.988603e+00    2.726686e+00
  2.020354e+00    2.769135e+00
  2.052105e+00    2.705177e+00
  2.083856e+00    2.556309e+00
  2.115608e+00    2.728752e+00
  2.147359e+00    2.791496e+00
  2.179110e+00    2.583720e+00
  2.210861e+00    2.821501e+00
  2.242612e+00    2.707084e+00
  2.274363e+00    2.689249e+00
  2.306115e+00    2.704170e+00
  2.337866e+00    2.758069e+00
  2.369617e+00    2.715760e+00
  2.401368e+00    2.749101e+00
  2.433119e+00    2.801316e+00
  2.464870e+00    2.743064e+00
  2.496621e+00    2.796095e+00
  2.528373e+00    2.748929e+00
  2.560124e+00    2.736709e+00
  2.591875e+00    2.780166e+00
  2.623626e+00    2.820584e+00
  2.655377e+00    2.893728e+00
  2.687128e+00    2.742208e+00
  2.718879e+00    2.677975e+00
  2.750631e+00    2.778646e+00
  2.782382e+00    2.679803e+00
  2.814133e+00    2.772432e+00
  2.845884e+00    2.680631e+00
  2.877635e+00    2.787046e+00
  2.909386e+00    2.834844e+00
  2.941137e+00    2.952991e+00
  2.972889e+00    2.757201e+00
  3.004640e+00    2.885778e+00
  3.036391e+00    2.798755e+00
  3.068142e+00    2.824400e+00
  3.099893e+00    2.758552e+00
  3.131644e+00    2.867981e+00
  3.163395e+00    2.746262e+00
  3.195147e+00    2.815623e+00
  3.226898e+00    2.890845e+00
  3.258649e+00    2.924077e+00
  3.290400e+00    2.843493e+00
  3.322151e+00    2.925651e+00
  3.353902e+00    2.836405e+00
  3.385654e+00    2.934938e+00
  3.417405e+00    2.941402e+00
  3.449156e+00    2.781916e+00
  3.480907e+00    2.930648e+00
  3.512658e+00    2.960195e+00
  3.544409e+00    2.914646e+00
  3.576160e+00    2.976851e+00
  3.607912e+00    2.949674e+00
  3.639663e+00    3.011527e+00
  3.671414e+00    2.930496e+00
  3.703165e+00    3.008778e+00
  3.734916e+00    2.908440e+00
  3.766667e+00    2.953999e+00
  3.798418e+00    2.952954e+00
  3.830170e+00    2.921811e+00
  3.861921e+00    2.895287e+00
  3.893672e+00    2.969031e+00
  3.925423e+00    2.930888e+00
  3.957174e+00    2.873300e+00
  3.988925e+00    2.904700e+00
  4.020676e+00    2.991899e+00
  4.052428e+00    3.004142e+00
  4.084179e+00    2.973687e+00
  4.115930e+00    3.042536e+00
  4.147681e+00    2.978684e+00
  4.179432e+00    2.914663e+00
  4.211183e+00    3.013285e+00
  4.242935e+00    3.000928e+00
  4.274686e+00    3.022096e+00
  4.306437e+00    3.039070e+00
  4.338188e+00    2.988965e+00
  4.369939e+00    3.070822e+00
  4.401690e+00    3.000158e+00
  4.433441e+00    2.927910e+00
  4.465193e+00    3.009032e+00
  4.496944e+00    3.070302e+00
  4.528695e+00    3.008661e+00
  4.560446e+00    2.995426e+00
  4.592197e+00    3.087123e+00
  4.623948e+00    2.986238e+00
  4.655699e+00    3.076156e+00
  4.687451e+00    3.062157e+00
  4.719202e+00    3.113111e+00
  4.750953e+00    3.045666e+00
  4.782704e+00    3.119455e+00
  4.814455e+00    3.065599e+00
  4.846206e+00    3.132853e+00
  4.877957e+00    3.103975e+00
  4.909709e+00    3.092432e+00
  4.941460e+00    3.059191e+00
  4.973211e+00    3.074044e+00
  5.004962e+00    3.158860e+00
  5.036713e+00    3.092806e+00
  5.068464e+00    3.009919e+00
  5.100216e+00    3.120734e+00
  5.131967e+00    3.175610e+00
  5.163718e+00    3.113912e+00
  5.195469e+00    3.046638e+00
  5.227220e+00    3.062671e+00
  5.258971e+00    3.065691e+00
  5.290722e+00    3.044664e+00
  5.322474e+00    3.080268e+00
  5.354225e+00    3.010656e+00
  5.385976e+00    3.124376e+00
  5.417727e+00    3.045805e+00
  5.449478e+00    3.064214e+00
  5.481229e+00    3.092798e+00
  5.512980e+00    3.033542e+00
  5.544732e+00    2.972571e+00
  5.576483e+00    3.042917e+00
  5.608234e+00    3.027910e+00
  5.639985e+00    2.990954e+00
  5.671736e+00    3.044359e+00
  5.703487e+00    2.966746e+00
  5.735238e+00    3.021550e+00
  5.766990e+00    2.975477e+00
  5.798741e+00    3.019701e+00
  5.830492e+00    2.960635e+00
  5.862243e+00    2.946386e+00
  5.893994e+00    2.999957e+00
  5.925745e+00    3.029265e+00
  5.957497e+00    2.996899e+00
  5.989248e+00    3.039766e+00
  6.020999e+00    2.947125e+00
  6.052750e+00    3.030606e+00
  6.084501e+00    2.936142e+00
  6.116252e+00    3.085330e+00
  6.148003e+00    3.042486e+00
  6.179755e+00    3.025088e+00
  6.211506e+00    2.982434e+00
  6.243257e+00    2.937015e+00
  6.275008e+00    3.026207e+00
  6.306759e+00    2.913731e+00
  6.338510e+00    2.924805e+00
  6.370261e+00    3.017570e+00
  6.402013e+00    2.991308e+00
  6.433764e+00    2.983755e+00
  6.465515e+00    3.033567e+00
  6.497266e+00    3.061077e+00
  6.529017e+00    2.992591e+00
  6.560768e+00    2.945009e+00
  6.592519e+00    3.008996e+00
  6.624271e+00    2.988122e+00
  6.656022e+00    3.013586e+00
  6.687773e+00    3.028986e+00
  6.719524e+00    3.024632e+00
  6.751275e+00    2.991100e+00
  6.783026e+00    2.948181e+00
  6.814777e+00    2.950853e+00
  6.846529e+00    2.946595e+00
  6.878280e+00    2.948133e+00
  6.910031e+00    2.977539e+00
  6.941782e+00    2.961216e+00
  6.973533e+00    2.998572e+00
  7.005284e+00    2.919296e+00
  7.037036e+00    2.967175e+00
  7.068787e+00    2.990217e+00
  7.100538e+00    2.921194e+00
  7.132289e+00    2.990191e+00
  7.164040e+00    3.004012e+00
  7.195791e+00    2.960249e+00
  7.227542e+00    2.948350e+00
  7.259294e+00    2.987851e+00
  7.291045e+00    2.920921e+00
  7.322796e+00    2.912769e+00
  7.354547e+00    2.890544e+00
  7.386298e+00    2.984259e+00
  7.418049e+00    2.941437e+00
  7.449800e+00    2.934843e+00
  7.481552e+00    2.862964e+00
  7.513303e+00    2.918350e+00
  7.545054e+00    2.913266e+00
  7.576805e+00    2.930232e+00
  7.608556e+00    2.891276e+00
  7.640307e+00    2.918353e+00
  7.672058e+00    2.897936e+00
  7.703810e+00    2.966796e+00
  7.735561e+00    2.880703e+00
  7.767312e+00    2.962878e+00
  7.799063e+00    2.877671e+00
  7.830814e+00    2.910320e+00
  7.862565e+00    2.910831e+00
  7.894317e+00    2.859915e+00
  7.926068e+00    2.879102e+00
  7.957819e+00    2.868399e+00
  7.989570e+00    2.911498e+00
  8.021321e+00    2.837948e+00
  8.053072e+00    2.830411e+00
  8.084823e+00    2.821466e+00
  8.116575e+00    2.929273e+00
  8.148326e+00    2.878414e+00
  8.180077e+00    2.889823e+00
  8.211828e+00    2.946913e+00
  8.243579e+00    2.909852e+00
  8.275330e+00    2.834722e+00
  8.307081e+00    2.820214e+00
  8.338833e+00    2.821832e+00
  8.370584e+00    2.805034e+00
  8.402335e+00    2.886708e+00
  8.434086e+00    2.828112e+00
  8.465837e+00    2.917593e+00
  8.497588e+00    2.834512e+00
  8.529339e+00    2.909851e+00
  8.561091e+00    2.877417e+00
  8.592842e+00    2.874565e+00
  8.624593e+00    2.791334e+00
  8.656344e+00    2.855593e+00
  8.688095e+00    2.795913e+00
  8.719846e+00    2.795370e+00
  8.751598e+00    2.817274e+00
  8.783349e+00    2.811301e+00
  8.815100e+00    2.835416e+00
  8.846851e+00    2.739218e+00
  8.878602e+00    2.813374e+00
  8.910353e+00    2.799998e+00
  8.942104e+00    2.799446e+00
  8.973856e+00    2.732268e+00
  9.005607e+00    2.799234e+00
  9.037358e+00    2.756837e+00
  9.069109e+00    2.728115e+00
  9.100860e+00    2.748034e+00
  9.132611e+00    2.675020e+00
  9.164362e+00    2.737321e+00
  9.196114e+00    2.753896e+00
  9.227865e+00    2.712122e+00
  9.259616e+00    2.775479e+00
  9.291367e+00    2.708242e+00
  9.323118e+00    2.705306e+00
  9.354869e+00    2.705082e+00
  9.386620e+00    2.762465e+00
  9.418372e+00    2.702264e+00
  9.450123e+00    2.676505e+00
  9.481874e+00    2.689582e+00
  9.513625e+00    2.742850e+00
  9.545376e+00    2.705621e+00
  9.577127e+00    2.713507e+00
  9.608878e+00    2.690609e+00
  9.640630e+00    2.744365e+00
  9.672381e+00    2.706475e+00
  9.704132e+00    2.692229e+00
  9.735883e+00    2.714639e+00
  9.767634e+00    2.673015e+00
  9.799385e+00    2.697796e+00
  9.831137e+00    2.646758e+00
  9.862888e+00    2.650610e+00
  9.894639e+00    2.637568e+00
  9.926390e+00    2.635889e+00
  9.958141e+00    2.639830e+00
  9.989892e+00    2.611950e+00
  1.002164e+01    2.614739e+00
  1.005339e+01    2.603157e+00
  1.008515e+01    2.661599e+00
  1.011690e+01    2.619187e+00
  1.014865e+01    2.617686e+00
  1.018040e+01    2.546407e+00
  1.021215e+01    2.594526e+00
  1.024390e+01    2.551840e+00
  1.027565e+01    2.531311e+00
  1.030740e+01    2.599751e+00
  1.033915e+01    2.586423e+00
  1.037091e+01    2.581773e+00
  1.040266e+01    2.598879e+00
  1.043441e+01    2.532106e+00
  1.046616e+01    2.499002e+00
  1.049791e+01    2.559871e+00
  1.052966e+01    2.499758e+00
  1.056141e+01    2.552428e+00
  1.059316e+01    2.485687e+00
  1.062492e+01    2.527709e+00
  1.065667e+01    2.545914e+00
  1.068842e+01    2.512570e+00
  1.072017e+01    2.505944e+00
  1.075192e+01    2.451020e+00
  1.078367e+01    2.437401e+00
  1.081542e+01    2.481668e+00
  1.084717e+01    2.453220e+00
  1.087892e+01    2.548013e+00
  1.091068e+01    2.496159e+00
  1.094243e+01    2.477777e+00
  1.097418e+01    2.494950e+00
  1.100593e+01    2.440235e+00
  1.103768e+01    2.458368e+00
  1.106943e+01    2.412092e+00
  1.110118e+01    2.461235e+00
  1.113293e+01    2.415426e+00
  1.116468e+01    2.400628e+00
  1.119644e+01    2.420638e+00
  1.122819e+01    2.422217e+00
  1.125994e+01    2.429519e+00
  1.129169e+01    2.392245e+00
  1.132344e+01    2.402292e+00
  1.135519e+01    2.322525e+00
  1.138694e+01    2.387090e+00
  1.141869e+01    2.362610e+00
  1.145045e+01    2.341605e+00
  1.148220e+01    2.356668e+00
  1.151395e+01    2.425455e+00
  1.154570e+01    2.343317e+00
  1.157745e+01    2.338394e+00
  1.160920e+01    2.346975e+00
  1.164095e+01    2.405402e+00
  1.167270e+01    2.376775e+00
  1.170445e+01    2.285594e+00
  1.173621e+01    2.389086e+00
  1.176796e+01    2.322332e+00
  1.179971e+01    2.343304e+00
  1.183146e+01    2.341757e+00
  1.186321e+01    2.290835e+00
  1.189496e+01    2.297236e+00
  1.192671e+01    2.316036e+00
  1.195846e+01    2.357344e+00
  1.199021e+01    2.299987e+00
  1.202197e+01    2.285344e+00
  1.205372e+01    2.279269e+00
  1.208547e+01    2.324578e+00
  1.211722e+01    2.270453e+00
  1.214897e+01    2.243682e+00
  1.218072e+01    2.278496e+00
  1.221247e+01    2.253702e+00
  1.224422e+01    2.261560e+00
  1.227597e+01    2.285121e+00
  1.230773e+01    2.302929e+00
  1.233948e+01    2.331880e+00
  1.237123e+01    2.255468e+00
  1.240298e+01    2.321245e+00
  1.243473e+01    2.315125e+00
  1.246648e+01    2.297860e+00
  1.249823e+01    2.303614e+00
  1.252998e+01    2.381334e+00
  1.256174e+01    2.370842e+00
  1.259349e+01    2.333004e+00
  1.262524e+01    2.402709e+00
  1.265699e+01    2.372544e+00
  1.268874e+01    2.406591e+00
  1.272049e+01    2.450901e+00
  1.275224e+01    2.494428e+00
  1.278399e+01    2.584731e+00
  1.281574e+01    2.707344e+00
  1.284750e+01    2.851071e+00
  1.287925e+01    3.019638e+00
  1.291100e+01    3.184199e+00
  1.294275e+01    3.672513e+00
  1.297450e+01    4.266981e+00
  1.300625e+01    5.341448e+00
  1.303800e+01    6.870434e+00
  1.306975e+01    9.277210e+00
  1.310150e+01    1.200482e+01
  1.313326e+01    1.471460e+01
  1.316501e+01    1.719479e+01
  1.319676e+01    1.794997e+01
  1.322851e+01    1.526195e+01
  1.326026e+01    1.114027e+01
  1.329201e+01    7.874321e+00
  1.332376e+01    5.771880e+00
  1.335551e+01    4.719413e+00
  1.338727e+01    3.960250e+00
  1.341902e+01    3.447665e+00
  1.345077e+01    3.116042e+00
  1.348252e+01    2.847719e+00
  1.351427e+01    2.612639e+00
  1.354602e+01    2.588666e+00
  1.357777e+01    2.410110e+00
  1.360952e+01    2.412051e+00
  1.364127e+01    2.334066e+00
  1.367303e+01    2.304167e+00
  1.370478e+01    2.269071e+00
  1.373653e+01    2.186914e+00
  1.376828e+01    2.164926e+00
  1.380003e+01    2.161085e+00
  1.383178e+01    2.110916e+00
  1.386353e+01    2.106189e+00
  1.389528e+01    2.065983e+00
  1.392703e+01    2.063940e+00
  1.395879e+01    2.014194e+00
  1.399054e+01    2.006084e+00
  1.402229e+01    2.043507e+00
  1.405404e+01    2.022761e+00
  1.408579e+01    2.042851e+00
  1.411754e+01    2.003501e+00
  1.414929e+01    1.987436e+00
  1.418104e+01    2.004072e+00
  1.421279e+01    1.955149e+00
  1.424455e+01    1.960814e+00
  1.427630e+01    1.942677e+00
  1.430805e+01    1.948287e+00
  1.433980e+01    1.937979e+00
  1.437155e+01    1.935499e+00
  1.440330e+01    1.925080e+00
  1.443505e+01    1.941776e+00
  1.446680e+01    1.932778e+00
  1.449856e+01    1.905480e+00
  1.453031e+01    1.909923e+00
  1.456206e+01    1.903586e+00
  1.459381e+01    1.867490e+00
  1.462556e+01    1.866116e+00
  1.465731e+01    1.889085e+00
  1.468906e+01    1.858743e+00
  1.472081e+01    1.884325e+00
  1.475256e+01    1.904437e+00
  1.478432e+01    1.890177e+00
  1.481607e+01    1.916686e+00
  1.484782e+01    1.890381e+00
  1.487957e+01    1.932073e+00
  1.491132e+01    1.973856e+00
  1.494307e+01    1.955194e+00
  1.497482e+01    2.013283e+00
  1.500657e+01    2.084380e+00
  1.503832e+01    2.246935e+00
  1.507008e+01    2.486172e+00
  1.510183e+01    2.769266e+00
  1.513358e+01    3.348965e+00
  1.516533e+01    4.097932e+00
  1.519708e+01    4.781026e+00
  1.522883e+01    5.495014e+00
  1.526058e+01    5.953911e+00
  1.529233e+01    5.952067e+00
  1.532409e+01    5.266895e+00
  1.535584e+01    4.133073e+00
  1.538759e+01    3.299436e+00
  1.541934e+01    2.747396e+00
  1.545109e+01    2.422340e+00
  1.548284e+01    2.178839e+00
  1.551459e+01    2.037960e+00
  1.554634e+01    1.969733e+00
  1.557809e+01    1.840670e+00
  1.560985e+01    1.826103e+00
  1.564160e+01    1.782574e+00
  1.567335e+01    1.776408e+00
  1.570510e+01    1.734459e+00
  1.573685e+01    1.704538e+00
  1.576860e+01    1.668939e+00
  1.580035e+01    1.678741e+00
  1.583210e+01    1.656298e+00
  1.586385e+01    1.629724e+00
  1.589561e+01    1.605515e+00
  1.592736e+01    1.606569e+00
  1.595911e+01    1.601375e+00
  1.599086e+01    1.602325e+00
  1.602261e+01    1.579229e+00
  1.605436e+01    1.586515e+00
  1.608611e+01    1.570330e+00
  1.611786e+01    1.545847e+00
  1.614961e+01    1.586327e+00
  1.618137e+01    1.546813e+00
  1.621312e+01    1.553562e+00
  1.624487e+01    1.546371e+00
  1.627662e+01    1.528871e+00
  1.630837e+01    1.535764e+00
  1.634012e+01    1.532883e+00
  1.637187e+01    1.514511e+00
  1.640362e+01    1.550866e+00
  1.643538e+01    1.481035e+00
  1.646713e+01    1.507293e+00
  1.649888e+01    1.475819e+00
  1.653063e+01    1.471235e+00
  1.656238e+01    1.502781e+00
  1.659413e+01    1.459715e+00
  1.662588e+01    1.483789e+00
  1.665763e+01    1.482001e+00
  1.668938e+01    1.457181e+00
  1.672114e+01    1.474602e+00
  1.675289e+01    1.447462e+00
  1.678464e+01    1.484517e+00
  1.681639e+01    1.447316e+00
  1.684814e+01    1.470584e+00
  1.687989e+01    1.420490e+00
  1.691164e+01    1.429176e+00
  1.694339e+01    1.437710e+00
  1.697514e+01    1.413508e+00
  1.700690e+01    1.421587e+00
  1.703865e+01    1.400702e+00
  1.707040e+01    1.386579e+00
  1.710215e+01    1.420087e+00
  1.713390e+01    1.384172e+00
  1.716565e+01    1.405728e+00
  1.719740e+01    1.358732e+00
  1.722915e+01    1.404621e+00
  1.726091e+01    1.392092e+00
  1.729266e+01    1.375291e+00
  1.732441e+01    1.357198e+00
  1.735616e+01    1.390027e+00
  1.738791e+01    1.347209e+00
  1.741966e+01    1.351257e+00
  1.745141e+01    1.366798e+00
  1.748316e+01    1.340428e+00
  1.751491e+01    1.323198e+00
  1.754667e+01    1.340406e+00
  1.757842e+01    1.342891e+00
  1.761017e+01    1.324119e+00
  1.764192e+01    1.337466e+00
  1.767367e+01    1.290583e+00
  1.770542e+01    1.351906e+00
  1.773717e+01    1.310437e+00
  1.776892e+01    1.309553e+00
  1.780067e+01    1.291867e+00
  1.783243e+01    1.300383e+00
  1.786418e+01    1.328967e+00
  1.789593e+01    1.321502e+00
  1.792768e+01    1.304284e+00
  1.795943e+01    1.292670e+00
  1.799118e+01    1.285535e+00
  1.802293e+01    1.280169e+00
  1.805468e+01    1.266470e+00
  1.808643e+01    1.269803e+00
  1.811819e+01    1.229033e+00
  1.814994e+01    1.287136e+00
  1.818169e+01    1.241615e+00
  1.821344e+01    1.250733e+00
  1.824519e+01    1.256059e+00
  1.827694e+01    1.254230e+00
  1.830869e+01    1.236948e+00
  1.834044e+01    1.264476e+00
  1.837220e+01    1.242131e+00
  1.840395e+01    1.245544e+00
  1.843570e+01    1.253137e+00
  1.846745e+01    1.250059e+00
  1.849920e+01    1.209965e+00
  1.853095e+01    1.220497e+00
  1.856270e+01    1.191561e+00
  1.859445e+01    1.228712e+00
  1.862620e+01    1.216722e+00
  1.865796e+01    1.215184e+00
  1.868971e+01    1.229468e+00
  1.872146e+01    1.227401e+00
  1.875321e+01    1.193602e+00
  1.878496e+01    1.186268e+00
  1.881671e+01    1.206177e+00
  1.884846e+01    1.219134e+00
  1.888021e+01    1.177654e+00
  1.891196e+01    1.216657e+00
  1.894372e+01    1.158687e+00
  1.897547e+01    1.175586e+00
  1.900722e+01    1.172423e+00
  1.903897e+01    1.164039e+00
  1.907072e+01    1.212123e+00
  1.910247e+01    1.171047e+00
  1.913422e+01    1.157017e+00
  1.916597e+01    1.171237e+00
  1.919773e+01    1.164097e+00
  1.922948e+01    1.157050e+00
  1.926123e+01    1.190797e+00
  1.929298e+01    1.188472e+00
  1.932473e+01    1.172240e+00
  1.935648e+01    1.147631e+00
  1.938823e+01    1.152112e+00
  1.941998e+01    1.127331e+00
  1.945173e+01    1.158390e+00
  1.948349e+01    1.134284e+00
  1.951524e+01    1.151687e+00
  1.954699e+01    1.154240e+00
  1.957874e+01    1.121076e+00
  1.961049e+01    1.122093e+00
  1.964224e+01    1.147961e+00
  1.967399e+01    1.136958e+00
  1.970574e+01    1.123730e+00
  1.973749e+01    1.082130e+00
  1.976925e+01    1.113520e+00
  1.980100e+01    1.107871e+00
  1.983275e+01    1.104869e+00
  1.986450e+01    1.089305e+00
  1.989625e+01    1.083528e+00
  1.992800e+01    1.097334e+00
  1.995975e+01    1.082984e+00
  1.999150e+01    1.089720e+00
  2.002325e+01    1.105046e+00
  2.005501e+01    1.112872e+00
  2.008676e+01    1.109248e+00
  2.011851e+01    1.102279e+00
  2.015026e+01    1.086671e+00
  2.018201e+01    1.088714e+00
  2.021376e+01    1.089251e+00
  2.024551e+01    1.071919e+00
  2.027726e+01    1.092640e+00
  2.030902e+01    1.089899e+00
  2.034077e+01    1.082925e+00
  2.037252e+01    1.069458e+00
  2.040427e+01    1.065711e+00
  2.043602e+01    1.093113e+00
  2.046777e+01    1.045127e+00
  2.049952e+01    1.078560e+00
  2.053127e+01    1.058272e+00
  2.056302e+01    1.083651e+00
  2.059478e+01    1.071344e+00
  2.062653e+01    1.055294e+00
  2.065828e+01    1.061400e+00
  2.069003e+01    1.059653e+00
  2.072178e+01    1.043359e+00
  2.075353e+01    1.059711e+00
  2.078528e+01    1.068766e+00
  2.081703e+01    1.066969e+00
  2.084878e+01    1.061919e+00
  2.088054e+01    1.084142e+00
  2.091229e+01    1.053648e+00
  2.094404e+01    1.063360e+00
  2.097579e+01    1.072949e+00
  2.100754e+01    1.065741e+00
  2.103929e+01    1.061822e+00
  2.107104e+01    1.077807e+00
  2.110279e+01    1.065931e+00
  2.113455e+01    1.076242e+00
  2.116630e+01    1.080936e+00
  2.119805e+01    1.093002e+00
  2.122980e+01    1.133082e+00
  2.126155e+01    1.096997e+00
  2.129330e+01    1.114988e+00
  2.132505e+01    1.120847e+00
  2.135680e+01    1.131989e+00
  2.138855e+01    1.133693e+00
  2.142031e+01    1.169729e+00
  2.145206e+01    1.211958e+00
  2.148381e+01    1.242751e+00
  2.151556e+01    1.287526e+00
  2.154731e+01    1.343194e+00
  2.157906e+01    1.437166e+00
  2.161081e+01    1.558763e+00
  2.164256e+01    1.752076e+00
  2.167431e+01    2.019546e+00
  2.170607e+01    2.435987e+00
  2.173782e+01    3.015173e+00
  2.176957e+01    3.954510e+00
  2.180132e+01    5.234683e+00
  2.183307e+01    6.728173e+00
  2.186482e+01    8.204501e+00
  2.189657e+01    9.598307e+00
  2.192832e+01    9.827168e+00
  2.196007e+01    8.464318e+00
  2.199183e+01    6.315008e+00
  2.202358e+01    4.471811e+00
  2.205533e+01    3.314455e+00
  2.208708e+01    2.621346e+00
  2.211883e+01    2.127881e+00
  2.215058e+01    1.803077e+00
  2.218233e+01    1.620084e+00
  2.221408e+01    1.465766e+00
  2.224584e+01    1.368259e+00
  2.227759e+01    1.269961e+00
  2.230934e+01    1.220916e+00
  2.234109e+01    1.178511e+00
  2.237284e+01    1.131709e+00
  2.240459e+01    1.076914e+00
  2.243634e+01    1.045400e+00
  2.246809e+01    1.060122e+00
  2.249984e+01    1.027076e+00
  2.253160e+01    1.009591e+00
  2.256335e+01    9.940121e-01
  2.259510e+01    9.739456e-01
  2.262685e+01    9.511793e-01
  2.265860e+01    9.526722e-01
  2.269035e+01    9.520663e-01
  2.272210e+01    9.658149e-01
  2.275385e+01    9.426481e-01
  2.278560e+01    9.288245e-01
  2.281736e+01    9.265826e-01
  2.284911e+01    9.103186e-01
  2.288086e+01    9.074965e-01
  2.291261e+01    9.145098e-01
  2.294436e+01    8.841082e-01
  2.297611e+01    8.960905e-01
  2.300786e+01    9.035233e-01
  2.303961e+01    8.865985e-01
  2.307137e+01    8.787639e-01
  2.310312e+01    8.805873e-01
  2.313487e+01    8.649457e-01
  2.316662e+01    8.849733e-01
  2.319837e+01    8.524130e-01
  2.323012e+01    8.318386e-01
  2.326187e+01    8.605680e-01
  2.329362e+01    8.582557e-01
  2.332537e+01    8.527480e-01
  2.335713e+01    8.661991e-01
  2.338888e+01    8.762396e-01
  2.342063e+01    8.388820e-01
  2.345238e+01    8.391269e-01
  2.348413e+01    8.410063e-01
  2.351588e+01    8.182867e-01
  2.354763e+01    8.372852e-01
  2.357938e+01    8.224176e-01
  2.361113e+01    8.381054e-01
  2.364289e+01    8.097241e-01
  2.367464e+01    8.243851e-01
  2.370639e+01    8.330584e-01
  2.373814e+01    8.271037e-01
  2.376989e+01    7.954255e-01
  2.380164e+01    8.204358e-01
  2.383339e+01    8.086427e-01
  2.386514e+01    7.906528e-01
  2.389689e+01    7.852152e-01
  2.392865e+01    7.840742e-01
  2.396040e+01    7.774526e-01
  2.399215e+01    7.696452e-01
  2.402390e+01    7.929149e-01
  2.405565e+01    7.904243e-01
  2.408740e+01    7.662070e-01
  2.411915e+01    7.856980e-01
  2.415090e+01    7.542397e-01
  2.418266e+01    7.673174e-01
  2.421441e+01    7.837264e-01
  2.424616e+01    7.635077e-01
  2.427791e+01    8.071057e-01
  2.430966e+01    7.787910e-01
  2.434141e+01    7.584108e-01
  2.437316e+01    7.857016e-01
  2.440491e+01    7.784849e-01
  2.443666e+01    7.873858e-01
  2.446842e+01    7.858923e-01
  2.450017e+01    7.702171e-01
  2.453192e+01    7.993031e-01
  2.456367e+01    7.833703e-01
  2.459542e+01    7.642537e-01
  2.462717e+01    7.874501e-01
  2.465892e+01    7.934427e-01
  2.469067e+01    7.749096e-01
  2.472242e+01    7.761317e-01
  2.475418e+01    7.906711e-01
  2.478593e+01    7.765769e-01
  2.481768e+01    7.845438e-01
  2.484943e+01    7.754376e-01
  2.488118e+01    7.692714e-01
  2.491293e+01    7.832381e-01
  2.494468e+01    7.960585e-01
  2.497643e+01    7.946006e-01
  2.500819e+01    8.024313e-01
  2.503994e+01    7.777109e-01
  2.507169e+01    8.207667e-01
  2.510344e+01    8.181893e-01
  2.513519e+01    8.091956e-01
  2.516694e+01    8.360235e-01
  2.519869e+01    8.221217e-01
  2.523044e+01    8.464694e-01
  2.526219e+01    8.566068e-01
  2.529395e+01    8.352180e-01
  2.532570e+01    8.467811e-01
  2.535745e+01    8.773364e-01
  2.538920e+01    8.923751e-01
  2.542095e+01    9.148920e-01
  2.545270e+01    9.122542e-01
  2.548445e+01    9.507200e-01
  2.551620e+01    9.864750e-01
  2.554795e+01    1.016054e+00
  2.557971e+01    1.066201e+00
  2.561146e+01    1.114535e+00
  2.564321e+01    1.178457e+00
  2.567496e+01    1.303353e+00
  2.570671e+01    1.455341e+00
  2.573846e+01    1.642975e+00
  2.577021e+01    1.937721e+00
  2.580196e+01    2.417927e+00
  2.583371e+01    3.154012e+00
  2.586547e+01    4.058247e+00
  2.589722e+01    5.383708e+00
  2.592897e+01    6.754166e+00
  2.596072e+01    7.814771e+00
  2.599247e+01    8.088455e+00
  2.602422e+01    7.137277e+00
  2.605597e+01    5.560027e+00
  2.608772e+01    4.009888e+00
  2.611948e+01    3.053301e+00
  2.615123e+01    2.355590e+00
  2.618298e+01    1.924607e+00
  2.621473e+01    1.648286e+00
  2.624648e+01    1.434659e+00
  2.627823e+01    1.295767e+00
  2.630998e+01    1.186861e+00
  2.634173e+01    1.101321e+00
  2.637348e+01    1.058593e+00
  2.640524e+01    1.000120e+00
  2.643699e+01    9.892724e-01
  2.646874e+01    9.484693e-01
  2.650049e+01    9.284338e-01
  2.653224e+01    9.130343e-01
  2.656399e+01    9.149747e-01
  2.659574e+01    9.036295e-01
  2.662749e+01    9.164442e-01
  2.665924e+01    8.793557e-01
  2.669100e+01    8.960645e-01
  2.672275e+01    8.980499e-01
  2.675450e+01    9.063921e-01
  2.678625e+01    8.961210e-01
  2.681800e+01    8.917255e-01
  2.684975e+01    8.956669e-01
  2.688150e+01    9.071416e-01
  2.691325e+01    9.381471e-01
  2.694501e+01    9.547397e-01
  2.697676e+01    9.593658e-01
  2.700851e+01    1.012563e+00
  2.704026e+01    1.060535e+00
  2.707201e+01    1.166162e+00
  2.710376e+01    1.311554e+00
  2.713551e+01    1.526488e+00
  2.716726e+01    1.836285e+00
  2.719901e+01    2.144727e+00
  2.723077e+01    2.348609e+00
  2.726252e+01    2.337181e+00
  2.729427e+01    2.070885e+00
  2.732602e+01    1.748270e+00
  2.735777e+01    1.413351e+00
  2.738952e+01    1.238179e+00
  2.742127e+01    1.102476e+00
  2.745302e+01    1.012123e+00
  2.748477e+01    9.971534e-01
  2.751653e+01    9.322953e-01
  2.754828e+01    9.156321e-01
  2.758003e+01    8.751930e-01
  2.761178e+01    8.669001e-01
  2.764353e+01    8.206021e-01
  2.767528e+01    8.461198e-01
  2.770703e+01    8.213454e-01
  2.773878e+01    8.175543e-01
  2.777054e+01    8.329468e-01
  2.780229e+01    8.136026e-01
  2.783404e+01    8.091835e-01
  2.786579e+01    7.919676e-01
  2.789754e+01    8.130769e-01
  2.792929e+01    7.693825e-01
  2.796104e+01    7.977005e-01
  2.799279e+01    7.799932e-01
  2.802454e+01    7.911875e-01
  2.805630e+01    7.940822e-01
  2.808805e+01    7.590473e-01
  2.811980e+01    7.684928e-01
  2.815155e+01    7.866724e-01
  2.818330e+01    7.770843e-01
  2.821505e+01    7.572283e-01
  2.824680e+01    7.808403e-01
  2.827855e+01    7.761094e-01
  2.831030e+01    7.595318e-01
  2.834206e+01    7.735370e-01
  2.837381e+01    7.653372e-01
  2.840556e+01    7.766089e-01
  2.843731e+01    7.553980e-01
  2.846906e+01    7.235262e-01
  2.850081e+01    7.551631e-01
  2.853256e+01    7.337804e-01
  2.856431e+01    7.687395e-01
  2.859606e+01    7.311280e-01
  2.862782e+01    7.405676e-01
  2.865957e+01    7.539334e-01
  2.869132e+01    7.437851e-01
  2.872307e+01    7.315871e-01
  2.875482e+01    7.211664e-01
  2.878657e+01    7.400362e-01
  2.881832e+01    7.524073e-01
  2.885007e+01    7.339327e-01
  2.888183e+01    7.335629e-01
  2.891358e+01    7.233638e-01
  2.894533e+01    7.535341e-01
  2.897708e+01    7.492163e-01
  2.900883e+01    7.346266e-01
  2.904058e+01    7.304726e-01
  2.907233e+01    7.224664e-01
  2.910408e+01    7.373456e-01
  2.913583e+01    7.339265e-01
  2.916759e+01    7.319554e-01
  2.919934e+01    7.446779e-01
  2.923109e+01    7.240611e-01
  2.926284e+01    7.327082e-01
  2.929459e+01    7.354903e-01
  2.932634e+01    7.327167e-01
  2.935809e+01    7.149212e-01
  2.938984e+01    7.157285e-01
  2.942159e+01    7.174687e-01
  2.945335e+01    7.289534e-01
  2.948510e+01    7.118990e-01
  2.951685e+01    7.268488e-01
  2.954860e+01    7.312737e-01
  2.958035e+01    7.188135e-01
  2.961210e+01    7.037568e-01
  2.964385e+01    7.099356e-01
  2.967560e+01    7.205039e-01
  2.970736e+01    7.187998e-01
  2.973911e+01    7.154783e-01
  2.977086e+01    7.052724e-01
  2.980261e+01    7.118936e-01
  2.983436e+01    7.111399e-01
  2.986611e+01    7.078331e-01
  2.989786e+01    7.160335e-01
  2.992961e+01    7.134923e-01
  2.996136e+01    7.137437e-01
  2.999312e+01    7.283749e-01
  3.002487e+01    7.478454e-01
  3.005662e+01    7.499020e-01
  3.008837e+01    7.186303e-01
  3.012012e+01    6.943573e-01
  3.015187e+01    7.094607e-01
  3.018362e+01    7.208104e-01
  3.021537e+01    7.005379e-01
  3.024712e+01    7.013587e-01
  3.027888e+01    7.071919e-01
  3.031063e+01    7.076995e-01
  3.034238e+01    6.912605e-01
  3.037413e+01    7.272178e-01
  3.040588e+01    7.078920e-01
  3.043763e+01    6.933408e-01
  3.046938e+01    7.069237e-01
  3.050113e+01    7.087520e-01
  3.053288e+01    6.947198e-01
  3.056464e+01    7.170964e-01
  3.059639e+01    6.711889e-01
  3.062814e+01    7.098634e-01
  3.065989e+01    7.092811e-01
  3.069164e+01    7.160136e-01
  3.072339e+01    7.037262e-01
  3.075514e+01    6.948875e-01
  3.078689e+01    6.937704e-01
  3.081865e+01    7.036836e-01
  3.085040e+01    7.133783e-01
  3.088215e+01    7.211930e-01
  3.091390e+01    7.040757e-01
  3.094565e+01    7.157980e-01
  3.097740e+01    7.227989e-01
  3.100915e+01    7.002450e-01
  3.104090e+01    6.926544e-01
  3.107265e+01    7.231312e-01
  3.110441e+01    7.012264e-01
  3.113616e+01    7.385980e-01
  3.116791e+01    7.176014e-01
  3.119966e+01    7.250838e-01
  3.123141e+01    7.097966e-01
  3.126316e+01    7.133646e-01
  3.129491e+01    7.528490e-01
  3.132666e+01    7.463055e-01
  3.135841e+01    7.195997e-01
  3.139017e+01    7.474129e-01
  3.142192e+01    7.176203e-01
  3.145367e+01    7.246237e-01
  3.148542e+01    7.555817e-01
  3.151717e+01    7.521444e-01
  3.154892e+01    7.845413e-01
  3.158067e+01    7.917290e-01
  3.161242e+01    8.033543e-01
  3.164418e+01    8.430856e-01
  3.167593e+01    8.717490e-01
  3.170768e+01    9.452895e-01
  3.173943e+01    9.915413e-01
  3.177118e+01    1.106310e+00
  3.180293e+01    1.308363e+00
  3.183468e+01    1.528282e+00
  3.186643e+01    1.854993e+00
  3.189818e+01    2.172465e+00
  3.192994e+01    2.333427e+00
  3.196169e+01    2.262533e+00
  3.199344e+01    1.958709e+00
  3.202519e+01    1.613018e+00
  3.205694e+01    1.346841e+00
  3.208869e+01    1.121016e+00
  3.212044e+01    1.023321e+00
  3.215219e+01    9.485067e-01
  3.218394e+01    8.851182e-01
  3.221570e+01    8.358638e-01
  3.224745e+01    8.065146e-01
  3.227920e+01    7.814430e-01
  3.231095e+01    7.856556e-01
  3.234270e+01    7.478061e-01
  3.237445e+01    7.347680e-01
  3.240620e+01    7.584210e-01
  3.243795e+01    7.234349e-01
  3.246970e+01    7.328274e-01
  3.250146e+01    7.197840e-01
  3.253321e+01    7.078227e-01
  3.254908e+01    7.226799e-01