File: XRD/Activation ramp/2024-07-27_002_Ru-CGO-ex_Activtation_ramp_000002_data_000102.dat
# == pyFAI calibration ==
# Distance Sample to Detector: 0.4 m
# PONI: 9.750e-02, 1.135e-01 m
# Rotations: -0.000175 0.000000 -0.000000 rad
#
# == Fit2d calibration ==
# Distance Sample-beamCenter: 400.000 mm
# Center: x=1514.000, y=1300.000 pix
# Tilt: 0.010 deg  TiltPlanRot: 0.010 deg
#
# Detector Detector	 Spline= None	 PixelSize= 7.500e-05, 7.500e-05 m
#    Detector has a mask: False
#    Detector has a dark current: False
#    detector has a flat field: False
#
# Wavelength: 6.888e-11 m
# Mask applied: user provided
# Dark current applied: False
# Flat field applied: False
# Polarization factor: 0.99
# Normalization factor: 1.0
# --> /home/myspot/data/2024_07_Rosario/Ru-CGO-ex/2024-07-27_002_Ru-CGO-ex_Activtation_ramp_000002_data_000102.dat
#       q_nm^-1             I
  2.003187e-02    0.000000e+00
  5.178302e-02    4.781393e-02
  8.353417e-02    1.501248e-01
  1.152853e-01    6.907703e-02
  1.470365e-01    4.448052e-03
  1.787876e-01    4.552314e-02
  2.105388e-01    2.018963e-02
  2.422899e-01    5.941473e-02
  2.740411e-01    2.917520e-02
  3.057922e-01    2.524776e-02
  3.375433e-01    2.851858e-02
  3.692945e-01    2.109728e-02
  4.010456e-01    2.373429e-02
  4.327968e-01    1.967119e-02
  4.645479e-01    2.640185e-02
  4.962991e-01    8.959222e-03
  5.280502e-01    3.833587e-02
  5.598014e-01    1.947278e-02
  5.915525e-01    4.483603e-02
  6.233037e-01    1.431738e-02
  6.550548e-01    5.313985e-02
  6.868060e-01    1.449459e-02
  7.185571e-01    3.458773e-02
  7.503083e-01    1.018879e-01
  7.820594e-01    1.175757e-01
  8.138106e-01    2.227612e-01
  8.455617e-01    2.720974e-01
  8.773129e-01    3.857451e-01
  9.090640e-01    5.838751e-01
  9.408152e-01    6.595852e-01
  9.725663e-01    8.292455e-01
  1.004317e+00    1.031791e+00
  1.036069e+00    1.128500e+00
  1.067820e+00    1.231313e+00
  1.099571e+00    1.337949e+00
  1.131322e+00    1.275023e+00
  1.163073e+00    1.551243e+00
  1.194824e+00    1.705229e+00
  1.226575e+00    2.015295e+00
  1.258327e+00    2.351372e+00
  1.290078e+00    2.538962e+00
  1.321829e+00    2.473707e+00
  1.353580e+00    2.597250e+00
  1.385331e+00    2.641608e+00
  1.417082e+00    2.742915e+00
  1.448834e+00    2.811541e+00
  1.480585e+00    2.832513e+00
  1.512336e+00    2.783467e+00
  1.544087e+00    2.950707e+00
  1.575838e+00    2.985117e+00
  1.607589e+00    2.904430e+00
  1.639340e+00    2.765690e+00
  1.671092e+00    2.764758e+00
  1.702843e+00    2.794718e+00
  1.734594e+00    2.862411e+00
  1.766345e+00    2.904432e+00
  1.798096e+00    2.816419e+00
  1.829847e+00    2.731691e+00
  1.861598e+00    2.677684e+00
  1.893350e+00    2.745436e+00
  1.925101e+00    2.838420e+00
  1.956852e+00    2.699149e+00
  1.988603e+00    2.706461e+00
  2.020354e+00    2.734409e+00
  2.052105e+00    2.745790e+00
  2.083856e+00    2.564381e+00
  2.115608e+00    2.761210e+00
  2.147359e+00    2.711132e+00
  2.179110e+00    2.750407e+00
  2.210861e+00    2.762212e+00
  2.242612e+00    2.795559e+00
  2.274363e+00    2.714671e+00
  2.306115e+00    2.795847e+00
  2.337866e+00    2.699607e+00
  2.369617e+00    2.778005e+00
  2.401368e+00    2.704237e+00
  2.433119e+00    2.805347e+00
  2.464870e+00    2.705523e+00
  2.496621e+00    2.731245e+00
  2.528373e+00    2.707539e+00
  2.560124e+00    2.727889e+00
  2.591875e+00    2.729714e+00
  2.623626e+00    2.732985e+00
  2.655377e+00    2.693458e+00
  2.687128e+00    2.794406e+00
  2.718879e+00    2.814506e+00
  2.750631e+00    2.763019e+00
  2.782382e+00    2.804991e+00
  2.814133e+00    2.785809e+00
  2.845884e+00    2.763634e+00
  2.877635e+00    2.757025e+00
  2.909386e+00    2.851126e+00
  2.941137e+00    2.896107e+00
  2.972889e+00    2.872876e+00
  3.004640e+00    2.867598e+00
  3.036391e+00    2.891740e+00
  3.068142e+00    2.887964e+00
  3.099893e+00    2.744662e+00
  3.131644e+00    2.816843e+00
  3.163395e+00    2.852845e+00
  3.195147e+00    2.835246e+00
  3.226898e+00    2.903873e+00
  3.258649e+00    2.836300e+00
  3.290400e+00    2.939261e+00
  3.322151e+00    2.884656e+00
  3.353902e+00    2.964531e+00
  3.385654e+00    2.893028e+00
  3.417405e+00    2.885885e+00
  3.449156e+00    2.882485e+00
  3.480907e+00    2.993645e+00
  3.512658e+00    2.800549e+00
  3.544409e+00    2.994977e+00
  3.576160e+00    2.993738e+00
  3.607912e+00    2.886323e+00
  3.639663e+00    2.931262e+00
  3.671414e+00    2.967542e+00
  3.703165e+00    2.858560e+00
  3.734916e+00    2.919362e+00
  3.766667e+00    2.883642e+00
  3.798418e+00    2.922058e+00
  3.830170e+00    2.912656e+00
  3.861921e+00    2.997534e+00
  3.893672e+00    3.008702e+00
  3.925423e+00    2.936084e+00
  3.957174e+00    3.032938e+00
  3.988925e+00    2.981429e+00
  4.020676e+00    3.029679e+00
  4.052428e+00    2.998545e+00
  4.084179e+00    2.954471e+00
  4.115930e+00    2.961405e+00
  4.147681e+00    3.025069e+00
  4.179432e+00    3.001140e+00
  4.211183e+00    3.072459e+00
  4.242935e+00    2.985245e+00
  4.274686e+00    2.963975e+00
  4.306437e+00    3.023614e+00
  4.338188e+00    3.048655e+00
  4.369939e+00    3.040945e+00
  4.401690e+00    2.975392e+00
  4.433441e+00    3.042630e+00
  4.465193e+00    3.042648e+00
  4.496944e+00    2.883852e+00
  4.528695e+00    3.004182e+00
  4.560446e+00    3.011466e+00
  4.592197e+00    3.045293e+00
  4.623948e+00    3.020543e+00
  4.655699e+00    3.063475e+00
  4.687451e+00    3.045585e+00
  4.719202e+00    3.029196e+00
  4.750953e+00    3.080310e+00
  4.782704e+00    3.092286e+00
  4.814455e+00    3.013837e+00
  4.846206e+00    3.102831e+00
  4.877957e+00    3.051480e+00
  4.909709e+00    3.058183e+00
  4.941460e+00    3.016892e+00
  4.973211e+00    3.050779e+00
  5.004962e+00    3.079507e+00
  5.036713e+00    3.026285e+00
  5.068464e+00    3.088869e+00
  5.100216e+00    3.029397e+00
  5.131967e+00    3.047038e+00
  5.163718e+00    3.045078e+00
  5.195469e+00    3.074665e+00
  5.227220e+00    3.111989e+00
  5.258971e+00    3.069043e+00
  5.290722e+00    3.057969e+00
  5.322474e+00    3.182557e+00
  5.354225e+00    3.143230e+00
  5.385976e+00    3.011208e+00
  5.417727e+00    3.040362e+00
  5.449478e+00    3.041872e+00
  5.481229e+00    3.041640e+00
  5.512980e+00    3.120068e+00
  5.544732e+00    3.049806e+00
  5.576483e+00    3.049023e+00
  5.608234e+00    2.985899e+00
  5.639985e+00    2.980578e+00
  5.671736e+00    3.014211e+00
  5.703487e+00    3.070689e+00
  5.735238e+00    3.032511e+00
  5.766990e+00    3.027144e+00
  5.798741e+00    3.061310e+00
  5.830492e+00    3.035640e+00
  5.862243e+00    2.905699e+00
  5.893994e+00    2.970850e+00
  5.925745e+00    2.992927e+00
  5.957497e+00    2.984483e+00
  5.989248e+00    2.918122e+00
  6.020999e+00    2.935699e+00
  6.052750e+00    3.033831e+00
  6.084501e+00    2.995376e+00
  6.116252e+00    3.064486e+00
  6.148003e+00    3.053583e+00
  6.179755e+00    2.947080e+00
  6.211506e+00    3.039594e+00
  6.243257e+00    2.988645e+00
  6.275008e+00    2.950263e+00
  6.306759e+00    2.975248e+00
  6.338510e+00    3.029672e+00
  6.370261e+00    3.021586e+00
  6.402013e+00    3.005745e+00
  6.433764e+00    2.972835e+00
  6.465515e+00    3.014116e+00
  6.497266e+00    2.997140e+00
  6.529017e+00    2.982362e+00
  6.560768e+00    2.959543e+00
  6.592519e+00    3.010714e+00
  6.624271e+00    2.920554e+00
  6.656022e+00    2.976803e+00
  6.687773e+00    2.991118e+00
  6.719524e+00    3.007357e+00
  6.751275e+00    3.022259e+00
  6.783026e+00    3.015257e+00
  6.814777e+00    2.972490e+00
  6.846529e+00    3.031745e+00
  6.878280e+00    2.941750e+00
  6.910031e+00    2.985113e+00
  6.941782e+00    2.953258e+00
  6.973533e+00    2.923707e+00
  7.005284e+00    2.973314e+00
  7.037036e+00    2.944050e+00
  7.068787e+00    2.972622e+00
  7.100538e+00    2.942511e+00
  7.132289e+00    2.921686e+00
  7.164040e+00    3.051527e+00
  7.195791e+00    2.985233e+00
  7.227542e+00    2.942743e+00
  7.259294e+00    2.923443e+00
  7.291045e+00    2.929939e+00
  7.322796e+00    2.953528e+00
  7.354547e+00    3.000405e+00
  7.386298e+00    2.931674e+00
  7.418049e+00    2.934729e+00
  7.449800e+00    2.909639e+00
  7.481552e+00    2.881962e+00
  7.513303e+00    2.911508e+00
  7.545054e+00    2.916240e+00
  7.576805e+00    2.831837e+00
  7.608556e+00    2.941086e+00
  7.640307e+00    2.892890e+00
  7.672058e+00    2.891690e+00
  7.703810e+00    2.863642e+00
  7.735561e+00    2.911069e+00
  7.767312e+00    2.999062e+00
  7.799063e+00    2.903377e+00
  7.830814e+00    2.897624e+00
  7.862565e+00    2.910566e+00
  7.894317e+00    2.843857e+00
  7.926068e+00    2.873085e+00
  7.957819e+00    2.853042e+00
  7.989570e+00    2.859431e+00
  8.021321e+00    2.926347e+00
  8.053072e+00    2.902916e+00
  8.084823e+00    2.886463e+00
  8.116575e+00    2.912054e+00
  8.148326e+00    2.957892e+00
  8.180077e+00    2.922977e+00
  8.211828e+00    2.898855e+00
  8.243579e+00    3.007222e+00
  8.275330e+00    2.873912e+00
  8.307081e+00    2.900301e+00
  8.338833e+00    2.903231e+00
  8.370584e+00    2.874354e+00
  8.402335e+00    2.849876e+00
  8.434086e+00    2.767866e+00
  8.465837e+00    2.868956e+00
  8.497588e+00    2.824168e+00
  8.529339e+00    2.833064e+00
  8.561091e+00    2.857008e+00
  8.592842e+00    2.803754e+00
  8.624593e+00    2.831170e+00
  8.656344e+00    2.887614e+00
  8.688095e+00    2.843382e+00
  8.719846e+00    2.818776e+00
  8.751598e+00    2.752741e+00
  8.783349e+00    2.762869e+00
  8.815100e+00    2.816863e+00
  8.846851e+00    2.770970e+00
  8.878602e+00    2.781267e+00
  8.910353e+00    2.762412e+00
  8.942104e+00    2.767339e+00
  8.973856e+00    2.836679e+00
  9.005607e+00    2.815540e+00
  9.037358e+00    2.737506e+00
  9.069109e+00    2.741884e+00
  9.100860e+00    2.710241e+00
  9.132611e+00    2.795819e+00
  9.164362e+00    2.788644e+00
  9.196114e+00    2.749006e+00
  9.227865e+00    2.770327e+00
  9.259616e+00    2.804765e+00
  9.291367e+00    2.731350e+00
  9.323118e+00    2.696957e+00
  9.354869e+00    2.741519e+00
  9.386620e+00    2.707331e+00
  9.418372e+00    2.751133e+00
  9.450123e+00    2.727811e+00
  9.481874e+00    2.725384e+00
  9.513625e+00    2.754775e+00
  9.545376e+00    2.797217e+00
  9.577127e+00    2.610092e+00
  9.608878e+00    2.747898e+00
  9.640630e+00    2.659830e+00
  9.672381e+00    2.678992e+00
  9.704132e+00    2.687291e+00
  9.735883e+00    2.770646e+00
  9.767634e+00    2.661840e+00
  9.799385e+00    2.625620e+00
  9.831137e+00    2.662082e+00
  9.862888e+00    2.658672e+00
  9.894639e+00    2.636245e+00
  9.926390e+00    2.635794e+00
  9.958141e+00    2.653411e+00
  9.989892e+00    2.625237e+00
  1.002164e+01    2.645350e+00
  1.005339e+01    2.637230e+00
  1.008515e+01    2.638820e+00
  1.011690e+01    2.658388e+00
  1.014865e+01    2.624176e+00
  1.018040e+01    2.595387e+00
  1.021215e+01    2.583850e+00
  1.024390e+01    2.564548e+00
  1.027565e+01    2.577697e+00
  1.030740e+01    2.591603e+00
  1.033915e+01    2.580390e+00
  1.037091e+01    2.543940e+00
  1.040266e+01    2.558502e+00
  1.043441e+01    2.514351e+00
  1.046616e+01    2.603292e+00
  1.049791e+01    2.565010e+00
  1.052966e+01    2.565938e+00
  1.056141e+01    2.526145e+00
  1.059316e+01    2.583691e+00
  1.062492e+01    2.545434e+00
  1.065667e+01    2.535316e+00
  1.068842e+01    2.527181e+00
  1.072017e+01    2.532092e+00
  1.075192e+01    2.531186e+00
  1.078367e+01    2.491862e+00
  1.081542e+01    2.499678e+00
  1.084717e+01    2.516814e+00
  1.087892e+01    2.466786e+00
  1.091068e+01    2.506634e+00
  1.094243e+01    2.503287e+00
  1.097418e+01    2.475300e+00
  1.100593e+01    2.463884e+00
  1.103768e+01    2.496468e+00
  1.106943e+01    2.446854e+00
  1.110118e+01    2.474790e+00
  1.113293e+01    2.410721e+00
  1.116468e+01    2.453474e+00
  1.119644e+01    2.433471e+00
  1.122819e+01    2.422251e+00
  1.125994e+01    2.440867e+00
  1.129169e+01    2.404678e+00
  1.132344e+01    2.390678e+00
  1.135519e+01    2.418559e+00
  1.138694e+01    2.412318e+00
  1.141869e+01    2.440960e+00
  1.145045e+01    2.331186e+00
  1.148220e+01    2.363930e+00
  1.151395e+01    2.349682e+00
  1.154570e+01    2.380457e+00
  1.157745e+01    2.346008e+00
  1.160920e+01    2.326541e+00
  1.164095e+01    2.372926e+00
  1.167270e+01    2.310412e+00
  1.170445e+01    2.330410e+00
  1.173621e+01    2.319686e+00
  1.176796e+01    2.346227e+00
  1.179971e+01    2.367915e+00
  1.183146e+01    2.358223e+00
  1.186321e+01    2.359031e+00
  1.189496e+01    2.288679e+00
  1.192671e+01    2.237314e+00
  1.195846e+01    2.298864e+00
  1.199021e+01    2.308523e+00
  1.202197e+01    2.279396e+00
  1.205372e+01    2.330943e+00
  1.208547e+01    2.280160e+00
  1.211722e+01    2.318523e+00
  1.214897e+01    2.285846e+00
  1.218072e+01    2.263555e+00
  1.221247e+01    2.297436e+00
  1.224422e+01    2.289754e+00
  1.227597e+01    2.274723e+00
  1.230773e+01    2.288671e+00
  1.233948e+01    2.343544e+00
  1.237123e+01    2.301929e+00
  1.240298e+01    2.256751e+00
  1.243473e+01    2.319317e+00
  1.246648e+01    2.343583e+00
  1.249823e+01    2.310436e+00
  1.252998e+01    2.336468e+00
  1.256174e+01    2.351115e+00
  1.259349e+01    2.315093e+00
  1.262524e+01    2.344254e+00
  1.265699e+01    2.371372e+00
  1.268874e+01    2.430860e+00
  1.272049e+01    2.463169e+00
  1.275224e+01    2.490502e+00
  1.278399e+01    2.572742e+00
  1.281574e+01    2.634025e+00
  1.284750e+01    2.802427e+00
  1.287925e+01    2.996814e+00
  1.291100e+01    3.262490e+00
  1.294275e+01    3.643989e+00
  1.297450e+01    4.275728e+00
  1.300625e+01    5.260437e+00
  1.303800e+01    6.847917e+00
  1.306975e+01    9.357288e+00
  1.310150e+01    1.198009e+01
  1.313326e+01    1.461124e+01
  1.316501e+01    1.700954e+01
  1.319676e+01    1.780763e+01
  1.322851e+01    1.526619e+01
  1.326026e+01    1.095133e+01
  1.329201e+01    7.826599e+00
  1.332376e+01    5.869965e+00
  1.335551e+01    4.551254e+00
  1.338727e+01    3.851406e+00
  1.341902e+01    3.364934e+00
  1.345077e+01    3.003188e+00
  1.348252e+01    2.791260e+00
  1.351427e+01    2.643544e+00
  1.354602e+01    2.571476e+00
  1.357777e+01    2.470306e+00
  1.360952e+01    2.420221e+00
  1.364127e+01    2.315494e+00
  1.367303e+01    2.314452e+00
  1.370478e+01    2.247894e+00
  1.373653e+01    2.199748e+00
  1.376828e+01    2.167066e+00
  1.380003e+01    2.149658e+00
  1.383178e+01    2.153907e+00
  1.386353e+01    2.140275e+00
  1.389528e+01    2.069971e+00
  1.392703e+01    2.056337e+00
  1.395879e+01    2.033126e+00
  1.399054e+01    2.034981e+00
  1.402229e+01    2.030003e+00
  1.405404e+01    2.023351e+00
  1.408579e+01    2.030824e+00
  1.411754e+01    1.974768e+00
  1.414929e+01    1.971169e+00
  1.418104e+01    1.977491e+00
  1.421279e+01    1.956617e+00
  1.424455e+01    1.926135e+00
  1.427630e+01    1.942063e+00
  1.430805e+01    1.947155e+00
  1.433980e+01    1.941686e+00
  1.437155e+01    1.932946e+00
  1.440330e+01    1.926225e+00
  1.443505e+01    1.929422e+00
  1.446680e+01    1.947476e+00
  1.449856e+01    1.908896e+00
  1.453031e+01    1.859558e+00
  1.456206e+01    1.876634e+00
  1.459381e+01    1.910466e+00
  1.462556e+01    1.907389e+00
  1.465731e+01    1.899684e+00
  1.468906e+01    1.867324e+00
  1.472081e+01    1.875197e+00
  1.475256e+01    1.885097e+00
  1.478432e+01    1.889189e+00
  1.481607e+01    1.887525e+00
  1.484782e+01    1.894864e+00
  1.487957e+01    1.949292e+00
  1.491132e+01    1.949559e+00
  1.494307e+01    2.004356e+00
  1.497482e+01    2.062306e+00
  1.500657e+01    2.135027e+00
  1.503832e+01    2.260840e+00
  1.507008e+01    2.444781e+00
  1.510183e+01    2.803023e+00
  1.513358e+01    3.312670e+00
  1.516533e+01    4.138874e+00
  1.519708e+01    4.821784e+00
  1.522883e+01    5.516806e+00
  1.526058e+01    5.998903e+00
  1.529233e+01    5.923373e+00
  1.532409e+01    5.186496e+00
  1.535584e+01    4.143700e+00
  1.538759e+01    3.272545e+00
  1.541934e+01    2.679256e+00
  1.545109e+01    2.383579e+00
  1.548284e+01    2.165338e+00
  1.551459e+01    2.055290e+00
  1.554634e+01    1.924097e+00
  1.557809e+01    1.837534e+00
  1.560985e+01    1.805893e+00
  1.564160e+01    1.765530e+00
  1.567335e+01    1.759329e+00
  1.570510e+01    1.687933e+00
  1.573685e+01    1.704839e+00
  1.576860e+01    1.664616e+00
  1.580035e+01    1.647303e+00
  1.583210e+01    1.674881e+00
  1.586385e+01    1.652745e+00
  1.589561e+01    1.639959e+00
  1.592736e+01    1.617275e+00
  1.595911e+01    1.635033e+00
  1.599086e+01    1.600307e+00
  1.602261e+01    1.573648e+00
  1.605436e+01    1.553922e+00
  1.608611e+01    1.563739e+00
  1.611786e+01    1.568215e+00
  1.614961e+01    1.573656e+00
  1.618137e+01    1.561369e+00
  1.621312e+01    1.567364e+00
  1.624487e+01    1.545600e+00
  1.627662e+01    1.599493e+00
  1.630837e+01    1.538766e+00
  1.634012e+01    1.539401e+00
  1.637187e+01    1.494744e+00
  1.640362e+01    1.491132e+00
  1.643538e+01    1.491936e+00
  1.646713e+01    1.505191e+00
  1.649888e+01    1.506673e+00
  1.653063e+01    1.478955e+00
  1.656238e+01    1.509837e+00
  1.659413e+01    1.481917e+00
  1.662588e+01    1.483903e+00
  1.665763e+01    1.425124e+00
  1.668938e+01    1.439154e+00
  1.672114e+01    1.487606e+00
  1.675289e+01    1.445467e+00
  1.678464e+01    1.464865e+00
  1.681639e+01    1.449290e+00
  1.684814e+01    1.446142e+00
  1.687989e+01    1.443901e+00
  1.691164e+01    1.433546e+00
  1.694339e+01    1.447388e+00
  1.697514e+01    1.420890e+00
  1.700690e+01    1.431657e+00
  1.703865e+01    1.418468e+00
  1.707040e+01    1.397316e+00
  1.710215e+01    1.385538e+00
  1.713390e+01    1.411501e+00
  1.716565e+01    1.400513e+00
  1.719740e+01    1.370431e+00
  1.722915e+01    1.395175e+00
  1.726091e+01    1.371139e+00
  1.729266e+01    1.337385e+00
  1.732441e+01    1.393690e+00
  1.735616e+01    1.343939e+00
  1.738791e+01    1.368828e+00
  1.741966e+01    1.355186e+00
  1.745141e+01    1.341368e+00
  1.748316e+01    1.341778e+00
  1.751491e+01    1.368563e+00
  1.754667e+01    1.323753e+00
  1.757842e+01    1.334865e+00
  1.761017e+01    1.349684e+00
  1.764192e+01    1.360466e+00
  1.767367e+01    1.348386e+00
  1.770542e+01    1.306410e+00
  1.773717e+01    1.307283e+00
  1.776892e+01    1.317698e+00
  1.780067e+01    1.325577e+00
  1.783243e+01    1.308420e+00
  1.786418e+01    1.285171e+00
  1.789593e+01    1.295855e+00
  1.792768e+01    1.304234e+00
  1.795943e+01    1.300819e+00
  1.799118e+01    1.295350e+00
  1.802293e+01    1.299241e+00
  1.805468e+01    1.289196e+00
  1.808643e+01    1.277007e+00
  1.811819e+01    1.265694e+00
  1.814994e+01    1.291556e+00
  1.818169e+01    1.262678e+00
  1.821344e+01    1.239831e+00
  1.824519e+01    1.289151e+00
  1.827694e+01    1.284453e+00
  1.830869e+01    1.256162e+00
  1.834044e+01    1.281496e+00
  1.837220e+01    1.252054e+00
  1.840395e+01    1.253897e+00
  1.843570e+01    1.236417e+00
  1.846745e+01    1.222194e+00
  1.849920e+01    1.230965e+00
  1.853095e+01    1.222136e+00
  1.856270e+01    1.256175e+00
  1.859445e+01    1.217291e+00
  1.862620e+01    1.200281e+00
  1.865796e+01    1.231851e+00
  1.868971e+01    1.224656e+00
  1.872146e+01    1.222598e+00
  1.875321e+01    1.218320e+00
  1.878496e+01    1.212751e+00
  1.881671e+01    1.186633e+00
  1.884846e+01    1.200767e+00
  1.888021e+01    1.207207e+00
  1.891196e+01    1.192626e+00
  1.894372e+01    1.202873e+00
  1.897547e+01    1.169616e+00
  1.900722e+01    1.203004e+00
  1.903897e+01    1.185899e+00
  1.907072e+01    1.155202e+00
  1.910247e+01    1.172505e+00
  1.913422e+01    1.182727e+00
  1.916597e+01    1.176688e+00
  1.919773e+01    1.163602e+00
  1.922948e+01    1.167191e+00
  1.926123e+01    1.171340e+00
  1.929298e+01    1.183775e+00
  1.932473e+01    1.158034e+00
  1.935648e+01    1.124754e+00
  1.938823e+01    1.180305e+00
  1.941998e+01    1.127318e+00
  1.945173e+01    1.153550e+00
  1.948349e+01    1.119311e+00
  1.951524e+01    1.151359e+00
  1.954699e+01    1.133689e+00
  1.957874e+01    1.140817e+00
  1.961049e+01    1.133101e+00
  1.964224e+01    1.123542e+00
  1.967399e+01    1.144889e+00
  1.970574e+01    1.122511e+00
  1.973749e+01    1.113750e+00
  1.976925e+01    1.137251e+00
  1.980100e+01    1.131194e+00
  1.983275e+01    1.124172e+00
  1.986450e+01    1.100894e+00
  1.989625e+01    1.116920e+00
  1.992800e+01    1.102999e+00
  1.995975e+01    1.102123e+00
  1.999150e+01    1.108398e+00
  2.002325e+01    1.104989e+00
  2.005501e+01    1.097077e+00
  2.008676e+01    1.092689e+00
  2.011851e+01    1.095303e+00
  2.015026e+01    1.085650e+00
  2.018201e+01    1.082766e+00
  2.021376e+01    1.105483e+00
  2.024551e+01    1.079743e+00
  2.027726e+01    1.080355e+00
  2.030902e+01    1.078658e+00
  2.034077e+01    1.097266e+00
  2.037252e+01    1.126136e+00
  2.040427e+01    1.079085e+00
  2.043602e+01    1.078928e+00
  2.046777e+01    1.089658e+00
  2.049952e+01    1.069250e+00
  2.053127e+01    1.064267e+00
  2.056302e+01    1.070157e+00
  2.059478e+01    1.079447e+00
  2.062653e+01    1.074358e+00
  2.065828e+01    1.083985e+00
  2.069003e+01    1.107357e+00
  2.072178e+01    1.059632e+00
  2.075353e+01    1.094409e+00
  2.078528e+01    1.061944e+00
  2.081703e+01    1.066764e+00
  2.084878e+01    1.068679e+00
  2.088054e+01    1.078356e+00
  2.091229e+01    1.073296e+00
  2.094404e+01    1.085155e+00
  2.097579e+01    1.046659e+00
  2.100754e+01    1.089595e+00
  2.103929e+01    1.060395e+00
  2.107104e+01    1.072046e+00
  2.110279e+01    1.056921e+00
  2.113455e+01    1.071137e+00
  2.116630e+01    1.097422e+00
  2.119805e+01    1.105330e+00
  2.122980e+01    1.103917e+00
  2.126155e+01    1.128229e+00
  2.129330e+01    1.114357e+00
  2.132505e+01    1.106613e+00
  2.135680e+01    1.163540e+00
  2.138855e+01    1.143761e+00
  2.142031e+01    1.193218e+00
  2.145206e+01    1.184439e+00
  2.148381e+01    1.258174e+00
  2.151556e+01    1.294328e+00
  2.154731e+01    1.359445e+00
  2.157906e+01    1.434540e+00
  2.161081e+01    1.533697e+00
  2.164256e+01    1.757913e+00
  2.167431e+01    2.022176e+00
  2.170607e+01    2.431043e+00
  2.173782e+01    3.081636e+00
  2.176957e+01    4.040007e+00
  2.180132e+01    5.289880e+00
  2.183307e+01    6.701599e+00
  2.186482e+01    8.279952e+00
  2.189657e+01    9.587373e+00
  2.192832e+01    9.646976e+00
  2.196007e+01    8.269731e+00
  2.199183e+01    6.179810e+00
  2.202358e+01    4.343880e+00
  2.205533e+01    3.284266e+00
  2.208708e+01    2.556645e+00
  2.211883e+01    2.074984e+00
  2.215058e+01    1.809143e+00
  2.218233e+01    1.592258e+00
  2.221408e+01    1.465956e+00
  2.224584e+01    1.327469e+00
  2.227759e+01    1.286854e+00
  2.230934e+01    1.200677e+00
  2.234109e+01    1.172145e+00
  2.237284e+01    1.123010e+00
  2.240459e+01    1.087029e+00
  2.243634e+01    1.076816e+00
  2.246809e+01    1.047618e+00
  2.249984e+01    1.017584e+00
  2.253160e+01    9.964477e-01
  2.256335e+01    1.003180e+00
  2.259510e+01    1.007131e+00
  2.262685e+01    9.867931e-01
  2.265860e+01    9.894394e-01
  2.269035e+01    9.426962e-01
  2.272210e+01    9.508847e-01
  2.275385e+01    9.386590e-01
  2.278560e+01    9.275414e-01
  2.281736e+01    9.317570e-01
  2.284911e+01    9.223260e-01
  2.288086e+01    9.350510e-01
  2.291261e+01    8.959376e-01
  2.294436e+01    9.028320e-01
  2.297611e+01    8.827351e-01
  2.300786e+01    9.174114e-01
  2.303961e+01    9.032942e-01
  2.307137e+01    8.885923e-01
  2.310312e+01    8.817184e-01
  2.313487e+01    8.967561e-01
  2.316662e+01    8.813765e-01
  2.319837e+01    8.680891e-01
  2.323012e+01    8.645814e-01
  2.326187e+01    8.749936e-01
  2.329362e+01    8.707967e-01
  2.332537e+01    8.473878e-01
  2.335713e+01    8.486181e-01
  2.338888e+01    8.451915e-01
  2.342063e+01    8.661336e-01
  2.345238e+01    8.470135e-01
  2.348413e+01    8.382394e-01
  2.351588e+01    8.312139e-01
  2.354763e+01    8.230519e-01
  2.357938e+01    8.430034e-01
  2.361113e+01    8.489243e-01
  2.364289e+01    8.370553e-01
  2.367464e+01    8.184688e-01
  2.370639e+01    8.050888e-01
  2.373814e+01    8.159183e-01
  2.376989e+01    8.008668e-01
  2.380164e+01    7.993379e-01
  2.383339e+01    8.022512e-01
  2.386514e+01    8.126909e-01
  2.389689e+01    7.969609e-01
  2.392865e+01    7.961319e-01
  2.396040e+01    8.066858e-01
  2.399215e+01    7.945082e-01
  2.402390e+01    7.805415e-01
  2.405565e+01    7.836292e-01
  2.408740e+01    7.958424e-01
  2.411915e+01    7.699270e-01
  2.415090e+01    7.755753e-01
  2.418266e+01    7.670841e-01
  2.421441e+01    7.679360e-01
  2.424616e+01    7.797688e-01
  2.427791e+01    7.905353e-01
  2.430966e+01    7.797956e-01
  2.434141e+01    7.795883e-01
  2.437316e+01    7.757542e-01
  2.440491e+01    7.925470e-01
  2.443666e+01    8.138747e-01
  2.446842e+01    7.654181e-01
  2.450017e+01    7.776231e-01
  2.453192e+01    7.872533e-01
  2.456367e+01    7.699405e-01
  2.459542e+01    7.600143e-01
  2.462717e+01    7.711813e-01
  2.465892e+01    7.837899e-01
  2.469067e+01    8.129339e-01
  2.472242e+01    7.894405e-01
  2.475418e+01    7.871745e-01
  2.478593e+01    7.779371e-01
  2.481768e+01    7.760354e-01
  2.484943e+01    7.805616e-01
  2.488118e+01    7.923847e-01
  2.491293e+01    8.176897e-01
  2.494468e+01    8.002862e-01
  2.497643e+01    7.877696e-01
  2.500819e+01    8.018423e-01
  2.503994e+01    7.931007e-01
  2.507169e+01    8.103729e-01
  2.510344e+01    8.058911e-01
  2.513519e+01    8.239932e-01
  2.516694e+01    8.048681e-01
  2.519869e+01    8.310083e-01
  2.523044e+01    8.370781e-01
  2.526219e+01    8.489742e-01
  2.529395e+01    8.576637e-01
  2.532570e+01    8.812258e-01
  2.535745e+01    8.662482e-01
  2.538920e+01    8.854346e-01
  2.542095e+01    9.216446e-01
  2.545270e+01    9.214630e-01
  2.548445e+01    9.492469e-01
  2.551620e+01    9.662948e-01
  2.554795e+01    1.031883e+00
  2.557971e+01    1.063489e+00
  2.561146e+01    1.121984e+00
  2.564321e+01    1.184920e+00
  2.567496e+01    1.296976e+00
  2.570671e+01    1.429020e+00
  2.573846e+01    1.676910e+00
  2.577021e+01    1.954915e+00
  2.580196e+01    2.412892e+00
  2.583371e+01    3.117515e+00
  2.586547e+01    4.077188e+00
  2.589722e+01    5.352774e+00
  2.592897e+01    6.754619e+00
  2.596072e+01    7.885869e+00
  2.599247e+01    8.054130e+00
  2.602422e+01    7.039276e+00
  2.605597e+01    5.429264e+00
  2.608772e+01    3.960779e+00
  2.611948e+01    2.972089e+00
  2.615123e+01    2.299005e+00
  2.618298e+01    1.881404e+00
  2.621473e+01    1.602092e+00
  2.624648e+01    1.400504e+00
  2.627823e+01    1.294552e+00
  2.630998e+01    1.195893e+00
  2.634173e+01    1.096130e+00
  2.637348e+01    1.044736e+00
  2.640524e+01    9.994037e-01
  2.643699e+01    9.737793e-01
  2.646874e+01    9.668399e-01
  2.650049e+01    9.452844e-01
  2.653224e+01    9.375354e-01
  2.656399e+01    9.306783e-01
  2.659574e+01    9.322467e-01
  2.662749e+01    8.865627e-01
  2.665924e+01    8.987733e-01
  2.669100e+01    9.107894e-01
  2.672275e+01    8.741343e-01
  2.675450e+01    8.911334e-01
  2.678625e+01    9.072192e-01
  2.681800e+01    8.806592e-01
  2.684975e+01    9.085510e-01
  2.688150e+01    9.060701e-01
  2.691325e+01    9.220205e-01
  2.694501e+01    9.475754e-01
  2.697676e+01    9.780639e-01
  2.700851e+01    1.004636e+00
  2.704026e+01    1.083549e+00
  2.707201e+01    1.150053e+00
  2.710376e+01    1.327270e+00
  2.713551e+01    1.539438e+00
  2.716726e+01    1.817157e+00
  2.719901e+01    2.133886e+00
  2.723077e+01    2.303439e+00
  2.726252e+01    2.343591e+00
  2.729427e+01    2.056753e+00
  2.732602e+01    1.706116e+00
  2.735777e+01    1.419729e+00
  2.738952e+01    1.227018e+00
  2.742127e+01    1.111184e+00
  2.745302e+01    1.018763e+00
  2.748477e+01    9.790666e-01
  2.751653e+01    9.265371e-01
  2.754828e+01    8.852087e-01
  2.758003e+01    8.758573e-01
  2.761178e+01    8.307511e-01
  2.764353e+01    8.428355e-01
  2.767528e+01    8.327519e-01
  2.770703e+01    8.422517e-01
  2.773878e+01    8.192439e-01
  2.777054e+01    8.074495e-01
  2.780229e+01    7.917659e-01
  2.783404e+01    7.906457e-01
  2.786579e+01    8.082013e-01
  2.789754e+01    8.031576e-01
  2.792929e+01    8.054878e-01
  2.796104e+01    8.032110e-01
  2.799279e+01    7.858467e-01
  2.802454e+01    7.865381e-01
  2.805630e+01    7.812417e-01
  2.808805e+01    7.767014e-01
  2.811980e+01    7.871004e-01
  2.815155e+01    7.635391e-01
  2.818330e+01    7.554767e-01
  2.821505e+01    7.556304e-01
  2.824680e+01    7.689602e-01
  2.827855e+01    7.535731e-01
  2.831030e+01    7.568336e-01
  2.834206e+01    7.649225e-01
  2.837381e+01    7.527584e-01
  2.840556e+01    7.761575e-01
  2.843731e+01    7.475945e-01
  2.846906e+01    7.738540e-01
  2.850081e+01    7.665647e-01
  2.853256e+01    7.715866e-01
  2.856431e+01    7.528778e-01
  2.859606e+01    7.463839e-01
  2.862782e+01    7.395303e-01
  2.865957e+01    7.638955e-01
  2.869132e+01    7.498117e-01
  2.872307e+01    7.322847e-01
  2.875482e+01    7.465446e-01
  2.878657e+01    7.486448e-01
  2.881832e+01    7.435933e-01
  2.885007e+01    7.113110e-01
  2.888183e+01    7.358719e-01
  2.891358e+01    7.514001e-01
  2.894533e+01    7.318766e-01
  2.897708e+01    7.501048e-01
  2.900883e+01    7.354918e-01
  2.904058e+01    7.465746e-01
  2.907233e+01    7.346156e-01
  2.910408e+01    7.501941e-01
  2.913583e+01    7.323179e-01
  2.916759e+01    7.407924e-01
  2.919934e+01    7.175410e-01
  2.923109e+01    7.195910e-01
  2.926284e+01    7.329810e-01
  2.929459e+01    7.464353e-01
  2.932634e+01    6.944413e-01
  2.935809e+01    7.459772e-01
  2.938984e+01    7.076574e-01
  2.942159e+01    7.061677e-01
  2.945335e+01    7.120058e-01
  2.948510e+01    7.270043e-01
  2.951685e+01    6.967748e-01
  2.954860e+01    7.043451e-01
  2.958035e+01    7.089362e-01
  2.961210e+01    7.359161e-01
  2.964385e+01    7.271470e-01
  2.967560e+01    7.404460e-01
  2.970736e+01    7.081517e-01
  2.973911e+01    7.170203e-01
  2.977086e+01    7.173904e-01
  2.980261e+01    7.301463e-01
  2.983436e+01    7.239299e-01
  2.986611e+01    7.029817e-01
  2.989786e+01    7.221718e-01
  2.992961e+01    6.847414e-01
  2.996136e+01    7.269045e-01
  2.999312e+01    7.109905e-01
  3.002487e+01    7.100052e-01
  3.005662e+01    7.426518e-01
  3.008837e+01    7.223860e-01
  3.012012e+01    7.298343e-01
  3.015187e+01    7.291456e-01
  3.018362e+01    7.124443e-01
  3.021537e+01    7.295735e-01
  3.024712e+01    7.128016e-01
  3.027888e+01    7.090021e-01
  3.031063e+01    7.027329e-01
  3.034238e+01    7.146414e-01
  3.037413e+01    7.087781e-01
  3.040588e+01    7.365980e-01
  3.043763e+01    6.969482e-01
  3.046938e+01    6.996015e-01
  3.050113e+01    7.018186e-01
  3.053288e+01    7.130857e-01
  3.056464e+01    7.150047e-01
  3.059639e+01    7.151743e-01
  3.062814e+01    7.204717e-01
  3.065989e+01    7.147627e-01
  3.069164e+01    7.172776e-01
  3.072339e+01    7.357988e-01
  3.075514e+01    7.180052e-01
  3.078689e+01    7.031060e-01
  3.081865e+01    7.125424e-01
  3.085040e+01    7.113420e-01
  3.088215e+01    6.966904e-01
  3.091390e+01    7.033467e-01
  3.094565e+01    6.942376e-01
  3.097740e+01    6.981068e-01
  3.100915e+01    7.217902e-01
  3.104090e+01    6.994414e-01
  3.107265e+01    7.304043e-01
  3.110441e+01    7.244262e-01
  3.113616e+01    7.054150e-01
  3.116791e+01    7.217160e-01
  3.119966e+01    7.344785e-01
  3.123141e+01    7.374866e-01
  3.126316e+01    7.169464e-01
  3.129491e+01    7.249244e-01
  3.132666e+01    7.261522e-01
  3.135841e+01    7.297394e-01
  3.139017e+01    7.310268e-01
  3.142192e+01    7.268938e-01
  3.145367e+01    7.474235e-01
  3.148542e+01    7.652412e-01
  3.151717e+01    7.503588e-01
  3.154892e+01    7.722209e-01
  3.158067e+01    7.862781e-01
  3.161242e+01    8.040047e-01
  3.164418e+01    8.461384e-01
  3.167593e+01    9.041766e-01
  3.170768e+01    9.180299e-01
  3.173943e+01    1.010124e+00
  3.177118e+01    1.131303e+00
  3.180293e+01    1.299619e+00
  3.183468e+01    1.540260e+00
  3.186643e+01    1.879091e+00
  3.189818e+01    2.168448e+00
  3.192994e+01    2.372710e+00
  3.196169e+01    2.270784e+00
  3.199344e+01    1.917907e+00
  3.202519e+01    1.618013e+00
  3.205694e+01    1.315015e+00
  3.208869e+01    1.111585e+00
  3.212044e+01    1.033850e+00
  3.215219e+01    9.045074e-01
  3.218394e+01    8.669670e-01
  3.221570e+01    8.403087e-01
  3.224745e+01    7.850397e-01
  3.227920e+01    7.797239e-01
  3.231095e+01    7.541426e-01
  3.234270e+01    7.749887e-01
  3.237445e+01    7.540796e-01
  3.240620e+01    7.228173e-01
  3.243795e+01    7.417342e-01
  3.246970e+01    7.339769e-01
  3.250146e+01    7.311348e-01
  3.253321e+01    7.051755e-01
  3.254908e+01    7.153973e-01