File: XRD/Activation ramp/2024-07-27_002_Ru-CGO-ex_Activtation_ramp_000002_data_000011.dat
# == pyFAI calibration ==
# Distance Sample to Detector: 0.4 m
# PONI: 9.750e-02, 1.135e-01 m
# Rotations: -0.000175 0.000000 -0.000000 rad
#
# == Fit2d calibration ==
# Distance Sample-beamCenter: 400.000 mm
# Center: x=1514.000, y=1300.000 pix
# Tilt: 0.010 deg  TiltPlanRot: 0.010 deg
#
# Detector Detector	 Spline= None	 PixelSize= 7.500e-05, 7.500e-05 m
#    Detector has a mask: False
#    Detector has a dark current: False
#    detector has a flat field: False
#
# Wavelength: 6.888e-11 m
# Mask applied: user provided
# Dark current applied: False
# Flat field applied: False
# Polarization factor: 0.99
# Normalization factor: 1.0
# --> /home/myspot/data/2024_07_Rosario/Ru-CGO-ex/2024-07-27_002_Ru-CGO-ex_Activtation_ramp_000002_data_000011.dat
#       q_nm^-1             I
  2.003187e-02    0.000000e+00
  5.178302e-02    9.528971e-02
  8.353417e-02    1.498673e-01
  1.152853e-01    1.005621e-01
  1.470365e-01    1.543592e-02
  1.787876e-01    1.897375e-02
  2.105388e-01    3.620116e-02
  2.422899e-01    2.329947e-02
  2.740411e-01    2.640978e-02
  3.057922e-01    2.200416e-02
  3.375433e-01    5.304797e-02
  3.692945e-01    2.727536e-02
  4.010456e-01    4.100849e-02
  4.327968e-01    3.484846e-02
  4.645479e-01    5.363865e-02
  4.962991e-01    3.736994e-02
  5.280502e-01    2.565504e-02
  5.598014e-01    3.879783e-02
  5.915525e-01    4.502231e-02
  6.233037e-01    2.315780e-02
  6.550548e-01    3.270839e-02
  6.868060e-01    3.920588e-02
  7.185571e-01    1.945015e-02
  7.503083e-01    4.474740e-02
  7.820594e-01    1.338305e-01
  8.138106e-01    2.174419e-01
  8.455617e-01    3.101864e-01
  8.773129e-01    4.563799e-01
  9.090640e-01    5.939057e-01
  9.408152e-01    6.567007e-01
  9.725663e-01    8.079229e-01
  1.004317e+00    1.047931e+00
  1.036069e+00    1.202162e+00
  1.067820e+00    1.288228e+00
  1.099571e+00    1.430893e+00
  1.131322e+00    1.467702e+00
  1.163073e+00    1.522586e+00
  1.194824e+00    1.586086e+00
  1.226575e+00    2.097461e+00
  1.258327e+00    2.312361e+00
  1.290078e+00    2.440683e+00
  1.321829e+00    2.624134e+00
  1.353580e+00    2.530320e+00
  1.385331e+00    2.808418e+00
  1.417082e+00    2.707549e+00
  1.448834e+00    2.817122e+00
  1.480585e+00    2.823885e+00
  1.512336e+00    2.975026e+00
  1.544087e+00    2.965683e+00
  1.575838e+00    3.114615e+00
  1.607589e+00    3.143843e+00
  1.639340e+00    2.974274e+00
  1.671092e+00    2.906055e+00
  1.702843e+00    3.110513e+00
  1.734594e+00    2.883896e+00
  1.766345e+00    2.900881e+00
  1.798096e+00    2.906895e+00
  1.829847e+00    2.873794e+00
  1.861598e+00    2.814115e+00
  1.893350e+00    2.758952e+00
  1.925101e+00    2.931468e+00
  1.956852e+00    2.855264e+00
  1.988603e+00    2.761177e+00
  2.020354e+00    2.737337e+00
  2.052105e+00    2.688651e+00
  2.083856e+00    2.716221e+00
  2.115608e+00    2.859322e+00
  2.147359e+00    2.775602e+00
  2.179110e+00    2.862710e+00
  2.210861e+00    2.886460e+00
  2.242612e+00    2.764041e+00
  2.274363e+00    2.795145e+00
  2.306115e+00    2.790321e+00
  2.337866e+00    2.787910e+00
  2.369617e+00    2.706534e+00
  2.401368e+00    2.776815e+00
  2.433119e+00    2.891312e+00
  2.464870e+00    2.872962e+00
  2.496621e+00    2.879003e+00
  2.528373e+00    2.848009e+00
  2.560124e+00    2.904161e+00
  2.591875e+00    2.858411e+00
  2.623626e+00    2.864646e+00
  2.655377e+00    2.768066e+00
  2.687128e+00    2.868928e+00
  2.718879e+00    2.903111e+00
  2.750631e+00    2.955103e+00
  2.782382e+00    2.827285e+00
  2.814133e+00    2.851880e+00
  2.845884e+00    2.841950e+00
  2.877635e+00    2.952420e+00
  2.909386e+00    2.964981e+00
  2.941137e+00    2.905271e+00
  2.972889e+00    2.910630e+00
  3.004640e+00    2.880457e+00
  3.036391e+00    2.846604e+00
  3.068142e+00    3.000762e+00
  3.099893e+00    2.900183e+00
  3.131644e+00    2.916030e+00
  3.163395e+00    2.869004e+00
  3.195147e+00    2.862589e+00
  3.226898e+00    2.940422e+00
  3.258649e+00    2.925067e+00
  3.290400e+00    3.022237e+00
  3.322151e+00    2.919169e+00
  3.353902e+00    3.016247e+00
  3.385654e+00    2.959901e+00
  3.417405e+00    3.018629e+00
  3.449156e+00    2.988471e+00
  3.480907e+00    2.998667e+00
  3.512658e+00    2.950975e+00
  3.544409e+00    2.927511e+00
  3.576160e+00    3.038662e+00
  3.607912e+00    2.981400e+00
  3.639663e+00    2.956517e+00
  3.671414e+00    3.002904e+00
  3.703165e+00    2.986394e+00
  3.734916e+00    3.033539e+00
  3.766667e+00    3.015409e+00
  3.798418e+00    2.921001e+00
  3.830170e+00    3.034024e+00
  3.861921e+00    3.016231e+00
  3.893672e+00    3.134069e+00
  3.925423e+00    3.056730e+00
  3.957174e+00    3.047623e+00
  3.988925e+00    3.038617e+00
  4.020676e+00    3.066965e+00
  4.052428e+00    3.078110e+00
  4.084179e+00    3.016990e+00
  4.115930e+00    3.096578e+00
  4.147681e+00    3.091866e+00
  4.179432e+00    3.117604e+00
  4.211183e+00    3.012928e+00
  4.242935e+00    3.133284e+00
  4.274686e+00    3.148945e+00
  4.306437e+00    3.067853e+00
  4.338188e+00    3.140491e+00
  4.369939e+00    3.136049e+00
  4.401690e+00    2.930946e+00
  4.433441e+00    3.147419e+00
  4.465193e+00    3.027984e+00
  4.496944e+00    3.171361e+00
  4.528695e+00    3.098530e+00
  4.560446e+00    3.086581e+00
  4.592197e+00    3.102157e+00
  4.623948e+00    3.063447e+00
  4.655699e+00    3.041776e+00
  4.687451e+00    3.085610e+00
  4.719202e+00    3.105129e+00
  4.750953e+00    3.243352e+00
  4.782704e+00    3.053604e+00
  4.814455e+00    3.124734e+00
  4.846206e+00    3.133481e+00
  4.877957e+00    3.051025e+00
  4.909709e+00    3.140050e+00
  4.941460e+00    3.123665e+00
  4.973211e+00    3.115109e+00
  5.004962e+00    3.151798e+00
  5.036713e+00    3.231505e+00
  5.068464e+00    3.143036e+00
  5.100216e+00    3.172659e+00
  5.131967e+00    3.111140e+00
  5.163718e+00    3.322408e+00
  5.195469e+00    3.155820e+00
  5.227220e+00    3.113965e+00
  5.258971e+00    3.165186e+00
  5.290722e+00    3.156489e+00
  5.322474e+00    3.147993e+00
  5.354225e+00    3.123531e+00
  5.385976e+00    3.202402e+00
  5.417727e+00    3.094609e+00
  5.449478e+00    3.059335e+00
  5.481229e+00    3.115712e+00
  5.512980e+00    3.097586e+00
  5.544732e+00    3.091159e+00
  5.576483e+00    3.142644e+00
  5.608234e+00    3.126652e+00
  5.639985e+00    3.100075e+00
  5.671736e+00    3.083880e+00
  5.703487e+00    3.143474e+00
  5.735238e+00    3.046424e+00
  5.766990e+00    3.091108e+00
  5.798741e+00    3.104747e+00
  5.830492e+00    3.073451e+00
  5.862243e+00    3.027071e+00
  5.893994e+00    2.992299e+00
  5.925745e+00    3.042407e+00
  5.957497e+00    2.990529e+00
  5.989248e+00    3.016079e+00
  6.020999e+00    3.066732e+00
  6.052750e+00    3.067312e+00
  6.084501e+00    2.998754e+00
  6.116252e+00    3.058131e+00
  6.148003e+00    3.123431e+00
  6.179755e+00    3.109828e+00
  6.211506e+00    3.101976e+00
  6.243257e+00    3.016644e+00
  6.275008e+00    3.098535e+00
  6.306759e+00    3.090381e+00
  6.338510e+00    3.028269e+00
  6.370261e+00    3.043021e+00
  6.402013e+00    3.045931e+00
  6.433764e+00    3.045644e+00
  6.465515e+00    3.000875e+00
  6.497266e+00    3.052884e+00
  6.529017e+00    3.030175e+00
  6.560768e+00    3.090059e+00
  6.592519e+00    2.990335e+00
  6.624271e+00    3.059659e+00
  6.656022e+00    3.040726e+00
  6.687773e+00    3.087265e+00
  6.719524e+00    3.058844e+00
  6.751275e+00    3.003799e+00
  6.783026e+00    3.046607e+00
  6.814777e+00    3.015546e+00
  6.846529e+00    3.022030e+00
  6.878280e+00    3.107371e+00
  6.910031e+00    3.108089e+00
  6.941782e+00    2.957097e+00
  6.973533e+00    3.033989e+00
  7.005284e+00    3.083253e+00
  7.037036e+00    3.137877e+00
  7.068787e+00    3.066566e+00
  7.100538e+00    3.034302e+00
  7.132289e+00    3.081105e+00
  7.164040e+00    3.007232e+00
  7.195791e+00    3.015038e+00
  7.227542e+00    3.110121e+00
  7.259294e+00    3.028336e+00
  7.291045e+00    2.999478e+00
  7.322796e+00    3.051384e+00
  7.354547e+00    3.061703e+00
  7.386298e+00    3.020285e+00
  7.418049e+00    2.986157e+00
  7.449800e+00    2.984137e+00
  7.481552e+00    2.972482e+00
  7.513303e+00    3.045102e+00
  7.545054e+00    2.923601e+00
  7.576805e+00    3.003414e+00
  7.608556e+00    2.952700e+00
  7.640307e+00    2.934420e+00
  7.672058e+00    2.933555e+00
  7.703810e+00    2.947164e+00
  7.735561e+00    2.988704e+00
  7.767312e+00    2.983118e+00
  7.799063e+00    2.938580e+00
  7.830814e+00    2.998775e+00
  7.862565e+00    2.945149e+00
  7.894317e+00    2.972094e+00
  7.926068e+00    2.966192e+00
  7.957819e+00    3.021255e+00
  7.989570e+00    2.966551e+00
  8.021321e+00    2.934469e+00
  8.053072e+00    2.896723e+00
  8.084823e+00    2.913932e+00
  8.116575e+00    2.986250e+00
  8.148326e+00    2.942523e+00
  8.180077e+00    2.948007e+00
  8.211828e+00    2.969049e+00
  8.243579e+00    2.916137e+00
  8.275330e+00    2.881917e+00
  8.307081e+00    2.915609e+00
  8.338833e+00    2.836762e+00
  8.370584e+00    2.920816e+00
  8.402335e+00    2.939625e+00
  8.434086e+00    2.927634e+00
  8.465837e+00    2.910563e+00
  8.497588e+00    2.903588e+00
  8.529339e+00    2.881809e+00
  8.561091e+00    2.871789e+00
  8.592842e+00    2.897941e+00
  8.624593e+00    2.904664e+00
  8.656344e+00    2.881762e+00
  8.688095e+00    2.850725e+00
  8.719846e+00    2.875168e+00
  8.751598e+00    2.829324e+00
  8.783349e+00    2.864035e+00
  8.815100e+00    2.893768e+00
  8.846851e+00    2.837849e+00
  8.878602e+00    2.884711e+00
  8.910353e+00    2.829238e+00
  8.942104e+00    2.843497e+00
  8.973856e+00    2.755754e+00
  9.005607e+00    2.876009e+00
  9.037358e+00    2.865663e+00
  9.069109e+00    2.881299e+00
  9.100860e+00    2.897235e+00
  9.132611e+00    2.852748e+00
  9.164362e+00    2.853793e+00
  9.196114e+00    2.820350e+00
  9.227865e+00    2.821462e+00
  9.259616e+00    2.759463e+00
  9.291367e+00    2.791435e+00
  9.323118e+00    2.794893e+00
  9.354869e+00    2.814018e+00
  9.386620e+00    2.804538e+00
  9.418372e+00    2.824512e+00
  9.450123e+00    2.864568e+00
  9.481874e+00    2.784539e+00
  9.513625e+00    2.825098e+00
  9.545376e+00    2.846981e+00
  9.577127e+00    2.818355e+00
  9.608878e+00    2.725009e+00
  9.640630e+00    2.799573e+00
  9.672381e+00    2.755556e+00
  9.704132e+00    2.809318e+00
  9.735883e+00    2.755092e+00
  9.767634e+00    2.732939e+00
  9.799385e+00    2.762853e+00
  9.831137e+00    2.739308e+00
  9.862888e+00    2.765880e+00
  9.894639e+00    2.731585e+00
  9.926390e+00    2.668917e+00
  9.958141e+00    2.690946e+00
  9.989892e+00    2.697614e+00
  1.002164e+01    2.736239e+00
  1.005339e+01    2.705141e+00
  1.008515e+01    2.669652e+00
  1.011690e+01    2.706386e+00
  1.014865e+01    2.706121e+00
  1.018040e+01    2.618247e+00
  1.021215e+01    2.617023e+00
  1.024390e+01    2.663771e+00
  1.027565e+01    2.684837e+00
  1.030740e+01    2.669553e+00
  1.033915e+01    2.665688e+00
  1.037091e+01    2.591572e+00
  1.040266e+01    2.666542e+00
  1.043441e+01    2.597624e+00
  1.046616e+01    2.605832e+00
  1.049791e+01    2.649683e+00
  1.052966e+01    2.587612e+00
  1.056141e+01    2.553405e+00
  1.059316e+01    2.566227e+00
  1.062492e+01    2.542690e+00
  1.065667e+01    2.610909e+00
  1.068842e+01    2.555892e+00
  1.072017e+01    2.557602e+00
  1.075192e+01    2.545750e+00
  1.078367e+01    2.549465e+00
  1.081542e+01    2.557914e+00
  1.084717e+01    2.589136e+00
  1.087892e+01    2.509080e+00
  1.091068e+01    2.541471e+00
  1.094243e+01    2.560096e+00
  1.097418e+01    2.542818e+00
  1.100593e+01    2.477542e+00
  1.103768e+01    2.547026e+00
  1.106943e+01    2.491004e+00
  1.110118e+01    2.460648e+00
  1.113293e+01    2.493976e+00
  1.116468e+01    2.464731e+00
  1.119644e+01    2.473194e+00
  1.122819e+01    2.470461e+00
  1.125994e+01    2.503485e+00
  1.129169e+01    2.485104e+00
  1.132344e+01    2.435050e+00
  1.135519e+01    2.406971e+00
  1.138694e+01    2.458201e+00
  1.141869e+01    2.422158e+00
  1.145045e+01    2.474926e+00
  1.148220e+01    2.405471e+00
  1.151395e+01    2.459422e+00
  1.154570e+01    2.400036e+00
  1.157745e+01    2.386820e+00
  1.160920e+01    2.385095e+00
  1.164095e+01    2.362098e+00
  1.167270e+01    2.417056e+00
  1.170445e+01    2.431786e+00
  1.173621e+01    2.389102e+00
  1.176796e+01    2.359753e+00
  1.179971e+01    2.390764e+00
  1.183146e+01    2.442661e+00
  1.186321e+01    2.378923e+00
  1.189496e+01    2.389291e+00
  1.192671e+01    2.351777e+00
  1.195846e+01    2.356437e+00
  1.199021e+01    2.362130e+00
  1.202197e+01    2.411057e+00
  1.205372e+01    2.319138e+00
  1.208547e+01    2.348545e+00
  1.211722e+01    2.308789e+00
  1.214897e+01    2.384376e+00
  1.218072e+01    2.309439e+00
  1.221247e+01    2.300885e+00
  1.224422e+01    2.319797e+00
  1.227597e+01    2.327444e+00
  1.230773e+01    2.327075e+00
  1.233948e+01    2.355339e+00
  1.237123e+01    2.364393e+00
  1.240298e+01    2.385368e+00
  1.243473e+01    2.387588e+00
  1.246648e+01    2.386646e+00
  1.249823e+01    2.330625e+00
  1.252998e+01    2.373345e+00
  1.256174e+01    2.417939e+00
  1.259349e+01    2.454808e+00
  1.262524e+01    2.431406e+00
  1.265699e+01    2.462278e+00
  1.268874e+01    2.490892e+00
  1.272049e+01    2.559455e+00
  1.275224e+01    2.565210e+00
  1.278399e+01    2.628311e+00
  1.281574e+01    2.790094e+00
  1.284750e+01    2.871151e+00
  1.287925e+01    3.058854e+00
  1.291100e+01    3.298249e+00
  1.294275e+01    3.679802e+00
  1.297450e+01    4.253480e+00
  1.300625e+01    5.112760e+00
  1.303800e+01    6.573251e+00
  1.306975e+01    8.958898e+00
  1.310150e+01    1.198129e+01
  1.313326e+01    1.495542e+01
  1.316501e+01    1.802309e+01
  1.319676e+01    1.982956e+01
  1.322851e+01    1.853808e+01
  1.326026e+01    1.434533e+01
  1.329201e+01    1.003172e+01
  1.332376e+01    7.260320e+00
  1.335551e+01    5.592321e+00
  1.338727e+01    4.489842e+00
  1.341902e+01    3.798493e+00
  1.345077e+01    3.395557e+00
  1.348252e+01    3.047021e+00
  1.351427e+01    2.870246e+00
  1.354602e+01    2.675813e+00
  1.357777e+01    2.602765e+00
  1.360952e+01    2.490430e+00
  1.364127e+01    2.427934e+00
  1.367303e+01    2.342809e+00
  1.370478e+01    2.340284e+00
  1.373653e+01    2.285764e+00
  1.376828e+01    2.254732e+00
  1.380003e+01    2.209384e+00
  1.383178e+01    2.199435e+00
  1.386353e+01    2.187232e+00
  1.389528e+01    2.203225e+00
  1.392703e+01    2.187908e+00
  1.395879e+01    2.147101e+00
  1.399054e+01    2.128061e+00
  1.402229e+01    2.126600e+00
  1.405404e+01    2.066851e+00
  1.408579e+01    2.054613e+00
  1.411754e+01    2.033950e+00
  1.414929e+01    2.069385e+00
  1.418104e+01    2.014598e+00
  1.421279e+01    2.042364e+00
  1.424455e+01    2.026262e+00
  1.427630e+01    1.975171e+00
  1.430805e+01    1.991213e+00
  1.433980e+01    1.976621e+00
  1.437155e+01    2.011737e+00
  1.440330e+01    1.979992e+00
  1.443505e+01    1.961065e+00
  1.446680e+01    1.948009e+00
  1.449856e+01    1.935271e+00
  1.453031e+01    1.974905e+00
  1.456206e+01    1.934850e+00
  1.459381e+01    1.932764e+00
  1.462556e+01    1.976003e+00
  1.465731e+01    1.945076e+00
  1.468906e+01    1.975389e+00
  1.472081e+01    1.894245e+00
  1.475256e+01    1.917987e+00
  1.478432e+01    1.950598e+00
  1.481607e+01    1.960901e+00
  1.484782e+01    1.943922e+00
  1.487957e+01    1.964414e+00
  1.491132e+01    1.931445e+00
  1.494307e+01    1.997988e+00
  1.497482e+01    2.085507e+00
  1.500657e+01    2.187511e+00
  1.503832e+01    2.325646e+00
  1.507008e+01    2.503025e+00
  1.510183e+01    2.740300e+00
  1.513358e+01    3.178365e+00
  1.516533e+01    3.934007e+00
  1.519708e+01    4.890738e+00
  1.522883e+01    5.617161e+00
  1.526058e+01    6.329834e+00
  1.529233e+01    6.585891e+00
  1.532409e+01    6.288846e+00
  1.535584e+01    5.145288e+00
  1.538759e+01    3.954865e+00
  1.541934e+01    3.187247e+00
  1.545109e+01    2.688441e+00
  1.548284e+01    2.475752e+00
  1.551459e+01    2.200581e+00
  1.554634e+01    2.059634e+00
  1.557809e+01    1.965571e+00
  1.560985e+01    1.884779e+00
  1.564160e+01    1.889017e+00
  1.567335e+01    1.800622e+00
  1.570510e+01    1.767083e+00
  1.573685e+01    1.780825e+00
  1.576860e+01    1.727955e+00
  1.580035e+01    1.741218e+00
  1.583210e+01    1.700785e+00
  1.586385e+01    1.643684e+00
  1.589561e+01    1.661107e+00
  1.592736e+01    1.682583e+00
  1.595911e+01    1.654700e+00
  1.599086e+01    1.664182e+00
  1.602261e+01    1.643950e+00
  1.605436e+01    1.639899e+00
  1.608611e+01    1.632735e+00
  1.611786e+01    1.622294e+00
  1.614961e+01    1.582698e+00
  1.618137e+01    1.605270e+00
  1.621312e+01    1.596333e+00
  1.624487e+01    1.579670e+00
  1.627662e+01    1.553412e+00
  1.630837e+01    1.583519e+00
  1.634012e+01    1.545141e+00
  1.637187e+01    1.574473e+00
  1.640362e+01    1.563712e+00
  1.643538e+01    1.535841e+00
  1.646713e+01    1.494308e+00
  1.649888e+01    1.535659e+00
  1.653063e+01    1.517090e+00
  1.656238e+01    1.580579e+00
  1.659413e+01    1.551117e+00
  1.662588e+01    1.541934e+00
  1.665763e+01    1.525841e+00
  1.668938e+01    1.520724e+00
  1.672114e+01    1.492519e+00
  1.675289e+01    1.497057e+00
  1.678464e+01    1.521274e+00
  1.681639e+01    1.446905e+00
  1.684814e+01    1.473051e+00
  1.687989e+01    1.461632e+00
  1.691164e+01    1.452450e+00
  1.694339e+01    1.467779e+00
  1.697514e+01    1.483937e+00
  1.700690e+01    1.435213e+00
  1.703865e+01    1.467198e+00
  1.707040e+01    1.452492e+00
  1.710215e+01    1.425875e+00
  1.713390e+01    1.416055e+00
  1.716565e+01    1.449401e+00
  1.719740e+01    1.436614e+00
  1.722915e+01    1.422804e+00
  1.726091e+01    1.398216e+00
  1.729266e+01    1.394594e+00
  1.732441e+01    1.372319e+00
  1.735616e+01    1.412255e+00
  1.738791e+01    1.402710e+00
  1.741966e+01    1.397730e+00
  1.745141e+01    1.402667e+00
  1.748316e+01    1.414302e+00
  1.751491e+01    1.391154e+00
  1.754667e+01    1.369831e+00
  1.757842e+01    1.382718e+00
  1.761017e+01    1.322025e+00
  1.764192e+01    1.373901e+00
  1.767367e+01    1.352435e+00
  1.770542e+01    1.349235e+00
  1.773717e+01    1.343033e+00
  1.776892e+01    1.372378e+00
  1.780067e+01    1.329489e+00
  1.783243e+01    1.339736e+00
  1.786418e+01    1.342465e+00
  1.789593e+01    1.336654e+00
  1.792768e+01    1.328633e+00
  1.795943e+01    1.306283e+00
  1.799118e+01    1.328926e+00
  1.802293e+01    1.321730e+00
  1.805468e+01    1.339680e+00
  1.808643e+01    1.299438e+00
  1.811819e+01    1.302836e+00
  1.814994e+01    1.315087e+00
  1.818169e+01    1.298889e+00
  1.821344e+01    1.323984e+00
  1.824519e+01    1.318168e+00
  1.827694e+01    1.306825e+00
  1.830869e+01    1.265786e+00
  1.834044e+01    1.275792e+00
  1.837220e+01    1.269490e+00
  1.840395e+01    1.275590e+00
  1.843570e+01    1.248785e+00
  1.846745e+01    1.244244e+00
  1.849920e+01    1.276735e+00
  1.853095e+01    1.255953e+00
  1.856270e+01    1.262300e+00
  1.859445e+01    1.279841e+00
  1.862620e+01    1.254648e+00
  1.865796e+01    1.234802e+00
  1.868971e+01    1.269676e+00
  1.872146e+01    1.264419e+00
  1.875321e+01    1.243383e+00
  1.878496e+01    1.211788e+00
  1.881671e+01    1.240953e+00
  1.884846e+01    1.248742e+00
  1.888021e+01    1.240356e+00
  1.891196e+01    1.195414e+00
  1.894372e+01    1.195540e+00
  1.897547e+01    1.209209e+00
  1.900722e+01    1.221806e+00
  1.903897e+01    1.222697e+00
  1.907072e+01    1.222659e+00
  1.910247e+01    1.220903e+00
  1.913422e+01    1.199388e+00
  1.916597e+01    1.199643e+00
  1.919773e+01    1.205282e+00
  1.922948e+01    1.196779e+00
  1.926123e+01    1.185188e+00
  1.929298e+01    1.208095e+00
  1.932473e+01    1.194207e+00
  1.935648e+01    1.184307e+00
  1.938823e+01    1.163563e+00
  1.941998e+01    1.188424e+00
  1.945173e+01    1.172453e+00
  1.948349e+01    1.170385e+00
  1.951524e+01    1.187192e+00
  1.954699e+01    1.179958e+00
  1.957874e+01    1.176719e+00
  1.961049e+01    1.156729e+00
  1.964224e+01    1.139910e+00
  1.967399e+01    1.179756e+00
  1.970574e+01    1.183595e+00
  1.973749e+01    1.162321e+00
  1.976925e+01    1.159777e+00
  1.980100e+01    1.180941e+00
  1.983275e+01    1.166757e+00
  1.986450e+01    1.154803e+00
  1.989625e+01    1.153166e+00
  1.992800e+01    1.157879e+00
  1.995975e+01    1.152695e+00
  1.999150e+01    1.121459e+00
  2.002325e+01    1.141319e+00
  2.005501e+01    1.146284e+00
  2.008676e+01    1.129234e+00
  2.011851e+01    1.131794e+00
  2.015026e+01    1.139628e+00
  2.018201e+01    1.131448e+00
  2.021376e+01    1.126370e+00
  2.024551e+01    1.133436e+00
  2.027726e+01    1.127602e+00
  2.030902e+01    1.122607e+00
  2.034077e+01    1.110423e+00
  2.037252e+01    1.108009e+00
  2.040427e+01    1.108211e+00
  2.043602e+01    1.125300e+00
  2.046777e+01    1.124668e+00
  2.049952e+01    1.110118e+00
  2.053127e+01    1.113700e+00
  2.056302e+01    1.094421e+00
  2.059478e+01    1.098906e+00
  2.062653e+01    1.097982e+00
  2.065828e+01    1.113356e+00
  2.069003e+01    1.099419e+00
  2.072178e+01    1.087395e+00
  2.075353e+01    1.083425e+00
  2.078528e+01    1.064585e+00
  2.081703e+01    1.127399e+00
  2.084878e+01    1.089403e+00
  2.088054e+01    1.113737e+00
  2.091229e+01    1.100574e+00
  2.094404e+01    1.117413e+00
  2.097579e+01    1.119372e+00
  2.100754e+01    1.085946e+00
  2.103929e+01    1.105755e+00
  2.107104e+01    1.094284e+00
  2.110279e+01    1.107869e+00
  2.113455e+01    1.124430e+00
  2.116630e+01    1.094941e+00
  2.119805e+01    1.111710e+00
  2.122980e+01    1.108641e+00
  2.126155e+01    1.114738e+00
  2.129330e+01    1.147882e+00
  2.132505e+01    1.124323e+00
  2.135680e+01    1.160980e+00
  2.138855e+01    1.173299e+00
  2.142031e+01    1.194672e+00
  2.145206e+01    1.247890e+00
  2.148381e+01    1.256507e+00
  2.151556e+01    1.293245e+00
  2.154731e+01    1.356673e+00
  2.157906e+01    1.442324e+00
  2.161081e+01    1.517002e+00
  2.164256e+01    1.723310e+00
  2.167431e+01    1.915070e+00
  2.170607e+01    2.298188e+00
  2.173782e+01    2.764012e+00
  2.176957e+01    3.575653e+00
  2.180132e+01    4.719359e+00
  2.183307e+01    6.216175e+00
  2.186482e+01    7.940824e+00
  2.189657e+01    9.703942e+00
  2.192832e+01    1.102676e+01
  2.196007e+01    1.066307e+01
  2.199183e+01    8.775801e+00
  2.202358e+01    6.384790e+00
  2.205533e+01    4.511161e+00
  2.208708e+01    3.357987e+00
  2.211883e+01    2.686654e+00
  2.215058e+01    2.208606e+00
  2.218233e+01    1.898679e+00
  2.221408e+01    1.661419e+00
  2.224584e+01    1.494379e+00
  2.227759e+01    1.390545e+00
  2.230934e+01    1.311984e+00
  2.234109e+01    1.247537e+00
  2.237284e+01    1.185576e+00
  2.240459e+01    1.148760e+00
  2.243634e+01    1.115070e+00
  2.246809e+01    1.089571e+00
  2.249984e+01    1.059770e+00
  2.253160e+01    1.040877e+00
  2.256335e+01    1.056026e+00
  2.259510e+01    1.032418e+00
  2.262685e+01    1.024438e+00
  2.265860e+01    9.907578e-01
  2.269035e+01    1.008029e+00
  2.272210e+01    9.902058e-01
  2.275385e+01    9.795391e-01
  2.278560e+01    9.588841e-01
  2.281736e+01    9.482765e-01
  2.284911e+01    9.300475e-01
  2.288086e+01    9.559398e-01
  2.291261e+01    9.609995e-01
  2.294436e+01    9.403567e-01
  2.297611e+01    9.206877e-01
  2.300786e+01    8.974947e-01
  2.303961e+01    8.984742e-01
  2.307137e+01    9.275223e-01
  2.310312e+01    9.156581e-01
  2.313487e+01    9.009858e-01
  2.316662e+01    9.122867e-01
  2.319837e+01    8.638498e-01
  2.323012e+01    8.869700e-01
  2.326187e+01    8.906379e-01
  2.329362e+01    8.941333e-01
  2.332537e+01    8.806646e-01
  2.335713e+01    8.867536e-01
  2.338888e+01    8.789219e-01
  2.342063e+01    8.828923e-01
  2.345238e+01    8.850046e-01
  2.348413e+01    8.640187e-01
  2.351588e+01    8.813037e-01
  2.354763e+01    8.542872e-01
  2.357938e+01    8.531217e-01
  2.361113e+01    8.674200e-01
  2.364289e+01    8.777975e-01
  2.367464e+01    8.296291e-01
  2.370639e+01    8.496178e-01
  2.373814e+01    8.408737e-01
  2.376989e+01    8.278590e-01
  2.380164e+01    8.232791e-01
  2.383339e+01    8.367255e-01
  2.386514e+01    8.245345e-01
  2.389689e+01    8.305483e-01
  2.392865e+01    8.065977e-01
  2.396040e+01    8.029873e-01
  2.399215e+01    8.130569e-01
  2.402390e+01    8.181953e-01
  2.405565e+01    8.005756e-01
  2.408740e+01    7.963270e-01
  2.411915e+01    8.019636e-01
  2.415090e+01    7.905266e-01
  2.418266e+01    7.828266e-01
  2.421441e+01    7.849929e-01
  2.424616e+01    8.040449e-01
  2.427791e+01    8.070848e-01
  2.430966e+01    8.132978e-01
  2.434141e+01    8.184065e-01
  2.437316e+01    8.023555e-01
  2.440491e+01    8.138729e-01
  2.443666e+01    7.952827e-01
  2.446842e+01    8.056665e-01
  2.450017e+01    8.115177e-01
  2.453192e+01    8.014842e-01
  2.456367e+01    8.061475e-01
  2.459542e+01    8.024052e-01
  2.462717e+01    7.957883e-01
  2.465892e+01    8.047253e-01
  2.469067e+01    8.040147e-01
  2.472242e+01    8.092947e-01
  2.475418e+01    8.151232e-01
  2.478593e+01    8.106064e-01
  2.481768e+01    8.084574e-01
  2.484943e+01    8.075834e-01
  2.488118e+01    8.100799e-01
  2.491293e+01    8.032088e-01
  2.494468e+01    7.957295e-01
  2.497643e+01    8.039099e-01
  2.500819e+01    8.123244e-01
  2.503994e+01    8.304756e-01
  2.507169e+01    8.245633e-01
  2.510344e+01    8.125407e-01
  2.513519e+01    8.294975e-01
  2.516694e+01    8.380186e-01
  2.519869e+01    8.610198e-01
  2.523044e+01    8.613210e-01
  2.526219e+01    8.601631e-01
  2.529395e+01    8.795907e-01
  2.532570e+01    8.901174e-01
  2.535745e+01    9.101235e-01
  2.538920e+01    9.191247e-01
  2.542095e+01    9.202541e-01
  2.545270e+01    9.520358e-01
  2.548445e+01    9.447986e-01
  2.551620e+01    9.774013e-01
  2.554795e+01    1.020872e+00
  2.557971e+01    1.048556e+00
  2.561146e+01    1.100189e+00
  2.564321e+01    1.177702e+00
  2.567496e+01    1.228085e+00
  2.570671e+01    1.373744e+00
  2.573846e+01    1.559841e+00
  2.577021e+01    1.791790e+00
  2.580196e+01    2.199268e+00
  2.583371e+01    2.729845e+00
  2.586547e+01    3.520239e+00
  2.589722e+01    4.676172e+00
  2.592897e+01    6.190978e+00
  2.596072e+01    7.818401e+00
  2.599247e+01    9.026643e+00
  2.602422e+01    9.130294e+00
  2.605597e+01    7.872104e+00
  2.608772e+01    5.994048e+00
  2.611948e+01    4.349877e+00
  2.615123e+01    3.236873e+00
  2.618298e+01    2.484920e+00
  2.621473e+01    2.066343e+00
  2.624648e+01    1.747207e+00
  2.627823e+01    1.513165e+00
  2.630998e+01    1.354681e+00
  2.634173e+01    1.227067e+00
  2.637348e+01    1.158235e+00
  2.640524e+01    1.074787e+00
  2.643699e+01    1.050567e+00
  2.646874e+01    1.034153e+00
  2.650049e+01    1.007651e+00
  2.653224e+01    1.009816e+00
  2.656399e+01    9.561657e-01
  2.659574e+01    9.593046e-01
  2.662749e+01    9.316649e-01
  2.665924e+01    9.325233e-01
  2.669100e+01    9.452630e-01
  2.672275e+01    9.148857e-01
  2.675450e+01    9.549403e-01
  2.678625e+01    9.125865e-01
  2.681800e+01    9.198968e-01
  2.684975e+01    9.167975e-01
  2.688150e+01    9.425088e-01
  2.691325e+01    9.639107e-01
  2.694501e+01    9.534585e-01
  2.697676e+01    9.822267e-01
  2.700851e+01    1.003135e+00
  2.704026e+01    1.074369e+00
  2.707201e+01    1.130116e+00
  2.710376e+01    1.276422e+00
  2.713551e+01    1.413912e+00
  2.716726e+01    1.627841e+00
  2.719901e+01    2.019134e+00
  2.723077e+01    2.386811e+00
  2.726252e+01    2.600342e+00
  2.729427e+01    2.548825e+00
  2.732602e+01    2.259410e+00
  2.735777e+01    1.824282e+00
  2.738952e+01    1.503042e+00
  2.742127e+01    1.305063e+00
  2.745302e+01    1.159615e+00
  2.748477e+01    1.080018e+00
  2.751653e+01    1.010929e+00
  2.754828e+01    9.621375e-01
  2.758003e+01    9.346385e-01
  2.761178e+01    9.117210e-01
  2.764353e+01    8.971703e-01
  2.767528e+01    8.526996e-01
  2.770703e+01    8.703319e-01
  2.773878e+01    8.357086e-01
  2.777054e+01    8.473544e-01
  2.780229e+01    8.586783e-01
  2.783404e+01    8.371508e-01
  2.786579e+01    8.224316e-01
  2.789754e+01    8.266008e-01
  2.792929e+01    8.145242e-01
  2.796104e+01    8.353440e-01
  2.799279e+01    8.243728e-01
  2.802454e+01    8.192727e-01
  2.805630e+01    8.243333e-01
  2.808805e+01    8.115969e-01
  2.811980e+01    8.121043e-01
  2.815155e+01    7.761261e-01
  2.818330e+01    7.785140e-01
  2.821505e+01    8.171002e-01
  2.824680e+01    7.946311e-01
  2.827855e+01    7.820866e-01
  2.831030e+01    7.910293e-01
  2.834206e+01    8.083396e-01
  2.837381e+01    8.043903e-01
  2.840556e+01    7.988013e-01
  2.843731e+01    7.860699e-01
  2.846906e+01    7.690107e-01
  2.850081e+01    7.791411e-01
  2.853256e+01    7.760917e-01
  2.856431e+01    7.808392e-01
  2.859606e+01    7.817830e-01
  2.862782e+01    7.792689e-01
  2.865957e+01    7.743745e-01
  2.869132e+01    7.793378e-01
  2.872307e+01    7.623394e-01
  2.875482e+01    7.660960e-01
  2.878657e+01    7.814626e-01
  2.881832e+01    7.770812e-01
  2.885007e+01    7.586520e-01
  2.888183e+01    7.555728e-01
  2.891358e+01    7.745607e-01
  2.894533e+01    7.733949e-01
  2.897708e+01    7.579380e-01
  2.900883e+01    7.669194e-01
  2.904058e+01    7.221391e-01
  2.907233e+01    7.456155e-01
  2.910408e+01    7.592454e-01
  2.913583e+01    7.528682e-01
  2.916759e+01    7.543812e-01
  2.919934e+01    7.338380e-01
  2.923109e+01    7.383900e-01
  2.926284e+01    7.741378e-01
  2.929459e+01    7.466616e-01
  2.932634e+01    7.390705e-01
  2.935809e+01    7.544830e-01
  2.938984e+01    7.314799e-01
  2.942159e+01    7.543631e-01
  2.945335e+01    7.248817e-01
  2.948510e+01    7.334267e-01
  2.951685e+01    7.551408e-01
  2.954860e+01    7.391822e-01
  2.958035e+01    7.257307e-01
  2.961210e+01    7.234604e-01
  2.964385e+01    7.370707e-01
  2.967560e+01    7.417833e-01
  2.970736e+01    7.282147e-01
  2.973911e+01    7.426237e-01
  2.977086e+01    7.295997e-01
  2.980261e+01    7.341624e-01
  2.983436e+01    7.317876e-01
  2.986611e+01    7.315131e-01
  2.989786e+01    7.432004e-01
  2.992961e+01    7.179500e-01
  2.996136e+01    7.359061e-01
  2.999312e+01    7.522362e-01
  3.002487e+01    7.605360e-01
  3.005662e+01    7.432792e-01
  3.008837e+01    7.251211e-01
  3.012012e+01    7.395998e-01
  3.015187e+01    7.385622e-01
  3.018362e+01    7.028981e-01
  3.021537e+01    7.024444e-01
  3.024712e+01    7.227303e-01
  3.027888e+01    7.335126e-01
  3.031063e+01    7.237139e-01
  3.034238e+01    7.213032e-01
  3.037413e+01    7.201111e-01
  3.040588e+01    7.074849e-01
  3.043763e+01    7.312457e-01
  3.046938e+01    7.334492e-01
  3.050113e+01    7.128664e-01
  3.053288e+01    7.443218e-01
  3.056464e+01    7.240962e-01
  3.059639e+01    7.196349e-01
  3.062814e+01    7.281125e-01
  3.065989e+01    7.145421e-01
  3.069164e+01    7.365170e-01
  3.072339e+01    7.235941e-01
  3.075514e+01    7.312726e-01
  3.078689e+01    7.333557e-01
  3.081865e+01    7.144442e-01
  3.085040e+01    7.399166e-01
  3.088215e+01    7.447066e-01
  3.091390e+01    7.252792e-01
  3.094565e+01    7.375596e-01
  3.097740e+01    7.452715e-01
  3.100915e+01    7.353899e-01
  3.104090e+01    7.246584e-01
  3.107265e+01    7.339547e-01
  3.110441e+01    7.476110e-01
  3.113616e+01    7.348427e-01
  3.116791e+01    7.402472e-01
  3.119966e+01    7.448033e-01
  3.123141e+01    7.398180e-01
  3.126316e+01    7.192847e-01
  3.129491e+01    7.314884e-01
  3.132666e+01    7.559513e-01
  3.135841e+01    7.519160e-01
  3.139017e+01    7.677895e-01
  3.142192e+01    7.549059e-01
  3.145367e+01    7.795519e-01
  3.148542e+01    7.810140e-01
  3.151717e+01    7.814188e-01
  3.154892e+01    7.858992e-01
  3.158067e+01    8.145915e-01
  3.161242e+01    8.214260e-01
  3.164418e+01    8.361760e-01
  3.167593e+01    8.752669e-01
  3.170768e+01    9.166394e-01
  3.173943e+01    9.643255e-01
  3.177118e+01    1.034268e+00
  3.180293e+01    1.160798e+00
  3.183468e+01    1.376756e+00
  3.186643e+01    1.627711e+00
  3.189818e+01    1.965082e+00
  3.192994e+01    2.417434e+00
  3.196169e+01    2.633419e+00
  3.199344e+01    2.524980e+00
  3.202519e+01    2.207773e+00
  3.205694e+01    1.824120e+00
  3.208869e+01    1.464068e+00
  3.212044e+01    1.270724e+00
  3.215219e+01    1.100718e+00
  3.218394e+01    9.869542e-01
  3.221570e+01    9.266064e-01
  3.224745e+01    8.609819e-01
  3.227920e+01    8.252620e-01
  3.231095e+01    8.310853e-01
  3.234270e+01    8.019935e-01
  3.237445e+01    7.993891e-01
  3.240620e+01    7.739403e-01
  3.243795e+01    7.431720e-01
  3.246970e+01    7.548193e-01
  3.250146e+01    7.525208e-01
  3.253321e+01    7.615604e-01
  3.254908e+01    7.525089e-01