File: XRD/Activation ramp/2024-07-27_002_Ru-CGO-ex_Activtation_ramp_000002_data_000148.dat
# == pyFAI calibration ==
# Distance Sample to Detector: 0.4 m
# PONI: 9.750e-02, 1.135e-01 m
# Rotations: -0.000175 0.000000 -0.000000 rad
#
# == Fit2d calibration ==
# Distance Sample-beamCenter: 400.000 mm
# Center: x=1514.000, y=1300.000 pix
# Tilt: 0.010 deg  TiltPlanRot: 0.010 deg
#
# Detector Detector	 Spline= None	 PixelSize= 7.500e-05, 7.500e-05 m
#    Detector has a mask: False
#    Detector has a dark current: False
#    detector has a flat field: False
#
# Wavelength: 6.888e-11 m
# Mask applied: user provided
# Dark current applied: False
# Flat field applied: False
# Polarization factor: 0.99
# Normalization factor: 1.0
# --> /home/myspot/data/2024_07_Rosario/Ru-CGO-ex/2024-07-27_002_Ru-CGO-ex_Activtation_ramp_000002_data_000148.dat
#       q_nm^-1             I
  2.003187e-02    2.849293e-01
  5.178302e-02    0.000000e+00
  8.353417e-02    0.000000e+00
  1.152853e-01    5.084283e-02
  1.470365e-01    0.000000e+00
  1.787876e-01    6.363293e-02
  2.105388e-01    7.384843e-02
  2.422899e-01    4.879234e-02
  2.740411e-01    1.384592e-02
  3.057922e-01    4.664678e-02
  3.375433e-01    5.956952e-03
  3.692945e-01    2.121465e-02
  4.010456e-01    3.344687e-02
  4.327968e-01    3.991944e-02
  4.645479e-01    5.007319e-02
  4.962991e-01    3.761597e-02
  5.280502e-01    1.817914e-02
  5.598014e-01    5.714155e-02
  5.915525e-01    2.749030e-02
  6.233037e-01    3.322318e-02
  6.550548e-01    3.795846e-02
  6.868060e-01    3.544345e-02
  7.185571e-01    2.963113e-02
  7.503083e-01    6.916384e-02
  7.820594e-01    1.380261e-01
  8.138106e-01    1.954166e-01
  8.455617e-01    2.899913e-01
  8.773129e-01    3.950402e-01
  9.090640e-01    6.111828e-01
  9.408152e-01    6.883983e-01
  9.725663e-01    8.254182e-01
  1.004317e+00    1.049878e+00
  1.036069e+00    1.164303e+00
  1.067820e+00    1.377221e+00
  1.099571e+00    1.357475e+00
  1.131322e+00    1.407156e+00
  1.163073e+00    1.486031e+00
  1.194824e+00    1.655519e+00
  1.226575e+00    2.105700e+00
  1.258327e+00    2.241266e+00
  1.290078e+00    2.376368e+00
  1.321829e+00    2.473310e+00
  1.353580e+00    2.512836e+00
  1.385331e+00    2.534560e+00
  1.417082e+00    2.642457e+00
  1.448834e+00    2.734978e+00
  1.480585e+00    2.931685e+00
  1.512336e+00    2.752315e+00
  1.544087e+00    3.033266e+00
  1.575838e+00    2.821836e+00
  1.607589e+00    2.950600e+00
  1.639340e+00    2.852994e+00
  1.671092e+00    2.723011e+00
  1.702843e+00    2.809157e+00
  1.734594e+00    2.805299e+00
  1.766345e+00    2.708787e+00
  1.798096e+00    2.767164e+00
  1.829847e+00    2.695999e+00
  1.861598e+00    2.776573e+00
  1.893350e+00    2.683627e+00
  1.925101e+00    2.678159e+00
  1.956852e+00    2.596189e+00
  1.988603e+00    2.739615e+00
  2.020354e+00    2.689750e+00
  2.052105e+00    2.727970e+00
  2.083856e+00    2.697659e+00
  2.115608e+00    2.732310e+00
  2.147359e+00    2.752304e+00
  2.179110e+00    2.671305e+00
  2.210861e+00    2.633449e+00
  2.242612e+00    2.621132e+00
  2.274363e+00    2.794419e+00
  2.306115e+00    2.717368e+00
  2.337866e+00    2.847080e+00
  2.369617e+00    2.668686e+00
  2.401368e+00    2.814423e+00
  2.433119e+00    2.808762e+00
  2.464870e+00    2.794562e+00
  2.496621e+00    2.809676e+00
  2.528373e+00    2.759868e+00
  2.560124e+00    2.723204e+00
  2.591875e+00    2.772699e+00
  2.623626e+00    2.611357e+00
  2.655377e+00    2.764856e+00
  2.687128e+00    2.820091e+00
  2.718879e+00    2.734974e+00
  2.750631e+00    2.734411e+00
  2.782382e+00    2.806058e+00
  2.814133e+00    2.810492e+00
  2.845884e+00    2.814687e+00
  2.877635e+00    2.778805e+00
  2.909386e+00    2.936733e+00
  2.941137e+00    2.903693e+00
  2.972889e+00    2.888308e+00
  3.004640e+00    2.920260e+00
  3.036391e+00    2.852400e+00
  3.068142e+00    2.893808e+00
  3.099893e+00    2.914190e+00
  3.131644e+00    2.877761e+00
  3.163395e+00    2.902321e+00
  3.195147e+00    2.840587e+00
  3.226898e+00    2.961649e+00
  3.258649e+00    2.840617e+00
  3.290400e+00    2.981623e+00
  3.322151e+00    2.899183e+00
  3.353902e+00    2.910414e+00
  3.385654e+00    2.974852e+00
  3.417405e+00    2.963103e+00
  3.449156e+00    2.938520e+00
  3.480907e+00    2.953695e+00
  3.512658e+00    2.894427e+00
  3.544409e+00    2.954773e+00
  3.576160e+00    2.979047e+00
  3.607912e+00    2.952532e+00
  3.639663e+00    2.931472e+00
  3.671414e+00    2.949520e+00
  3.703165e+00    2.938753e+00
  3.734916e+00    2.993579e+00
  3.766667e+00    2.902894e+00
  3.798418e+00    3.028541e+00
  3.830170e+00    3.013626e+00
  3.861921e+00    2.955916e+00
  3.893672e+00    3.042236e+00
  3.925423e+00    2.967366e+00
  3.957174e+00    3.035641e+00
  3.988925e+00    2.973049e+00
  4.020676e+00    3.098612e+00
  4.052428e+00    3.042639e+00
  4.084179e+00    2.955094e+00
  4.115930e+00    2.998792e+00
  4.147681e+00    3.066036e+00
  4.179432e+00    3.023922e+00
  4.211183e+00    3.091012e+00
  4.242935e+00    3.042936e+00
  4.274686e+00    2.979434e+00
  4.306437e+00    3.046149e+00
  4.338188e+00    3.078452e+00
  4.369939e+00    3.003623e+00
  4.401690e+00    3.163401e+00
  4.433441e+00    3.025290e+00
  4.465193e+00    3.102580e+00
  4.496944e+00    2.975691e+00
  4.528695e+00    3.084226e+00
  4.560446e+00    3.083124e+00
  4.592197e+00    3.082469e+00
  4.623948e+00    3.110211e+00
  4.655699e+00    3.107007e+00
  4.687451e+00    3.142308e+00
  4.719202e+00    3.074836e+00
  4.750953e+00    3.055023e+00
  4.782704e+00    3.107635e+00
  4.814455e+00    3.116890e+00
  4.846206e+00    3.116435e+00
  4.877957e+00    3.170812e+00
  4.909709e+00    3.013824e+00
  4.941460e+00    3.017828e+00
  4.973211e+00    3.138466e+00
  5.004962e+00    3.135394e+00
  5.036713e+00    3.098247e+00
  5.068464e+00    3.084874e+00
  5.100216e+00    3.175782e+00
  5.131967e+00    3.132029e+00
  5.163718e+00    3.092036e+00
  5.195469e+00    3.122463e+00
  5.227220e+00    3.156533e+00
  5.258971e+00    3.124760e+00
  5.290722e+00    3.135254e+00
  5.322474e+00    3.195761e+00
  5.354225e+00    3.172645e+00
  5.385976e+00    3.164144e+00
  5.417727e+00    3.104672e+00
  5.449478e+00    3.005886e+00
  5.481229e+00    3.043644e+00
  5.512980e+00    3.097560e+00
  5.544732e+00    3.054077e+00
  5.576483e+00    3.029651e+00
  5.608234e+00    3.123515e+00
  5.639985e+00    3.012620e+00
  5.671736e+00    3.157976e+00
  5.703487e+00    3.000218e+00
  5.735238e+00    3.134719e+00
  5.766990e+00    3.058135e+00
  5.798741e+00    3.014094e+00
  5.830492e+00    3.086636e+00
  5.862243e+00    2.989874e+00
  5.893994e+00    3.029097e+00
  5.925745e+00    2.918647e+00
  5.957497e+00    2.965327e+00
  5.989248e+00    3.047078e+00
  6.020999e+00    3.030602e+00
  6.052750e+00    2.966479e+00
  6.084501e+00    3.137783e+00
  6.116252e+00    3.055413e+00
  6.148003e+00    3.006963e+00
  6.179755e+00    3.070932e+00
  6.211506e+00    3.100390e+00
  6.243257e+00    2.979887e+00
  6.275008e+00    3.023285e+00
  6.306759e+00    3.023282e+00
  6.338510e+00    2.991610e+00
  6.370261e+00    2.998843e+00
  6.402013e+00    3.032925e+00
  6.433764e+00    3.013349e+00
  6.465515e+00    3.030901e+00
  6.497266e+00    3.001888e+00
  6.529017e+00    3.073452e+00
  6.560768e+00    3.086902e+00
  6.592519e+00    2.990257e+00
  6.624271e+00    3.023583e+00
  6.656022e+00    3.003868e+00
  6.687773e+00    3.009578e+00
  6.719524e+00    3.052071e+00
  6.751275e+00    2.947137e+00
  6.783026e+00    3.021214e+00
  6.814777e+00    3.040414e+00
  6.846529e+00    2.995021e+00
  6.878280e+00    3.008249e+00
  6.910031e+00    2.927164e+00
  6.941782e+00    2.953618e+00
  6.973533e+00    3.049836e+00
  7.005284e+00    3.006812e+00
  7.037036e+00    2.996122e+00
  7.068787e+00    2.946609e+00
  7.100538e+00    3.005881e+00
  7.132289e+00    3.012767e+00
  7.164040e+00    3.038481e+00
  7.195791e+00    3.023097e+00
  7.227542e+00    3.017256e+00
  7.259294e+00    2.998767e+00
  7.291045e+00    3.053247e+00
  7.322796e+00    3.007503e+00
  7.354547e+00    3.022758e+00
  7.386298e+00    3.029515e+00
  7.418049e+00    2.929410e+00
  7.449800e+00    3.020957e+00
  7.481552e+00    2.918082e+00
  7.513303e+00    3.001448e+00
  7.545054e+00    2.989884e+00
  7.576805e+00    2.954369e+00
  7.608556e+00    2.955847e+00
  7.640307e+00    2.909611e+00
  7.672058e+00    3.004958e+00
  7.703810e+00    2.991151e+00
  7.735561e+00    2.938262e+00
  7.767312e+00    2.969476e+00
  7.799063e+00    2.981004e+00
  7.830814e+00    2.982126e+00
  7.862565e+00    2.936564e+00
  7.894317e+00    2.925545e+00
  7.926068e+00    2.863158e+00
  7.957819e+00    2.932542e+00
  7.989570e+00    2.870119e+00
  8.021321e+00    2.903710e+00
  8.053072e+00    2.901242e+00
  8.084823e+00    2.973275e+00
  8.116575e+00    3.018621e+00
  8.148326e+00    2.921624e+00
  8.180077e+00    2.938741e+00
  8.211828e+00    2.923575e+00
  8.243579e+00    2.981757e+00
  8.275330e+00    2.880539e+00
  8.307081e+00    2.896922e+00
  8.338833e+00    2.935104e+00
  8.370584e+00    2.852921e+00
  8.402335e+00    2.874126e+00
  8.434086e+00    2.895343e+00
  8.465837e+00    2.861479e+00
  8.497588e+00    2.952073e+00
  8.529339e+00    2.796383e+00
  8.561091e+00    2.792849e+00
  8.592842e+00    2.855768e+00
  8.624593e+00    2.799466e+00
  8.656344e+00    2.797708e+00
  8.688095e+00    2.797722e+00
  8.719846e+00    2.845785e+00
  8.751598e+00    2.858335e+00
  8.783349e+00    2.837881e+00
  8.815100e+00    2.809851e+00
  8.846851e+00    2.768386e+00
  8.878602e+00    2.796209e+00
  8.910353e+00    2.856129e+00
  8.942104e+00    2.850800e+00
  8.973856e+00    2.813736e+00
  9.005607e+00    2.762096e+00
  9.037358e+00    2.793027e+00
  9.069109e+00    2.749394e+00
  9.100860e+00    2.812020e+00
  9.132611e+00    2.763895e+00
  9.164362e+00    2.790683e+00
  9.196114e+00    2.734837e+00
  9.227865e+00    2.779293e+00
  9.259616e+00    2.660098e+00
  9.291367e+00    2.749471e+00
  9.323118e+00    2.788559e+00
  9.354869e+00    2.759025e+00
  9.386620e+00    2.751742e+00
  9.418372e+00    2.741514e+00
  9.450123e+00    2.779802e+00
  9.481874e+00    2.807185e+00
  9.513625e+00    2.768599e+00
  9.545376e+00    2.794337e+00
  9.577127e+00    2.717545e+00
  9.608878e+00    2.753357e+00
  9.640630e+00    2.684627e+00
  9.672381e+00    2.740622e+00
  9.704132e+00    2.729968e+00
  9.735883e+00    2.746953e+00
  9.767634e+00    2.701800e+00
  9.799385e+00    2.695201e+00
  9.831137e+00    2.708442e+00
  9.862888e+00    2.696201e+00
  9.894639e+00    2.719955e+00
  9.926390e+00    2.657662e+00
  9.958141e+00    2.685705e+00
  9.989892e+00    2.641225e+00
  1.002164e+01    2.640821e+00
  1.005339e+01    2.688451e+00
  1.008515e+01    2.679806e+00
  1.011690e+01    2.624367e+00
  1.014865e+01    2.625103e+00
  1.018040e+01    2.633644e+00
  1.021215e+01    2.636029e+00
  1.024390e+01    2.635637e+00
  1.027565e+01    2.598584e+00
  1.030740e+01    2.617403e+00
  1.033915e+01    2.650459e+00
  1.037091e+01    2.570597e+00
  1.040266e+01    2.661734e+00
  1.043441e+01    2.638433e+00
  1.046616e+01    2.600112e+00
  1.049791e+01    2.615612e+00
  1.052966e+01    2.555629e+00
  1.056141e+01    2.612204e+00
  1.059316e+01    2.553792e+00
  1.062492e+01    2.601261e+00
  1.065667e+01    2.576878e+00
  1.068842e+01    2.484814e+00
  1.072017e+01    2.528835e+00
  1.075192e+01    2.525204e+00
  1.078367e+01    2.540338e+00
  1.081542e+01    2.546235e+00
  1.084717e+01    2.543115e+00
  1.087892e+01    2.554658e+00
  1.091068e+01    2.510670e+00
  1.094243e+01    2.439484e+00
  1.097418e+01    2.514144e+00
  1.100593e+01    2.501874e+00
  1.103768e+01    2.513931e+00
  1.106943e+01    2.475346e+00
  1.110118e+01    2.506870e+00
  1.113293e+01    2.481223e+00
  1.116468e+01    2.444818e+00
  1.119644e+01    2.436769e+00
  1.122819e+01    2.496299e+00
  1.125994e+01    2.410211e+00
  1.129169e+01    2.434036e+00
  1.132344e+01    2.446857e+00
  1.135519e+01    2.413993e+00
  1.138694e+01    2.395705e+00
  1.141869e+01    2.431971e+00
  1.145045e+01    2.380586e+00
  1.148220e+01    2.431566e+00
  1.151395e+01    2.384627e+00
  1.154570e+01    2.388952e+00
  1.157745e+01    2.421122e+00
  1.160920e+01    2.322444e+00
  1.164095e+01    2.352304e+00
  1.167270e+01    2.362854e+00
  1.170445e+01    2.365597e+00
  1.173621e+01    2.324535e+00
  1.176796e+01    2.405007e+00
  1.179971e+01    2.364794e+00
  1.183146e+01    2.346376e+00
  1.186321e+01    2.329419e+00
  1.189496e+01    2.349652e+00
  1.192671e+01    2.333763e+00
  1.195846e+01    2.358134e+00
  1.199021e+01    2.329583e+00
  1.202197e+01    2.327764e+00
  1.205372e+01    2.329472e+00
  1.208547e+01    2.332131e+00
  1.211722e+01    2.280426e+00
  1.214897e+01    2.317455e+00
  1.218072e+01    2.316729e+00
  1.221247e+01    2.340432e+00
  1.224422e+01    2.304987e+00
  1.227597e+01    2.291472e+00
  1.230773e+01    2.328250e+00
  1.233948e+01    2.352952e+00
  1.237123e+01    2.333814e+00
  1.240298e+01    2.320230e+00
  1.243473e+01    2.287986e+00
  1.246648e+01    2.292335e+00
  1.249823e+01    2.344918e+00
  1.252998e+01    2.372134e+00
  1.256174e+01    2.305461e+00
  1.259349e+01    2.362045e+00
  1.262524e+01    2.403324e+00
  1.265699e+01    2.432937e+00
  1.268874e+01    2.468994e+00
  1.272049e+01    2.491259e+00
  1.275224e+01    2.511392e+00
  1.278399e+01    2.595223e+00
  1.281574e+01    2.730991e+00
  1.284750e+01    2.834656e+00
  1.287925e+01    3.019401e+00
  1.291100e+01    3.296499e+00
  1.294275e+01    3.668370e+00
  1.297450e+01    4.384552e+00
  1.300625e+01    5.433725e+00
  1.303800e+01    7.072912e+00
  1.306975e+01    9.580933e+00
  1.310150e+01    1.203112e+01
  1.313326e+01    1.431928e+01
  1.316501e+01    1.626917e+01
  1.319676e+01    1.644768e+01
  1.322851e+01    1.341019e+01
  1.326026e+01    9.601053e+00
  1.329201e+01    6.877635e+00
  1.332376e+01    5.245337e+00
  1.335551e+01    4.241436e+00
  1.338727e+01    3.659077e+00
  1.341902e+01    3.181135e+00
  1.345077e+01    2.958482e+00
  1.348252e+01    2.723546e+00
  1.351427e+01    2.616422e+00
  1.354602e+01    2.509563e+00
  1.357777e+01    2.447352e+00
  1.360952e+01    2.340742e+00
  1.364127e+01    2.340737e+00
  1.367303e+01    2.236348e+00
  1.370478e+01    2.220232e+00
  1.373653e+01    2.218644e+00
  1.376828e+01    2.120672e+00
  1.380003e+01    2.121639e+00
  1.383178e+01    2.095719e+00
  1.386353e+01    2.101037e+00
  1.389528e+01    2.137811e+00
  1.392703e+01    2.111850e+00
  1.395879e+01    2.055657e+00
  1.399054e+01    2.024405e+00
  1.402229e+01    2.059139e+00
  1.405404e+01    2.041749e+00
  1.408579e+01    2.019910e+00
  1.411754e+01    2.002903e+00
  1.414929e+01    2.058265e+00
  1.418104e+01    1.984314e+00
  1.421279e+01    1.947652e+00
  1.424455e+01    2.005952e+00
  1.427630e+01    1.949488e+00
  1.430805e+01    1.939618e+00
  1.433980e+01    1.946401e+00
  1.437155e+01    1.939193e+00
  1.440330e+01    1.928202e+00
  1.443505e+01    1.934884e+00
  1.446680e+01    1.950243e+00
  1.449856e+01    1.944900e+00
  1.453031e+01    1.915701e+00
  1.456206e+01    1.896944e+00
  1.459381e+01    1.894997e+00
  1.462556e+01    1.920845e+00
  1.465731e+01    1.879009e+00
  1.468906e+01    1.916250e+00
  1.472081e+01    1.902076e+00
  1.475256e+01    1.896028e+00
  1.478432e+01    1.910774e+00
  1.481607e+01    1.926092e+00
  1.484782e+01    1.889468e+00
  1.487957e+01    1.945674e+00
  1.491132e+01    1.958842e+00
  1.494307e+01    2.004920e+00
  1.497482e+01    2.090824e+00
  1.500657e+01    2.141772e+00
  1.503832e+01    2.242827e+00
  1.507008e+01    2.531729e+00
  1.510183e+01    2.865433e+00
  1.513358e+01    3.426533e+00
  1.516533e+01    4.127049e+00
  1.519708e+01    4.863504e+00
  1.522883e+01    5.363162e+00
  1.526058e+01    5.744200e+00
  1.529233e+01    5.579737e+00
  1.532409e+01    4.730142e+00
  1.535584e+01    3.804327e+00
  1.538759e+01    2.987816e+00
  1.541934e+01    2.614701e+00
  1.545109e+01    2.287632e+00
  1.548284e+01    2.112338e+00
  1.551459e+01    2.015117e+00
  1.554634e+01    1.936287e+00
  1.557809e+01    1.860080e+00
  1.560985e+01    1.777114e+00
  1.564160e+01    1.752897e+00
  1.567335e+01    1.763597e+00
  1.570510e+01    1.725988e+00
  1.573685e+01    1.683175e+00
  1.576860e+01    1.672261e+00
  1.580035e+01    1.628306e+00
  1.583210e+01    1.682259e+00
  1.586385e+01    1.679122e+00
  1.589561e+01    1.640667e+00
  1.592736e+01    1.631809e+00
  1.595911e+01    1.599697e+00
  1.599086e+01    1.592834e+00
  1.602261e+01    1.606756e+00
  1.605436e+01    1.623209e+00
  1.608611e+01    1.618505e+00
  1.611786e+01    1.584267e+00
  1.614961e+01    1.568638e+00
  1.618137e+01    1.580471e+00
  1.621312e+01    1.551083e+00
  1.624487e+01    1.514447e+00
  1.627662e+01    1.542009e+00
  1.630837e+01    1.533613e+00
  1.634012e+01    1.535077e+00
  1.637187e+01    1.546663e+00
  1.640362e+01    1.549531e+00
  1.643538e+01    1.518308e+00
  1.646713e+01    1.512663e+00
  1.649888e+01    1.520145e+00
  1.653063e+01    1.480839e+00
  1.656238e+01    1.520385e+00
  1.659413e+01    1.496179e+00
  1.662588e+01    1.491047e+00
  1.665763e+01    1.490600e+00
  1.668938e+01    1.444759e+00
  1.672114e+01    1.469154e+00
  1.675289e+01    1.501889e+00
  1.678464e+01    1.461430e+00
  1.681639e+01    1.491029e+00
  1.684814e+01    1.475952e+00
  1.687989e+01    1.453671e+00
  1.691164e+01    1.447205e+00
  1.694339e+01    1.413764e+00
  1.697514e+01    1.418609e+00
  1.700690e+01    1.437172e+00
  1.703865e+01    1.412703e+00
  1.707040e+01    1.447983e+00
  1.710215e+01    1.420777e+00
  1.713390e+01    1.431867e+00
  1.716565e+01    1.406163e+00
  1.719740e+01    1.419708e+00
  1.722915e+01    1.420082e+00
  1.726091e+01    1.374983e+00
  1.729266e+01    1.411009e+00
  1.732441e+01    1.406256e+00
  1.735616e+01    1.382524e+00
  1.738791e+01    1.360879e+00
  1.741966e+01    1.385249e+00
  1.745141e+01    1.369828e+00
  1.748316e+01    1.394636e+00
  1.751491e+01    1.357521e+00
  1.754667e+01    1.351170e+00
  1.757842e+01    1.349009e+00
  1.761017e+01    1.376142e+00
  1.764192e+01    1.333090e+00
  1.767367e+01    1.335463e+00
  1.770542e+01    1.358850e+00
  1.773717e+01    1.324677e+00
  1.776892e+01    1.341331e+00
  1.780067e+01    1.322587e+00
  1.783243e+01    1.334079e+00
  1.786418e+01    1.314259e+00
  1.789593e+01    1.314702e+00
  1.792768e+01    1.313627e+00
  1.795943e+01    1.318495e+00
  1.799118e+01    1.279619e+00
  1.802293e+01    1.316059e+00
  1.805468e+01    1.293849e+00
  1.808643e+01    1.291261e+00
  1.811819e+01    1.298926e+00
  1.814994e+01    1.301430e+00
  1.818169e+01    1.290647e+00
  1.821344e+01    1.277640e+00
  1.824519e+01    1.311418e+00
  1.827694e+01    1.274465e+00
  1.830869e+01    1.260722e+00
  1.834044e+01    1.247829e+00
  1.837220e+01    1.255634e+00
  1.840395e+01    1.254016e+00
  1.843570e+01    1.241361e+00
  1.846745e+01    1.273677e+00
  1.849920e+01    1.264624e+00
  1.853095e+01    1.229305e+00
  1.856270e+01    1.256121e+00
  1.859445e+01    1.241344e+00
  1.862620e+01    1.229230e+00
  1.865796e+01    1.228725e+00
  1.868971e+01    1.221595e+00
  1.872146e+01    1.204280e+00
  1.875321e+01    1.211878e+00
  1.878496e+01    1.199481e+00
  1.881671e+01    1.191078e+00
  1.884846e+01    1.212062e+00
  1.888021e+01    1.228835e+00
  1.891196e+01    1.238788e+00
  1.894372e+01    1.182178e+00
  1.897547e+01    1.211645e+00
  1.900722e+01    1.212051e+00
  1.903897e+01    1.183382e+00
  1.907072e+01    1.175606e+00
  1.910247e+01    1.217435e+00
  1.913422e+01    1.185910e+00
  1.916597e+01    1.198941e+00
  1.919773e+01    1.169571e+00
  1.922948e+01    1.171363e+00
  1.926123e+01    1.181678e+00
  1.929298e+01    1.155366e+00
  1.932473e+01    1.163638e+00
  1.935648e+01    1.180874e+00
  1.938823e+01    1.153663e+00
  1.941998e+01    1.176188e+00
  1.945173e+01    1.158662e+00
  1.948349e+01    1.162144e+00
  1.951524e+01    1.151425e+00
  1.954699e+01    1.164619e+00
  1.957874e+01    1.148588e+00
  1.961049e+01    1.141078e+00
  1.964224e+01    1.168040e+00
  1.967399e+01    1.141927e+00
  1.970574e+01    1.153737e+00
  1.973749e+01    1.141621e+00
  1.976925e+01    1.121553e+00
  1.980100e+01    1.144196e+00
  1.983275e+01    1.107458e+00
  1.986450e+01    1.108954e+00
  1.989625e+01    1.125319e+00
  1.992800e+01    1.123841e+00
  1.995975e+01    1.138323e+00
  1.999150e+01    1.095059e+00
  2.002325e+01    1.109707e+00
  2.005501e+01    1.096839e+00
  2.008676e+01    1.121006e+00
  2.011851e+01    1.093965e+00
  2.015026e+01    1.134477e+00
  2.018201e+01    1.108577e+00
  2.021376e+01    1.090314e+00
  2.024551e+01    1.097128e+00
  2.027726e+01    1.107224e+00
  2.030902e+01    1.107835e+00
  2.034077e+01    1.093424e+00
  2.037252e+01    1.090105e+00
  2.040427e+01    1.092883e+00
  2.043602e+01    1.094732e+00
  2.046777e+01    1.065988e+00
  2.049952e+01    1.067980e+00
  2.053127e+01    1.075774e+00
  2.056302e+01    1.071055e+00
  2.059478e+01    1.094660e+00
  2.062653e+01    1.089058e+00
  2.065828e+01    1.082076e+00
  2.069003e+01    1.082382e+00
  2.072178e+01    1.081578e+00
  2.075353e+01    1.057343e+00
  2.078528e+01    1.068802e+00
  2.081703e+01    1.081904e+00
  2.084878e+01    1.073555e+00
  2.088054e+01    1.055281e+00
  2.091229e+01    1.073193e+00
  2.094404e+01    1.071012e+00
  2.097579e+01    1.093155e+00
  2.100754e+01    1.083683e+00
  2.103929e+01    1.068766e+00
  2.107104e+01    1.062379e+00
  2.110279e+01    1.054609e+00
  2.113455e+01    1.083136e+00
  2.116630e+01    1.104498e+00
  2.119805e+01    1.115601e+00
  2.122980e+01    1.104816e+00
  2.126155e+01    1.097615e+00
  2.129330e+01    1.143540e+00
  2.132505e+01    1.123523e+00
  2.135680e+01    1.128700e+00
  2.138855e+01    1.143294e+00
  2.142031e+01    1.185250e+00
  2.145206e+01    1.202131e+00
  2.148381e+01    1.259982e+00
  2.151556e+01    1.291830e+00
  2.154731e+01    1.400420e+00
  2.157906e+01    1.462046e+00
  2.161081e+01    1.623039e+00
  2.164256e+01    1.780966e+00
  2.167431e+01    2.102880e+00
  2.170607e+01    2.537640e+00
  2.173782e+01    3.212266e+00
  2.176957e+01    4.236106e+00
  2.180132e+01    5.469254e+00
  2.183307e+01    6.890511e+00
  2.186482e+01    8.263024e+00
  2.189657e+01    9.134529e+00
  2.192832e+01    8.819684e+00
  2.196007e+01    7.053290e+00
  2.199183e+01    5.222950e+00
  2.202358e+01    3.766703e+00
  2.205533e+01    2.873392e+00
  2.208708e+01    2.278413e+00
  2.211883e+01    1.924680e+00
  2.215058e+01    1.670425e+00
  2.218233e+01    1.514588e+00
  2.221408e+01    1.396437e+00
  2.224584e+01    1.291625e+00
  2.227759e+01    1.221145e+00
  2.230934e+01    1.173056e+00
  2.234109e+01    1.142421e+00
  2.237284e+01    1.107145e+00
  2.240459e+01    1.066816e+00
  2.243634e+01    1.044717e+00
  2.246809e+01    1.040584e+00
  2.249984e+01    1.007792e+00
  2.253160e+01    9.874912e-01
  2.256335e+01    9.956115e-01
  2.259510e+01    9.739799e-01
  2.262685e+01    9.608303e-01
  2.265860e+01    9.610114e-01
  2.269035e+01    9.345039e-01
  2.272210e+01    9.585211e-01
  2.275385e+01    9.307345e-01
  2.278560e+01    9.287189e-01
  2.281736e+01    9.191540e-01
  2.284911e+01    8.995371e-01
  2.288086e+01    9.197233e-01
  2.291261e+01    9.165680e-01
  2.294436e+01    8.876517e-01
  2.297611e+01    8.994858e-01
  2.300786e+01    9.037058e-01
  2.303961e+01    8.782052e-01
  2.307137e+01    8.810997e-01
  2.310312e+01    8.979842e-01
  2.313487e+01    8.801851e-01
  2.316662e+01    8.751219e-01
  2.319837e+01    8.751427e-01
  2.323012e+01    8.560051e-01
  2.326187e+01    8.629643e-01
  2.329362e+01    8.646129e-01
  2.332537e+01    8.785811e-01
  2.335713e+01    8.613621e-01
  2.338888e+01    8.456745e-01
  2.342063e+01    8.588861e-01
  2.345238e+01    8.565989e-01
  2.348413e+01    8.400677e-01
  2.351588e+01    8.657669e-01
  2.354763e+01    8.300781e-01
  2.357938e+01    8.207112e-01
  2.361113e+01    8.431622e-01
  2.364289e+01    8.526011e-01
  2.367464e+01    8.263736e-01
  2.370639e+01    8.261797e-01
  2.373814e+01    8.368468e-01
  2.376989e+01    8.195122e-01
  2.380164e+01    8.001780e-01
  2.383339e+01    8.056025e-01
  2.386514e+01    8.000921e-01
  2.389689e+01    7.974306e-01
  2.392865e+01    7.818897e-01
  2.396040e+01    8.011584e-01
  2.399215e+01    7.974600e-01
  2.402390e+01    7.798344e-01
  2.405565e+01    7.902600e-01
  2.408740e+01    7.676569e-01
  2.411915e+01    7.928407e-01
  2.415090e+01    7.893099e-01
  2.418266e+01    7.922780e-01
  2.421441e+01    7.655614e-01
  2.424616e+01    7.687346e-01
  2.427791e+01    7.672110e-01
  2.430966e+01    7.652720e-01
  2.434141e+01    7.919646e-01
  2.437316e+01    7.846889e-01
  2.440491e+01    7.848359e-01
  2.443666e+01    7.660090e-01
  2.446842e+01    7.994150e-01
  2.450017e+01    7.795001e-01
  2.453192e+01    7.832633e-01
  2.456367e+01    7.801009e-01
  2.459542e+01    8.010648e-01
  2.462717e+01    7.819314e-01
  2.465892e+01    7.775499e-01
  2.469067e+01    7.716547e-01
  2.472242e+01    7.731201e-01
  2.475418e+01    8.162385e-01
  2.478593e+01    7.692598e-01
  2.481768e+01    7.856755e-01
  2.484943e+01    8.115745e-01
  2.488118e+01    7.761667e-01
  2.491293e+01    8.029693e-01
  2.494468e+01    7.966733e-01
  2.497643e+01    7.909600e-01
  2.500819e+01    7.939222e-01
  2.503994e+01    7.918575e-01
  2.507169e+01    7.930712e-01
  2.510344e+01    8.199142e-01
  2.513519e+01    7.988897e-01
  2.516694e+01    8.184155e-01
  2.519869e+01    8.228485e-01
  2.523044e+01    8.257844e-01
  2.526219e+01    8.430822e-01
  2.529395e+01    8.645494e-01
  2.532570e+01    8.716716e-01
  2.535745e+01    8.592357e-01
  2.538920e+01    8.889632e-01
  2.542095e+01    8.948473e-01
  2.545270e+01    8.942707e-01
  2.548445e+01    9.431407e-01
  2.551620e+01    9.912216e-01
  2.554795e+01    1.000930e+00
  2.557971e+01    1.058912e+00
  2.561146e+01    1.130194e+00
  2.564321e+01    1.207055e+00
  2.567496e+01    1.334857e+00
  2.570671e+01    1.492122e+00
  2.573846e+01    1.722551e+00
  2.577021e+01    2.037616e+00
  2.580196e+01    2.629683e+00
  2.583371e+01    3.336008e+00
  2.586547e+01    4.366230e+00
  2.589722e+01    5.565570e+00
  2.592897e+01    6.779832e+00
  2.596072e+01    7.497642e+00
  2.599247e+01    7.219511e+00
  2.602422e+01    5.930676e+00
  2.605597e+01    4.419161e+00
  2.608772e+01    3.277646e+00
  2.611948e+01    2.480608e+00
  2.615123e+01    1.996038e+00
  2.618298e+01    1.682239e+00
  2.621473e+01    1.466837e+00
  2.624648e+01    1.272443e+00
  2.627823e+01    1.193353e+00
  2.630998e+01    1.134867e+00
  2.634173e+01    1.065079e+00
  2.637348e+01    9.887482e-01
  2.640524e+01    9.634355e-01
  2.643699e+01    9.522772e-01
  2.646874e+01    9.470425e-01
  2.650049e+01    9.231719e-01
  2.653224e+01    9.186845e-01
  2.656399e+01    8.912504e-01
  2.659574e+01    8.850697e-01
  2.662749e+01    8.909825e-01
  2.665924e+01    8.796202e-01
  2.669100e+01    8.839642e-01
  2.672275e+01    9.009653e-01
  2.675450e+01    8.861337e-01
  2.678625e+01    8.753917e-01
  2.681800e+01    8.714916e-01
  2.684975e+01    9.194895e-01
  2.688150e+01    8.991857e-01
  2.691325e+01    9.120104e-01
  2.694501e+01    9.268320e-01
  2.697676e+01    9.466855e-01
  2.700851e+01    1.036557e+00
  2.704026e+01    1.088140e+00
  2.707201e+01    1.184522e+00
  2.710376e+01    1.372632e+00
  2.713551e+01    1.586154e+00
  2.716726e+01    1.870851e+00
  2.719901e+01    2.167764e+00
  2.723077e+01    2.219337e+00
  2.726252e+01    2.071665e+00
  2.729427e+01    1.779577e+00
  2.732602e+01    1.505932e+00
  2.735777e+01    1.280652e+00
  2.738952e+01    1.145088e+00
  2.742127e+01    1.042968e+00
  2.745302e+01    9.780488e-01
  2.748477e+01    9.255297e-01
  2.751653e+01    8.838159e-01
  2.754828e+01    8.839786e-01
  2.758003e+01    8.668498e-01
  2.761178e+01    8.536806e-01
  2.764353e+01    8.150116e-01
  2.767528e+01    8.201394e-01
  2.770703e+01    8.296202e-01
  2.773878e+01    8.003262e-01
  2.777054e+01    8.006116e-01
  2.780229e+01    8.178858e-01
  2.783404e+01    8.074160e-01
  2.786579e+01    7.868458e-01
  2.789754e+01    7.786306e-01
  2.792929e+01    7.956544e-01
  2.796104e+01    8.055458e-01
  2.799279e+01    7.753063e-01
  2.802454e+01    7.824952e-01
  2.805630e+01    7.738565e-01
  2.808805e+01    7.887740e-01
  2.811980e+01    7.806336e-01
  2.815155e+01    7.739805e-01
  2.818330e+01    7.631777e-01
  2.821505e+01    7.722320e-01
  2.824680e+01    7.696972e-01
  2.827855e+01    7.726098e-01
  2.831030e+01    7.804015e-01
  2.834206e+01    7.495078e-01
  2.837381e+01    7.511212e-01
  2.840556e+01    7.515868e-01
  2.843731e+01    7.626622e-01
  2.846906e+01    7.469894e-01
  2.850081e+01    7.474924e-01
  2.853256e+01    7.529936e-01
  2.856431e+01    7.279677e-01
  2.859606e+01    7.486370e-01
  2.862782e+01    7.281204e-01
  2.865957e+01    7.493944e-01
  2.869132e+01    7.254924e-01
  2.872307e+01    7.493513e-01
  2.875482e+01    7.684706e-01
  2.878657e+01    7.555970e-01
  2.881832e+01    7.305742e-01
  2.885007e+01    7.405937e-01
  2.888183e+01    7.447262e-01
  2.891358e+01    7.246957e-01
  2.894533e+01    7.266291e-01
  2.897708e+01    7.379654e-01
  2.900883e+01    7.405549e-01
  2.904058e+01    7.263065e-01
  2.907233e+01    7.334991e-01
  2.910408e+01    7.183971e-01
  2.913583e+01    7.323254e-01
  2.916759e+01    7.559745e-01
  2.919934e+01    7.352754e-01
  2.923109e+01    7.360355e-01
  2.926284e+01    7.230495e-01
  2.929459e+01    7.300192e-01
  2.932634e+01    7.233573e-01
  2.935809e+01    7.325456e-01
  2.938984e+01    7.259338e-01
  2.942159e+01    7.230722e-01
  2.945335e+01    7.233992e-01
  2.948510e+01    7.025955e-01
  2.951685e+01    7.320811e-01
  2.954860e+01    7.263317e-01
  2.958035e+01    7.213293e-01
  2.961210e+01    7.060237e-01
  2.964385e+01    7.125254e-01
  2.967560e+01    7.281970e-01
  2.970736e+01    7.122575e-01
  2.973911e+01    7.236596e-01
  2.977086e+01    7.115173e-01
  2.980261e+01    7.191203e-01
  2.983436e+01    7.021675e-01
  2.986611e+01    7.175924e-01
  2.989786e+01    7.048791e-01
  2.992961e+01    7.158359e-01
  2.996136e+01    7.196046e-01
  2.999312e+01    7.431846e-01
  3.002487e+01    7.227246e-01
  3.005662e+01    7.257616e-01
  3.008837e+01    7.263192e-01
  3.012012e+01    7.232125e-01
  3.015187e+01    7.071865e-01
  3.018362e+01    7.021623e-01
  3.021537e+01    6.962118e-01
  3.024712e+01    7.115032e-01
  3.027888e+01    7.105531e-01
  3.031063e+01    7.004920e-01
  3.034238e+01    7.052360e-01
  3.037413e+01    7.130106e-01
  3.040588e+01    7.129638e-01
  3.043763e+01    6.984282e-01
  3.046938e+01    7.052455e-01
  3.050113e+01    7.092150e-01
  3.053288e+01    7.081304e-01
  3.056464e+01    7.177255e-01
  3.059639e+01    7.029941e-01
  3.062814e+01    7.333884e-01
  3.065989e+01    7.264054e-01
  3.069164e+01    7.118664e-01
  3.072339e+01    7.202148e-01
  3.075514e+01    7.181759e-01
  3.078689e+01    7.193381e-01
  3.081865e+01    7.032142e-01
  3.085040e+01    7.107890e-01
  3.088215e+01    6.972558e-01
  3.091390e+01    7.151327e-01
  3.094565e+01    7.044541e-01
  3.097740e+01    7.261706e-01
  3.100915e+01    7.165805e-01
  3.104090e+01    7.326875e-01
  3.107265e+01    7.138786e-01
  3.110441e+01    7.177359e-01
  3.113616e+01    7.200003e-01
  3.116791e+01    7.231231e-01
  3.119966e+01    7.205913e-01
  3.123141e+01    7.050540e-01
  3.126316e+01    7.423730e-01
  3.129491e+01    7.325361e-01
  3.132666e+01    7.420647e-01
  3.135841e+01    7.235371e-01
  3.139017e+01    7.452455e-01
  3.142192e+01    7.333478e-01
  3.145367e+01    7.411373e-01
  3.148542e+01    7.447182e-01
  3.151717e+01    7.560840e-01
  3.154892e+01    7.674702e-01
  3.158067e+01    8.157875e-01
  3.161242e+01    8.488035e-01
  3.164418e+01    8.581741e-01
  3.167593e+01    8.844951e-01
  3.170768e+01    9.524903e-01
  3.173943e+01    1.019971e+00
  3.177118e+01    1.153172e+00
  3.180293e+01    1.350606e+00
  3.183468e+01    1.618720e+00
  3.186643e+01    1.945892e+00
  3.189818e+01    2.156967e+00
  3.192994e+01    2.201781e+00
  3.196169e+01    1.979157e+00
  3.199344e+01    1.707623e+00
  3.202519e+01    1.387052e+00
  3.205694e+01    1.151574e+00
  3.208869e+01    1.041763e+00
  3.212044e+01    9.137873e-01
  3.215219e+01    9.153846e-01
  3.218394e+01    8.521553e-01
  3.221570e+01    8.174670e-01
  3.224745e+01    7.785373e-01
  3.227920e+01    7.819647e-01
  3.231095e+01    7.658685e-01
  3.234270e+01    7.317690e-01
  3.237445e+01    7.205060e-01
  3.240620e+01    6.920045e-01
  3.243795e+01    7.306523e-01
  3.246970e+01    7.360962e-01
  3.250146e+01    7.141633e-01
  3.253321e+01    7.271436e-01
  3.254908e+01    7.344613e-01