File: XRD/Activation ramp/2024-07-27_002_Ru-CGO-ex_Activtation_ramp_000002_data_000062.dat
# == pyFAI calibration ==
# Distance Sample to Detector: 0.4 m
# PONI: 9.750e-02, 1.135e-01 m
# Rotations: -0.000175 0.000000 -0.000000 rad
#
# == Fit2d calibration ==
# Distance Sample-beamCenter: 400.000 mm
# Center: x=1514.000, y=1300.000 pix
# Tilt: 0.010 deg  TiltPlanRot: 0.010 deg
#
# Detector Detector	 Spline= None	 PixelSize= 7.500e-05, 7.500e-05 m
#    Detector has a mask: False
#    Detector has a dark current: False
#    detector has a flat field: False
#
# Wavelength: 6.888e-11 m
# Mask applied: user provided
# Dark current applied: False
# Flat field applied: False
# Polarization factor: 0.99
# Normalization factor: 1.0
# --> /home/myspot/data/2024_07_Rosario/Ru-CGO-ex/2024-07-27_002_Ru-CGO-ex_Activtation_ramp_000002_data_000062.dat
#       q_nm^-1             I
  2.003187e-02    0.000000e+00
  5.178302e-02    7.653000e-02
  8.353417e-02    1.594823e-01
  1.152853e-01    2.774936e-02
  1.470365e-01    9.236421e-02
  1.787876e-01    8.539948e-02
  2.105388e-01    3.743791e-02
  2.422899e-01    3.146925e-02
  2.740411e-01    4.025421e-02
  3.057922e-01    1.810735e-02
  3.375433e-01    5.440507e-02
  3.692945e-01    5.337663e-02
  4.010456e-01    2.090506e-02
  4.327968e-01    5.259787e-02
  4.645479e-01    5.234101e-02
  4.962991e-01    3.342269e-02
  5.280502e-01    6.028706e-02
  5.598014e-01    7.084920e-02
  5.915525e-01    5.606368e-02
  6.233037e-01    3.047014e-02
  6.550548e-01    2.561864e-02
  6.868060e-01    5.496389e-02
  7.185571e-01    3.988691e-02
  7.503083e-01    6.454135e-02
  7.820594e-01    1.437551e-01
  8.138106e-01    2.339881e-01
  8.455617e-01    3.298940e-01
  8.773129e-01    5.089816e-01
  9.090640e-01    5.378363e-01
  9.408152e-01    7.182680e-01
  9.725663e-01    7.938173e-01
  1.004317e+00    9.850206e-01
  1.036069e+00    1.256712e+00
  1.067820e+00    1.308507e+00
  1.099571e+00    1.310894e+00
  1.131322e+00    1.391577e+00
  1.163073e+00    1.511447e+00
  1.194824e+00    1.548820e+00
  1.226575e+00    2.035952e+00
  1.258327e+00    2.350392e+00
  1.290078e+00    2.446271e+00
  1.321829e+00    2.436108e+00
  1.353580e+00    2.591063e+00
  1.385331e+00    2.662623e+00
  1.417082e+00    2.703409e+00
  1.448834e+00    2.772651e+00
  1.480585e+00    2.810366e+00
  1.512336e+00    2.951778e+00
  1.544087e+00    2.974860e+00
  1.575838e+00    3.167179e+00
  1.607589e+00    2.975012e+00
  1.639340e+00    2.942554e+00
  1.671092e+00    2.898270e+00
  1.702843e+00    2.973204e+00
  1.734594e+00    2.760761e+00
  1.766345e+00    2.817769e+00
  1.798096e+00    2.824052e+00
  1.829847e+00    2.829954e+00
  1.861598e+00    2.835163e+00
  1.893350e+00    2.731297e+00
  1.925101e+00    2.783075e+00
  1.956852e+00    2.658288e+00
  1.988603e+00    2.719121e+00
  2.020354e+00    2.897443e+00
  2.052105e+00    2.753584e+00
  2.083856e+00    2.741640e+00
  2.115608e+00    2.749873e+00
  2.147359e+00    2.721780e+00
  2.179110e+00    2.878062e+00
  2.210861e+00    2.685876e+00
  2.242612e+00    2.853134e+00
  2.274363e+00    2.767268e+00
  2.306115e+00    2.761739e+00
  2.337866e+00    2.738493e+00
  2.369617e+00    2.793962e+00
  2.401368e+00    2.723488e+00
  2.433119e+00    2.768778e+00
  2.464870e+00    2.717185e+00
  2.496621e+00    2.809574e+00
  2.528373e+00    2.904372e+00
  2.560124e+00    2.869809e+00
  2.591875e+00    2.839273e+00
  2.623626e+00    2.842410e+00
  2.655377e+00    2.910801e+00
  2.687128e+00    2.934624e+00
  2.718879e+00    2.886744e+00
  2.750631e+00    2.914672e+00
  2.782382e+00    2.799647e+00
  2.814133e+00    2.711951e+00
  2.845884e+00    2.873058e+00
  2.877635e+00    2.843744e+00
  2.909386e+00    2.940457e+00
  2.941137e+00    2.815289e+00
  2.972889e+00    2.833081e+00
  3.004640e+00    2.957131e+00
  3.036391e+00    2.866644e+00
  3.068142e+00    2.969108e+00
  3.099893e+00    2.891422e+00
  3.131644e+00    2.935983e+00
  3.163395e+00    2.980202e+00
  3.195147e+00    2.829751e+00
  3.226898e+00    2.824696e+00
  3.258649e+00    2.948062e+00
  3.290400e+00    2.996963e+00
  3.322151e+00    2.957673e+00
  3.353902e+00    2.884007e+00
  3.385654e+00    2.981269e+00
  3.417405e+00    3.036878e+00
  3.449156e+00    3.005939e+00
  3.480907e+00    3.034015e+00
  3.512658e+00    2.954093e+00
  3.544409e+00    2.942066e+00
  3.576160e+00    2.961303e+00
  3.607912e+00    2.958698e+00
  3.639663e+00    2.922727e+00
  3.671414e+00    3.036040e+00
  3.703165e+00    2.968055e+00
  3.734916e+00    3.001871e+00
  3.766667e+00    2.915876e+00
  3.798418e+00    2.956740e+00
  3.830170e+00    3.001878e+00
  3.861921e+00    2.957670e+00
  3.893672e+00    2.965169e+00
  3.925423e+00    2.978452e+00
  3.957174e+00    2.977476e+00
  3.988925e+00    2.984675e+00
  4.020676e+00    3.069545e+00
  4.052428e+00    3.019611e+00
  4.084179e+00    3.063993e+00
  4.115930e+00    3.018970e+00
  4.147681e+00    3.013198e+00
  4.179432e+00    2.962116e+00
  4.211183e+00    2.941334e+00
  4.242935e+00    3.050551e+00
  4.274686e+00    3.128549e+00
  4.306437e+00    2.986838e+00
  4.338188e+00    3.089942e+00
  4.369939e+00    3.099255e+00
  4.401690e+00    3.079716e+00
  4.433441e+00    3.071219e+00
  4.465193e+00    3.022770e+00
  4.496944e+00    3.061269e+00
  4.528695e+00    3.045930e+00
  4.560446e+00    3.160591e+00
  4.592197e+00    3.067621e+00
  4.623948e+00    3.098755e+00
  4.655699e+00    3.043610e+00
  4.687451e+00    3.193819e+00
  4.719202e+00    3.089120e+00
  4.750953e+00    3.128544e+00
  4.782704e+00    3.085516e+00
  4.814455e+00    3.128367e+00
  4.846206e+00    3.140763e+00
  4.877957e+00    3.079584e+00
  4.909709e+00    3.049299e+00
  4.941460e+00    3.129670e+00
  4.973211e+00    3.205739e+00
  5.004962e+00    3.109253e+00
  5.036713e+00    3.075145e+00
  5.068464e+00    3.132167e+00
  5.100216e+00    3.179935e+00
  5.131967e+00    3.095721e+00
  5.163718e+00    3.115077e+00
  5.195469e+00    3.201830e+00
  5.227220e+00    3.147476e+00
  5.258971e+00    3.241221e+00
  5.290722e+00    3.172393e+00
  5.322474e+00    3.190125e+00
  5.354225e+00    3.097839e+00
  5.385976e+00    3.184974e+00
  5.417727e+00    3.103150e+00
  5.449478e+00    3.123904e+00
  5.481229e+00    3.002086e+00
  5.512980e+00    3.085430e+00
  5.544732e+00    3.014019e+00
  5.576483e+00    3.020579e+00
  5.608234e+00    3.162978e+00
  5.639985e+00    3.084646e+00
  5.671736e+00    3.112698e+00
  5.703487e+00    3.026358e+00
  5.735238e+00    2.985667e+00
  5.766990e+00    2.995949e+00
  5.798741e+00    3.031388e+00
  5.830492e+00    3.037141e+00
  5.862243e+00    3.040692e+00
  5.893994e+00    3.001224e+00
  5.925745e+00    2.957127e+00
  5.957497e+00    3.013637e+00
  5.989248e+00    3.013375e+00
  6.020999e+00    3.008388e+00
  6.052750e+00    3.104891e+00
  6.084501e+00    3.074551e+00
  6.116252e+00    3.013139e+00
  6.148003e+00    3.123060e+00
  6.179755e+00    2.995290e+00
  6.211506e+00    3.081006e+00
  6.243257e+00    3.085609e+00
  6.275008e+00    2.999225e+00
  6.306759e+00    3.062032e+00
  6.338510e+00    3.122773e+00
  6.370261e+00    3.056427e+00
  6.402013e+00    3.018471e+00
  6.433764e+00    3.013165e+00
  6.465515e+00    2.994268e+00
  6.497266e+00    3.090446e+00
  6.529017e+00    2.990585e+00
  6.560768e+00    3.110255e+00
  6.592519e+00    3.060014e+00
  6.624271e+00    3.020248e+00
  6.656022e+00    3.032961e+00
  6.687773e+00    2.973589e+00
  6.719524e+00    3.053855e+00
  6.751275e+00    3.034725e+00
  6.783026e+00    3.036135e+00
  6.814777e+00    3.031815e+00
  6.846529e+00    3.079197e+00
  6.878280e+00    3.020848e+00
  6.910031e+00    2.981445e+00
  6.941782e+00    3.041147e+00
  6.973533e+00    3.042126e+00
  7.005284e+00    3.021670e+00
  7.037036e+00    3.010189e+00
  7.068787e+00    2.958783e+00
  7.100538e+00    3.073845e+00
  7.132289e+00    2.992284e+00
  7.164040e+00    3.019025e+00
  7.195791e+00    3.045537e+00
  7.227542e+00    2.953549e+00
  7.259294e+00    2.998505e+00
  7.291045e+00    3.067809e+00
  7.322796e+00    3.022772e+00
  7.354547e+00    2.991355e+00
  7.386298e+00    3.079820e+00
  7.418049e+00    2.947269e+00
  7.449800e+00    2.880583e+00
  7.481552e+00    3.031668e+00
  7.513303e+00    3.015340e+00
  7.545054e+00    2.971861e+00
  7.576805e+00    3.009881e+00
  7.608556e+00    3.014862e+00
  7.640307e+00    2.908427e+00
  7.672058e+00    2.974647e+00
  7.703810e+00    2.919288e+00
  7.735561e+00    2.957915e+00
  7.767312e+00    2.912432e+00
  7.799063e+00    2.979410e+00
  7.830814e+00    2.920598e+00
  7.862565e+00    2.949977e+00
  7.894317e+00    2.949775e+00
  7.926068e+00    2.989264e+00
  7.957819e+00    2.912374e+00
  7.989570e+00    2.913397e+00
  8.021321e+00    2.898013e+00
  8.053072e+00    2.968792e+00
  8.084823e+00    2.950702e+00
  8.116575e+00    2.947235e+00
  8.148326e+00    2.933911e+00
  8.180077e+00    3.003367e+00
  8.211828e+00    2.911016e+00
  8.243579e+00    2.993859e+00
  8.275330e+00    2.891777e+00
  8.307081e+00    2.910182e+00
  8.338833e+00    2.931141e+00
  8.370584e+00    2.835716e+00
  8.402335e+00    2.935669e+00
  8.434086e+00    2.893466e+00
  8.465837e+00    2.871011e+00
  8.497588e+00    2.919503e+00
  8.529339e+00    2.872299e+00
  8.561091e+00    2.848316e+00
  8.592842e+00    2.870971e+00
  8.624593e+00    2.814371e+00
  8.656344e+00    2.858412e+00
  8.688095e+00    2.871255e+00
  8.719846e+00    2.807341e+00
  8.751598e+00    2.882049e+00
  8.783349e+00    2.866476e+00
  8.815100e+00    2.842276e+00
  8.846851e+00    2.846917e+00
  8.878602e+00    2.838606e+00
  8.910353e+00    2.823347e+00
  8.942104e+00    2.849216e+00
  8.973856e+00    2.836511e+00
  9.005607e+00    2.784798e+00
  9.037358e+00    2.832266e+00
  9.069109e+00    2.784196e+00
  9.100860e+00    2.839123e+00
  9.132611e+00    2.786805e+00
  9.164362e+00    2.791410e+00
  9.196114e+00    2.791896e+00
  9.227865e+00    2.765174e+00
  9.259616e+00    2.780567e+00
  9.291367e+00    2.770850e+00
  9.323118e+00    2.719218e+00
  9.354869e+00    2.795997e+00
  9.386620e+00    2.758703e+00
  9.418372e+00    2.759350e+00
  9.450123e+00    2.767379e+00
  9.481874e+00    2.728106e+00
  9.513625e+00    2.779538e+00
  9.545376e+00    2.761899e+00
  9.577127e+00    2.724660e+00
  9.608878e+00    2.733068e+00
  9.640630e+00    2.700920e+00
  9.672381e+00    2.688595e+00
  9.704132e+00    2.744281e+00
  9.735883e+00    2.727248e+00
  9.767634e+00    2.714826e+00
  9.799385e+00    2.734061e+00
  9.831137e+00    2.700283e+00
  9.862888e+00    2.727656e+00
  9.894639e+00    2.684900e+00
  9.926390e+00    2.691075e+00
  9.958141e+00    2.712646e+00
  9.989892e+00    2.648464e+00
  1.002164e+01    2.707823e+00
  1.005339e+01    2.673245e+00
  1.008515e+01    2.649101e+00
  1.011690e+01    2.607045e+00
  1.014865e+01    2.665843e+00
  1.018040e+01    2.627105e+00
  1.021215e+01    2.654647e+00
  1.024390e+01    2.689817e+00
  1.027565e+01    2.640766e+00
  1.030740e+01    2.619681e+00
  1.033915e+01    2.631071e+00
  1.037091e+01    2.637084e+00
  1.040266e+01    2.617008e+00
  1.043441e+01    2.560416e+00
  1.046616e+01    2.616605e+00
  1.049791e+01    2.521176e+00
  1.052966e+01    2.601168e+00
  1.056141e+01    2.564257e+00
  1.059316e+01    2.598595e+00
  1.062492e+01    2.639440e+00
  1.065667e+01    2.555903e+00
  1.068842e+01    2.540495e+00
  1.072017e+01    2.569794e+00
  1.075192e+01    2.516269e+00
  1.078367e+01    2.520203e+00
  1.081542e+01    2.577129e+00
  1.084717e+01    2.560085e+00
  1.087892e+01    2.504013e+00
  1.091068e+01    2.471727e+00
  1.094243e+01    2.473330e+00
  1.097418e+01    2.508655e+00
  1.100593e+01    2.491832e+00
  1.103768e+01    2.499119e+00
  1.106943e+01    2.493368e+00
  1.110118e+01    2.506580e+00
  1.113293e+01    2.473718e+00
  1.116468e+01    2.486616e+00
  1.119644e+01    2.461478e+00
  1.122819e+01    2.427105e+00
  1.125994e+01    2.474463e+00
  1.129169e+01    2.464875e+00
  1.132344e+01    2.414345e+00
  1.135519e+01    2.430955e+00
  1.138694e+01    2.449584e+00
  1.141869e+01    2.427858e+00
  1.145045e+01    2.427304e+00
  1.148220e+01    2.386200e+00
  1.151395e+01    2.442008e+00
  1.154570e+01    2.389621e+00
  1.157745e+01    2.397578e+00
  1.160920e+01    2.375160e+00
  1.164095e+01    2.413882e+00
  1.167270e+01    2.355760e+00
  1.170445e+01    2.374991e+00
  1.173621e+01    2.377677e+00
  1.176796e+01    2.407438e+00
  1.179971e+01    2.372396e+00
  1.183146e+01    2.392215e+00
  1.186321e+01    2.368675e+00
  1.189496e+01    2.352125e+00
  1.192671e+01    2.372522e+00
  1.195846e+01    2.371024e+00
  1.199021e+01    2.291708e+00
  1.202197e+01    2.335323e+00
  1.205372e+01    2.301060e+00
  1.208547e+01    2.331164e+00
  1.211722e+01    2.342992e+00
  1.214897e+01    2.351660e+00
  1.218072e+01    2.327809e+00
  1.221247e+01    2.328579e+00
  1.224422e+01    2.312025e+00
  1.227597e+01    2.296397e+00
  1.230773e+01    2.342504e+00
  1.233948e+01    2.330428e+00
  1.237123e+01    2.297483e+00
  1.240298e+01    2.352078e+00
  1.243473e+01    2.310187e+00
  1.246648e+01    2.346817e+00
  1.249823e+01    2.357065e+00
  1.252998e+01    2.349624e+00
  1.256174e+01    2.400071e+00
  1.259349e+01    2.369811e+00
  1.262524e+01    2.419400e+00
  1.265699e+01    2.408047e+00
  1.268874e+01    2.476397e+00
  1.272049e+01    2.474897e+00
  1.275224e+01    2.531145e+00
  1.278399e+01    2.679498e+00
  1.281574e+01    2.762406e+00
  1.284750e+01    2.845414e+00
  1.287925e+01    3.039326e+00
  1.291100e+01    3.267374e+00
  1.294275e+01    3.770909e+00
  1.297450e+01    4.329901e+00
  1.300625e+01    5.298180e+00
  1.303800e+01    6.834420e+00
  1.306975e+01    9.232574e+00
  1.310150e+01    1.211724e+01
  1.313326e+01    1.496593e+01
  1.316501e+01    1.761731e+01
  1.319676e+01    1.886898e+01
  1.322851e+01    1.677507e+01
  1.326026e+01    1.236488e+01
  1.329201e+01    8.613399e+00
  1.332376e+01    6.393016e+00
  1.335551e+01    4.997454e+00
  1.338727e+01    4.136537e+00
  1.341902e+01    3.557842e+00
  1.345077e+01    3.155954e+00
  1.348252e+01    2.944349e+00
  1.351427e+01    2.744345e+00
  1.354602e+01    2.596433e+00
  1.357777e+01    2.529345e+00
  1.360952e+01    2.423565e+00
  1.364127e+01    2.365587e+00
  1.367303e+01    2.313135e+00
  1.370478e+01    2.282302e+00
  1.373653e+01    2.279408e+00
  1.376828e+01    2.232679e+00
  1.380003e+01    2.143789e+00
  1.383178e+01    2.152455e+00
  1.386353e+01    2.161989e+00
  1.389528e+01    2.146636e+00
  1.392703e+01    2.061368e+00
  1.395879e+01    2.073694e+00
  1.399054e+01    2.091516e+00
  1.402229e+01    2.079846e+00
  1.405404e+01    2.036101e+00
  1.408579e+01    2.077505e+00
  1.411754e+01    2.046039e+00
  1.414929e+01    2.041201e+00
  1.418104e+01    2.038807e+00
  1.421279e+01    2.044606e+00
  1.424455e+01    1.974005e+00
  1.427630e+01    1.957047e+00
  1.430805e+01    1.993612e+00
  1.433980e+01    2.017512e+00
  1.437155e+01    1.967523e+00
  1.440330e+01    1.956989e+00
  1.443505e+01    1.949567e+00
  1.446680e+01    1.951856e+00
  1.449856e+01    1.945249e+00
  1.453031e+01    1.951186e+00
  1.456206e+01    1.942502e+00
  1.459381e+01    1.880484e+00
  1.462556e+01    1.920759e+00
  1.465731e+01    1.926820e+00
  1.468906e+01    1.890405e+00
  1.472081e+01    1.911772e+00
  1.475256e+01    1.951716e+00
  1.478432e+01    1.929910e+00
  1.481607e+01    1.894197e+00
  1.484782e+01    1.961018e+00
  1.487957e+01    1.934155e+00
  1.491132e+01    1.951123e+00
  1.494307e+01    1.985360e+00
  1.497482e+01    2.097476e+00
  1.500657e+01    2.159389e+00
  1.503832e+01    2.303869e+00
  1.507008e+01    2.434629e+00
  1.510183e+01    2.835114e+00
  1.513358e+01    3.306355e+00
  1.516533e+01    4.076099e+00
  1.519708e+01    4.945957e+00
  1.522883e+01    5.624138e+00
  1.526058e+01    6.171337e+00
  1.529233e+01    6.356245e+00
  1.532409e+01    5.692268e+00
  1.535584e+01    4.502257e+00
  1.538759e+01    3.559885e+00
  1.541934e+01    2.911268e+00
  1.545109e+01    2.528264e+00
  1.548284e+01    2.265296e+00
  1.551459e+01    2.106416e+00
  1.554634e+01    2.011134e+00
  1.557809e+01    1.938623e+00
  1.560985e+01    1.881312e+00
  1.564160e+01    1.830455e+00
  1.567335e+01    1.805259e+00
  1.570510e+01    1.761631e+00
  1.573685e+01    1.750944e+00
  1.576860e+01    1.710004e+00
  1.580035e+01    1.710102e+00
  1.583210e+01    1.671304e+00
  1.586385e+01    1.705575e+00
  1.589561e+01    1.645952e+00
  1.592736e+01    1.651845e+00
  1.595911e+01    1.591758e+00
  1.599086e+01    1.639225e+00
  1.602261e+01    1.621367e+00
  1.605436e+01    1.636480e+00
  1.608611e+01    1.618074e+00
  1.611786e+01    1.621212e+00
  1.614961e+01    1.601762e+00
  1.618137e+01    1.605103e+00
  1.621312e+01    1.567142e+00
  1.624487e+01    1.573774e+00
  1.627662e+01    1.552927e+00
  1.630837e+01    1.558346e+00
  1.634012e+01    1.565765e+00
  1.637187e+01    1.509267e+00
  1.640362e+01    1.521548e+00
  1.643538e+01    1.494584e+00
  1.646713e+01    1.507468e+00
  1.649888e+01    1.557073e+00
  1.653063e+01    1.503903e+00
  1.656238e+01    1.518653e+00
  1.659413e+01    1.504727e+00
  1.662588e+01    1.487395e+00
  1.665763e+01    1.505409e+00
  1.668938e+01    1.500244e+00
  1.672114e+01    1.518622e+00
  1.675289e+01    1.491447e+00
  1.678464e+01    1.486832e+00
  1.681639e+01    1.443990e+00
  1.684814e+01    1.463296e+00
  1.687989e+01    1.483956e+00
  1.691164e+01    1.473558e+00
  1.694339e+01    1.452377e+00
  1.697514e+01    1.460007e+00
  1.700690e+01    1.429304e+00
  1.703865e+01    1.418451e+00
  1.707040e+01    1.429819e+00
  1.710215e+01    1.429421e+00
  1.713390e+01    1.422492e+00
  1.716565e+01    1.373506e+00
  1.719740e+01    1.441897e+00
  1.722915e+01    1.421130e+00
  1.726091e+01    1.377586e+00
  1.729266e+01    1.422977e+00
  1.732441e+01    1.387987e+00
  1.735616e+01    1.387147e+00
  1.738791e+01    1.397643e+00
  1.741966e+01    1.397759e+00
  1.745141e+01    1.353850e+00
  1.748316e+01    1.366838e+00
  1.751491e+01    1.345133e+00
  1.754667e+01    1.353535e+00
  1.757842e+01    1.380416e+00
  1.761017e+01    1.382830e+00
  1.764192e+01    1.327339e+00
  1.767367e+01    1.352771e+00
  1.770542e+01    1.376890e+00
  1.773717e+01    1.366183e+00
  1.776892e+01    1.301092e+00
  1.780067e+01    1.321555e+00
  1.783243e+01    1.337026e+00
  1.786418e+01    1.348267e+00
  1.789593e+01    1.319731e+00
  1.792768e+01    1.333766e+00
  1.795943e+01    1.315437e+00
  1.799118e+01    1.325444e+00
  1.802293e+01    1.311256e+00
  1.805468e+01    1.317589e+00
  1.808643e+01    1.292012e+00
  1.811819e+01    1.305726e+00
  1.814994e+01    1.311268e+00
  1.818169e+01    1.286967e+00
  1.821344e+01    1.273770e+00
  1.824519e+01    1.276732e+00
  1.827694e+01    1.290192e+00
  1.830869e+01    1.281014e+00
  1.834044e+01    1.273420e+00
  1.837220e+01    1.276743e+00
  1.840395e+01    1.267431e+00
  1.843570e+01    1.254859e+00
  1.846745e+01    1.271453e+00
  1.849920e+01    1.273389e+00
  1.853095e+01    1.258836e+00
  1.856270e+01    1.246001e+00
  1.859445e+01    1.245748e+00
  1.862620e+01    1.270980e+00
  1.865796e+01    1.238809e+00
  1.868971e+01    1.239437e+00
  1.872146e+01    1.247509e+00
  1.875321e+01    1.223432e+00
  1.878496e+01    1.210686e+00
  1.881671e+01    1.189363e+00
  1.884846e+01    1.234518e+00
  1.888021e+01    1.235491e+00
  1.891196e+01    1.220667e+00
  1.894372e+01    1.203181e+00
  1.897547e+01    1.238263e+00
  1.900722e+01    1.200921e+00
  1.903897e+01    1.203965e+00
  1.907072e+01    1.223380e+00
  1.910247e+01    1.172744e+00
  1.913422e+01    1.178902e+00
  1.916597e+01    1.202647e+00
  1.919773e+01    1.172456e+00
  1.922948e+01    1.192216e+00
  1.926123e+01    1.177733e+00
  1.929298e+01    1.183729e+00
  1.932473e+01    1.216740e+00
  1.935648e+01    1.193901e+00
  1.938823e+01    1.177311e+00
  1.941998e+01    1.159148e+00
  1.945173e+01    1.150120e+00
  1.948349e+01    1.175532e+00
  1.951524e+01    1.161699e+00
  1.954699e+01    1.183252e+00
  1.957874e+01    1.147662e+00
  1.961049e+01    1.184124e+00
  1.964224e+01    1.149897e+00
  1.967399e+01    1.155476e+00
  1.970574e+01    1.153952e+00
  1.973749e+01    1.142403e+00
  1.976925e+01    1.160558e+00
  1.980100e+01    1.135710e+00
  1.983275e+01    1.170374e+00
  1.986450e+01    1.125663e+00
  1.989625e+01    1.134137e+00
  1.992800e+01    1.118850e+00
  1.995975e+01    1.131056e+00
  1.999150e+01    1.115038e+00
  2.002325e+01    1.111793e+00
  2.005501e+01    1.124232e+00
  2.008676e+01    1.105038e+00
  2.011851e+01    1.117903e+00
  2.015026e+01    1.116799e+00
  2.018201e+01    1.096616e+00
  2.021376e+01    1.135191e+00
  2.024551e+01    1.094622e+00
  2.027726e+01    1.141499e+00
  2.030902e+01    1.103425e+00
  2.034077e+01    1.110218e+00
  2.037252e+01    1.112521e+00
  2.040427e+01    1.087017e+00
  2.043602e+01    1.116241e+00
  2.046777e+01    1.115302e+00
  2.049952e+01    1.116224e+00
  2.053127e+01    1.116959e+00
  2.056302e+01    1.060231e+00
  2.059478e+01    1.077795e+00
  2.062653e+01    1.093604e+00
  2.065828e+01    1.087651e+00
  2.069003e+01    1.095953e+00
  2.072178e+01    1.062198e+00
  2.075353e+01    1.077967e+00
  2.078528e+01    1.070834e+00
  2.081703e+01    1.093080e+00
  2.084878e+01    1.085132e+00
  2.088054e+01    1.103947e+00
  2.091229e+01    1.084520e+00
  2.094404e+01    1.091776e+00
  2.097579e+01    1.080639e+00
  2.100754e+01    1.069633e+00
  2.103929e+01    1.052997e+00
  2.107104e+01    1.113735e+00
  2.110279e+01    1.108123e+00
  2.113455e+01    1.097136e+00
  2.116630e+01    1.101165e+00
  2.119805e+01    1.105945e+00
  2.122980e+01    1.100423e+00
  2.126155e+01    1.142272e+00
  2.129330e+01    1.118890e+00
  2.132505e+01    1.123385e+00
  2.135680e+01    1.143117e+00
  2.138855e+01    1.174598e+00
  2.142031e+01    1.170559e+00
  2.145206e+01    1.199150e+00
  2.148381e+01    1.244959e+00
  2.151556e+01    1.276119e+00
  2.154731e+01    1.382123e+00
  2.157906e+01    1.435776e+00
  2.161081e+01    1.576826e+00
  2.164256e+01    1.738693e+00
  2.167431e+01    1.999662e+00
  2.170607e+01    2.356411e+00
  2.173782e+01    3.001316e+00
  2.176957e+01    3.846005e+00
  2.180132e+01    5.073246e+00
  2.183307e+01    6.635054e+00
  2.186482e+01    8.312235e+00
  2.189657e+01    9.805532e+00
  2.192832e+01    1.038840e+01
  2.196007e+01    9.405561e+00
  2.199183e+01    7.171830e+00
  2.202358e+01    5.138585e+00
  2.205533e+01    3.723871e+00
  2.208708e+01    2.867461e+00
  2.211883e+01    2.325627e+00
  2.215058e+01    1.958214e+00
  2.218233e+01    1.717592e+00
  2.221408e+01    1.525059e+00
  2.224584e+01    1.384216e+00
  2.227759e+01    1.309510e+00
  2.230934e+01    1.260637e+00
  2.234109e+01    1.188469e+00
  2.237284e+01    1.155233e+00
  2.240459e+01    1.112856e+00
  2.243634e+01    1.068707e+00
  2.246809e+01    1.074831e+00
  2.249984e+01    1.061115e+00
  2.253160e+01    1.059482e+00
  2.256335e+01    1.015921e+00
  2.259510e+01    1.000176e+00
  2.262685e+01    1.008694e+00
  2.265860e+01    9.853218e-01
  2.269035e+01    9.590427e-01
  2.272210e+01    9.656792e-01
  2.275385e+01    9.682812e-01
  2.278560e+01    9.688063e-01
  2.281736e+01    9.309421e-01
  2.284911e+01    9.412922e-01
  2.288086e+01    9.175625e-01
  2.291261e+01    9.332215e-01
  2.294436e+01    9.400495e-01
  2.297611e+01    9.279658e-01
  2.300786e+01    9.144853e-01
  2.303961e+01    9.062622e-01
  2.307137e+01    8.861083e-01
  2.310312e+01    9.082346e-01
  2.313487e+01    8.921520e-01
  2.316662e+01    8.710052e-01
  2.319837e+01    9.003135e-01
  2.323012e+01    8.976139e-01
  2.326187e+01    8.816336e-01
  2.329362e+01    8.744787e-01
  2.332537e+01    8.703336e-01
  2.335713e+01    8.529353e-01
  2.338888e+01    8.698767e-01
  2.342063e+01    8.337160e-01
  2.345238e+01    8.581207e-01
  2.348413e+01    8.461774e-01
  2.351588e+01    8.633144e-01
  2.354763e+01    8.489570e-01
  2.357938e+01    8.507048e-01
  2.361113e+01    8.594062e-01
  2.364289e+01    8.455207e-01
  2.367464e+01    8.602518e-01
  2.370639e+01    8.180621e-01
  2.373814e+01    8.372012e-01
  2.376989e+01    8.093888e-01
  2.380164e+01    8.151522e-01
  2.383339e+01    8.170892e-01
  2.386514e+01    8.071936e-01
  2.389689e+01    7.980962e-01
  2.392865e+01    8.014817e-01
  2.396040e+01    8.009897e-01
  2.399215e+01    8.185528e-01
  2.402390e+01    7.873730e-01
  2.405565e+01    7.896273e-01
  2.408740e+01    7.793860e-01
  2.411915e+01    7.877373e-01
  2.415090e+01    7.733751e-01
  2.418266e+01    7.738827e-01
  2.421441e+01    7.812861e-01
  2.424616e+01    7.801378e-01
  2.427791e+01    7.942064e-01
  2.430966e+01    8.212430e-01
  2.434141e+01    7.968561e-01
  2.437316e+01    8.054177e-01
  2.440491e+01    7.935565e-01
  2.443666e+01    7.919196e-01
  2.446842e+01    7.936687e-01
  2.450017e+01    7.896003e-01
  2.453192e+01    8.225810e-01
  2.456367e+01    7.817319e-01
  2.459542e+01    8.068743e-01
  2.462717e+01    8.000670e-01
  2.465892e+01    7.926058e-01
  2.469067e+01    8.064699e-01
  2.472242e+01    7.925700e-01
  2.475418e+01    7.983462e-01
  2.478593e+01    7.960956e-01
  2.481768e+01    7.951012e-01
  2.484943e+01    8.135067e-01
  2.488118e+01    8.011712e-01
  2.491293e+01    8.026674e-01
  2.494468e+01    7.902702e-01
  2.497643e+01    8.327163e-01
  2.500819e+01    8.092033e-01
  2.503994e+01    8.305176e-01
  2.507169e+01    8.107451e-01
  2.510344e+01    8.053209e-01
  2.513519e+01    8.351293e-01
  2.516694e+01    8.441852e-01
  2.519869e+01    8.308528e-01
  2.523044e+01    8.503997e-01
  2.526219e+01    8.569567e-01
  2.529395e+01    8.965731e-01
  2.532570e+01    8.934168e-01
  2.535745e+01    8.999245e-01
  2.538920e+01    9.064811e-01
  2.542095e+01    9.042065e-01
  2.545270e+01    9.300569e-01
  2.548445e+01    9.863610e-01
  2.551620e+01    9.866887e-01
  2.554795e+01    1.006218e+00
  2.557971e+01    1.082209e+00
  2.561146e+01    1.117476e+00
  2.564321e+01    1.210762e+00
  2.567496e+01    1.267649e+00
  2.570671e+01    1.422768e+00
  2.573846e+01    1.656300e+00
  2.577021e+01    1.913833e+00
  2.580196e+01    2.324552e+00
  2.583371e+01    2.990164e+00
  2.586547e+01    3.945825e+00
  2.589722e+01    5.181448e+00
  2.592897e+01    6.635967e+00
  2.596072e+01    8.081775e+00
  2.599247e+01    8.681520e+00
  2.602422e+01    7.988236e+00
  2.605597e+01    6.406444e+00
  2.608772e+01    4.682367e+00
  2.611948e+01    3.408648e+00
  2.615123e+01    2.627790e+00
  2.618298e+01    2.104476e+00
  2.621473e+01    1.791088e+00
  2.624648e+01    1.546848e+00
  2.627823e+01    1.361173e+00
  2.630998e+01    1.242905e+00
  2.634173e+01    1.170216e+00
  2.637348e+01    1.095529e+00
  2.640524e+01    1.044488e+00
  2.643699e+01    1.023341e+00
  2.646874e+01    9.937500e-01
  2.650049e+01    9.745525e-01
  2.653224e+01    9.779436e-01
  2.656399e+01    9.463087e-01
  2.659574e+01    9.325118e-01
  2.662749e+01    9.317853e-01
  2.665924e+01    9.264027e-01
  2.669100e+01    9.136310e-01
  2.672275e+01    9.100304e-01
  2.675450e+01    8.998908e-01
  2.678625e+01    9.069715e-01
  2.681800e+01    9.150674e-01
  2.684975e+01    9.067082e-01
  2.688150e+01    9.284866e-01
  2.691325e+01    9.462052e-01
  2.694501e+01    9.534619e-01
  2.697676e+01    9.692818e-01
  2.700851e+01    1.019024e+00
  2.704026e+01    1.079898e+00
  2.707201e+01    1.149762e+00
  2.710376e+01    1.301875e+00
  2.713551e+01    1.515090e+00
  2.716726e+01    1.804994e+00
  2.719901e+01    2.168300e+00
  2.723077e+01    2.402975e+00
  2.726252e+01    2.525286e+00
  2.729427e+01    2.275241e+00
  2.732602e+01    1.930484e+00
  2.735777e+01    1.571436e+00
  2.738952e+01    1.327895e+00
  2.742127e+01    1.166483e+00
  2.745302e+01    1.095426e+00
  2.748477e+01    1.014253e+00
  2.751653e+01    9.751008e-01
  2.754828e+01    9.427350e-01
  2.758003e+01    8.963746e-01
  2.761178e+01    8.716661e-01
  2.764353e+01    8.556313e-01
  2.767528e+01    8.532081e-01
  2.770703e+01    8.398773e-01
  2.773878e+01    8.612735e-01
  2.777054e+01    8.266553e-01
  2.780229e+01    8.288928e-01
  2.783404e+01    8.352569e-01
  2.786579e+01    8.341959e-01
  2.789754e+01    8.320903e-01
  2.792929e+01    7.901298e-01
  2.796104e+01    8.095523e-01
  2.799279e+01    8.017870e-01
  2.802454e+01    7.775499e-01
  2.805630e+01    7.976114e-01
  2.808805e+01    8.062571e-01
  2.811980e+01    7.998895e-01
  2.815155e+01    8.043987e-01
  2.818330e+01    7.954630e-01
  2.821505e+01    7.823234e-01
  2.824680e+01    7.899008e-01
  2.827855e+01    7.702937e-01
  2.831030e+01    7.541102e-01
  2.834206e+01    7.824635e-01
  2.837381e+01    7.582314e-01
  2.840556e+01    8.051736e-01
  2.843731e+01    7.660788e-01
  2.846906e+01    7.731255e-01
  2.850081e+01    7.744036e-01
  2.853256e+01    7.442191e-01
  2.856431e+01    7.470878e-01
  2.859606e+01    7.684562e-01
  2.862782e+01    7.643672e-01
  2.865957e+01    7.569063e-01
  2.869132e+01    7.596448e-01
  2.872307e+01    7.484232e-01
  2.875482e+01    7.447088e-01
  2.878657e+01    7.494197e-01
  2.881832e+01    7.353025e-01
  2.885007e+01    7.486082e-01
  2.888183e+01    7.449362e-01
  2.891358e+01    7.529900e-01
  2.894533e+01    7.408494e-01
  2.897708e+01    7.652269e-01
  2.900883e+01    7.337353e-01
  2.904058e+01    7.425041e-01
  2.907233e+01    7.589623e-01
  2.910408e+01    7.214127e-01
  2.913583e+01    7.237990e-01
  2.916759e+01    7.445044e-01
  2.919934e+01    7.343551e-01
  2.923109e+01    7.350521e-01
  2.926284e+01    7.287247e-01
  2.929459e+01    7.329623e-01
  2.932634e+01    7.284025e-01
  2.935809e+01    7.348229e-01
  2.938984e+01    7.311649e-01
  2.942159e+01    7.539483e-01
  2.945335e+01    7.223821e-01
  2.948510e+01    7.164696e-01
  2.951685e+01    7.117595e-01
  2.954860e+01    7.392809e-01
  2.958035e+01    7.227443e-01
  2.961210e+01    7.397767e-01
  2.964385e+01    7.275805e-01
  2.967560e+01    7.304518e-01
  2.970736e+01    7.236221e-01
  2.973911e+01    7.343498e-01
  2.977086e+01    7.143710e-01
  2.980261e+01    7.295474e-01
  2.983436e+01    7.242742e-01
  2.986611e+01    7.128789e-01
  2.989786e+01    7.354230e-01
  2.992961e+01    7.466265e-01
  2.996136e+01    7.446504e-01
  2.999312e+01    7.755923e-01
  3.002487e+01    7.396206e-01
  3.005662e+01    7.616225e-01
  3.008837e+01    7.230546e-01
  3.012012e+01    7.238849e-01
  3.015187e+01    7.288724e-01
  3.018362e+01    7.126135e-01
  3.021537e+01    7.137364e-01
  3.024712e+01    7.227492e-01
  3.027888e+01    7.050685e-01
  3.031063e+01    7.100201e-01
  3.034238e+01    7.325264e-01
  3.037413e+01    7.465131e-01
  3.040588e+01    7.247316e-01
  3.043763e+01    6.967354e-01
  3.046938e+01    7.427132e-01
  3.050113e+01    7.300923e-01
  3.053288e+01    7.217266e-01
  3.056464e+01    7.218198e-01
  3.059639e+01    7.069020e-01
  3.062814e+01    7.120933e-01
  3.065989e+01    7.042450e-01
  3.069164e+01    7.244540e-01
  3.072339e+01    7.257882e-01
  3.075514e+01    7.168663e-01
  3.078689e+01    7.071966e-01
  3.081865e+01    7.076715e-01
  3.085040e+01    7.176793e-01
  3.088215e+01    7.323433e-01
  3.091390e+01    7.208548e-01
  3.094565e+01    7.258933e-01
  3.097740e+01    7.254811e-01
  3.100915e+01    7.167114e-01
  3.104090e+01    7.183210e-01
  3.107265e+01    7.164905e-01
  3.110441e+01    7.215255e-01
  3.113616e+01    7.239119e-01
  3.116791e+01    7.361311e-01
  3.119966e+01    7.209007e-01
  3.123141e+01    7.315413e-01
  3.126316e+01    7.372987e-01
  3.129491e+01    7.368022e-01
  3.132666e+01    7.296308e-01
  3.135841e+01    7.292677e-01
  3.139017e+01    7.498867e-01
  3.142192e+01    7.510365e-01
  3.145367e+01    7.564584e-01
  3.148542e+01    7.863218e-01
  3.151717e+01    7.836550e-01
  3.154892e+01    7.800842e-01
  3.158067e+01    7.773622e-01
  3.161242e+01    8.065559e-01
  3.164418e+01    8.460830e-01
  3.167593e+01    8.761222e-01
  3.170768e+01    9.261615e-01
  3.173943e+01    9.839693e-01
  3.177118e+01    1.114889e+00
  3.180293e+01    1.248701e+00
  3.183468e+01    1.483851e+00
  3.186643e+01    1.811088e+00
  3.189818e+01    2.148669e+00
  3.192994e+01    2.407790e+00
  3.196169e+01    2.470743e+00
  3.199344e+01    2.243716e+00
  3.202519e+01    1.848815e+00
  3.205694e+01    1.507752e+00
  3.208869e+01    1.270955e+00
  3.212044e+01    1.086499e+00
  3.215219e+01    1.004846e+00
  3.218394e+01    9.163184e-01
  3.221570e+01    8.581330e-01
  3.224745e+01    8.229421e-01
  3.227920e+01    8.273056e-01
  3.231095e+01    8.013059e-01
  3.234270e+01    7.733124e-01
  3.237445e+01    7.625355e-01
  3.240620e+01    7.297102e-01
  3.243795e+01    7.377581e-01
  3.246970e+01    7.458286e-01
  3.250146e+01    7.283784e-01
  3.253321e+01    7.286109e-01
  3.254908e+01    7.382763e-01