File: XRD/Activation ramp/2024-07-27_002_Ru-CGO-ex_Activtation_ramp_000002_data_000144.dat
# == pyFAI calibration ==
# Distance Sample to Detector: 0.4 m
# PONI: 9.750e-02, 1.135e-01 m
# Rotations: -0.000175 0.000000 -0.000000 rad
#
# == Fit2d calibration ==
# Distance Sample-beamCenter: 400.000 mm
# Center: x=1514.000, y=1300.000 pix
# Tilt: 0.010 deg  TiltPlanRot: 0.010 deg
#
# Detector Detector	 Spline= None	 PixelSize= 7.500e-05, 7.500e-05 m
#    Detector has a mask: False
#    Detector has a dark current: False
#    detector has a flat field: False
#
# Wavelength: 6.888e-11 m
# Mask applied: user provided
# Dark current applied: False
# Flat field applied: False
# Polarization factor: 0.99
# Normalization factor: 1.0
# --> /home/myspot/data/2024_07_Rosario/Ru-CGO-ex/2024-07-27_002_Ru-CGO-ex_Activtation_ramp_000002_data_000144.dat
#       q_nm^-1             I
  2.003187e-02    2.227120e-02
  5.178302e-02    1.910478e-02
  8.353417e-02    7.038116e-02
  1.152853e-01    6.042369e-02
  1.470365e-01    2.926806e-02
  1.787876e-01    3.746767e-02
  2.105388e-01    4.669147e-02
  2.422899e-01    2.862192e-02
  2.740411e-01    9.678265e-03
  3.057922e-01    2.660605e-02
  3.375433e-01    1.412453e-02
  3.692945e-01    4.601934e-02
  4.010456e-01    8.264744e-02
  4.327968e-01    4.453358e-02
  4.645479e-01    4.190840e-02
  4.962991e-01    1.741861e-02
  5.280502e-01    3.743634e-02
  5.598014e-01    4.078782e-02
  5.915525e-01    4.164786e-02
  6.233037e-01    2.716084e-02
  6.550548e-01    2.210034e-02
  6.868060e-01    4.662642e-02
  7.185571e-01    4.877463e-02
  7.503083e-01    7.584956e-02
  7.820594e-01    8.029121e-02
  8.138106e-01    2.126424e-01
  8.455617e-01    3.444248e-01
  8.773129e-01    5.311261e-01
  9.090640e-01    5.332336e-01
  9.408152e-01    6.805910e-01
  9.725663e-01    8.728693e-01
  1.004317e+00    1.070513e+00
  1.036069e+00    1.158053e+00
  1.067820e+00    1.347366e+00
  1.099571e+00    1.407639e+00
  1.131322e+00    1.385660e+00
  1.163073e+00    1.491016e+00
  1.194824e+00    1.594797e+00
  1.226575e+00    1.990460e+00
  1.258327e+00    2.053610e+00
  1.290078e+00    2.507824e+00
  1.321829e+00    2.396893e+00
  1.353580e+00    2.665226e+00
  1.385331e+00    2.620934e+00
  1.417082e+00    2.604241e+00
  1.448834e+00    2.771368e+00
  1.480585e+00    2.649649e+00
  1.512336e+00    2.755486e+00
  1.544087e+00    2.831828e+00
  1.575838e+00    2.867708e+00
  1.607589e+00    2.775370e+00
  1.639340e+00    2.891617e+00
  1.671092e+00    2.779642e+00
  1.702843e+00    2.747055e+00
  1.734594e+00    2.621258e+00
  1.766345e+00    2.806681e+00
  1.798096e+00    2.790645e+00
  1.829847e+00    2.691388e+00
  1.861598e+00    2.711381e+00
  1.893350e+00    2.731310e+00
  1.925101e+00    2.777130e+00
  1.956852e+00    2.644676e+00
  1.988603e+00    2.643333e+00
  2.020354e+00    2.767296e+00
  2.052105e+00    2.672960e+00
  2.083856e+00    2.763709e+00
  2.115608e+00    2.694498e+00
  2.147359e+00    2.726671e+00
  2.179110e+00    2.738082e+00
  2.210861e+00    2.725041e+00
  2.242612e+00    2.687231e+00
  2.274363e+00    2.713665e+00
  2.306115e+00    2.636101e+00
  2.337866e+00    2.767743e+00
  2.369617e+00    2.788917e+00
  2.401368e+00    2.675044e+00
  2.433119e+00    2.801083e+00
  2.464870e+00    2.625147e+00
  2.496621e+00    2.717131e+00
  2.528373e+00    2.739057e+00
  2.560124e+00    2.796279e+00
  2.591875e+00    2.778003e+00
  2.623626e+00    2.784449e+00
  2.655377e+00    2.707366e+00
  2.687128e+00    2.835387e+00
  2.718879e+00    2.787992e+00
  2.750631e+00    2.851277e+00
  2.782382e+00    2.810637e+00
  2.814133e+00    2.757093e+00
  2.845884e+00    2.949740e+00
  2.877635e+00    2.781201e+00
  2.909386e+00    2.807481e+00
  2.941137e+00    2.737930e+00
  2.972889e+00    2.921997e+00
  3.004640e+00    2.879507e+00
  3.036391e+00    2.753116e+00
  3.068142e+00    2.977140e+00
  3.099893e+00    2.801522e+00
  3.131644e+00    2.964953e+00
  3.163395e+00    2.826004e+00
  3.195147e+00    2.925891e+00
  3.226898e+00    2.942179e+00
  3.258649e+00    2.866804e+00
  3.290400e+00    2.900378e+00
  3.322151e+00    2.825316e+00
  3.353902e+00    2.893790e+00
  3.385654e+00    2.945767e+00
  3.417405e+00    2.974463e+00
  3.449156e+00    2.872970e+00
  3.480907e+00    2.905251e+00
  3.512658e+00    2.885018e+00
  3.544409e+00    2.985597e+00
  3.576160e+00    2.861298e+00
  3.607912e+00    2.964009e+00
  3.639663e+00    2.969424e+00
  3.671414e+00    2.925025e+00
  3.703165e+00    2.932667e+00
  3.734916e+00    3.018036e+00
  3.766667e+00    2.995611e+00
  3.798418e+00    2.948917e+00
  3.830170e+00    2.947870e+00
  3.861921e+00    3.020361e+00
  3.893672e+00    3.087829e+00
  3.925423e+00    3.016314e+00
  3.957174e+00    3.055843e+00
  3.988925e+00    2.953882e+00
  4.020676e+00    2.977891e+00
  4.052428e+00    3.008848e+00
  4.084179e+00    3.087627e+00
  4.115930e+00    3.114451e+00
  4.147681e+00    2.972022e+00
  4.179432e+00    3.000132e+00
  4.211183e+00    3.022093e+00
  4.242935e+00    3.057892e+00
  4.274686e+00    3.038129e+00
  4.306437e+00    3.044543e+00
  4.338188e+00    2.929711e+00
  4.369939e+00    3.057545e+00
  4.401690e+00    3.061832e+00
  4.433441e+00    3.078811e+00
  4.465193e+00    3.010047e+00
  4.496944e+00    3.072635e+00
  4.528695e+00    3.049533e+00
  4.560446e+00    3.039489e+00
  4.592197e+00    3.063767e+00
  4.623948e+00    3.078777e+00
  4.655699e+00    3.137737e+00
  4.687451e+00    3.122478e+00
  4.719202e+00    3.135672e+00
  4.750953e+00    3.266427e+00
  4.782704e+00    3.016492e+00
  4.814455e+00    3.083199e+00
  4.846206e+00    3.090985e+00
  4.877957e+00    3.119680e+00
  4.909709e+00    3.118093e+00
  4.941460e+00    3.046883e+00
  4.973211e+00    3.127871e+00
  5.004962e+00    3.099192e+00
  5.036713e+00    3.009596e+00
  5.068464e+00    3.058434e+00
  5.100216e+00    3.100060e+00
  5.131967e+00    3.134050e+00
  5.163718e+00    3.144257e+00
  5.195469e+00    3.135479e+00
  5.227220e+00    3.129111e+00
  5.258971e+00    3.173333e+00
  5.290722e+00    3.161192e+00
  5.322474e+00    3.102053e+00
  5.354225e+00    3.086318e+00
  5.385976e+00    3.062634e+00
  5.417727e+00    3.070728e+00
  5.449478e+00    3.093860e+00
  5.481229e+00    3.097889e+00
  5.512980e+00    3.067207e+00
  5.544732e+00    2.984582e+00
  5.576483e+00    3.125755e+00
  5.608234e+00    3.032590e+00
  5.639985e+00    3.044960e+00
  5.671736e+00    3.064409e+00
  5.703487e+00    2.979576e+00
  5.735238e+00    3.031557e+00
  5.766990e+00    2.970055e+00
  5.798741e+00    3.052217e+00
  5.830492e+00    2.965348e+00
  5.862243e+00    2.938242e+00
  5.893994e+00    3.031022e+00
  5.925745e+00    3.046538e+00
  5.957497e+00    2.980849e+00
  5.989248e+00    3.029371e+00
  6.020999e+00    2.911358e+00
  6.052750e+00    3.088782e+00
  6.084501e+00    3.063242e+00
  6.116252e+00    3.043065e+00
  6.148003e+00    3.084047e+00
  6.179755e+00    3.088160e+00
  6.211506e+00    3.016199e+00
  6.243257e+00    3.004421e+00
  6.275008e+00    3.070057e+00
  6.306759e+00    2.970884e+00
  6.338510e+00    3.025576e+00
  6.370261e+00    3.007766e+00
  6.402013e+00    2.986137e+00
  6.433764e+00    3.012701e+00
  6.465515e+00    3.108724e+00
  6.497266e+00    2.967779e+00
  6.529017e+00    2.953188e+00
  6.560768e+00    2.966336e+00
  6.592519e+00    3.027851e+00
  6.624271e+00    3.011649e+00
  6.656022e+00    3.069754e+00
  6.687773e+00    3.022651e+00
  6.719524e+00    2.991141e+00
  6.751275e+00    3.088984e+00
  6.783026e+00    3.054071e+00
  6.814777e+00    3.105282e+00
  6.846529e+00    3.074651e+00
  6.878280e+00    3.012929e+00
  6.910031e+00    3.035969e+00
  6.941782e+00    3.024317e+00
  6.973533e+00    3.008108e+00
  7.005284e+00    2.999484e+00
  7.037036e+00    2.949785e+00
  7.068787e+00    3.011760e+00
  7.100538e+00    3.067374e+00
  7.132289e+00    2.928622e+00
  7.164040e+00    2.959529e+00
  7.195791e+00    3.007798e+00
  7.227542e+00    3.018118e+00
  7.259294e+00    2.939142e+00
  7.291045e+00    2.986514e+00
  7.322796e+00    2.895904e+00
  7.354547e+00    2.966600e+00
  7.386298e+00    2.998727e+00
  7.418049e+00    2.950063e+00
  7.449800e+00    3.008167e+00
  7.481552e+00    2.937460e+00
  7.513303e+00    2.994688e+00
  7.545054e+00    2.907793e+00
  7.576805e+00    2.975098e+00
  7.608556e+00    2.972347e+00
  7.640307e+00    2.958624e+00
  7.672058e+00    2.942226e+00
  7.703810e+00    2.924976e+00
  7.735561e+00    2.960450e+00
  7.767312e+00    3.010003e+00
  7.799063e+00    2.934651e+00
  7.830814e+00    3.003426e+00
  7.862565e+00    2.960296e+00
  7.894317e+00    2.875499e+00
  7.926068e+00    2.991133e+00
  7.957819e+00    2.876410e+00
  7.989570e+00    2.961221e+00
  8.021321e+00    2.895288e+00
  8.053072e+00    2.881614e+00
  8.084823e+00    2.926783e+00
  8.116575e+00    2.952276e+00
  8.148326e+00    2.993538e+00
  8.180077e+00    2.954456e+00
  8.211828e+00    3.017547e+00
  8.243579e+00    2.999910e+00
  8.275330e+00    2.929063e+00
  8.307081e+00    2.910747e+00
  8.338833e+00    2.841084e+00
  8.370584e+00    2.873808e+00
  8.402335e+00    2.876750e+00
  8.434086e+00    2.864258e+00
  8.465837e+00    2.866747e+00
  8.497588e+00    2.858917e+00
  8.529339e+00    2.851645e+00
  8.561091e+00    2.898139e+00
  8.592842e+00    2.854811e+00
  8.624593e+00    2.858409e+00
  8.656344e+00    2.854241e+00
  8.688095e+00    2.858144e+00
  8.719846e+00    2.871562e+00
  8.751598e+00    2.822658e+00
  8.783349e+00    2.843220e+00
  8.815100e+00    2.863166e+00
  8.846851e+00    2.875543e+00
  8.878602e+00    2.791974e+00
  8.910353e+00    2.863288e+00
  8.942104e+00    2.784593e+00
  8.973856e+00    2.846235e+00
  9.005607e+00    2.807812e+00
  9.037358e+00    2.808409e+00
  9.069109e+00    2.816747e+00
  9.100860e+00    2.820223e+00
  9.132611e+00    2.742054e+00
  9.164362e+00    2.801558e+00
  9.196114e+00    2.776065e+00
  9.227865e+00    2.796534e+00
  9.259616e+00    2.733337e+00
  9.291367e+00    2.785580e+00
  9.323118e+00    2.745622e+00
  9.354869e+00    2.757495e+00
  9.386620e+00    2.743339e+00
  9.418372e+00    2.790880e+00
  9.450123e+00    2.732833e+00
  9.481874e+00    2.731051e+00
  9.513625e+00    2.741094e+00
  9.545376e+00    2.747947e+00
  9.577127e+00    2.691210e+00
  9.608878e+00    2.748432e+00
  9.640630e+00    2.772194e+00
  9.672381e+00    2.722684e+00
  9.704132e+00    2.759490e+00
  9.735883e+00    2.740710e+00
  9.767634e+00    2.707741e+00
  9.799385e+00    2.712500e+00
  9.831137e+00    2.729373e+00
  9.862888e+00    2.719284e+00
  9.894639e+00    2.657803e+00
  9.926390e+00    2.720456e+00
  9.958141e+00    2.714361e+00
  9.989892e+00    2.694638e+00
  1.002164e+01    2.680390e+00
  1.005339e+01    2.648773e+00
  1.008515e+01    2.635308e+00
  1.011690e+01    2.643825e+00
  1.014865e+01    2.643126e+00
  1.018040e+01    2.636182e+00
  1.021215e+01    2.654089e+00
  1.024390e+01    2.586297e+00
  1.027565e+01    2.659919e+00
  1.030740e+01    2.665803e+00
  1.033915e+01    2.623161e+00
  1.037091e+01    2.621542e+00
  1.040266e+01    2.570688e+00
  1.043441e+01    2.603666e+00
  1.046616e+01    2.588002e+00
  1.049791e+01    2.522955e+00
  1.052966e+01    2.554581e+00
  1.056141e+01    2.591436e+00
  1.059316e+01    2.534564e+00
  1.062492e+01    2.567769e+00
  1.065667e+01    2.541685e+00
  1.068842e+01    2.571510e+00
  1.072017e+01    2.513153e+00
  1.075192e+01    2.554489e+00
  1.078367e+01    2.530788e+00
  1.081542e+01    2.559136e+00
  1.084717e+01    2.526863e+00
  1.087892e+01    2.530529e+00
  1.091068e+01    2.477288e+00
  1.094243e+01    2.509275e+00
  1.097418e+01    2.458049e+00
  1.100593e+01    2.454210e+00
  1.103768e+01    2.463748e+00
  1.106943e+01    2.444010e+00
  1.110118e+01    2.427156e+00
  1.113293e+01    2.461268e+00
  1.116468e+01    2.459461e+00
  1.119644e+01    2.449358e+00
  1.122819e+01    2.428963e+00
  1.125994e+01    2.436069e+00
  1.129169e+01    2.454132e+00
  1.132344e+01    2.429078e+00
  1.135519e+01    2.387224e+00
  1.138694e+01    2.440045e+00
  1.141869e+01    2.459723e+00
  1.145045e+01    2.352984e+00
  1.148220e+01    2.377262e+00
  1.151395e+01    2.408281e+00
  1.154570e+01    2.373123e+00
  1.157745e+01    2.367424e+00
  1.160920e+01    2.363321e+00
  1.164095e+01    2.338703e+00
  1.167270e+01    2.389569e+00
  1.170445e+01    2.345445e+00
  1.173621e+01    2.388838e+00
  1.176796e+01    2.341381e+00
  1.179971e+01    2.340117e+00
  1.183146e+01    2.350375e+00
  1.186321e+01    2.323314e+00
  1.189496e+01    2.377523e+00
  1.192671e+01    2.359757e+00
  1.195846e+01    2.352774e+00
  1.199021e+01    2.317118e+00
  1.202197e+01    2.321384e+00
  1.205372e+01    2.282519e+00
  1.208547e+01    2.317615e+00
  1.211722e+01    2.331838e+00
  1.214897e+01    2.320597e+00
  1.218072e+01    2.340901e+00
  1.221247e+01    2.352491e+00
  1.224422e+01    2.331769e+00
  1.227597e+01    2.304633e+00
  1.230773e+01    2.272533e+00
  1.233948e+01    2.329626e+00
  1.237123e+01    2.339737e+00
  1.240298e+01    2.318151e+00
  1.243473e+01    2.315248e+00
  1.246648e+01    2.352220e+00
  1.249823e+01    2.336504e+00
  1.252998e+01    2.337409e+00
  1.256174e+01    2.355289e+00
  1.259349e+01    2.364207e+00
  1.262524e+01    2.372516e+00
  1.265699e+01    2.421820e+00
  1.268874e+01    2.450808e+00
  1.272049e+01    2.431654e+00
  1.275224e+01    2.525511e+00
  1.278399e+01    2.581055e+00
  1.281574e+01    2.678005e+00
  1.284750e+01    2.798871e+00
  1.287925e+01    3.043568e+00
  1.291100e+01    3.270283e+00
  1.294275e+01    3.663561e+00
  1.297450e+01    4.299508e+00
  1.300625e+01    5.474441e+00
  1.303800e+01    7.117107e+00
  1.306975e+01    9.541862e+00
  1.310150e+01    1.211286e+01
  1.313326e+01    1.455853e+01
  1.316501e+01    1.652457e+01
  1.319676e+01    1.646179e+01
  1.322851e+01    1.339966e+01
  1.326026e+01    9.510950e+00
  1.329201e+01    6.985143e+00
  1.332376e+01    5.216091e+00
  1.335551e+01    4.222185e+00
  1.338727e+01    3.660305e+00
  1.341902e+01    3.225314e+00
  1.345077e+01    2.966495e+00
  1.348252e+01    2.732427e+00
  1.351427e+01    2.561910e+00
  1.354602e+01    2.518737e+00
  1.357777e+01    2.427149e+00
  1.360952e+01    2.360801e+00
  1.364127e+01    2.274871e+00
  1.367303e+01    2.191684e+00
  1.370478e+01    2.246876e+00
  1.373653e+01    2.199517e+00
  1.376828e+01    2.157480e+00
  1.380003e+01    2.134001e+00
  1.383178e+01    2.133204e+00
  1.386353e+01    2.113588e+00
  1.389528e+01    2.084120e+00
  1.392703e+01    2.126586e+00
  1.395879e+01    2.050553e+00
  1.399054e+01    2.059710e+00
  1.402229e+01    2.064202e+00
  1.405404e+01    2.031997e+00
  1.408579e+01    1.999556e+00
  1.411754e+01    1.986480e+00
  1.414929e+01    2.002918e+00
  1.418104e+01    2.006991e+00
  1.421279e+01    1.936299e+00
  1.424455e+01    1.977765e+00
  1.427630e+01    1.967677e+00
  1.430805e+01    1.950724e+00
  1.433980e+01    1.946714e+00
  1.437155e+01    1.929310e+00
  1.440330e+01    1.957420e+00
  1.443505e+01    1.930589e+00
  1.446680e+01    1.900404e+00
  1.449856e+01    1.953340e+00
  1.453031e+01    1.927172e+00
  1.456206e+01    1.906371e+00
  1.459381e+01    1.889670e+00
  1.462556e+01    1.908397e+00
  1.465731e+01    1.919109e+00
  1.468906e+01    1.900071e+00
  1.472081e+01    1.854037e+00
  1.475256e+01    1.922081e+00
  1.478432e+01    1.927941e+00
  1.481607e+01    1.954128e+00
  1.484782e+01    1.892681e+00
  1.487957e+01    1.974464e+00
  1.491132e+01    1.974233e+00
  1.494307e+01    1.982838e+00
  1.497482e+01    2.010703e+00
  1.500657e+01    2.150111e+00
  1.503832e+01    2.264959e+00
  1.507008e+01    2.509667e+00
  1.510183e+01    2.835937e+00
  1.513358e+01    3.431747e+00
  1.516533e+01    4.186577e+00
  1.519708e+01    4.893678e+00
  1.522883e+01    5.421197e+00
  1.526058e+01    5.713348e+00
  1.529233e+01    5.579582e+00
  1.532409e+01    4.761680e+00
  1.535584e+01    3.693991e+00
  1.538759e+01    3.009795e+00
  1.541934e+01    2.625959e+00
  1.545109e+01    2.288703e+00
  1.548284e+01    2.103653e+00
  1.551459e+01    1.994873e+00
  1.554634e+01    1.923170e+00
  1.557809e+01    1.833681e+00
  1.560985e+01    1.820158e+00
  1.564160e+01    1.793282e+00
  1.567335e+01    1.735569e+00
  1.570510e+01    1.745203e+00
  1.573685e+01    1.753187e+00
  1.576860e+01    1.679451e+00
  1.580035e+01    1.678925e+00
  1.583210e+01    1.663737e+00
  1.586385e+01    1.651549e+00
  1.589561e+01    1.636245e+00
  1.592736e+01    1.617726e+00
  1.595911e+01    1.623446e+00
  1.599086e+01    1.585503e+00
  1.602261e+01    1.594544e+00
  1.605436e+01    1.594114e+00
  1.608611e+01    1.573385e+00
  1.611786e+01    1.560868e+00
  1.614961e+01    1.570105e+00
  1.618137e+01    1.578820e+00
  1.621312e+01    1.564879e+00
  1.624487e+01    1.557657e+00
  1.627662e+01    1.539738e+00
  1.630837e+01    1.539405e+00
  1.634012e+01    1.528272e+00
  1.637187e+01    1.490221e+00
  1.640362e+01    1.499520e+00
  1.643538e+01    1.547614e+00
  1.646713e+01    1.551340e+00
  1.649888e+01    1.486882e+00
  1.653063e+01    1.501297e+00
  1.656238e+01    1.471945e+00
  1.659413e+01    1.482236e+00
  1.662588e+01    1.503022e+00
  1.665763e+01    1.482148e+00
  1.668938e+01    1.465850e+00
  1.672114e+01    1.484207e+00
  1.675289e+01    1.454924e+00
  1.678464e+01    1.461311e+00
  1.681639e+01    1.472216e+00
  1.684814e+01    1.435185e+00
  1.687989e+01    1.441317e+00
  1.691164e+01    1.443417e+00
  1.694339e+01    1.427373e+00
  1.697514e+01    1.437865e+00
  1.700690e+01    1.419800e+00
  1.703865e+01    1.396888e+00
  1.707040e+01    1.405525e+00
  1.710215e+01    1.407553e+00
  1.713390e+01    1.419287e+00
  1.716565e+01    1.401395e+00
  1.719740e+01    1.395324e+00
  1.722915e+01    1.408154e+00
  1.726091e+01    1.410105e+00
  1.729266e+01    1.388261e+00
  1.732441e+01    1.391542e+00
  1.735616e+01    1.381412e+00
  1.738791e+01    1.378560e+00
  1.741966e+01    1.355254e+00
  1.745141e+01    1.315255e+00
  1.748316e+01    1.365400e+00
  1.751491e+01    1.347808e+00
  1.754667e+01    1.359090e+00
  1.757842e+01    1.325949e+00
  1.761017e+01    1.346833e+00
  1.764192e+01    1.330455e+00
  1.767367e+01    1.351149e+00
  1.770542e+01    1.338086e+00
  1.773717e+01    1.317700e+00
  1.776892e+01    1.290849e+00
  1.780067e+01    1.355066e+00
  1.783243e+01    1.294648e+00
  1.786418e+01    1.330453e+00
  1.789593e+01    1.337156e+00
  1.792768e+01    1.334311e+00
  1.795943e+01    1.292894e+00
  1.799118e+01    1.315594e+00
  1.802293e+01    1.306587e+00
  1.805468e+01    1.288616e+00
  1.808643e+01    1.279149e+00
  1.811819e+01    1.270120e+00
  1.814994e+01    1.308849e+00
  1.818169e+01    1.276192e+00
  1.821344e+01    1.268535e+00
  1.824519e+01    1.274598e+00
  1.827694e+01    1.268938e+00
  1.830869e+01    1.285977e+00
  1.834044e+01    1.258725e+00
  1.837220e+01    1.265525e+00
  1.840395e+01    1.247494e+00
  1.843570e+01    1.255151e+00
  1.846745e+01    1.262284e+00
  1.849920e+01    1.221028e+00
  1.853095e+01    1.245286e+00
  1.856270e+01    1.220754e+00
  1.859445e+01    1.222778e+00
  1.862620e+01    1.206705e+00
  1.865796e+01    1.241604e+00
  1.868971e+01    1.203483e+00
  1.872146e+01    1.227599e+00
  1.875321e+01    1.206536e+00
  1.878496e+01    1.245615e+00
  1.881671e+01    1.198776e+00
  1.884846e+01    1.207910e+00
  1.888021e+01    1.187299e+00
  1.891196e+01    1.205167e+00
  1.894372e+01    1.199281e+00
  1.897547e+01    1.189209e+00
  1.900722e+01    1.185551e+00
  1.903897e+01    1.203599e+00
  1.907072e+01    1.190459e+00
  1.910247e+01    1.184141e+00
  1.913422e+01    1.188437e+00
  1.916597e+01    1.187186e+00
  1.919773e+01    1.158657e+00
  1.922948e+01    1.177312e+00
  1.926123e+01    1.175453e+00
  1.929298e+01    1.165650e+00
  1.932473e+01    1.168736e+00
  1.935648e+01    1.174594e+00
  1.938823e+01    1.172250e+00
  1.941998e+01    1.174704e+00
  1.945173e+01    1.145894e+00
  1.948349e+01    1.172169e+00
  1.951524e+01    1.145317e+00
  1.954699e+01    1.149404e+00
  1.957874e+01    1.134694e+00
  1.961049e+01    1.134643e+00
  1.964224e+01    1.157241e+00
  1.967399e+01    1.143280e+00
  1.970574e+01    1.125127e+00
  1.973749e+01    1.138729e+00
  1.976925e+01    1.121288e+00
  1.980100e+01    1.134136e+00
  1.983275e+01    1.123561e+00
  1.986450e+01    1.138230e+00
  1.989625e+01    1.107614e+00
  1.992800e+01    1.117733e+00
  1.995975e+01    1.107568e+00
  1.999150e+01    1.074819e+00
  2.002325e+01    1.102173e+00
  2.005501e+01    1.119528e+00
  2.008676e+01    1.105942e+00
  2.011851e+01    1.098026e+00
  2.015026e+01    1.107363e+00
  2.018201e+01    1.098356e+00
  2.021376e+01    1.080285e+00
  2.024551e+01    1.087794e+00
  2.027726e+01    1.092025e+00
  2.030902e+01    1.094874e+00
  2.034077e+01    1.077662e+00
  2.037252e+01    1.094272e+00
  2.040427e+01    1.071728e+00
  2.043602e+01    1.087260e+00
  2.046777e+01    1.075182e+00
  2.049952e+01    1.078237e+00
  2.053127e+01    1.045895e+00
  2.056302e+01    1.075713e+00
  2.059478e+01    1.083631e+00
  2.062653e+01    1.081347e+00
  2.065828e+01    1.100290e+00
  2.069003e+01    1.071332e+00
  2.072178e+01    1.065467e+00
  2.075353e+01    1.061985e+00
  2.078528e+01    1.048327e+00
  2.081703e+01    1.098087e+00
  2.084878e+01    1.060741e+00
  2.088054e+01    1.077942e+00
  2.091229e+01    1.088275e+00
  2.094404e+01    1.075175e+00
  2.097579e+01    1.086528e+00
  2.100754e+01    1.062187e+00
  2.103929e+01    1.054764e+00
  2.107104e+01    1.078245e+00
  2.110279e+01    1.075779e+00
  2.113455e+01    1.098964e+00
  2.116630e+01    1.091382e+00
  2.119805e+01    1.106272e+00
  2.122980e+01    1.104931e+00
  2.126155e+01    1.109727e+00
  2.129330e+01    1.130244e+00
  2.132505e+01    1.124721e+00
  2.135680e+01    1.137072e+00
  2.138855e+01    1.148671e+00
  2.142031e+01    1.195662e+00
  2.145206e+01    1.194936e+00
  2.148381e+01    1.258752e+00
  2.151556e+01    1.318047e+00
  2.154731e+01    1.395636e+00
  2.157906e+01    1.457791e+00
  2.161081e+01    1.580584e+00
  2.164256e+01    1.815489e+00
  2.167431e+01    2.106084e+00
  2.170607e+01    2.555506e+00
  2.173782e+01    3.294880e+00
  2.176957e+01    4.319407e+00
  2.180132e+01    5.550865e+00
  2.183307e+01    6.836184e+00
  2.186482e+01    8.271767e+00
  2.189657e+01    9.124667e+00
  2.192832e+01    8.759912e+00
  2.196007e+01    7.097225e+00
  2.199183e+01    5.190990e+00
  2.202358e+01    3.760743e+00
  2.205533e+01    2.873050e+00
  2.208708e+01    2.321395e+00
  2.211883e+01    1.929423e+00
  2.215058e+01    1.684268e+00
  2.218233e+01    1.505059e+00
  2.221408e+01    1.362742e+00
  2.224584e+01    1.282186e+00
  2.227759e+01    1.241332e+00
  2.230934e+01    1.177205e+00
  2.234109e+01    1.124250e+00
  2.237284e+01    1.117190e+00
  2.240459e+01    1.055068e+00
  2.243634e+01    1.077718e+00
  2.246809e+01    1.023996e+00
  2.249984e+01    1.034188e+00
  2.253160e+01    9.983200e-01
  2.256335e+01    1.004517e+00
  2.259510e+01    9.935930e-01
  2.262685e+01    9.623241e-01
  2.265860e+01    9.823147e-01
  2.269035e+01    9.592313e-01
  2.272210e+01    9.439037e-01
  2.275385e+01    9.424948e-01
  2.278560e+01    9.133904e-01
  2.281736e+01    9.119713e-01
  2.284911e+01    9.153506e-01
  2.288086e+01    9.018338e-01
  2.291261e+01    8.882304e-01
  2.294436e+01    9.154879e-01
  2.297611e+01    9.051144e-01
  2.300786e+01    9.010049e-01
  2.303961e+01    8.864677e-01
  2.307137e+01    8.862641e-01
  2.310312e+01    8.671817e-01
  2.313487e+01    8.812246e-01
  2.316662e+01    8.746514e-01
  2.319837e+01    8.861213e-01
  2.323012e+01    8.789113e-01
  2.326187e+01    8.459790e-01
  2.329362e+01    8.696824e-01
  2.332537e+01    8.350877e-01
  2.335713e+01    8.607949e-01
  2.338888e+01    8.401988e-01
  2.342063e+01    8.503177e-01
  2.345238e+01    8.484595e-01
  2.348413e+01    8.343858e-01
  2.351588e+01    8.345708e-01
  2.354763e+01    8.577579e-01
  2.357938e+01    8.361174e-01
  2.361113e+01    8.243101e-01
  2.364289e+01    8.421197e-01
  2.367464e+01    8.269834e-01
  2.370639e+01    8.096204e-01
  2.373814e+01    8.229731e-01
  2.376989e+01    7.981080e-01
  2.380164e+01    7.891101e-01
  2.383339e+01    8.190642e-01
  2.386514e+01    8.054537e-01
  2.389689e+01    7.820249e-01
  2.392865e+01    7.742410e-01
  2.396040e+01    7.911710e-01
  2.399215e+01    8.023825e-01
  2.402390e+01    8.005304e-01
  2.405565e+01    7.970846e-01
  2.408740e+01    8.011032e-01
  2.411915e+01    7.860010e-01
  2.415090e+01    7.731586e-01
  2.418266e+01    7.704597e-01
  2.421441e+01    7.742488e-01
  2.424616e+01    7.544842e-01
  2.427791e+01    7.773175e-01
  2.430966e+01    8.117011e-01
  2.434141e+01    7.879643e-01
  2.437316e+01    7.981705e-01
  2.440491e+01    7.829492e-01
  2.443666e+01    7.731827e-01
  2.446842e+01    7.978763e-01
  2.450017e+01    7.793155e-01
  2.453192e+01    7.848892e-01
  2.456367e+01    7.939913e-01
  2.459542e+01    7.926514e-01
  2.462717e+01    7.933593e-01
  2.465892e+01    8.101858e-01
  2.469067e+01    7.891361e-01
  2.472242e+01    7.942225e-01
  2.475418e+01    7.797487e-01
  2.478593e+01    7.970038e-01
  2.481768e+01    7.772325e-01
  2.484943e+01    8.085582e-01
  2.488118e+01    8.107967e-01
  2.491293e+01    7.951707e-01
  2.494468e+01    7.935565e-01
  2.497643e+01    7.825705e-01
  2.500819e+01    8.060159e-01
  2.503994e+01    8.057013e-01
  2.507169e+01    8.247305e-01
  2.510344e+01    8.189174e-01
  2.513519e+01    8.047429e-01
  2.516694e+01    8.303614e-01
  2.519869e+01    8.461389e-01
  2.523044e+01    8.514407e-01
  2.526219e+01    8.527423e-01
  2.529395e+01    8.490907e-01
  2.532570e+01    8.713730e-01
  2.535745e+01    8.657601e-01
  2.538920e+01    8.852173e-01
  2.542095e+01    9.280599e-01
  2.545270e+01    9.501411e-01
  2.548445e+01    9.408326e-01
  2.551620e+01    9.880300e-01
  2.554795e+01    1.015851e+00
  2.557971e+01    1.074826e+00
  2.561146e+01    1.124302e+00
  2.564321e+01    1.201847e+00
  2.567496e+01    1.310367e+00
  2.570671e+01    1.499919e+00
  2.573846e+01    1.748347e+00
  2.577021e+01    2.062253e+00
  2.580196e+01    2.609933e+00
  2.583371e+01    3.363637e+00
  2.586547e+01    4.412026e+00
  2.589722e+01    5.669501e+00
  2.592897e+01    6.814832e+00
  2.596072e+01    7.528598e+00
  2.599247e+01    7.204141e+00
  2.602422e+01    5.918870e+00
  2.605597e+01    4.385388e+00
  2.608772e+01    3.227437e+00
  2.611948e+01    2.500315e+00
  2.615123e+01    2.019711e+00
  2.618298e+01    1.670209e+00
  2.621473e+01    1.442601e+00
  2.624648e+01    1.306107e+00
  2.627823e+01    1.178848e+00
  2.630998e+01    1.127200e+00
  2.634173e+01    1.065015e+00
  2.637348e+01    1.005585e+00
  2.640524e+01    9.638144e-01
  2.643699e+01    9.439825e-01
  2.646874e+01    9.543403e-01
  2.650049e+01    9.492413e-01
  2.653224e+01    9.021377e-01
  2.656399e+01    9.232781e-01
  2.659574e+01    8.778332e-01
  2.662749e+01    8.847179e-01
  2.665924e+01    8.943240e-01
  2.669100e+01    8.966754e-01
  2.672275e+01    8.916430e-01
  2.675450e+01    8.798559e-01
  2.678625e+01    9.038312e-01
  2.681800e+01    8.905711e-01
  2.684975e+01    8.719393e-01
  2.688150e+01    9.028939e-01
  2.691325e+01    9.082760e-01
  2.694501e+01    9.417171e-01
  2.697676e+01    9.750941e-01
  2.700851e+01    1.032424e+00
  2.704026e+01    1.098348e+00
  2.707201e+01    1.193415e+00
  2.710376e+01    1.404435e+00
  2.713551e+01    1.615892e+00
  2.716726e+01    1.893420e+00
  2.719901e+01    2.152994e+00
  2.723077e+01    2.253526e+00
  2.726252e+01    2.074509e+00
  2.729427e+01    1.787793e+00
  2.732602e+01    1.486039e+00
  2.735777e+01    1.275480e+00
  2.738952e+01    1.151247e+00
  2.742127e+01    1.047697e+00
  2.745302e+01    9.732469e-01
  2.748477e+01    9.207385e-01
  2.751653e+01    8.874657e-01
  2.754828e+01    8.715348e-01
  2.758003e+01    8.399293e-01
  2.761178e+01    8.615630e-01
  2.764353e+01    8.173122e-01
  2.767528e+01    8.277016e-01
  2.770703e+01    8.331757e-01
  2.773878e+01    8.182196e-01
  2.777054e+01    8.436264e-01
  2.780229e+01    7.892806e-01
  2.783404e+01    8.141760e-01
  2.786579e+01    7.958940e-01
  2.789754e+01    7.990668e-01
  2.792929e+01    7.774940e-01
  2.796104e+01    7.813072e-01
  2.799279e+01    7.937405e-01
  2.802454e+01    7.880573e-01
  2.805630e+01    7.887892e-01
  2.808805e+01    7.845643e-01
  2.811980e+01    7.665666e-01
  2.815155e+01    7.930524e-01
  2.818330e+01    7.672108e-01
  2.821505e+01    7.628448e-01
  2.824680e+01    7.751507e-01
  2.827855e+01    7.445433e-01
  2.831030e+01    7.492730e-01
  2.834206e+01    7.679428e-01
  2.837381e+01    7.533273e-01
  2.840556e+01    7.495646e-01
  2.843731e+01    7.327965e-01
  2.846906e+01    7.534832e-01
  2.850081e+01    7.365614e-01
  2.853256e+01    7.827910e-01
  2.856431e+01    7.443250e-01
  2.859606e+01    7.815076e-01
  2.862782e+01    7.556556e-01
  2.865957e+01    7.485432e-01
  2.869132e+01    7.536740e-01
  2.872307e+01    7.645985e-01
  2.875482e+01    7.343194e-01
  2.878657e+01    7.569969e-01
  2.881832e+01    7.476475e-01
  2.885007e+01    7.551492e-01
  2.888183e+01    7.368650e-01
  2.891358e+01    7.219353e-01
  2.894533e+01    7.229111e-01
  2.897708e+01    7.248297e-01
  2.900883e+01    7.231168e-01
  2.904058e+01    7.531094e-01
  2.907233e+01    7.235556e-01
  2.910408e+01    7.292123e-01
  2.913583e+01    7.408209e-01
  2.916759e+01    7.373608e-01
  2.919934e+01    7.413254e-01
  2.923109e+01    7.347378e-01
  2.926284e+01    7.362655e-01
  2.929459e+01    7.126399e-01
  2.932634e+01    7.393398e-01
  2.935809e+01    7.416877e-01
  2.938984e+01    7.384248e-01
  2.942159e+01    7.075932e-01
  2.945335e+01    7.245857e-01
  2.948510e+01    7.334923e-01
  2.951685e+01    7.281223e-01
  2.954860e+01    7.084115e-01
  2.958035e+01    7.256294e-01
  2.961210e+01    7.458171e-01
  2.964385e+01    7.293444e-01
  2.967560e+01    7.174873e-01
  2.970736e+01    7.083676e-01
  2.973911e+01    7.001044e-01
  2.977086e+01    7.233659e-01
  2.980261e+01    7.263640e-01
  2.983436e+01    7.299182e-01
  2.986611e+01    7.190879e-01
  2.989786e+01    7.112312e-01
  2.992961e+01    7.255158e-01
  2.996136e+01    7.097116e-01
  2.999312e+01    7.211940e-01
  3.002487e+01    7.234129e-01
  3.005662e+01    7.324548e-01
  3.008837e+01    7.038057e-01
  3.012012e+01    7.308426e-01
  3.015187e+01    7.245471e-01
  3.018362e+01    7.143171e-01
  3.021537e+01    7.123824e-01
  3.024712e+01    6.848855e-01
  3.027888e+01    7.105778e-01
  3.031063e+01    6.949865e-01
  3.034238e+01    7.051849e-01
  3.037413e+01    7.068789e-01
  3.040588e+01    6.924273e-01
  3.043763e+01    7.125514e-01
  3.046938e+01    7.080406e-01
  3.050113e+01    6.995964e-01
  3.053288e+01    7.029192e-01
  3.056464e+01    7.300516e-01
  3.059639e+01    7.270133e-01
  3.062814e+01    7.155777e-01
  3.065989e+01    6.964622e-01
  3.069164e+01    6.891340e-01
  3.072339e+01    7.039900e-01
  3.075514e+01    7.094246e-01
  3.078689e+01    7.133487e-01
  3.081865e+01    6.971129e-01
  3.085040e+01    7.120889e-01
  3.088215e+01    7.031922e-01
  3.091390e+01    7.038833e-01
  3.094565e+01    7.095152e-01
  3.097740e+01    7.107424e-01
  3.100915e+01    7.104118e-01
  3.104090e+01    7.039297e-01
  3.107265e+01    7.041596e-01
  3.110441e+01    7.142374e-01
  3.113616e+01    6.995161e-01
  3.116791e+01    7.168055e-01
  3.119966e+01    7.207485e-01
  3.123141e+01    7.391220e-01
  3.126316e+01    7.279222e-01
  3.129491e+01    7.348567e-01
  3.132666e+01    7.260442e-01
  3.135841e+01    7.330505e-01
  3.139017e+01    7.390072e-01
  3.142192e+01    7.367463e-01
  3.145367e+01    7.479750e-01
  3.148542e+01    7.554767e-01
  3.151717e+01    7.584114e-01
  3.154892e+01    7.722757e-01
  3.158067e+01    7.909746e-01
  3.161242e+01    8.246927e-01
  3.164418e+01    8.444251e-01
  3.167593e+01    9.163057e-01
  3.170768e+01    9.696530e-01
  3.173943e+01    1.038432e+00
  3.177118e+01    1.155978e+00
  3.180293e+01    1.380753e+00
  3.183468e+01    1.638498e+00
  3.186643e+01    1.960496e+00
  3.189818e+01    2.178962e+00
  3.192994e+01    2.173249e+00
  3.196169e+01    2.005674e+00
  3.199344e+01    1.659202e+00
  3.202519e+01    1.358619e+00
  3.205694e+01    1.180470e+00
  3.208869e+01    1.030348e+00
  3.212044e+01    9.302057e-01
  3.215219e+01    8.904689e-01
  3.218394e+01    8.311610e-01
  3.221570e+01    8.082353e-01
  3.224745e+01    7.612401e-01
  3.227920e+01    7.727788e-01
  3.231095e+01    7.669072e-01
  3.234270e+01    7.449056e-01
  3.237445e+01    7.103344e-01
  3.240620e+01    7.229611e-01
  3.243795e+01    7.260049e-01
  3.246970e+01    7.312960e-01
  3.250146e+01    7.049117e-01
  3.253321e+01    7.153937e-01
  3.254908e+01    7.322695e-01