File: XRD/Activation ramp/2024-07-27_002_Ru-CGO-ex_Activtation_ramp_000002_data_000154.dat
# == pyFAI calibration ==
# Distance Sample to Detector: 0.4 m
# PONI: 9.750e-02, 1.135e-01 m
# Rotations: -0.000175 0.000000 -0.000000 rad
#
# == Fit2d calibration ==
# Distance Sample-beamCenter: 400.000 mm
# Center: x=1514.000, y=1300.000 pix
# Tilt: 0.010 deg  TiltPlanRot: 0.010 deg
#
# Detector Detector	 Spline= None	 PixelSize= 7.500e-05, 7.500e-05 m
#    Detector has a mask: False
#    Detector has a dark current: False
#    detector has a flat field: False
#
# Wavelength: 6.888e-11 m
# Mask applied: user provided
# Dark current applied: False
# Flat field applied: False
# Polarization factor: 0.99
# Normalization factor: 1.0
# --> /home/myspot/data/2024_07_Rosario/Ru-CGO-ex/2024-07-27_002_Ru-CGO-ex_Activtation_ramp_000002_data_000154.dat
#       q_nm^-1             I
  2.003187e-02    2.227120e-02
  5.178302e-02    1.910478e-02
  8.353417e-02    5.967999e-02
  1.152853e-01    1.167954e-01
  1.470365e-01    6.391588e-02
  1.787876e-01    6.461566e-03
  2.105388e-01    9.297045e-03
  2.422899e-01    5.875355e-02
  2.740411e-01    5.657192e-02
  3.057922e-01    6.828135e-02
  3.375433e-01    3.634661e-02
  3.692945e-01    4.393214e-02
  4.010456e-01    4.133193e-02
  4.327968e-01    2.210751e-02
  4.645479e-01    4.700249e-02
  4.962991e-01    7.047389e-02
  5.280502e-01    3.264985e-02
  5.598014e-01    4.033284e-02
  5.915525e-01    5.138957e-02
  6.233037e-01    6.106355e-02
  6.550548e-01    2.709058e-02
  6.868060e-01    1.827431e-02
  7.185571e-01    5.033430e-02
  7.503083e-01    3.403471e-02
  7.820594e-01    9.600445e-02
  8.138106e-01    1.798617e-01
  8.455617e-01    2.675133e-01
  8.773129e-01    4.667619e-01
  9.090640e-01    4.743785e-01
  9.408152e-01    7.781550e-01
  9.725663e-01    9.053499e-01
  1.004317e+00    1.068667e+00
  1.036069e+00    1.107453e+00
  1.067820e+00    1.309346e+00
  1.099571e+00    1.461666e+00
  1.131322e+00    1.435623e+00
  1.163073e+00    1.544439e+00
  1.194824e+00    1.634470e+00
  1.226575e+00    2.189586e+00
  1.258327e+00    2.222586e+00
  1.290078e+00    2.531317e+00
  1.321829e+00    2.499751e+00
  1.353580e+00    2.586318e+00
  1.385331e+00    2.733947e+00
  1.417082e+00    2.713725e+00
  1.448834e+00    2.687142e+00
  1.480585e+00    2.638854e+00
  1.512336e+00    2.862117e+00
  1.544087e+00    2.986523e+00
  1.575838e+00    2.986144e+00
  1.607589e+00    2.855244e+00
  1.639340e+00    2.710209e+00
  1.671092e+00    2.848620e+00
  1.702843e+00    2.586939e+00
  1.734594e+00    2.657142e+00
  1.766345e+00    2.699029e+00
  1.798096e+00    2.762560e+00
  1.829847e+00    2.711868e+00
  1.861598e+00    2.740072e+00
  1.893350e+00    2.597051e+00
  1.925101e+00    2.654082e+00
  1.956852e+00    2.717508e+00
  1.988603e+00    2.789207e+00
  2.020354e+00    2.711943e+00
  2.052105e+00    2.782943e+00
  2.083856e+00    2.875546e+00
  2.115608e+00    2.728678e+00
  2.147359e+00    2.636063e+00
  2.179110e+00    2.675108e+00
  2.210861e+00    2.745575e+00
  2.242612e+00    2.726119e+00
  2.274363e+00    2.830019e+00
  2.306115e+00    2.770355e+00
  2.337866e+00    2.787504e+00
  2.369617e+00    2.689152e+00
  2.401368e+00    2.703620e+00
  2.433119e+00    2.795922e+00
  2.464870e+00    2.823123e+00
  2.496621e+00    2.717539e+00
  2.528373e+00    2.935844e+00
  2.560124e+00    2.779957e+00
  2.591875e+00    2.748052e+00
  2.623626e+00    2.811736e+00
  2.655377e+00    2.840357e+00
  2.687128e+00    2.901270e+00
  2.718879e+00    2.803757e+00
  2.750631e+00    2.890905e+00
  2.782382e+00    2.873629e+00
  2.814133e+00    2.803160e+00
  2.845884e+00    2.824122e+00
  2.877635e+00    2.928493e+00
  2.909386e+00    2.861949e+00
  2.941137e+00    2.918447e+00
  2.972889e+00    2.870980e+00
  3.004640e+00    2.898288e+00
  3.036391e+00    2.944064e+00
  3.068142e+00    2.890323e+00
  3.099893e+00    2.924575e+00
  3.131644e+00    2.953103e+00
  3.163395e+00    2.905249e+00
  3.195147e+00    2.937549e+00
  3.226898e+00    2.934901e+00
  3.258649e+00    2.996317e+00
  3.290400e+00    2.958397e+00
  3.322151e+00    3.045006e+00
  3.353902e+00    2.984338e+00
  3.385654e+00    2.999408e+00
  3.417405e+00    2.950337e+00
  3.449156e+00    3.007532e+00
  3.480907e+00    3.039197e+00
  3.512658e+00    2.898771e+00
  3.544409e+00    3.021589e+00
  3.576160e+00    2.965442e+00
  3.607912e+00    3.027671e+00
  3.639663e+00    2.975552e+00
  3.671414e+00    2.963167e+00
  3.703165e+00    2.946079e+00
  3.734916e+00    3.050717e+00
  3.766667e+00    3.026917e+00
  3.798418e+00    2.973317e+00
  3.830170e+00    3.046268e+00
  3.861921e+00    3.061916e+00
  3.893672e+00    3.033590e+00
  3.925423e+00    3.030302e+00
  3.957174e+00    3.078512e+00
  3.988925e+00    3.072295e+00
  4.020676e+00    3.005934e+00
  4.052428e+00    2.983181e+00
  4.084179e+00    3.097999e+00
  4.115930e+00    2.979721e+00
  4.147681e+00    3.072205e+00
  4.179432e+00    3.057669e+00
  4.211183e+00    3.106536e+00
  4.242935e+00    3.101752e+00
  4.274686e+00    3.058382e+00
  4.306437e+00    3.097559e+00
  4.338188e+00    3.094674e+00
  4.369939e+00    3.106365e+00
  4.401690e+00    3.002827e+00
  4.433441e+00    3.106383e+00
  4.465193e+00    3.059962e+00
  4.496944e+00    3.083114e+00
  4.528695e+00    3.065239e+00
  4.560446e+00    3.029011e+00
  4.592197e+00    3.124253e+00
  4.623948e+00    3.077021e+00
  4.655699e+00    3.062031e+00
  4.687451e+00    3.071378e+00
  4.719202e+00    3.163263e+00
  4.750953e+00    3.246724e+00
  4.782704e+00    3.163553e+00
  4.814455e+00    3.130544e+00
  4.846206e+00    3.179267e+00
  4.877957e+00    3.093254e+00
  4.909709e+00    3.136894e+00
  4.941460e+00    3.122097e+00
  4.973211e+00    3.149361e+00
  5.004962e+00    3.151069e+00
  5.036713e+00    3.170609e+00
  5.068464e+00    3.128185e+00
  5.100216e+00    3.091400e+00
  5.131967e+00    3.163908e+00
  5.163718e+00    3.106170e+00
  5.195469e+00    3.194439e+00
  5.227220e+00    3.170899e+00
  5.258971e+00    3.129656e+00
  5.290722e+00    3.257081e+00
  5.322474e+00    3.127636e+00
  5.354225e+00    3.128360e+00
  5.385976e+00    3.170422e+00
  5.417727e+00    3.075155e+00
  5.449478e+00    3.112519e+00
  5.481229e+00    3.118388e+00
  5.512980e+00    3.139690e+00
  5.544732e+00    3.086819e+00
  5.576483e+00    3.085892e+00
  5.608234e+00    3.096647e+00
  5.639985e+00    3.031055e+00
  5.671736e+00    3.093555e+00
  5.703487e+00    3.057433e+00
  5.735238e+00    3.116644e+00
  5.766990e+00    3.038247e+00
  5.798741e+00    3.090378e+00
  5.830492e+00    3.104796e+00
  5.862243e+00    2.985641e+00
  5.893994e+00    3.060305e+00
  5.925745e+00    3.045937e+00
  5.957497e+00    3.005050e+00
  5.989248e+00    2.955944e+00
  6.020999e+00    2.932985e+00
  6.052750e+00    3.107191e+00
  6.084501e+00    3.069563e+00
  6.116252e+00    3.139450e+00
  6.148003e+00    3.102123e+00
  6.179755e+00    3.126889e+00
  6.211506e+00    3.014629e+00
  6.243257e+00    2.999535e+00
  6.275008e+00    3.032841e+00
  6.306759e+00    2.984970e+00
  6.338510e+00    3.145621e+00
  6.370261e+00    3.004050e+00
  6.402013e+00    3.045209e+00
  6.433764e+00    3.124074e+00
  6.465515e+00    3.008651e+00
  6.497266e+00    3.101954e+00
  6.529017e+00    3.110312e+00
  6.560768e+00    2.963387e+00
  6.592519e+00    3.048232e+00
  6.624271e+00    3.036566e+00
  6.656022e+00    3.042222e+00
  6.687773e+00    3.078041e+00
  6.719524e+00    3.062873e+00
  6.751275e+00    3.014173e+00
  6.783026e+00    3.006578e+00
  6.814777e+00    3.044772e+00
  6.846529e+00    3.041102e+00
  6.878280e+00    3.087516e+00
  6.910031e+00    3.038689e+00
  6.941782e+00    3.024341e+00
  6.973533e+00    3.010929e+00
  7.005284e+00    3.018236e+00
  7.037036e+00    3.060021e+00
  7.068787e+00    3.025883e+00
  7.100538e+00    3.099914e+00
  7.132289e+00    3.011315e+00
  7.164040e+00    2.951691e+00
  7.195791e+00    2.978721e+00
  7.227542e+00    3.045707e+00
  7.259294e+00    3.041938e+00
  7.291045e+00    3.057894e+00
  7.322796e+00    2.928957e+00
  7.354547e+00    3.011535e+00
  7.386298e+00    3.080414e+00
  7.418049e+00    2.957556e+00
  7.449800e+00    3.013635e+00
  7.481552e+00    3.007082e+00
  7.513303e+00    2.952763e+00
  7.545054e+00    3.002661e+00
  7.576805e+00    3.034838e+00
  7.608556e+00    3.001415e+00
  7.640307e+00    2.922471e+00
  7.672058e+00    2.940375e+00
  7.703810e+00    2.939360e+00
  7.735561e+00    3.000083e+00
  7.767312e+00    3.017574e+00
  7.799063e+00    3.009009e+00
  7.830814e+00    2.973262e+00
  7.862565e+00    2.886836e+00
  7.894317e+00    2.960275e+00
  7.926068e+00    2.999574e+00
  7.957819e+00    2.914443e+00
  7.989570e+00    2.990011e+00
  8.021321e+00    2.931863e+00
  8.053072e+00    2.917709e+00
  8.084823e+00    2.935316e+00
  8.116575e+00    2.937763e+00
  8.148326e+00    2.972703e+00
  8.180077e+00    2.994308e+00
  8.211828e+00    3.007447e+00
  8.243579e+00    3.026023e+00
  8.275330e+00    2.908628e+00
  8.307081e+00    2.899861e+00
  8.338833e+00    2.931267e+00
  8.370584e+00    2.958647e+00
  8.402335e+00    2.905404e+00
  8.434086e+00    2.893070e+00
  8.465837e+00    2.942484e+00
  8.497588e+00    2.939060e+00
  8.529339e+00    2.874999e+00
  8.561091e+00    2.919641e+00
  8.592842e+00    2.910821e+00
  8.624593e+00    2.963618e+00
  8.656344e+00    2.897494e+00
  8.688095e+00    2.860204e+00
  8.719846e+00    2.906315e+00
  8.751598e+00    2.855293e+00
  8.783349e+00    2.835457e+00
  8.815100e+00    2.902864e+00
  8.846851e+00    2.870763e+00
  8.878602e+00    2.816844e+00
  8.910353e+00    2.799757e+00
  8.942104e+00    2.895922e+00
  8.973856e+00    2.826055e+00
  9.005607e+00    2.860760e+00
  9.037358e+00    2.833522e+00
  9.069109e+00    2.841134e+00
  9.100860e+00    2.807520e+00
  9.132611e+00    2.828241e+00
  9.164362e+00    2.786137e+00
  9.196114e+00    2.768868e+00
  9.227865e+00    2.815152e+00
  9.259616e+00    2.845200e+00
  9.291367e+00    2.763069e+00
  9.323118e+00    2.780099e+00
  9.354869e+00    2.814249e+00
  9.386620e+00    2.738147e+00
  9.418372e+00    2.768520e+00
  9.450123e+00    2.799551e+00
  9.481874e+00    2.785077e+00
  9.513625e+00    2.764995e+00
  9.545376e+00    2.813632e+00
  9.577127e+00    2.758782e+00
  9.608878e+00    2.756954e+00
  9.640630e+00    2.735816e+00
  9.672381e+00    2.703032e+00
  9.704132e+00    2.722352e+00
  9.735883e+00    2.753148e+00
  9.767634e+00    2.801127e+00
  9.799385e+00    2.714760e+00
  9.831137e+00    2.699329e+00
  9.862888e+00    2.759984e+00
  9.894639e+00    2.772243e+00
  9.926390e+00    2.692783e+00
  9.958141e+00    2.708918e+00
  9.989892e+00    2.673690e+00
  1.002164e+01    2.709800e+00
  1.005339e+01    2.702947e+00
  1.008515e+01    2.660321e+00
  1.011690e+01    2.647068e+00
  1.014865e+01    2.671010e+00
  1.018040e+01    2.710003e+00
  1.021215e+01    2.652690e+00
  1.024390e+01    2.647342e+00
  1.027565e+01    2.615265e+00
  1.030740e+01    2.650450e+00
  1.033915e+01    2.652627e+00
  1.037091e+01    2.626212e+00
  1.040266e+01    2.643551e+00
  1.043441e+01    2.675305e+00
  1.046616e+01    2.650110e+00
  1.049791e+01    2.625836e+00
  1.052966e+01    2.611298e+00
  1.056141e+01    2.674158e+00
  1.059316e+01    2.620735e+00
  1.062492e+01    2.565472e+00
  1.065667e+01    2.567680e+00
  1.068842e+01    2.627294e+00
  1.072017e+01    2.527953e+00
  1.075192e+01    2.533463e+00
  1.078367e+01    2.530132e+00
  1.081542e+01    2.561692e+00
  1.084717e+01    2.537999e+00
  1.087892e+01    2.566427e+00
  1.091068e+01    2.518996e+00
  1.094243e+01    2.531021e+00
  1.097418e+01    2.553958e+00
  1.100593e+01    2.494953e+00
  1.103768e+01    2.491841e+00
  1.106943e+01    2.497832e+00
  1.110118e+01    2.527158e+00
  1.113293e+01    2.473013e+00
  1.116468e+01    2.482813e+00
  1.119644e+01    2.462523e+00
  1.122819e+01    2.482459e+00
  1.125994e+01    2.490185e+00
  1.129169e+01    2.469066e+00
  1.132344e+01    2.453917e+00
  1.135519e+01    2.431085e+00
  1.138694e+01    2.432094e+00
  1.141869e+01    2.376509e+00
  1.145045e+01    2.394626e+00
  1.148220e+01    2.398230e+00
  1.151395e+01    2.419230e+00
  1.154570e+01    2.449227e+00
  1.157745e+01    2.346302e+00
  1.160920e+01    2.397799e+00
  1.164095e+01    2.390915e+00
  1.167270e+01    2.427629e+00
  1.170445e+01    2.379960e+00
  1.173621e+01    2.347438e+00
  1.176796e+01    2.397073e+00
  1.179971e+01    2.376899e+00
  1.183146e+01    2.373590e+00
  1.186321e+01    2.349341e+00
  1.189496e+01    2.383921e+00
  1.192671e+01    2.325149e+00
  1.195846e+01    2.347485e+00
  1.199021e+01    2.354125e+00
  1.202197e+01    2.353592e+00
  1.205372e+01    2.353567e+00
  1.208547e+01    2.341285e+00
  1.211722e+01    2.350549e+00
  1.214897e+01    2.339301e+00
  1.218072e+01    2.370191e+00
  1.221247e+01    2.411429e+00
  1.224422e+01    2.359911e+00
  1.227597e+01    2.315787e+00
  1.230773e+01    2.306239e+00
  1.233948e+01    2.307884e+00
  1.237123e+01    2.347003e+00
  1.240298e+01    2.342742e+00
  1.243473e+01    2.392507e+00
  1.246648e+01    2.340375e+00
  1.249823e+01    2.350327e+00
  1.252998e+01    2.347796e+00
  1.256174e+01    2.366403e+00
  1.259349e+01    2.386314e+00
  1.262524e+01    2.444098e+00
  1.265699e+01    2.436327e+00
  1.268874e+01    2.480957e+00
  1.272049e+01    2.474318e+00
  1.275224e+01    2.585350e+00
  1.278399e+01    2.591084e+00
  1.281574e+01    2.731127e+00
  1.284750e+01    2.830231e+00
  1.287925e+01    3.043108e+00
  1.291100e+01    3.342515e+00
  1.294275e+01    3.769809e+00
  1.297450e+01    4.412305e+00
  1.300625e+01    5.497427e+00
  1.303800e+01    7.225172e+00
  1.306975e+01    9.769915e+00
  1.310150e+01    1.231558e+01
  1.313326e+01    1.456869e+01
  1.316501e+01    1.634552e+01
  1.319676e+01    1.613073e+01
  1.322851e+01    1.296993e+01
  1.326026e+01    9.317727e+00
  1.329201e+01    6.653481e+00
  1.332376e+01    5.225177e+00
  1.335551e+01    4.234596e+00
  1.338727e+01    3.606329e+00
  1.341902e+01    3.187364e+00
  1.345077e+01    2.969707e+00
  1.348252e+01    2.723666e+00
  1.351427e+01    2.656814e+00
  1.354602e+01    2.512395e+00
  1.357777e+01    2.420140e+00
  1.360952e+01    2.393595e+00
  1.364127e+01    2.322590e+00
  1.367303e+01    2.279311e+00
  1.370478e+01    2.277682e+00
  1.373653e+01    2.211373e+00
  1.376828e+01    2.158324e+00
  1.380003e+01    2.191042e+00
  1.383178e+01    2.162431e+00
  1.386353e+01    2.158806e+00
  1.389528e+01    2.101726e+00
  1.392703e+01    2.111673e+00
  1.395879e+01    2.074048e+00
  1.399054e+01    2.050025e+00
  1.402229e+01    2.018935e+00
  1.405404e+01    2.106363e+00
  1.408579e+01    2.013820e+00
  1.411754e+01    2.063376e+00
  1.414929e+01    2.032502e+00
  1.418104e+01    2.002022e+00
  1.421279e+01    1.986744e+00
  1.424455e+01    2.015276e+00
  1.427630e+01    2.011480e+00
  1.430805e+01    1.963889e+00
  1.433980e+01    1.941895e+00
  1.437155e+01    1.977046e+00
  1.440330e+01    1.953684e+00
  1.443505e+01    1.912917e+00
  1.446680e+01    1.988613e+00
  1.449856e+01    1.963749e+00
  1.453031e+01    1.943396e+00
  1.456206e+01    1.927442e+00
  1.459381e+01    1.928012e+00
  1.462556e+01    1.972835e+00
  1.465731e+01    1.943689e+00
  1.468906e+01    1.936692e+00
  1.472081e+01    1.883411e+00
  1.475256e+01    1.954497e+00
  1.478432e+01    1.908221e+00
  1.481607e+01    1.923959e+00
  1.484782e+01    1.927001e+00
  1.487957e+01    1.984394e+00
  1.491132e+01    1.964563e+00
  1.494307e+01    2.034738e+00
  1.497482e+01    2.068152e+00
  1.500657e+01    2.213372e+00
  1.503832e+01    2.332680e+00
  1.507008e+01    2.567314e+00
  1.510183e+01    2.942287e+00
  1.513358e+01    3.502788e+00
  1.516533e+01    4.228385e+00
  1.519708e+01    4.938197e+00
  1.522883e+01    5.448810e+00
  1.526058e+01    5.721780e+00
  1.529233e+01    5.503926e+00
  1.532409e+01    4.620516e+00
  1.535584e+01    3.604949e+00
  1.538759e+01    3.000864e+00
  1.541934e+01    2.557512e+00
  1.545109e+01    2.228073e+00
  1.548284e+01    2.156135e+00
  1.551459e+01    1.990593e+00
  1.554634e+01    1.924071e+00
  1.557809e+01    1.906294e+00
  1.560985e+01    1.825624e+00
  1.564160e+01    1.778267e+00
  1.567335e+01    1.766100e+00
  1.570510e+01    1.730720e+00
  1.573685e+01    1.695176e+00
  1.576860e+01    1.709378e+00
  1.580035e+01    1.685081e+00
  1.583210e+01    1.729919e+00
  1.586385e+01    1.653247e+00
  1.589561e+01    1.669209e+00
  1.592736e+01    1.656199e+00
  1.595911e+01    1.607649e+00
  1.599086e+01    1.602306e+00
  1.602261e+01    1.596502e+00
  1.605436e+01    1.657313e+00
  1.608611e+01    1.601471e+00
  1.611786e+01    1.587661e+00
  1.614961e+01    1.611879e+00
  1.618137e+01    1.563349e+00
  1.621312e+01    1.579548e+00
  1.624487e+01    1.598814e+00
  1.627662e+01    1.561262e+00
  1.630837e+01    1.568993e+00
  1.634012e+01    1.549629e+00
  1.637187e+01    1.583016e+00
  1.640362e+01    1.565026e+00
  1.643538e+01    1.541098e+00
  1.646713e+01    1.555029e+00
  1.649888e+01    1.543136e+00
  1.653063e+01    1.509491e+00
  1.656238e+01    1.523010e+00
  1.659413e+01    1.505764e+00
  1.662588e+01    1.496293e+00
  1.665763e+01    1.466262e+00
  1.668938e+01    1.495476e+00
  1.672114e+01    1.485823e+00
  1.675289e+01    1.481632e+00
  1.678464e+01    1.502693e+00
  1.681639e+01    1.484570e+00
  1.684814e+01    1.470814e+00
  1.687989e+01    1.471670e+00
  1.691164e+01    1.450967e+00
  1.694339e+01    1.446130e+00
  1.697514e+01    1.453637e+00
  1.700690e+01    1.465661e+00
  1.703865e+01    1.441539e+00
  1.707040e+01    1.433716e+00
  1.710215e+01    1.396151e+00
  1.713390e+01    1.394292e+00
  1.716565e+01    1.424940e+00
  1.719740e+01    1.414652e+00
  1.722915e+01    1.399595e+00
  1.726091e+01    1.411539e+00
  1.729266e+01    1.393946e+00
  1.732441e+01    1.373144e+00
  1.735616e+01    1.389975e+00
  1.738791e+01    1.397849e+00
  1.741966e+01    1.395192e+00
  1.745141e+01    1.367829e+00
  1.748316e+01    1.401915e+00
  1.751491e+01    1.353507e+00
  1.754667e+01    1.358241e+00
  1.757842e+01    1.371805e+00
  1.761017e+01    1.419677e+00
  1.764192e+01    1.362173e+00
  1.767367e+01    1.326353e+00
  1.770542e+01    1.343855e+00
  1.773717e+01    1.350088e+00
  1.776892e+01    1.342447e+00
  1.780067e+01    1.348496e+00
  1.783243e+01    1.349384e+00
  1.786418e+01    1.352632e+00
  1.789593e+01    1.314440e+00
  1.792768e+01    1.337874e+00
  1.795943e+01    1.320515e+00
  1.799118e+01    1.321812e+00
  1.802293e+01    1.313730e+00
  1.805468e+01    1.311321e+00
  1.808643e+01    1.317361e+00
  1.811819e+01    1.281618e+00
  1.814994e+01    1.297136e+00
  1.818169e+01    1.269586e+00
  1.821344e+01    1.304783e+00
  1.824519e+01    1.296819e+00
  1.827694e+01    1.283990e+00
  1.830869e+01    1.292372e+00
  1.834044e+01    1.290385e+00
  1.837220e+01    1.275622e+00
  1.840395e+01    1.277504e+00
  1.843570e+01    1.262205e+00
  1.846745e+01    1.228617e+00
  1.849920e+01    1.281266e+00
  1.853095e+01    1.266782e+00
  1.856270e+01    1.248546e+00
  1.859445e+01    1.230791e+00
  1.862620e+01    1.256030e+00
  1.865796e+01    1.220340e+00
  1.868971e+01    1.258924e+00
  1.872146e+01    1.241538e+00
  1.875321e+01    1.236401e+00
  1.878496e+01    1.230965e+00
  1.881671e+01    1.237897e+00
  1.884846e+01    1.227298e+00
  1.888021e+01    1.234424e+00
  1.891196e+01    1.194165e+00
  1.894372e+01    1.232545e+00
  1.897547e+01    1.230932e+00
  1.900722e+01    1.202393e+00
  1.903897e+01    1.182135e+00
  1.907072e+01    1.199134e+00
  1.910247e+01    1.197877e+00
  1.913422e+01    1.189371e+00
  1.916597e+01    1.167587e+00
  1.919773e+01    1.170280e+00
  1.922948e+01    1.202789e+00
  1.926123e+01    1.193985e+00
  1.929298e+01    1.210254e+00
  1.932473e+01    1.225043e+00
  1.935648e+01    1.172028e+00
  1.938823e+01    1.145182e+00
  1.941998e+01    1.145953e+00
  1.945173e+01    1.145394e+00
  1.948349e+01    1.192582e+00
  1.951524e+01    1.151690e+00
  1.954699e+01    1.167805e+00
  1.957874e+01    1.149926e+00
  1.961049e+01    1.178708e+00
  1.964224e+01    1.169354e+00
  1.967399e+01    1.172065e+00
  1.970574e+01    1.149172e+00
  1.973749e+01    1.161369e+00
  1.976925e+01    1.145319e+00
  1.980100e+01    1.139387e+00
  1.983275e+01    1.118999e+00
  1.986450e+01    1.119775e+00
  1.989625e+01    1.100155e+00
  1.992800e+01    1.121643e+00
  1.995975e+01    1.140419e+00
  1.999150e+01    1.112180e+00
  2.002325e+01    1.134337e+00
  2.005501e+01    1.111314e+00
  2.008676e+01    1.118799e+00
  2.011851e+01    1.137954e+00
  2.015026e+01    1.137098e+00
  2.018201e+01    1.103029e+00
  2.021376e+01    1.078367e+00
  2.024551e+01    1.128942e+00
  2.027726e+01    1.098560e+00
  2.030902e+01    1.105944e+00
  2.034077e+01    1.095809e+00
  2.037252e+01    1.091388e+00
  2.040427e+01    1.084927e+00
  2.043602e+01    1.109632e+00
  2.046777e+01    1.079125e+00
  2.049952e+01    1.109229e+00
  2.053127e+01    1.088457e+00
  2.056302e+01    1.078496e+00
  2.059478e+01    1.069211e+00
  2.062653e+01    1.055439e+00
  2.065828e+01    1.081686e+00
  2.069003e+01    1.084454e+00
  2.072178e+01    1.095907e+00
  2.075353e+01    1.083304e+00
  2.078528e+01    1.091938e+00
  2.081703e+01    1.067167e+00
  2.084878e+01    1.098127e+00
  2.088054e+01    1.093281e+00
  2.091229e+01    1.095007e+00
  2.094404e+01    1.093711e+00
  2.097579e+01    1.092615e+00
  2.100754e+01    1.094514e+00
  2.103929e+01    1.063450e+00
  2.107104e+01    1.085866e+00
  2.110279e+01    1.091781e+00
  2.113455e+01    1.096431e+00
  2.116630e+01    1.088569e+00
  2.119805e+01    1.079331e+00
  2.122980e+01    1.093956e+00
  2.126155e+01    1.140944e+00
  2.129330e+01    1.119642e+00
  2.132505e+01    1.164588e+00
  2.135680e+01    1.167715e+00
  2.138855e+01    1.174253e+00
  2.142031e+01    1.222095e+00
  2.145206e+01    1.220676e+00
  2.148381e+01    1.247009e+00
  2.151556e+01    1.304330e+00
  2.154731e+01    1.387245e+00
  2.157906e+01    1.479507e+00
  2.161081e+01    1.642711e+00
  2.164256e+01    1.813957e+00
  2.167431e+01    2.157989e+00
  2.170607e+01    2.636948e+00
  2.173782e+01    3.345400e+00
  2.176957e+01    4.392455e+00
  2.180132e+01    5.675153e+00
  2.183307e+01    7.065345e+00
  2.186482e+01    8.396088e+00
  2.189657e+01    9.142167e+00
  2.192832e+01    8.536036e+00
  2.196007e+01    6.840189e+00
  2.199183e+01    4.979053e+00
  2.202358e+01    3.603582e+00
  2.205533e+01    2.766470e+00
  2.208708e+01    2.246482e+00
  2.211883e+01    1.881640e+00
  2.215058e+01    1.649629e+00
  2.218233e+01    1.462051e+00
  2.221408e+01    1.384017e+00
  2.224584e+01    1.288627e+00
  2.227759e+01    1.222407e+00
  2.230934e+01    1.176139e+00
  2.234109e+01    1.117593e+00
  2.237284e+01    1.098677e+00
  2.240459e+01    1.086882e+00
  2.243634e+01    1.063349e+00
  2.246809e+01    1.055011e+00
  2.249984e+01    1.052864e+00
  2.253160e+01    1.006340e+00
  2.256335e+01    1.022168e+00
  2.259510e+01    9.843255e-01
  2.262685e+01    9.709269e-01
  2.265860e+01    9.870558e-01
  2.269035e+01    9.674003e-01
  2.272210e+01    9.491863e-01
  2.275385e+01    9.342166e-01
  2.278560e+01    9.353606e-01
  2.281736e+01    9.217615e-01
  2.284911e+01    9.373752e-01
  2.288086e+01    9.322059e-01
  2.291261e+01    9.134635e-01
  2.294436e+01    9.126595e-01
  2.297611e+01    9.179733e-01
  2.300786e+01    9.047971e-01
  2.303961e+01    8.915366e-01
  2.307137e+01    8.954681e-01
  2.310312e+01    8.796406e-01
  2.313487e+01    8.668049e-01
  2.316662e+01    8.894048e-01
  2.319837e+01    8.892164e-01
  2.323012e+01    8.914005e-01
  2.326187e+01    9.011475e-01
  2.329362e+01    8.852462e-01
  2.332537e+01    8.665125e-01
  2.335713e+01    8.596723e-01
  2.338888e+01    8.542738e-01
  2.342063e+01    8.586215e-01
  2.345238e+01    8.469458e-01
  2.348413e+01    8.466080e-01
  2.351588e+01    8.473097e-01
  2.354763e+01    8.364648e-01
  2.357938e+01    8.428130e-01
  2.361113e+01    8.361359e-01
  2.364289e+01    8.545994e-01
  2.367464e+01    8.404647e-01
  2.370639e+01    8.272458e-01
  2.373814e+01    8.011633e-01
  2.376989e+01    8.240854e-01
  2.380164e+01    8.321683e-01
  2.383339e+01    8.005561e-01
  2.386514e+01    8.192741e-01
  2.389689e+01    7.955886e-01
  2.392865e+01    8.108032e-01
  2.396040e+01    8.246693e-01
  2.399215e+01    7.864005e-01
  2.402390e+01    7.909433e-01
  2.405565e+01    8.102031e-01
  2.408740e+01    7.961816e-01
  2.411915e+01    7.910769e-01
  2.415090e+01    7.799755e-01
  2.418266e+01    7.874269e-01
  2.421441e+01    7.642080e-01
  2.424616e+01    7.558436e-01
  2.427791e+01    7.915137e-01
  2.430966e+01    7.918373e-01
  2.434141e+01    7.955638e-01
  2.437316e+01    8.053374e-01
  2.440491e+01    7.777929e-01
  2.443666e+01    7.921569e-01
  2.446842e+01    8.073789e-01
  2.450017e+01    7.838954e-01
  2.453192e+01    7.884002e-01
  2.456367e+01    7.896175e-01
  2.459542e+01    7.824337e-01
  2.462717e+01    8.065014e-01
  2.465892e+01    7.819976e-01
  2.469067e+01    7.838392e-01
  2.472242e+01    7.835042e-01
  2.475418e+01    7.940510e-01
  2.478593e+01    7.945197e-01
  2.481768e+01    8.092051e-01
  2.484943e+01    8.122464e-01
  2.488118e+01    8.111004e-01
  2.491293e+01    7.926053e-01
  2.494468e+01    7.992377e-01
  2.497643e+01    7.843247e-01
  2.500819e+01    8.013328e-01
  2.503994e+01    8.147292e-01
  2.507169e+01    7.877284e-01
  2.510344e+01    8.264323e-01
  2.513519e+01    8.175860e-01
  2.516694e+01    8.302178e-01
  2.519869e+01    8.317230e-01
  2.523044e+01    8.396149e-01
  2.526219e+01    8.376506e-01
  2.529395e+01    8.518276e-01
  2.532570e+01    8.970826e-01
  2.535745e+01    8.741556e-01
  2.538920e+01    8.951238e-01
  2.542095e+01    9.130350e-01
  2.545270e+01    9.094103e-01
  2.548445e+01    9.608823e-01
  2.551620e+01    1.010312e+00
  2.554795e+01    1.032867e+00
  2.557971e+01    1.066908e+00
  2.561146e+01    1.153363e+00
  2.564321e+01    1.217208e+00
  2.567496e+01    1.342795e+00
  2.570671e+01    1.538625e+00
  2.573846e+01    1.731810e+00
  2.577021e+01    2.156780e+00
  2.580196e+01    2.710172e+00
  2.583371e+01    3.523173e+00
  2.586547e+01    4.548539e+00
  2.589722e+01    5.829733e+00
  2.592897e+01    6.829953e+00
  2.596072e+01    7.372007e+00
  2.599247e+01    6.998272e+00
  2.602422e+01    5.641869e+00
  2.605597e+01    4.153389e+00
  2.608772e+01    3.060783e+00
  2.611948e+01    2.354918e+00
  2.615123e+01    1.939202e+00
  2.618298e+01    1.628751e+00
  2.621473e+01    1.450735e+00
  2.624648e+01    1.254464e+00
  2.627823e+01    1.190297e+00
  2.630998e+01    1.107581e+00
  2.634173e+01    1.065601e+00
  2.637348e+01    1.011355e+00
  2.640524e+01    9.647614e-01
  2.643699e+01    9.766715e-01
  2.646874e+01    9.499036e-01
  2.650049e+01    9.354483e-01
  2.653224e+01    9.203740e-01
  2.656399e+01    9.130849e-01
  2.659574e+01    9.116762e-01
  2.662749e+01    8.861347e-01
  2.665924e+01    9.028776e-01
  2.669100e+01    9.025398e-01
  2.672275e+01    8.918179e-01
  2.675450e+01    8.918254e-01
  2.678625e+01    8.967910e-01
  2.681800e+01    8.830565e-01
  2.684975e+01    9.034712e-01
  2.688150e+01    8.980435e-01
  2.691325e+01    9.009504e-01
  2.694501e+01    9.609101e-01
  2.697676e+01    1.019302e+00
  2.700851e+01    1.036203e+00
  2.704026e+01    1.106826e+00
  2.707201e+01    1.225115e+00
  2.710376e+01    1.429416e+00
  2.713551e+01    1.673614e+00
  2.716726e+01    1.893006e+00
  2.719901e+01    2.168181e+00
  2.723077e+01    2.209292e+00
  2.726252e+01    2.011546e+00
  2.729427e+01    1.710790e+00
  2.732602e+01    1.421669e+00
  2.735777e+01    1.264324e+00
  2.738952e+01    1.096236e+00
  2.742127e+01    1.036498e+00
  2.745302e+01    9.767078e-01
  2.748477e+01    9.063862e-01
  2.751653e+01    8.959331e-01
  2.754828e+01    8.682301e-01
  2.758003e+01    8.776941e-01
  2.761178e+01    8.278981e-01
  2.764353e+01    8.309970e-01
  2.767528e+01    8.331154e-01
  2.770703e+01    8.323649e-01
  2.773878e+01    8.300369e-01
  2.777054e+01    8.179756e-01
  2.780229e+01    8.126935e-01
  2.783404e+01    8.075065e-01
  2.786579e+01    7.966483e-01
  2.789754e+01    7.997807e-01
  2.792929e+01    7.920349e-01
  2.796104e+01    8.065315e-01
  2.799279e+01    7.941207e-01
  2.802454e+01    7.561050e-01
  2.805630e+01    7.896878e-01
  2.808805e+01    7.964859e-01
  2.811980e+01    7.755863e-01
  2.815155e+01    7.851117e-01
  2.818330e+01    7.754811e-01
  2.821505e+01    7.733208e-01
  2.824680e+01    7.563577e-01
  2.827855e+01    7.677887e-01
  2.831030e+01    7.698141e-01
  2.834206e+01    7.809682e-01
  2.837381e+01    7.510850e-01
  2.840556e+01    7.624695e-01
  2.843731e+01    7.725205e-01
  2.846906e+01    7.700666e-01
  2.850081e+01    7.711858e-01
  2.853256e+01    7.621139e-01
  2.856431e+01    7.620899e-01
  2.859606e+01    7.600872e-01
  2.862782e+01    7.280725e-01
  2.865957e+01    7.551332e-01
  2.869132e+01    7.331108e-01
  2.872307e+01    7.521231e-01
  2.875482e+01    7.421366e-01
  2.878657e+01    7.421340e-01
  2.881832e+01    7.370723e-01
  2.885007e+01    7.494559e-01
  2.888183e+01    7.432655e-01
  2.891358e+01    7.343329e-01
  2.894533e+01    7.487879e-01
  2.897708e+01    7.371312e-01
  2.900883e+01    7.259662e-01
  2.904058e+01    7.296846e-01
  2.907233e+01    7.313235e-01
  2.910408e+01    7.260248e-01
  2.913583e+01    7.490438e-01
  2.916759e+01    7.310217e-01
  2.919934e+01    7.219460e-01
  2.923109e+01    7.202384e-01
  2.926284e+01    7.426759e-01
  2.929459e+01    7.320832e-01
  2.932634e+01    7.184168e-01
  2.935809e+01    7.352043e-01
  2.938984e+01    7.227626e-01
  2.942159e+01    7.447359e-01
  2.945335e+01    7.278262e-01
  2.948510e+01    7.091294e-01
  2.951685e+01    7.235037e-01
  2.954860e+01    7.264504e-01
  2.958035e+01    7.121235e-01
  2.961210e+01    7.195723e-01
  2.964385e+01    7.282804e-01
  2.967560e+01    7.277539e-01
  2.970736e+01    7.157620e-01
  2.973911e+01    7.042156e-01
  2.977086e+01    7.042163e-01
  2.980261e+01    7.222095e-01
  2.983436e+01    7.354732e-01
  2.986611e+01    7.079968e-01
  2.989786e+01    7.039047e-01
  2.992961e+01    7.098733e-01
  2.996136e+01    7.228218e-01
  2.999312e+01    7.233691e-01
  3.002487e+01    7.249731e-01
  3.005662e+01    7.449406e-01
  3.008837e+01    7.429279e-01
  3.012012e+01    7.256303e-01
  3.015187e+01    7.209010e-01
  3.018362e+01    6.991706e-01
  3.021537e+01    7.223511e-01
  3.024712e+01    7.064528e-01
  3.027888e+01    6.985185e-01
  3.031063e+01    7.033914e-01
  3.034238e+01    7.078159e-01
  3.037413e+01    7.107942e-01
  3.040588e+01    7.164065e-01
  3.043763e+01    7.410181e-01
  3.046938e+01    7.115280e-01
  3.050113e+01    7.026119e-01
  3.053288e+01    7.016834e-01
  3.056464e+01    7.204274e-01
  3.059639e+01    7.167905e-01
  3.062814e+01    7.302705e-01
  3.065989e+01    7.349055e-01
  3.069164e+01    6.915928e-01
  3.072339e+01    7.039040e-01
  3.075514e+01    7.136761e-01
  3.078689e+01    7.111411e-01
  3.081865e+01    6.976779e-01
  3.085040e+01    7.275490e-01
  3.088215e+01    7.079158e-01
  3.091390e+01    7.187796e-01
  3.094565e+01    7.278733e-01
  3.097740e+01    7.151037e-01
  3.100915e+01    7.195802e-01
  3.104090e+01    7.406703e-01
  3.107265e+01    7.118639e-01
  3.110441e+01    7.125113e-01
  3.113616e+01    7.011145e-01
  3.116791e+01    7.071762e-01
  3.119966e+01    7.081101e-01
  3.123141e+01    7.532336e-01
  3.126316e+01    7.445893e-01
  3.129491e+01    7.291843e-01
  3.132666e+01    7.383953e-01
  3.135841e+01    7.381688e-01
  3.139017e+01    7.118125e-01
  3.142192e+01    7.685211e-01
  3.145367e+01    7.618830e-01
  3.148542e+01    7.621149e-01
  3.151717e+01    7.695943e-01
  3.154892e+01    8.014387e-01
  3.158067e+01    8.199738e-01
  3.161242e+01    8.264252e-01
  3.164418e+01    8.348264e-01
  3.167593e+01    9.146783e-01
  3.170768e+01    1.003014e+00
  3.173943e+01    1.083816e+00
  3.177118e+01    1.196020e+00
  3.180293e+01    1.429964e+00
  3.183468e+01    1.698070e+00
  3.186643e+01    1.980354e+00
  3.189818e+01    2.188439e+00
  3.192994e+01    2.174637e+00
  3.196169e+01    1.907045e+00
  3.199344e+01    1.580205e+00
  3.202519e+01    1.313366e+00
  3.205694e+01    1.174217e+00
  3.208869e+01    1.009947e+00
  3.212044e+01    9.058863e-01
  3.215219e+01    8.813932e-01
  3.218394e+01    8.178370e-01
  3.221570e+01    8.300341e-01
  3.224745e+01    7.578313e-01
  3.227920e+01    7.876876e-01
  3.231095e+01    7.430894e-01
  3.234270e+01    7.128609e-01
  3.237445e+01    7.530006e-01
  3.240620e+01    7.621682e-01
  3.243795e+01    7.645007e-01
  3.246970e+01    7.342982e-01
  3.250146e+01    6.726683e-01
  3.253321e+01    7.466041e-01
  3.254908e+01    7.170488e-01