File: XRD/Activation ramp/2024-07-27_002_Ru-CGO-ex_Activtation_ramp_000002_data_000151.dat
# == pyFAI calibration ==
# Distance Sample to Detector: 0.4 m
# PONI: 9.750e-02, 1.135e-01 m
# Rotations: -0.000175 0.000000 -0.000000 rad
#
# == Fit2d calibration ==
# Distance Sample-beamCenter: 400.000 mm
# Center: x=1514.000, y=1300.000 pix
# Tilt: 0.010 deg  TiltPlanRot: 0.010 deg
#
# Detector Detector	 Spline= None	 PixelSize= 7.500e-05, 7.500e-05 m
#    Detector has a mask: False
#    Detector has a dark current: False
#    detector has a flat field: False
#
# Wavelength: 6.888e-11 m
# Mask applied: user provided
# Dark current applied: False
# Flat field applied: False
# Polarization factor: 0.99
# Normalization factor: 1.0
# --> /home/myspot/data/2024_07_Rosario/Ru-CGO-ex/2024-07-27_002_Ru-CGO-ex_Activtation_ramp_000002_data_000151.dat
#       q_nm^-1             I
  2.003187e-02    0.000000e+00
  5.178302e-02    4.982381e-02
  8.353417e-02    0.000000e+00
  1.152853e-01    8.246049e-02
  1.470365e-01    6.216580e-02
  1.787876e-01    3.023239e-02
  2.105388e-01    8.093559e-02
  2.422899e-01    3.556723e-03
  2.740411e-01    3.447911e-02
  3.057922e-01    6.008169e-02
  3.375433e-01    6.457707e-02
  3.692945e-01    3.678896e-02
  4.010456e-01    6.615544e-02
  4.327968e-01    3.621754e-02
  4.645479e-01    3.968972e-02
  4.962991e-01    3.498775e-02
  5.280502e-01    3.778790e-02
  5.598014e-01    3.140893e-02
  5.915525e-01    2.346888e-02
  6.233037e-01    3.003064e-02
  6.550548e-01    2.769273e-02
  6.868060e-01    4.740654e-02
  7.185571e-01    3.834978e-02
  7.503083e-01    5.749122e-02
  7.820594e-01    1.266177e-01
  8.138106e-01    1.739381e-01
  8.455617e-01    3.086042e-01
  8.773129e-01    4.179916e-01
  9.090640e-01    5.261705e-01
  9.408152e-01    6.782539e-01
  9.725663e-01    8.764806e-01
  1.004317e+00    1.085420e+00
  1.036069e+00    1.096153e+00
  1.067820e+00    1.296189e+00
  1.099571e+00    1.404929e+00
  1.131322e+00    1.491011e+00
  1.163073e+00    1.523425e+00
  1.194824e+00    1.537089e+00
  1.226575e+00    2.101767e+00
  1.258327e+00    2.411488e+00
  1.290078e+00    2.433671e+00
  1.321829e+00    2.505413e+00
  1.353580e+00    2.556393e+00
  1.385331e+00    2.560424e+00
  1.417082e+00    2.464950e+00
  1.448834e+00    2.740235e+00
  1.480585e+00    2.729374e+00
  1.512336e+00    2.860459e+00
  1.544087e+00    2.855000e+00
  1.575838e+00    2.926682e+00
  1.607589e+00    2.814668e+00
  1.639340e+00    2.887603e+00
  1.671092e+00    2.911519e+00
  1.702843e+00    2.881211e+00
  1.734594e+00    2.738733e+00
  1.766345e+00    2.831277e+00
  1.798096e+00    2.731578e+00
  1.829847e+00    2.791652e+00
  1.861598e+00    2.785468e+00
  1.893350e+00    2.668821e+00
  1.925101e+00    2.738986e+00
  1.956852e+00    2.741883e+00
  1.988603e+00    2.710331e+00
  2.020354e+00    2.637041e+00
  2.052105e+00    2.676066e+00
  2.083856e+00    2.784221e+00
  2.115608e+00    2.712220e+00
  2.147359e+00    2.738645e+00
  2.179110e+00    2.800862e+00
  2.210861e+00    2.755848e+00
  2.242612e+00    2.775590e+00
  2.274363e+00    2.755338e+00
  2.306115e+00    2.783613e+00
  2.337866e+00    2.912529e+00
  2.369617e+00    2.617471e+00
  2.401368e+00    2.746878e+00
  2.433119e+00    2.802495e+00
  2.464870e+00    2.746461e+00
  2.496621e+00    2.772157e+00
  2.528373e+00    2.858520e+00
  2.560124e+00    2.740515e+00
  2.591875e+00    2.785901e+00
  2.623626e+00    2.835371e+00
  2.655377e+00    2.853791e+00
  2.687128e+00    2.867581e+00
  2.718879e+00    2.753806e+00
  2.750631e+00    2.868493e+00
  2.782382e+00    2.854196e+00
  2.814133e+00    2.884395e+00
  2.845884e+00    2.895200e+00
  2.877635e+00    2.893681e+00
  2.909386e+00    2.740454e+00
  2.941137e+00    2.823860e+00
  2.972889e+00    2.790557e+00
  3.004640e+00    2.909742e+00
  3.036391e+00    2.827758e+00
  3.068142e+00    2.933051e+00
  3.099893e+00    2.924273e+00
  3.131644e+00    2.994784e+00
  3.163395e+00    2.885434e+00
  3.195147e+00    2.900879e+00
  3.226898e+00    2.972913e+00
  3.258649e+00    2.935922e+00
  3.290400e+00    2.964714e+00
  3.322151e+00    2.945600e+00
  3.353902e+00    2.932405e+00
  3.385654e+00    2.816015e+00
  3.417405e+00    2.945026e+00
  3.449156e+00    2.943465e+00
  3.480907e+00    3.056554e+00
  3.512658e+00    2.996430e+00
  3.544409e+00    3.007042e+00
  3.576160e+00    3.009151e+00
  3.607912e+00    2.995666e+00
  3.639663e+00    2.991349e+00
  3.671414e+00    2.929114e+00
  3.703165e+00    2.992294e+00
  3.734916e+00    2.961919e+00
  3.766667e+00    2.943580e+00
  3.798418e+00    3.071026e+00
  3.830170e+00    2.990166e+00
  3.861921e+00    3.068144e+00
  3.893672e+00    3.039251e+00
  3.925423e+00    3.039608e+00
  3.957174e+00    3.014498e+00
  3.988925e+00    3.077941e+00
  4.020676e+00    2.977223e+00
  4.052428e+00    3.062754e+00
  4.084179e+00    3.086202e+00
  4.115930e+00    3.008481e+00
  4.147681e+00    3.086526e+00
  4.179432e+00    2.952358e+00
  4.211183e+00    3.021321e+00
  4.242935e+00    3.063287e+00
  4.274686e+00    3.062250e+00
  4.306437e+00    2.984010e+00
  4.338188e+00    3.070202e+00
  4.369939e+00    2.945523e+00
  4.401690e+00    3.041871e+00
  4.433441e+00    3.140179e+00
  4.465193e+00    3.094828e+00
  4.496944e+00    3.106078e+00
  4.528695e+00    3.093629e+00
  4.560446e+00    3.090326e+00
  4.592197e+00    3.133153e+00
  4.623948e+00    3.021467e+00
  4.655699e+00    3.111700e+00
  4.687451e+00    3.149258e+00
  4.719202e+00    3.141087e+00
  4.750953e+00    3.113781e+00
  4.782704e+00    3.124624e+00
  4.814455e+00    3.069260e+00
  4.846206e+00    3.147441e+00
  4.877957e+00    3.163932e+00
  4.909709e+00    3.126640e+00
  4.941460e+00    3.177235e+00
  4.973211e+00    3.150987e+00
  5.004962e+00    3.118360e+00
  5.036713e+00    3.116219e+00
  5.068464e+00    3.099825e+00
  5.100216e+00    3.044245e+00
  5.131967e+00    3.149409e+00
  5.163718e+00    3.091244e+00
  5.195469e+00    3.099072e+00
  5.227220e+00    3.172783e+00
  5.258971e+00    3.071513e+00
  5.290722e+00    3.120198e+00
  5.322474e+00    3.182172e+00
  5.354225e+00    3.204614e+00
  5.385976e+00    3.128989e+00
  5.417727e+00    3.231515e+00
  5.449478e+00    3.170303e+00
  5.481229e+00    3.098052e+00
  5.512980e+00    3.073444e+00
  5.544732e+00    3.130260e+00
  5.576483e+00    3.123152e+00
  5.608234e+00    3.112992e+00
  5.639985e+00    3.138991e+00
  5.671736e+00    3.102924e+00
  5.703487e+00    3.076418e+00
  5.735238e+00    3.075111e+00
  5.766990e+00    3.097824e+00
  5.798741e+00    3.071671e+00
  5.830492e+00    3.085276e+00
  5.862243e+00    2.977831e+00
  5.893994e+00    3.030746e+00
  5.925745e+00    3.054864e+00
  5.957497e+00    3.052884e+00
  5.989248e+00    3.049652e+00
  6.020999e+00    3.050514e+00
  6.052750e+00    3.006253e+00
  6.084501e+00    3.118800e+00
  6.116252e+00    3.094732e+00
  6.148003e+00    3.123934e+00
  6.179755e+00    3.092957e+00
  6.211506e+00    3.124824e+00
  6.243257e+00    3.101042e+00
  6.275008e+00    3.084103e+00
  6.306759e+00    3.081666e+00
  6.338510e+00    3.037997e+00
  6.370261e+00    3.063528e+00
  6.402013e+00    3.029637e+00
  6.433764e+00    3.152218e+00
  6.465515e+00    3.168410e+00
  6.497266e+00    3.113432e+00
  6.529017e+00    3.167382e+00
  6.560768e+00    3.100480e+00
  6.592519e+00    3.069270e+00
  6.624271e+00    3.040046e+00
  6.656022e+00    3.016887e+00
  6.687773e+00    3.086607e+00
  6.719524e+00    3.037060e+00
  6.751275e+00    3.040717e+00
  6.783026e+00    3.038307e+00
  6.814777e+00    3.095914e+00
  6.846529e+00    3.083111e+00
  6.878280e+00    3.118654e+00
  6.910031e+00    3.016892e+00
  6.941782e+00    3.005499e+00
  6.973533e+00    3.026536e+00
  7.005284e+00    3.091017e+00
  7.037036e+00    3.010309e+00
  7.068787e+00    3.037619e+00
  7.100538e+00    3.012708e+00
  7.132289e+00    2.998549e+00
  7.164040e+00    3.009649e+00
  7.195791e+00    3.038342e+00
  7.227542e+00    2.980162e+00
  7.259294e+00    3.016022e+00
  7.291045e+00    3.017774e+00
  7.322796e+00    2.997316e+00
  7.354547e+00    3.036177e+00
  7.386298e+00    2.980664e+00
  7.418049e+00    2.998975e+00
  7.449800e+00    2.981419e+00
  7.481552e+00    3.000329e+00
  7.513303e+00    2.999666e+00
  7.545054e+00    2.950644e+00
  7.576805e+00    2.962650e+00
  7.608556e+00    3.006304e+00
  7.640307e+00    3.021883e+00
  7.672058e+00    3.026400e+00
  7.703810e+00    2.982120e+00
  7.735561e+00    2.969391e+00
  7.767312e+00    2.947196e+00
  7.799063e+00    2.977941e+00
  7.830814e+00    2.953206e+00
  7.862565e+00    2.923572e+00
  7.894317e+00    2.900264e+00
  7.926068e+00    2.973285e+00
  7.957819e+00    2.992688e+00
  7.989570e+00    2.902963e+00
  8.021321e+00    2.952265e+00
  8.053072e+00    2.888258e+00
  8.084823e+00    2.929324e+00
  8.116575e+00    2.944810e+00
  8.148326e+00    3.001199e+00
  8.180077e+00    3.013321e+00
  8.211828e+00    2.957270e+00
  8.243579e+00    2.922780e+00
  8.275330e+00    2.953216e+00
  8.307081e+00    2.946793e+00
  8.338833e+00    2.888023e+00
  8.370584e+00    2.972663e+00
  8.402335e+00    2.898431e+00
  8.434086e+00    2.918256e+00
  8.465837e+00    2.880313e+00
  8.497588e+00    2.857122e+00
  8.529339e+00    2.912962e+00
  8.561091e+00    2.940202e+00
  8.592842e+00    2.899544e+00
  8.624593e+00    2.902635e+00
  8.656344e+00    2.883540e+00
  8.688095e+00    2.879388e+00
  8.719846e+00    2.875219e+00
  8.751598e+00    2.862718e+00
  8.783349e+00    2.831485e+00
  8.815100e+00    2.844104e+00
  8.846851e+00    2.827434e+00
  8.878602e+00    2.851072e+00
  8.910353e+00    2.875982e+00
  8.942104e+00    2.854423e+00
  8.973856e+00    2.871142e+00
  9.005607e+00    2.826616e+00
  9.037358e+00    2.771855e+00
  9.069109e+00    2.814617e+00
  9.100860e+00    2.841811e+00
  9.132611e+00    2.821663e+00
  9.164362e+00    2.802145e+00
  9.196114e+00    2.782855e+00
  9.227865e+00    2.741915e+00
  9.259616e+00    2.750050e+00
  9.291367e+00    2.829933e+00
  9.323118e+00    2.773766e+00
  9.354869e+00    2.792866e+00
  9.386620e+00    2.759281e+00
  9.418372e+00    2.764911e+00
  9.450123e+00    2.765109e+00
  9.481874e+00    2.879087e+00
  9.513625e+00    2.835980e+00
  9.545376e+00    2.791762e+00
  9.577127e+00    2.780324e+00
  9.608878e+00    2.738274e+00
  9.640630e+00    2.748035e+00
  9.672381e+00    2.785940e+00
  9.704132e+00    2.756876e+00
  9.735883e+00    2.719666e+00
  9.767634e+00    2.704807e+00
  9.799385e+00    2.721967e+00
  9.831137e+00    2.793272e+00
  9.862888e+00    2.764498e+00
  9.894639e+00    2.726174e+00
  9.926390e+00    2.693316e+00
  9.958141e+00    2.739977e+00
  9.989892e+00    2.730877e+00
  1.002164e+01    2.717266e+00
  1.005339e+01    2.713849e+00
  1.008515e+01    2.676603e+00
  1.011690e+01    2.649414e+00
  1.014865e+01    2.686767e+00
  1.018040e+01    2.651008e+00
  1.021215e+01    2.621924e+00
  1.024390e+01    2.621464e+00
  1.027565e+01    2.649009e+00
  1.030740e+01    2.635213e+00
  1.033915e+01    2.665618e+00
  1.037091e+01    2.621695e+00
  1.040266e+01    2.617180e+00
  1.043441e+01    2.616821e+00
  1.046616e+01    2.643438e+00
  1.049791e+01    2.604336e+00
  1.052966e+01    2.536984e+00
  1.056141e+01    2.571687e+00
  1.059316e+01    2.555764e+00
  1.062492e+01    2.602678e+00
  1.065667e+01    2.639012e+00
  1.068842e+01    2.635172e+00
  1.072017e+01    2.554089e+00
  1.075192e+01    2.599046e+00
  1.078367e+01    2.561807e+00
  1.081542e+01    2.570333e+00
  1.084717e+01    2.554574e+00
  1.087892e+01    2.522635e+00
  1.091068e+01    2.560329e+00
  1.094243e+01    2.578489e+00
  1.097418e+01    2.495898e+00
  1.100593e+01    2.491161e+00
  1.103768e+01    2.476423e+00
  1.106943e+01    2.492085e+00
  1.110118e+01    2.503952e+00
  1.113293e+01    2.492390e+00
  1.116468e+01    2.470879e+00
  1.119644e+01    2.464843e+00
  1.122819e+01    2.483126e+00
  1.125994e+01    2.462214e+00
  1.129169e+01    2.456674e+00
  1.132344e+01    2.466643e+00
  1.135519e+01    2.475417e+00
  1.138694e+01    2.413459e+00
  1.141869e+01    2.445757e+00
  1.145045e+01    2.443101e+00
  1.148220e+01    2.432709e+00
  1.151395e+01    2.478319e+00
  1.154570e+01    2.394440e+00
  1.157745e+01    2.400024e+00
  1.160920e+01    2.397219e+00
  1.164095e+01    2.396362e+00
  1.167270e+01    2.432691e+00
  1.170445e+01    2.384219e+00
  1.173621e+01    2.396479e+00
  1.176796e+01    2.337868e+00
  1.179971e+01    2.346250e+00
  1.183146e+01    2.363862e+00
  1.186321e+01    2.334652e+00
  1.189496e+01    2.330858e+00
  1.192671e+01    2.347561e+00
  1.195846e+01    2.351703e+00
  1.199021e+01    2.404712e+00
  1.202197e+01    2.330524e+00
  1.205372e+01    2.358490e+00
  1.208547e+01    2.280369e+00
  1.211722e+01    2.416749e+00
  1.214897e+01    2.322162e+00
  1.218072e+01    2.303248e+00
  1.221247e+01    2.337034e+00
  1.224422e+01    2.322334e+00
  1.227597e+01    2.327117e+00
  1.230773e+01    2.311655e+00
  1.233948e+01    2.356516e+00
  1.237123e+01    2.308619e+00
  1.240298e+01    2.369190e+00
  1.243473e+01    2.365798e+00
  1.246648e+01    2.338665e+00
  1.249823e+01    2.354001e+00
  1.252998e+01    2.344039e+00
  1.256174e+01    2.359209e+00
  1.259349e+01    2.408705e+00
  1.262524e+01    2.401800e+00
  1.265699e+01    2.399640e+00
  1.268874e+01    2.528713e+00
  1.272049e+01    2.507820e+00
  1.275224e+01    2.602188e+00
  1.278399e+01    2.635219e+00
  1.281574e+01    2.734381e+00
  1.284750e+01    2.834248e+00
  1.287925e+01    3.038255e+00
  1.291100e+01    3.352268e+00
  1.294275e+01    3.840688e+00
  1.297450e+01    4.461569e+00
  1.300625e+01    5.500538e+00
  1.303800e+01    7.340269e+00
  1.306975e+01    9.718190e+00
  1.310150e+01    1.226918e+01
  1.313326e+01    1.468774e+01
  1.316501e+01    1.654473e+01
  1.319676e+01    1.629844e+01
  1.322851e+01    1.313815e+01
  1.326026e+01    9.433859e+00
  1.329201e+01    6.763723e+00
  1.332376e+01    5.185547e+00
  1.335551e+01    4.261532e+00
  1.338727e+01    3.647134e+00
  1.341902e+01    3.266192e+00
  1.345077e+01    2.962937e+00
  1.348252e+01    2.703822e+00
  1.351427e+01    2.624206e+00
  1.354602e+01    2.520340e+00
  1.357777e+01    2.419781e+00
  1.360952e+01    2.350818e+00
  1.364127e+01    2.302292e+00
  1.367303e+01    2.303062e+00
  1.370478e+01    2.261254e+00
  1.373653e+01    2.177515e+00
  1.376828e+01    2.152070e+00
  1.380003e+01    2.183957e+00
  1.383178e+01    2.141432e+00
  1.386353e+01    2.124478e+00
  1.389528e+01    2.121360e+00
  1.392703e+01    2.094998e+00
  1.395879e+01    2.083096e+00
  1.399054e+01    2.054972e+00
  1.402229e+01    2.120389e+00
  1.405404e+01    2.033468e+00
  1.408579e+01    2.061857e+00
  1.411754e+01    1.987017e+00
  1.414929e+01    2.013287e+00
  1.418104e+01    2.029918e+00
  1.421279e+01    2.017319e+00
  1.424455e+01    1.989977e+00
  1.427630e+01    1.999542e+00
  1.430805e+01    2.007600e+00
  1.433980e+01    1.967955e+00
  1.437155e+01    1.969967e+00
  1.440330e+01    1.936958e+00
  1.443505e+01    1.964459e+00
  1.446680e+01    1.960176e+00
  1.449856e+01    1.979407e+00
  1.453031e+01    1.993555e+00
  1.456206e+01    1.972708e+00
  1.459381e+01    1.948135e+00
  1.462556e+01    1.942064e+00
  1.465731e+01    1.933972e+00
  1.468906e+01    1.941814e+00
  1.472081e+01    1.955060e+00
  1.475256e+01    1.906456e+00
  1.478432e+01    1.925470e+00
  1.481607e+01    1.932512e+00
  1.484782e+01    1.916243e+00
  1.487957e+01    1.956067e+00
  1.491132e+01    1.964124e+00
  1.494307e+01    2.031879e+00
  1.497482e+01    2.108685e+00
  1.500657e+01    2.164225e+00
  1.503832e+01    2.322036e+00
  1.507008e+01    2.543245e+00
  1.510183e+01    2.945367e+00
  1.513358e+01    3.517762e+00
  1.516533e+01    4.225527e+00
  1.519708e+01    4.929970e+00
  1.522883e+01    5.429538e+00
  1.526058e+01    5.764986e+00
  1.529233e+01    5.510031e+00
  1.532409e+01    4.661298e+00
  1.535584e+01    3.676137e+00
  1.538759e+01    2.936548e+00
  1.541934e+01    2.570662e+00
  1.545109e+01    2.276746e+00
  1.548284e+01    2.113744e+00
  1.551459e+01    1.992168e+00
  1.554634e+01    1.934515e+00
  1.557809e+01    1.862708e+00
  1.560985e+01    1.804423e+00
  1.564160e+01    1.840744e+00
  1.567335e+01    1.776198e+00
  1.570510e+01    1.721281e+00
  1.573685e+01    1.698934e+00
  1.576860e+01    1.723884e+00
  1.580035e+01    1.688776e+00
  1.583210e+01    1.720451e+00
  1.586385e+01    1.681245e+00
  1.589561e+01    1.637547e+00
  1.592736e+01    1.658736e+00
  1.595911e+01    1.641364e+00
  1.599086e+01    1.613982e+00
  1.602261e+01    1.614926e+00
  1.605436e+01    1.602303e+00
  1.608611e+01    1.632912e+00
  1.611786e+01    1.585550e+00
  1.614961e+01    1.593526e+00
  1.618137e+01    1.572339e+00
  1.621312e+01    1.613306e+00
  1.624487e+01    1.555009e+00
  1.627662e+01    1.591688e+00
  1.630837e+01    1.576299e+00
  1.634012e+01    1.542303e+00
  1.637187e+01    1.541425e+00
  1.640362e+01    1.535268e+00
  1.643538e+01    1.510413e+00
  1.646713e+01    1.528026e+00
  1.649888e+01    1.517343e+00
  1.653063e+01    1.524130e+00
  1.656238e+01    1.537160e+00
  1.659413e+01    1.531588e+00
  1.662588e+01    1.483845e+00
  1.665763e+01    1.492180e+00
  1.668938e+01    1.501333e+00
  1.672114e+01    1.494377e+00
  1.675289e+01    1.486689e+00
  1.678464e+01    1.458257e+00
  1.681639e+01    1.493300e+00
  1.684814e+01    1.471293e+00
  1.687989e+01    1.473321e+00
  1.691164e+01    1.467321e+00
  1.694339e+01    1.446412e+00
  1.697514e+01    1.447074e+00
  1.700690e+01    1.444927e+00
  1.703865e+01    1.460541e+00
  1.707040e+01    1.424980e+00
  1.710215e+01    1.432836e+00
  1.713390e+01    1.431237e+00
  1.716565e+01    1.423153e+00
  1.719740e+01    1.419825e+00
  1.722915e+01    1.439619e+00
  1.726091e+01    1.394905e+00
  1.729266e+01    1.393854e+00
  1.732441e+01    1.408404e+00
  1.735616e+01    1.409165e+00
  1.738791e+01    1.376103e+00
  1.741966e+01    1.379500e+00
  1.745141e+01    1.373327e+00
  1.748316e+01    1.384384e+00
  1.751491e+01    1.385610e+00
  1.754667e+01    1.349234e+00
  1.757842e+01    1.382671e+00
  1.761017e+01    1.357596e+00
  1.764192e+01    1.375972e+00
  1.767367e+01    1.373351e+00
  1.770542e+01    1.347862e+00
  1.773717e+01    1.359487e+00
  1.776892e+01    1.339355e+00
  1.780067e+01    1.354905e+00
  1.783243e+01    1.308487e+00
  1.786418e+01    1.334696e+00
  1.789593e+01    1.304647e+00
  1.792768e+01    1.333102e+00
  1.795943e+01    1.289993e+00
  1.799118e+01    1.290318e+00
  1.802293e+01    1.294303e+00
  1.805468e+01    1.321997e+00
  1.808643e+01    1.337175e+00
  1.811819e+01    1.309506e+00
  1.814994e+01    1.317537e+00
  1.818169e+01    1.285741e+00
  1.821344e+01    1.283792e+00
  1.824519e+01    1.307526e+00
  1.827694e+01    1.283641e+00
  1.830869e+01    1.278703e+00
  1.834044e+01    1.295608e+00
  1.837220e+01    1.269679e+00
  1.840395e+01    1.249918e+00
  1.843570e+01    1.267320e+00
  1.846745e+01    1.279624e+00
  1.849920e+01    1.243975e+00
  1.853095e+01    1.244652e+00
  1.856270e+01    1.241144e+00
  1.859445e+01    1.269757e+00
  1.862620e+01    1.255805e+00
  1.865796e+01    1.237681e+00
  1.868971e+01    1.246963e+00
  1.872146e+01    1.252371e+00
  1.875321e+01    1.275110e+00
  1.878496e+01    1.196952e+00
  1.881671e+01    1.243084e+00
  1.884846e+01    1.192972e+00
  1.888021e+01    1.216058e+00
  1.891196e+01    1.227988e+00
  1.894372e+01    1.216776e+00
  1.897547e+01    1.227414e+00
  1.900722e+01    1.213848e+00
  1.903897e+01    1.210831e+00
  1.907072e+01    1.227054e+00
  1.910247e+01    1.220007e+00
  1.913422e+01    1.194153e+00
  1.916597e+01    1.195803e+00
  1.919773e+01    1.190429e+00
  1.922948e+01    1.198665e+00
  1.926123e+01    1.198794e+00
  1.929298e+01    1.192274e+00
  1.932473e+01    1.202782e+00
  1.935648e+01    1.192052e+00
  1.938823e+01    1.177604e+00
  1.941998e+01    1.172678e+00
  1.945173e+01    1.173656e+00
  1.948349e+01    1.151305e+00
  1.951524e+01    1.172393e+00
  1.954699e+01    1.153296e+00
  1.957874e+01    1.161514e+00
  1.961049e+01    1.159640e+00
  1.964224e+01    1.119547e+00
  1.967399e+01    1.153899e+00
  1.970574e+01    1.151385e+00
  1.973749e+01    1.159487e+00
  1.976925e+01    1.121230e+00
  1.980100e+01    1.135586e+00
  1.983275e+01    1.155050e+00
  1.986450e+01    1.136840e+00
  1.989625e+01    1.121755e+00
  1.992800e+01    1.145031e+00
  1.995975e+01    1.101383e+00
  1.999150e+01    1.132847e+00
  2.002325e+01    1.132568e+00
  2.005501e+01    1.140193e+00
  2.008676e+01    1.128717e+00
  2.011851e+01    1.119178e+00
  2.015026e+01    1.132137e+00
  2.018201e+01    1.109493e+00
  2.021376e+01    1.094963e+00
  2.024551e+01    1.112796e+00
  2.027726e+01    1.105907e+00
  2.030902e+01    1.094803e+00
  2.034077e+01    1.074205e+00
  2.037252e+01    1.094257e+00
  2.040427e+01    1.082564e+00
  2.043602e+01    1.098941e+00
  2.046777e+01    1.076193e+00
  2.049952e+01    1.088040e+00
  2.053127e+01    1.077136e+00
  2.056302e+01    1.110912e+00
  2.059478e+01    1.083547e+00
  2.062653e+01    1.078229e+00
  2.065828e+01    1.101421e+00
  2.069003e+01    1.086971e+00
  2.072178e+01    1.096888e+00
  2.075353e+01    1.075437e+00
  2.078528e+01    1.087283e+00
  2.081703e+01    1.079551e+00
  2.084878e+01    1.081080e+00
  2.088054e+01    1.068437e+00
  2.091229e+01    1.077910e+00
  2.094404e+01    1.098058e+00
  2.097579e+01    1.077286e+00
  2.100754e+01    1.094425e+00
  2.103929e+01    1.081831e+00
  2.107104e+01    1.086467e+00
  2.110279e+01    1.070428e+00
  2.113455e+01    1.085530e+00
  2.116630e+01    1.065510e+00
  2.119805e+01    1.080084e+00
  2.122980e+01    1.131127e+00
  2.126155e+01    1.122855e+00
  2.129330e+01    1.125472e+00
  2.132505e+01    1.123937e+00
  2.135680e+01    1.153131e+00
  2.138855e+01    1.171495e+00
  2.142031e+01    1.186483e+00
  2.145206e+01    1.203064e+00
  2.148381e+01    1.245011e+00
  2.151556e+01    1.310995e+00
  2.154731e+01    1.434777e+00
  2.157906e+01    1.486994e+00
  2.161081e+01    1.635512e+00
  2.164256e+01    1.816111e+00
  2.167431e+01    2.142879e+00
  2.170607e+01    2.614087e+00
  2.173782e+01    3.362654e+00
  2.176957e+01    4.366568e+00
  2.180132e+01    5.658635e+00
  2.183307e+01    7.039972e+00
  2.186482e+01    8.347515e+00
  2.189657e+01    9.246592e+00
  2.192832e+01    8.778402e+00
  2.196007e+01    6.893842e+00
  2.199183e+01    5.022426e+00
  2.202358e+01    3.610160e+00
  2.205533e+01    2.783010e+00
  2.208708e+01    2.255577e+00
  2.211883e+01    1.894153e+00
  2.215058e+01    1.657732e+00
  2.218233e+01    1.512872e+00
  2.221408e+01    1.384241e+00
  2.224584e+01    1.313936e+00
  2.227759e+01    1.207939e+00
  2.230934e+01    1.199172e+00
  2.234109e+01    1.140508e+00
  2.237284e+01    1.107090e+00
  2.240459e+01    1.094949e+00
  2.243634e+01    1.059841e+00
  2.246809e+01    1.047762e+00
  2.249984e+01    1.035824e+00
  2.253160e+01    1.006601e+00
  2.256335e+01    1.001252e+00
  2.259510e+01    9.987070e-01
  2.262685e+01    9.807036e-01
  2.265860e+01    9.601130e-01
  2.269035e+01    9.692045e-01
  2.272210e+01    9.701170e-01
  2.275385e+01    9.465656e-01
  2.278560e+01    9.331194e-01
  2.281736e+01    9.465997e-01
  2.284911e+01    9.213775e-01
  2.288086e+01    9.146274e-01
  2.291261e+01    9.168960e-01
  2.294436e+01    9.135474e-01
  2.297611e+01    9.194984e-01
  2.300786e+01    9.160892e-01
  2.303961e+01    8.863845e-01
  2.307137e+01    9.096754e-01
  2.310312e+01    9.123169e-01
  2.313487e+01    9.064277e-01
  2.316662e+01    8.861052e-01
  2.319837e+01    8.897985e-01
  2.323012e+01    9.088773e-01
  2.326187e+01    8.799706e-01
  2.329362e+01    8.428822e-01
  2.332537e+01    8.718821e-01
  2.335713e+01    8.487751e-01
  2.338888e+01    8.634605e-01
  2.342063e+01    8.545787e-01
  2.345238e+01    8.712367e-01
  2.348413e+01    8.452012e-01
  2.351588e+01    8.677658e-01
  2.354763e+01    8.832933e-01
  2.357938e+01    8.288647e-01
  2.361113e+01    8.697497e-01
  2.364289e+01    8.473979e-01
  2.367464e+01    8.489439e-01
  2.370639e+01    8.392050e-01
  2.373814e+01    8.293808e-01
  2.376989e+01    8.272564e-01
  2.380164e+01    8.231977e-01
  2.383339e+01    8.218015e-01
  2.386514e+01    7.979912e-01
  2.389689e+01    8.147262e-01
  2.392865e+01    8.255543e-01
  2.396040e+01    7.814455e-01
  2.399215e+01    8.012935e-01
  2.402390e+01    7.928982e-01
  2.405565e+01    7.679737e-01
  2.408740e+01    7.889414e-01
  2.411915e+01    7.964731e-01
  2.415090e+01    7.965475e-01
  2.418266e+01    7.921349e-01
  2.421441e+01    7.937841e-01
  2.424616e+01    7.796873e-01
  2.427791e+01    7.790743e-01
  2.430966e+01    8.048144e-01
  2.434141e+01    7.813601e-01
  2.437316e+01    7.755882e-01
  2.440491e+01    7.926347e-01
  2.443666e+01    8.112874e-01
  2.446842e+01    8.158756e-01
  2.450017e+01    7.880377e-01
  2.453192e+01    8.050506e-01
  2.456367e+01    7.938289e-01
  2.459542e+01    8.051337e-01
  2.462717e+01    7.940902e-01
  2.465892e+01    7.753427e-01
  2.469067e+01    8.149189e-01
  2.472242e+01    7.847058e-01
  2.475418e+01    7.852589e-01
  2.478593e+01    8.024613e-01
  2.481768e+01    7.983956e-01
  2.484943e+01    7.996841e-01
  2.488118e+01    8.060821e-01
  2.491293e+01    8.048273e-01
  2.494468e+01    7.846677e-01
  2.497643e+01    8.266256e-01
  2.500819e+01    8.180550e-01
  2.503994e+01    7.776626e-01
  2.507169e+01    8.111215e-01
  2.510344e+01    8.206797e-01
  2.513519e+01    8.311512e-01
  2.516694e+01    8.267260e-01
  2.519869e+01    8.367888e-01
  2.523044e+01    8.308166e-01
  2.526219e+01    8.616621e-01
  2.529395e+01    8.879948e-01
  2.532570e+01    8.675336e-01
  2.535745e+01    8.946574e-01
  2.538920e+01    8.883640e-01
  2.542095e+01    9.267306e-01
  2.545270e+01    9.445327e-01
  2.548445e+01    9.676559e-01
  2.551620e+01    9.932801e-01
  2.554795e+01    1.033559e+00
  2.557971e+01    1.080451e+00
  2.561146e+01    1.126811e+00
  2.564321e+01    1.240467e+00
  2.567496e+01    1.342550e+00
  2.570671e+01    1.510993e+00
  2.573846e+01    1.762415e+00
  2.577021e+01    2.141500e+00
  2.580196e+01    2.692812e+00
  2.583371e+01    3.463233e+00
  2.586547e+01    4.569442e+00
  2.589722e+01    5.781068e+00
  2.592897e+01    6.938456e+00
  2.596072e+01    7.509279e+00
  2.599247e+01    7.097957e+00
  2.602422e+01    5.715963e+00
  2.605597e+01    4.325866e+00
  2.608772e+01    3.142438e+00
  2.611948e+01    2.389439e+00
  2.615123e+01    1.969389e+00
  2.618298e+01    1.646918e+00
  2.621473e+01    1.421849e+00
  2.624648e+01    1.291511e+00
  2.627823e+01    1.171394e+00
  2.630998e+01    1.125730e+00
  2.634173e+01    1.075688e+00
  2.637348e+01    1.022742e+00
  2.640524e+01    9.678242e-01
  2.643699e+01    9.341800e-01
  2.646874e+01    9.518385e-01
  2.650049e+01    9.389703e-01
  2.653224e+01    9.258902e-01
  2.656399e+01    9.322065e-01
  2.659574e+01    9.155445e-01
  2.662749e+01    8.890653e-01
  2.665924e+01    8.898090e-01
  2.669100e+01    8.883260e-01
  2.672275e+01    8.792424e-01
  2.675450e+01    8.858551e-01
  2.678625e+01    8.936938e-01
  2.681800e+01    8.945949e-01
  2.684975e+01    9.142882e-01
  2.688150e+01    9.148188e-01
  2.691325e+01    9.362690e-01
  2.694501e+01    9.203104e-01
  2.697676e+01    9.794341e-01
  2.700851e+01    1.037163e+00
  2.704026e+01    1.135599e+00
  2.707201e+01    1.250301e+00
  2.710376e+01    1.388707e+00
  2.713551e+01    1.653821e+00
  2.716726e+01    1.927502e+00
  2.719901e+01    2.170711e+00
  2.723077e+01    2.242366e+00
  2.726252e+01    2.091359e+00
  2.729427e+01    1.735265e+00
  2.732602e+01    1.454059e+00
  2.735777e+01    1.263199e+00
  2.738952e+01    1.104196e+00
  2.742127e+01    1.025803e+00
  2.745302e+01    9.726474e-01
  2.748477e+01    8.961076e-01
  2.751653e+01    8.893893e-01
  2.754828e+01    8.946921e-01
  2.758003e+01    8.790994e-01
  2.761178e+01    8.689645e-01
  2.764353e+01    8.685296e-01
  2.767528e+01    8.460328e-01
  2.770703e+01    8.161004e-01
  2.773878e+01    8.013863e-01
  2.777054e+01    7.960085e-01
  2.780229e+01    8.172556e-01
  2.783404e+01    7.917658e-01
  2.786579e+01    8.037782e-01
  2.789754e+01    8.212199e-01
  2.792929e+01    7.995547e-01
  2.796104e+01    8.187979e-01
  2.799279e+01    7.878786e-01
  2.802454e+01    8.044471e-01
  2.805630e+01    7.979620e-01
  2.808805e+01    7.667221e-01
  2.811980e+01    7.644667e-01
  2.815155e+01    7.488428e-01
  2.818330e+01    7.860290e-01
  2.821505e+01    7.764130e-01
  2.824680e+01    7.890366e-01
  2.827855e+01    7.695072e-01
  2.831030e+01    7.617024e-01
  2.834206e+01    7.554036e-01
  2.837381e+01    7.564563e-01
  2.840556e+01    7.643104e-01
  2.843731e+01    7.595549e-01
  2.846906e+01    7.786760e-01
  2.850081e+01    7.576838e-01
  2.853256e+01    7.618331e-01
  2.856431e+01    7.869425e-01
  2.859606e+01    7.461785e-01
  2.862782e+01    7.695971e-01
  2.865957e+01    7.776994e-01
  2.869132e+01    7.555324e-01
  2.872307e+01    7.601883e-01
  2.875482e+01    7.585623e-01
  2.878657e+01    7.256321e-01
  2.881832e+01    7.754286e-01
  2.885007e+01    7.251632e-01
  2.888183e+01    7.575466e-01
  2.891358e+01    7.382728e-01
  2.894533e+01    7.335283e-01
  2.897708e+01    7.451360e-01
  2.900883e+01    7.320805e-01
  2.904058e+01    7.437835e-01
  2.907233e+01    7.248664e-01
  2.910408e+01    7.235195e-01
  2.913583e+01    7.515004e-01
  2.916759e+01    7.466642e-01
  2.919934e+01    7.324317e-01
  2.923109e+01    7.100634e-01
  2.926284e+01    7.259995e-01
  2.929459e+01    7.259371e-01
  2.932634e+01    7.505478e-01
  2.935809e+01    7.242622e-01
  2.938984e+01    7.399105e-01
  2.942159e+01    7.311906e-01
  2.945335e+01    7.288482e-01
  2.948510e+01    7.171509e-01
  2.951685e+01    7.457078e-01
  2.954860e+01    7.444515e-01
  2.958035e+01    7.324632e-01
  2.961210e+01    7.178468e-01
  2.964385e+01    7.113113e-01
  2.967560e+01    7.296430e-01
  2.970736e+01    7.046360e-01
  2.973911e+01    7.329379e-01
  2.977086e+01    7.144270e-01
  2.980261e+01    7.073119e-01
  2.983436e+01    7.279703e-01
  2.986611e+01    7.316062e-01
  2.989786e+01    7.120160e-01
  2.992961e+01    7.383151e-01
  2.996136e+01    7.428777e-01
  2.999312e+01    7.385482e-01
  3.002487e+01    7.302913e-01
  3.005662e+01    7.342877e-01
  3.008837e+01    7.320236e-01
  3.012012e+01    7.208252e-01
  3.015187e+01    7.290785e-01
  3.018362e+01    7.166803e-01
  3.021537e+01    7.130582e-01
  3.024712e+01    7.183266e-01
  3.027888e+01    7.039164e-01
  3.031063e+01    7.394089e-01
  3.034238e+01    7.076836e-01
  3.037413e+01    7.104442e-01
  3.040588e+01    6.938935e-01
  3.043763e+01    7.093467e-01
  3.046938e+01    7.337584e-01
  3.050113e+01    6.883789e-01
  3.053288e+01    7.157627e-01
  3.056464e+01    7.223681e-01
  3.059639e+01    7.248638e-01
  3.062814e+01    7.168537e-01
  3.065989e+01    6.901652e-01
  3.069164e+01    7.098629e-01
  3.072339e+01    6.998509e-01
  3.075514e+01    7.245525e-01
  3.078689e+01    7.302758e-01
  3.081865e+01    7.244938e-01
  3.085040e+01    7.189254e-01
  3.088215e+01    7.121751e-01
  3.091390e+01    7.014366e-01
  3.094565e+01    7.119396e-01
  3.097740e+01    7.229866e-01
  3.100915e+01    7.344726e-01
  3.104090e+01    6.909795e-01
  3.107265e+01    7.165700e-01
  3.110441e+01    7.255903e-01
  3.113616e+01    7.301465e-01
  3.116791e+01    6.984267e-01
  3.119966e+01    7.248600e-01
  3.123141e+01    7.400984e-01
  3.126316e+01    7.306418e-01
  3.129491e+01    7.426090e-01
  3.132666e+01    7.396786e-01
  3.135841e+01    7.365711e-01
  3.139017e+01    7.650152e-01
  3.142192e+01    7.541559e-01
  3.145367e+01    7.657568e-01
  3.148542e+01    7.666883e-01
  3.151717e+01    7.470096e-01
  3.154892e+01    7.928037e-01
  3.158067e+01    8.050297e-01
  3.161242e+01    8.071021e-01
  3.164418e+01    8.663616e-01
  3.167593e+01    8.945312e-01
  3.170768e+01    9.598925e-01
  3.173943e+01    1.092555e+00
  3.177118e+01    1.242385e+00
  3.180293e+01    1.435472e+00
  3.183468e+01    1.714302e+00
  3.186643e+01    1.995556e+00
  3.189818e+01    2.199492e+00
  3.192994e+01    2.131328e+00
  3.196169e+01    1.947733e+00
  3.199344e+01    1.620310e+00
  3.202519e+01    1.351140e+00
  3.205694e+01    1.132963e+00
  3.208869e+01    1.021610e+00
  3.212044e+01    9.350892e-01
  3.215219e+01    8.597893e-01
  3.218394e+01    8.159647e-01
  3.221570e+01    8.146386e-01
  3.224745e+01    7.803337e-01
  3.227920e+01    7.870668e-01
  3.231095e+01    7.454001e-01
  3.234270e+01    7.404813e-01
  3.237445e+01    7.503941e-01
  3.240620e+01    7.455997e-01
  3.243795e+01    7.306433e-01
  3.246970e+01    7.236523e-01
  3.250146e+01    7.425398e-01
  3.253321e+01    7.327712e-01
  3.254908e+01    7.311196e-01