File: XRD/Activation ramp/2024-07-27_002_Ru-CGO-ex_Activtation_ramp_000002_data_000027.dat
# == pyFAI calibration ==
# Distance Sample to Detector: 0.4 m
# PONI: 9.750e-02, 1.135e-01 m
# Rotations: -0.000175 0.000000 -0.000000 rad
#
# == Fit2d calibration ==
# Distance Sample-beamCenter: 400.000 mm
# Center: x=1514.000, y=1300.000 pix
# Tilt: 0.010 deg  TiltPlanRot: 0.010 deg
#
# Detector Detector	 Spline= None	 PixelSize= 7.500e-05, 7.500e-05 m
#    Detector has a mask: False
#    Detector has a dark current: False
#    detector has a flat field: False
#
# Wavelength: 6.888e-11 m
# Mask applied: user provided
# Dark current applied: False
# Flat field applied: False
# Polarization factor: 0.99
# Normalization factor: 1.0
# --> /home/myspot/data/2024_07_Rosario/Ru-CGO-ex/2024-07-27_002_Ru-CGO-ex_Activtation_ramp_000002_data_000027.dat
#       q_nm^-1             I
  2.003187e-02    0.000000e+00
  5.178302e-02    7.387542e-02
  8.353417e-02    1.679788e-01
  1.152853e-01    1.031058e-01
  1.470365e-01    0.000000e+00
  1.787876e-01    5.283602e-02
  2.105388e-01    2.597467e-02
  2.422899e-01    4.948209e-02
  2.740411e-01    3.528692e-02
  3.057922e-01    6.105856e-02
  3.375433e-01    3.974135e-02
  3.692945e-01    2.612388e-02
  4.010456e-01    3.090525e-02
  4.327968e-01    4.894703e-02
  4.645479e-01    3.123751e-02
  4.962991e-01    2.935614e-02
  5.280502e-01    5.155789e-02
  5.598014e-01    1.993967e-02
  5.915525e-01    5.265044e-02
  6.233037e-01    4.858937e-02
  6.550548e-01    3.761931e-02
  6.868060e-01    5.427661e-02
  7.185571e-01    2.649962e-02
  7.503083e-01    5.120263e-02
  7.820594e-01    1.120468e-01
  8.138106e-01    1.936398e-01
  8.455617e-01    3.917264e-01
  8.773129e-01    4.868313e-01
  9.090640e-01    5.812591e-01
  9.408152e-01    7.064199e-01
  9.725663e-01    7.805039e-01
  1.004317e+00    1.074203e+00
  1.036069e+00    1.141759e+00
  1.067820e+00    1.319537e+00
  1.099571e+00    1.309076e+00
  1.131322e+00    1.430582e+00
  1.163073e+00    1.545205e+00
  1.194824e+00    1.740445e+00
  1.226575e+00    2.227706e+00
  1.258327e+00    2.373280e+00
  1.290078e+00    2.469580e+00
  1.321829e+00    2.514482e+00
  1.353580e+00    2.709245e+00
  1.385331e+00    2.720220e+00
  1.417082e+00    2.675992e+00
  1.448834e+00    2.840786e+00
  1.480585e+00    2.959583e+00
  1.512336e+00    3.110119e+00
  1.544087e+00    3.076220e+00
  1.575838e+00    3.029053e+00
  1.607589e+00    2.925723e+00
  1.639340e+00    3.046389e+00
  1.671092e+00    2.989797e+00
  1.702843e+00    2.882531e+00
  1.734594e+00    2.806273e+00
  1.766345e+00    2.911000e+00
  1.798096e+00    2.921286e+00
  1.829847e+00    2.941093e+00
  1.861598e+00    2.971274e+00
  1.893350e+00    2.825316e+00
  1.925101e+00    2.823228e+00
  1.956852e+00    2.881032e+00
  1.988603e+00    2.825748e+00
  2.020354e+00    2.687990e+00
  2.052105e+00    2.802742e+00
  2.083856e+00    2.800184e+00
  2.115608e+00    2.757730e+00
  2.147359e+00    2.806374e+00
  2.179110e+00    2.771538e+00
  2.210861e+00    2.818455e+00
  2.242612e+00    2.844121e+00
  2.274363e+00    2.783861e+00
  2.306115e+00    2.939213e+00
  2.337866e+00    2.831366e+00
  2.369617e+00    2.770912e+00
  2.401368e+00    2.785738e+00
  2.433119e+00    2.735319e+00
  2.464870e+00    2.854997e+00
  2.496621e+00    2.975381e+00
  2.528373e+00    2.852497e+00
  2.560124e+00    2.896807e+00
  2.591875e+00    2.858698e+00
  2.623626e+00    2.799850e+00
  2.655377e+00    2.799883e+00
  2.687128e+00    2.842872e+00
  2.718879e+00    2.902839e+00
  2.750631e+00    2.783772e+00
  2.782382e+00    2.837016e+00
  2.814133e+00    2.862284e+00
  2.845884e+00    2.824756e+00
  2.877635e+00    2.866421e+00
  2.909386e+00    2.929741e+00
  2.941137e+00    2.897068e+00
  2.972889e+00    2.849370e+00
  3.004640e+00    2.937090e+00
  3.036391e+00    2.893771e+00
  3.068142e+00    2.949317e+00
  3.099893e+00    3.008959e+00
  3.131644e+00    2.878150e+00
  3.163395e+00    2.920296e+00
  3.195147e+00    2.971127e+00
  3.226898e+00    2.878039e+00
  3.258649e+00    2.955463e+00
  3.290400e+00    2.998781e+00
  3.322151e+00    2.886244e+00
  3.353902e+00    2.940526e+00
  3.385654e+00    2.992253e+00
  3.417405e+00    2.951934e+00
  3.449156e+00    2.941098e+00
  3.480907e+00    2.984049e+00
  3.512658e+00    2.931374e+00
  3.544409e+00    3.039603e+00
  3.576160e+00    2.975879e+00
  3.607912e+00    2.926184e+00
  3.639663e+00    3.050234e+00
  3.671414e+00    3.028191e+00
  3.703165e+00    2.959334e+00
  3.734916e+00    2.982983e+00
  3.766667e+00    3.031024e+00
  3.798418e+00    3.001642e+00
  3.830170e+00    3.013925e+00
  3.861921e+00    3.150040e+00
  3.893672e+00    3.118883e+00
  3.925423e+00    2.955291e+00
  3.957174e+00    2.955868e+00
  3.988925e+00    3.032280e+00
  4.020676e+00    3.053180e+00
  4.052428e+00    3.109234e+00
  4.084179e+00    3.072931e+00
  4.115930e+00    3.086552e+00
  4.147681e+00    3.108991e+00
  4.179432e+00    3.059532e+00
  4.211183e+00    3.060051e+00
  4.242935e+00    3.042293e+00
  4.274686e+00    3.088873e+00
  4.306437e+00    3.029707e+00
  4.338188e+00    3.048563e+00
  4.369939e+00    3.045290e+00
  4.401690e+00    3.066273e+00
  4.433441e+00    3.070703e+00
  4.465193e+00    3.090498e+00
  4.496944e+00    3.107465e+00
  4.528695e+00    3.071882e+00
  4.560446e+00    3.084876e+00
  4.592197e+00    3.187887e+00
  4.623948e+00    3.117590e+00
  4.655699e+00    3.008818e+00
  4.687451e+00    3.090836e+00
  4.719202e+00    3.111454e+00
  4.750953e+00    3.208552e+00
  4.782704e+00    3.085977e+00
  4.814455e+00    3.115180e+00
  4.846206e+00    3.096177e+00
  4.877957e+00    3.143496e+00
  4.909709e+00    3.127376e+00
  4.941460e+00    3.222237e+00
  4.973211e+00    3.102817e+00
  5.004962e+00    3.183609e+00
  5.036713e+00    3.196246e+00
  5.068464e+00    3.101402e+00
  5.100216e+00    3.094381e+00
  5.131967e+00    3.134000e+00
  5.163718e+00    3.196171e+00
  5.195469e+00    3.148041e+00
  5.227220e+00    3.045925e+00
  5.258971e+00    3.192694e+00
  5.290722e+00    3.169747e+00
  5.322474e+00    3.131875e+00
  5.354225e+00    3.069688e+00
  5.385976e+00    3.173414e+00
  5.417727e+00    3.115907e+00
  5.449478e+00    3.131467e+00
  5.481229e+00    3.076975e+00
  5.512980e+00    3.199671e+00
  5.544732e+00    3.064308e+00
  5.576483e+00    3.161489e+00
  5.608234e+00    3.107828e+00
  5.639985e+00    3.170635e+00
  5.671736e+00    3.050926e+00
  5.703487e+00    3.114310e+00
  5.735238e+00    3.039273e+00
  5.766990e+00    3.148068e+00
  5.798741e+00    3.069376e+00
  5.830492e+00    3.061171e+00
  5.862243e+00    3.076397e+00
  5.893994e+00    3.075220e+00
  5.925745e+00    2.984435e+00
  5.957497e+00    3.047397e+00
  5.989248e+00    3.076341e+00
  6.020999e+00    3.023897e+00
  6.052750e+00    3.063614e+00
  6.084501e+00    3.089626e+00
  6.116252e+00    3.044936e+00
  6.148003e+00    3.071320e+00
  6.179755e+00    3.124730e+00
  6.211506e+00    3.082114e+00
  6.243257e+00    3.048112e+00
  6.275008e+00    2.996115e+00
  6.306759e+00    3.094365e+00
  6.338510e+00    3.032908e+00
  6.370261e+00    3.106338e+00
  6.402013e+00    3.106098e+00
  6.433764e+00    3.048931e+00
  6.465515e+00    3.031012e+00
  6.497266e+00    3.032011e+00
  6.529017e+00    3.166359e+00
  6.560768e+00    3.025564e+00
  6.592519e+00    3.045806e+00
  6.624271e+00    3.058882e+00
  6.656022e+00    3.010143e+00
  6.687773e+00    3.027468e+00
  6.719524e+00    3.070132e+00
  6.751275e+00    2.976605e+00
  6.783026e+00    3.118101e+00
  6.814777e+00    3.024708e+00
  6.846529e+00    3.007504e+00
  6.878280e+00    3.072059e+00
  6.910031e+00    3.101087e+00
  6.941782e+00    3.058967e+00
  6.973533e+00    3.098451e+00
  7.005284e+00    2.989499e+00
  7.037036e+00    3.096627e+00
  7.068787e+00    3.080485e+00
  7.100538e+00    3.002059e+00
  7.132289e+00    3.017581e+00
  7.164040e+00    2.948076e+00
  7.195791e+00    3.033957e+00
  7.227542e+00    3.051674e+00
  7.259294e+00    3.048843e+00
  7.291045e+00    3.047802e+00
  7.322796e+00    3.011922e+00
  7.354547e+00    3.044282e+00
  7.386298e+00    2.992350e+00
  7.418049e+00    2.980543e+00
  7.449800e+00    2.992681e+00
  7.481552e+00    3.061799e+00
  7.513303e+00    3.049646e+00
  7.545054e+00    2.968634e+00
  7.576805e+00    2.845248e+00
  7.608556e+00    3.000765e+00
  7.640307e+00    3.019132e+00
  7.672058e+00    2.957243e+00
  7.703810e+00    2.951551e+00
  7.735561e+00    2.964545e+00
  7.767312e+00    3.006629e+00
  7.799063e+00    2.947725e+00
  7.830814e+00    2.959157e+00
  7.862565e+00    2.900938e+00
  7.894317e+00    2.947783e+00
  7.926068e+00    2.933224e+00
  7.957819e+00    2.881039e+00
  7.989570e+00    3.005305e+00
  8.021321e+00    2.999995e+00
  8.053072e+00    2.875647e+00
  8.084823e+00    2.904839e+00
  8.116575e+00    2.976729e+00
  8.148326e+00    2.949954e+00
  8.180077e+00    2.975616e+00
  8.211828e+00    2.980181e+00
  8.243579e+00    3.005080e+00
  8.275330e+00    2.881492e+00
  8.307081e+00    2.888816e+00
  8.338833e+00    3.012477e+00
  8.370584e+00    2.896021e+00
  8.402335e+00    2.879281e+00
  8.434086e+00    2.932212e+00
  8.465837e+00    2.952127e+00
  8.497588e+00    2.864273e+00
  8.529339e+00    2.938807e+00
  8.561091e+00    2.897722e+00
  8.592842e+00    2.924254e+00
  8.624593e+00    2.846917e+00
  8.656344e+00    2.852920e+00
  8.688095e+00    2.882459e+00
  8.719846e+00    2.831824e+00
  8.751598e+00    2.842618e+00
  8.783349e+00    2.835870e+00
  8.815100e+00    2.896493e+00
  8.846851e+00    2.863977e+00
  8.878602e+00    2.928097e+00
  8.910353e+00    2.846467e+00
  8.942104e+00    2.836361e+00
  8.973856e+00    2.869298e+00
  9.005607e+00    2.862221e+00
  9.037358e+00    2.880326e+00
  9.069109e+00    2.840726e+00
  9.100860e+00    2.841762e+00
  9.132611e+00    2.837833e+00
  9.164362e+00    2.800529e+00
  9.196114e+00    2.845078e+00
  9.227865e+00    2.827199e+00
  9.259616e+00    2.832210e+00
  9.291367e+00    2.845131e+00
  9.323118e+00    2.864573e+00
  9.354869e+00    2.788396e+00
  9.386620e+00    2.763945e+00
  9.418372e+00    2.776606e+00
  9.450123e+00    2.808057e+00
  9.481874e+00    2.820791e+00
  9.513625e+00    2.800249e+00
  9.545376e+00    2.815178e+00
  9.577127e+00    2.803647e+00
  9.608878e+00    2.780966e+00
  9.640630e+00    2.790827e+00
  9.672381e+00    2.787855e+00
  9.704132e+00    2.755243e+00
  9.735883e+00    2.759754e+00
  9.767634e+00    2.753119e+00
  9.799385e+00    2.743658e+00
  9.831137e+00    2.701391e+00
  9.862888e+00    2.737601e+00
  9.894639e+00    2.699632e+00
  9.926390e+00    2.728980e+00
  9.958141e+00    2.648393e+00
  9.989892e+00    2.685765e+00
  1.002164e+01    2.678840e+00
  1.005339e+01    2.655604e+00
  1.008515e+01    2.642373e+00
  1.011690e+01    2.638677e+00
  1.014865e+01    2.699684e+00
  1.018040e+01    2.708559e+00
  1.021215e+01    2.664297e+00
  1.024390e+01    2.712466e+00
  1.027565e+01    2.655092e+00
  1.030740e+01    2.612002e+00
  1.033915e+01    2.654527e+00
  1.037091e+01    2.656460e+00
  1.040266e+01    2.630474e+00
  1.043441e+01    2.632270e+00
  1.046616e+01    2.593368e+00
  1.049791e+01    2.639060e+00
  1.052966e+01    2.610895e+00
  1.056141e+01    2.610791e+00
  1.059316e+01    2.633622e+00
  1.062492e+01    2.614836e+00
  1.065667e+01    2.589154e+00
  1.068842e+01    2.615305e+00
  1.072017e+01    2.560925e+00
  1.075192e+01    2.570020e+00
  1.078367e+01    2.510419e+00
  1.081542e+01    2.551076e+00
  1.084717e+01    2.560163e+00
  1.087892e+01    2.512402e+00
  1.091068e+01    2.525845e+00
  1.094243e+01    2.570468e+00
  1.097418e+01    2.529140e+00
  1.100593e+01    2.502616e+00
  1.103768e+01    2.505859e+00
  1.106943e+01    2.510909e+00
  1.110118e+01    2.531274e+00
  1.113293e+01    2.443024e+00
  1.116468e+01    2.497517e+00
  1.119644e+01    2.516788e+00
  1.122819e+01    2.482614e+00
  1.125994e+01    2.510172e+00
  1.129169e+01    2.485058e+00
  1.132344e+01    2.508875e+00
  1.135519e+01    2.477225e+00
  1.138694e+01    2.438486e+00
  1.141869e+01    2.504525e+00
  1.145045e+01    2.439318e+00
  1.148220e+01    2.481335e+00
  1.151395e+01    2.459067e+00
  1.154570e+01    2.440288e+00
  1.157745e+01    2.382345e+00
  1.160920e+01    2.421529e+00
  1.164095e+01    2.401541e+00
  1.167270e+01    2.335699e+00
  1.170445e+01    2.397027e+00
  1.173621e+01    2.391647e+00
  1.176796e+01    2.338731e+00
  1.179971e+01    2.376419e+00
  1.183146e+01    2.356844e+00
  1.186321e+01    2.418245e+00
  1.189496e+01    2.417702e+00
  1.192671e+01    2.363131e+00
  1.195846e+01    2.410075e+00
  1.199021e+01    2.366501e+00
  1.202197e+01    2.382195e+00
  1.205372e+01    2.377582e+00
  1.208547e+01    2.358105e+00
  1.211722e+01    2.316499e+00
  1.214897e+01    2.390226e+00
  1.218072e+01    2.314093e+00
  1.221247e+01    2.360091e+00
  1.224422e+01    2.348603e+00
  1.227597e+01    2.348524e+00
  1.230773e+01    2.370502e+00
  1.233948e+01    2.402046e+00
  1.237123e+01    2.349774e+00
  1.240298e+01    2.374850e+00
  1.243473e+01    2.368035e+00
  1.246648e+01    2.379676e+00
  1.249823e+01    2.387719e+00
  1.252998e+01    2.367269e+00
  1.256174e+01    2.429825e+00
  1.259349e+01    2.407718e+00
  1.262524e+01    2.408159e+00
  1.265699e+01    2.503109e+00
  1.268874e+01    2.514272e+00
  1.272049e+01    2.607558e+00
  1.275224e+01    2.604199e+00
  1.278399e+01    2.669287e+00
  1.281574e+01    2.778483e+00
  1.284750e+01    2.874249e+00
  1.287925e+01    3.038950e+00
  1.291100e+01    3.328965e+00
  1.294275e+01    3.731645e+00
  1.297450e+01    4.317822e+00
  1.300625e+01    5.225566e+00
  1.303800e+01    6.745908e+00
  1.306975e+01    9.074148e+00
  1.310150e+01    1.210885e+01
  1.313326e+01    1.526628e+01
  1.316501e+01    1.803442e+01
  1.319676e+01    1.981972e+01
  1.322851e+01    1.811598e+01
  1.326026e+01    1.382655e+01
  1.329201e+01    9.666716e+00
  1.332376e+01    7.064150e+00
  1.335551e+01    5.402879e+00
  1.338727e+01    4.446244e+00
  1.341902e+01    3.829905e+00
  1.345077e+01    3.288275e+00
  1.348252e+01    3.115160e+00
  1.351427e+01    2.857807e+00
  1.354602e+01    2.707583e+00
  1.357777e+01    2.594697e+00
  1.360952e+01    2.524179e+00
  1.364127e+01    2.453761e+00
  1.367303e+01    2.390762e+00
  1.370478e+01    2.350450e+00
  1.373653e+01    2.231094e+00
  1.376828e+01    2.265154e+00
  1.380003e+01    2.215104e+00
  1.383178e+01    2.210315e+00
  1.386353e+01    2.183531e+00
  1.389528e+01    2.209505e+00
  1.392703e+01    2.132812e+00
  1.395879e+01    2.115787e+00
  1.399054e+01    2.067885e+00
  1.402229e+01    2.073094e+00
  1.405404e+01    2.030777e+00
  1.408579e+01    2.082780e+00
  1.411754e+01    2.022738e+00
  1.414929e+01    2.049753e+00
  1.418104e+01    2.041098e+00
  1.421279e+01    2.044225e+00
  1.424455e+01    2.020277e+00
  1.427630e+01    2.011965e+00
  1.430805e+01    2.000411e+00
  1.433980e+01    1.993493e+00
  1.437155e+01    1.939373e+00
  1.440330e+01    1.997432e+00
  1.443505e+01    1.925554e+00
  1.446680e+01    1.957700e+00
  1.449856e+01    1.930627e+00
  1.453031e+01    1.988617e+00
  1.456206e+01    1.940029e+00
  1.459381e+01    1.977300e+00
  1.462556e+01    1.932841e+00
  1.465731e+01    1.924243e+00
  1.468906e+01    1.910466e+00
  1.472081e+01    1.930661e+00
  1.475256e+01    1.931903e+00
  1.478432e+01    1.965997e+00
  1.481607e+01    1.956118e+00
  1.484782e+01    1.946581e+00
  1.487957e+01    1.946912e+00
  1.491132e+01    1.983284e+00
  1.494307e+01    2.026308e+00
  1.497482e+01    2.042830e+00
  1.500657e+01    2.185963e+00
  1.503832e+01    2.274532e+00
  1.507008e+01    2.476491e+00
  1.510183e+01    2.786703e+00
  1.513358e+01    3.205622e+00
  1.516533e+01    3.958951e+00
  1.519708e+01    4.890507e+00
  1.522883e+01    5.760555e+00
  1.526058e+01    6.328532e+00
  1.529233e+01    6.595501e+00
  1.532409e+01    6.119827e+00
  1.535584e+01    4.994604e+00
  1.538759e+01    3.782693e+00
  1.541934e+01    3.073210e+00
  1.545109e+01    2.611418e+00
  1.548284e+01    2.373441e+00
  1.551459e+01    2.198779e+00
  1.554634e+01    2.092824e+00
  1.557809e+01    1.990264e+00
  1.560985e+01    1.901717e+00
  1.564160e+01    1.845835e+00
  1.567335e+01    1.821623e+00
  1.570510e+01    1.764041e+00
  1.573685e+01    1.742350e+00
  1.576860e+01    1.766979e+00
  1.580035e+01    1.721866e+00
  1.583210e+01    1.701988e+00
  1.586385e+01    1.704961e+00
  1.589561e+01    1.678326e+00
  1.592736e+01    1.671949e+00
  1.595911e+01    1.637208e+00
  1.599086e+01    1.689032e+00
  1.602261e+01    1.650074e+00
  1.605436e+01    1.637112e+00
  1.608611e+01    1.650854e+00
  1.611786e+01    1.657557e+00
  1.614961e+01    1.646808e+00
  1.618137e+01    1.573161e+00
  1.621312e+01    1.628988e+00
  1.624487e+01    1.558327e+00
  1.627662e+01    1.575180e+00
  1.630837e+01    1.557380e+00
  1.634012e+01    1.596893e+00
  1.637187e+01    1.554155e+00
  1.640362e+01    1.580876e+00
  1.643538e+01    1.523866e+00
  1.646713e+01    1.579160e+00
  1.649888e+01    1.538867e+00
  1.653063e+01    1.557081e+00
  1.656238e+01    1.515645e+00
  1.659413e+01    1.500971e+00
  1.662588e+01    1.505988e+00
  1.665763e+01    1.521729e+00
  1.668938e+01    1.506870e+00
  1.672114e+01    1.507586e+00
  1.675289e+01    1.505494e+00
  1.678464e+01    1.472331e+00
  1.681639e+01    1.478334e+00
  1.684814e+01    1.462119e+00
  1.687989e+01    1.437029e+00
  1.691164e+01    1.455158e+00
  1.694339e+01    1.464931e+00
  1.697514e+01    1.483908e+00
  1.700690e+01    1.453753e+00
  1.703865e+01    1.444461e+00
  1.707040e+01    1.457496e+00
  1.710215e+01    1.437410e+00
  1.713390e+01    1.410629e+00
  1.716565e+01    1.435429e+00
  1.719740e+01    1.415168e+00
  1.722915e+01    1.422664e+00
  1.726091e+01    1.417405e+00
  1.729266e+01    1.401304e+00
  1.732441e+01    1.395431e+00
  1.735616e+01    1.379475e+00
  1.738791e+01    1.430979e+00
  1.741966e+01    1.401411e+00
  1.745141e+01    1.393049e+00
  1.748316e+01    1.413541e+00
  1.751491e+01    1.388825e+00
  1.754667e+01    1.398439e+00
  1.757842e+01    1.392305e+00
  1.761017e+01    1.393532e+00
  1.764192e+01    1.362242e+00
  1.767367e+01    1.363804e+00
  1.770542e+01    1.357391e+00
  1.773717e+01    1.379278e+00
  1.776892e+01    1.370613e+00
  1.780067e+01    1.348151e+00
  1.783243e+01    1.363965e+00
  1.786418e+01    1.338340e+00
  1.789593e+01    1.362297e+00
  1.792768e+01    1.343593e+00
  1.795943e+01    1.308803e+00
  1.799118e+01    1.325699e+00
  1.802293e+01    1.328600e+00
  1.805468e+01    1.322734e+00
  1.808643e+01    1.327880e+00
  1.811819e+01    1.279028e+00
  1.814994e+01    1.315266e+00
  1.818169e+01    1.284611e+00
  1.821344e+01    1.279741e+00
  1.824519e+01    1.282908e+00
  1.827694e+01    1.290490e+00
  1.830869e+01    1.275962e+00
  1.834044e+01    1.292826e+00
  1.837220e+01    1.318605e+00
  1.840395e+01    1.307022e+00
  1.843570e+01    1.295437e+00
  1.846745e+01    1.303655e+00
  1.849920e+01    1.288473e+00
  1.853095e+01    1.261224e+00
  1.856270e+01    1.260875e+00
  1.859445e+01    1.237735e+00
  1.862620e+01    1.253712e+00
  1.865796e+01    1.277207e+00
  1.868971e+01    1.245950e+00
  1.872146e+01    1.224328e+00
  1.875321e+01    1.226828e+00
  1.878496e+01    1.233685e+00
  1.881671e+01    1.229844e+00
  1.884846e+01    1.248415e+00
  1.888021e+01    1.220500e+00
  1.891196e+01    1.225687e+00
  1.894372e+01    1.196655e+00
  1.897547e+01    1.231260e+00
  1.900722e+01    1.224165e+00
  1.903897e+01    1.232623e+00
  1.907072e+01    1.234022e+00
  1.910247e+01    1.202056e+00
  1.913422e+01    1.210220e+00
  1.916597e+01    1.195114e+00
  1.919773e+01    1.193691e+00
  1.922948e+01    1.189962e+00
  1.926123e+01    1.189438e+00
  1.929298e+01    1.189788e+00
  1.932473e+01    1.175190e+00
  1.935648e+01    1.199547e+00
  1.938823e+01    1.193790e+00
  1.941998e+01    1.199951e+00
  1.945173e+01    1.164788e+00
  1.948349e+01    1.169131e+00
  1.951524e+01    1.189253e+00
  1.954699e+01    1.157627e+00
  1.957874e+01    1.171880e+00
  1.961049e+01    1.179018e+00
  1.964224e+01    1.153199e+00
  1.967399e+01    1.156929e+00
  1.970574e+01    1.169908e+00
  1.973749e+01    1.150503e+00
  1.976925e+01    1.176706e+00
  1.980100e+01    1.136762e+00
  1.983275e+01    1.179389e+00
  1.986450e+01    1.167958e+00
  1.989625e+01    1.139290e+00
  1.992800e+01    1.141025e+00
  1.995975e+01    1.140704e+00
  1.999150e+01    1.163922e+00
  2.002325e+01    1.145014e+00
  2.005501e+01    1.127289e+00
  2.008676e+01    1.134545e+00
  2.011851e+01    1.139654e+00
  2.015026e+01    1.138920e+00
  2.018201e+01    1.129547e+00
  2.021376e+01    1.139530e+00
  2.024551e+01    1.125773e+00
  2.027726e+01    1.127492e+00
  2.030902e+01    1.109813e+00
  2.034077e+01    1.136858e+00
  2.037252e+01    1.122183e+00
  2.040427e+01    1.125129e+00
  2.043602e+01    1.091785e+00
  2.046777e+01    1.121614e+00
  2.049952e+01    1.110079e+00
  2.053127e+01    1.126978e+00
  2.056302e+01    1.118926e+00
  2.059478e+01    1.097298e+00
  2.062653e+01    1.094003e+00
  2.065828e+01    1.089533e+00
  2.069003e+01    1.095884e+00
  2.072178e+01    1.080631e+00
  2.075353e+01    1.095942e+00
  2.078528e+01    1.101428e+00
  2.081703e+01    1.114780e+00
  2.084878e+01    1.097009e+00
  2.088054e+01    1.102788e+00
  2.091229e+01    1.103732e+00
  2.094404e+01    1.133850e+00
  2.097579e+01    1.115805e+00
  2.100754e+01    1.127486e+00
  2.103929e+01    1.103082e+00
  2.107104e+01    1.088628e+00
  2.110279e+01    1.091345e+00
  2.113455e+01    1.119273e+00
  2.116630e+01    1.111534e+00
  2.119805e+01    1.124137e+00
  2.122980e+01    1.150509e+00
  2.126155e+01    1.118573e+00
  2.129330e+01    1.134269e+00
  2.132505e+01    1.149096e+00
  2.135680e+01    1.144913e+00
  2.138855e+01    1.172624e+00
  2.142031e+01    1.195792e+00
  2.145206e+01    1.259657e+00
  2.148381e+01    1.256731e+00
  2.151556e+01    1.332267e+00
  2.154731e+01    1.357977e+00
  2.157906e+01    1.436537e+00
  2.161081e+01    1.543530e+00
  2.164256e+01    1.714507e+00
  2.167431e+01    1.963524e+00
  2.170607e+01    2.352939e+00
  2.173782e+01    2.867870e+00
  2.176957e+01    3.756526e+00
  2.180132e+01    4.883900e+00
  2.183307e+01    6.447975e+00
  2.186482e+01    8.139676e+00
  2.189657e+01    9.926713e+00
  2.192832e+01    1.102524e+01
  2.196007e+01    1.035828e+01
  2.199183e+01    8.304645e+00
  2.202358e+01    5.953177e+00
  2.205533e+01    4.286057e+00
  2.208708e+01    3.254953e+00
  2.211883e+01    2.580736e+00
  2.215058e+01    2.107513e+00
  2.218233e+01    1.843385e+00
  2.221408e+01    1.656365e+00
  2.224584e+01    1.474123e+00
  2.227759e+01    1.381192e+00
  2.230934e+01    1.296020e+00
  2.234109e+01    1.233908e+00
  2.237284e+01    1.177452e+00
  2.240459e+01    1.164576e+00
  2.243634e+01    1.122821e+00
  2.246809e+01    1.116793e+00
  2.249984e+01    1.080054e+00
  2.253160e+01    1.033154e+00
  2.256335e+01    1.028551e+00
  2.259510e+01    1.027242e+00
  2.262685e+01    1.006618e+00
  2.265860e+01    1.003300e+00
  2.269035e+01    9.923564e-01
  2.272210e+01    9.903959e-01
  2.275385e+01    9.744328e-01
  2.278560e+01    9.612470e-01
  2.281736e+01    9.558059e-01
  2.284911e+01    9.594785e-01
  2.288086e+01    9.454858e-01
  2.291261e+01    9.397334e-01
  2.294436e+01    9.361182e-01
  2.297611e+01    9.116821e-01
  2.300786e+01    9.189249e-01
  2.303961e+01    9.066843e-01
  2.307137e+01    9.047097e-01
  2.310312e+01    8.984380e-01
  2.313487e+01    8.979614e-01
  2.316662e+01    9.011620e-01
  2.319837e+01    8.987406e-01
  2.323012e+01    8.925648e-01
  2.326187e+01    8.939521e-01
  2.329362e+01    8.619953e-01
  2.332537e+01    9.020798e-01
  2.335713e+01    8.753090e-01
  2.338888e+01    8.818269e-01
  2.342063e+01    8.711873e-01
  2.345238e+01    8.496947e-01
  2.348413e+01    8.405055e-01
  2.351588e+01    8.592413e-01
  2.354763e+01    8.341894e-01
  2.357938e+01    8.657851e-01
  2.361113e+01    8.520429e-01
  2.364289e+01    8.486898e-01
  2.367464e+01    8.425231e-01
  2.370639e+01    8.342654e-01
  2.373814e+01    8.514430e-01
  2.376989e+01    8.261984e-01
  2.380164e+01    8.447651e-01
  2.383339e+01    8.369814e-01
  2.386514e+01    8.301032e-01
  2.389689e+01    8.175891e-01
  2.392865e+01    8.081509e-01
  2.396040e+01    8.128080e-01
  2.399215e+01    8.222138e-01
  2.402390e+01    8.155282e-01
  2.405565e+01    7.901774e-01
  2.408740e+01    7.910149e-01
  2.411915e+01    8.037032e-01
  2.415090e+01    7.802770e-01
  2.418266e+01    8.018392e-01
  2.421441e+01    8.012788e-01
  2.424616e+01    7.834743e-01
  2.427791e+01    8.071375e-01
  2.430966e+01    8.371670e-01
  2.434141e+01    7.853857e-01
  2.437316e+01    8.086104e-01
  2.440491e+01    8.264730e-01
  2.443666e+01    7.931384e-01
  2.446842e+01    8.182778e-01
  2.450017e+01    7.983369e-01
  2.453192e+01    7.925867e-01
  2.456367e+01    8.009803e-01
  2.459542e+01    8.151830e-01
  2.462717e+01    7.744367e-01
  2.465892e+01    8.203139e-01
  2.469067e+01    7.908150e-01
  2.472242e+01    7.933134e-01
  2.475418e+01    8.140644e-01
  2.478593e+01    7.989932e-01
  2.481768e+01    8.095061e-01
  2.484943e+01    8.145935e-01
  2.488118e+01    8.195233e-01
  2.491293e+01    8.143348e-01
  2.494468e+01    8.010802e-01
  2.497643e+01    8.215542e-01
  2.500819e+01    8.163306e-01
  2.503994e+01    8.073055e-01
  2.507169e+01    8.414767e-01
  2.510344e+01    8.204804e-01
  2.513519e+01    8.327416e-01
  2.516694e+01    8.545864e-01
  2.519869e+01    8.547350e-01
  2.523044e+01    8.546817e-01
  2.526219e+01    8.572106e-01
  2.529395e+01    8.629745e-01
  2.532570e+01    8.954040e-01
  2.535745e+01    9.036040e-01
  2.538920e+01    9.163216e-01
  2.542095e+01    9.240003e-01
  2.545270e+01    9.395034e-01
  2.548445e+01    9.742622e-01
  2.551620e+01    9.850451e-01
  2.554795e+01    1.027931e+00
  2.557971e+01    1.065494e+00
  2.561146e+01    1.118994e+00
  2.564321e+01    1.194354e+00
  2.567496e+01    1.262915e+00
  2.570671e+01    1.404670e+00
  2.573846e+01    1.611623e+00
  2.577021e+01    1.866260e+00
  2.580196e+01    2.246381e+00
  2.583371e+01    2.821970e+00
  2.586547e+01    3.682215e+00
  2.589722e+01    4.849260e+00
  2.592897e+01    6.411573e+00
  2.596072e+01    8.063875e+00
  2.599247e+01    9.052494e+00
  2.602422e+01    8.854979e+00
  2.605597e+01    7.458042e+00
  2.608772e+01    5.593452e+00
  2.611948e+01    4.064880e+00
  2.615123e+01    3.052195e+00
  2.618298e+01    2.401551e+00
  2.621473e+01    1.945429e+00
  2.624648e+01    1.677853e+00
  2.627823e+01    1.476123e+00
  2.630998e+01    1.356029e+00
  2.634173e+01    1.223415e+00
  2.637348e+01    1.143884e+00
  2.640524e+01    1.088391e+00
  2.643699e+01    1.055478e+00
  2.646874e+01    1.028769e+00
  2.650049e+01    1.007091e+00
  2.653224e+01    9.970044e-01
  2.656399e+01    9.712361e-01
  2.659574e+01    9.758335e-01
  2.662749e+01    9.471368e-01
  2.665924e+01    9.522978e-01
  2.669100e+01    9.287916e-01
  2.672275e+01    9.357962e-01
  2.675450e+01    9.348304e-01
  2.678625e+01    9.211520e-01
  2.681800e+01    9.416454e-01
  2.684975e+01    9.363527e-01
  2.688150e+01    9.254587e-01
  2.691325e+01    9.629691e-01
  2.694501e+01    9.689295e-01
  2.697676e+01    9.989364e-01
  2.700851e+01    1.011398e+00
  2.704026e+01    1.082120e+00
  2.707201e+01    1.147806e+00
  2.710376e+01    1.292241e+00
  2.713551e+01    1.457229e+00
  2.716726e+01    1.715540e+00
  2.719901e+01    2.078970e+00
  2.723077e+01    2.423804e+00
  2.726252e+01    2.598954e+00
  2.729427e+01    2.505372e+00
  2.732602e+01    2.159585e+00
  2.735777e+01    1.799987e+00
  2.738952e+01    1.453534e+00
  2.742127e+01    1.289350e+00
  2.745302e+01    1.140895e+00
  2.748477e+01    1.049445e+00
  2.751653e+01    1.026094e+00
  2.754828e+01    9.851746e-01
  2.758003e+01    9.405825e-01
  2.761178e+01    9.047446e-01
  2.764353e+01    8.644592e-01
  2.767528e+01    8.593210e-01
  2.770703e+01    8.556293e-01
  2.773878e+01    8.590460e-01
  2.777054e+01    8.515480e-01
  2.780229e+01    8.297240e-01
  2.783404e+01    8.392563e-01
  2.786579e+01    7.978565e-01
  2.789754e+01    8.100809e-01
  2.792929e+01    8.172710e-01
  2.796104e+01    7.997882e-01
  2.799279e+01    8.077367e-01
  2.802454e+01    8.025094e-01
  2.805630e+01    8.017486e-01
  2.808805e+01    8.120326e-01
  2.811980e+01    8.169315e-01
  2.815155e+01    7.970430e-01
  2.818330e+01    8.102263e-01
  2.821505e+01    7.950891e-01
  2.824680e+01    7.844306e-01
  2.827855e+01    8.058131e-01
  2.831030e+01    8.029115e-01
  2.834206e+01    8.031873e-01
  2.837381e+01    8.138035e-01
  2.840556e+01    7.699245e-01
  2.843731e+01    7.660521e-01
  2.846906e+01    7.898651e-01
  2.850081e+01    7.687533e-01
  2.853256e+01    7.640285e-01
  2.856431e+01    7.887196e-01
  2.859606e+01    7.735243e-01
  2.862782e+01    7.712651e-01
  2.865957e+01    7.802271e-01
  2.869132e+01    7.977893e-01
  2.872307e+01    7.851056e-01
  2.875482e+01    7.951746e-01
  2.878657e+01    7.664129e-01
  2.881832e+01    7.586087e-01
  2.885007e+01    7.736216e-01
  2.888183e+01    7.752896e-01
  2.891358e+01    7.332499e-01
  2.894533e+01    7.681813e-01
  2.897708e+01    7.648117e-01
  2.900883e+01    7.474329e-01
  2.904058e+01    7.425226e-01
  2.907233e+01    7.386729e-01
  2.910408e+01    7.498450e-01
  2.913583e+01    7.468734e-01
  2.916759e+01    7.521341e-01
  2.919934e+01    7.480880e-01
  2.923109e+01    7.498259e-01
  2.926284e+01    7.709609e-01
  2.929459e+01    7.265272e-01
  2.932634e+01    7.581683e-01
  2.935809e+01    7.661356e-01
  2.938984e+01    7.582318e-01
  2.942159e+01    7.282472e-01
  2.945335e+01    7.634519e-01
  2.948510e+01    7.557505e-01
  2.951685e+01    7.327903e-01
  2.954860e+01    7.551054e-01
  2.958035e+01    7.304704e-01
  2.961210e+01    7.493804e-01
  2.964385e+01    7.628931e-01
  2.967560e+01    7.488137e-01
  2.970736e+01    7.449309e-01
  2.973911e+01    7.112556e-01
  2.977086e+01    7.480326e-01
  2.980261e+01    7.282709e-01
  2.983436e+01    7.324986e-01
  2.986611e+01    7.407284e-01
  2.989786e+01    7.456378e-01
  2.992961e+01    7.278987e-01
  2.996136e+01    7.297773e-01
  2.999312e+01    7.561639e-01
  3.002487e+01    7.549408e-01
  3.005662e+01    7.620152e-01
  3.008837e+01    7.647340e-01
  3.012012e+01    7.301791e-01
  3.015187e+01    7.375790e-01
  3.018362e+01    7.386165e-01
  3.021537e+01    7.258471e-01
  3.024712e+01    7.439404e-01
  3.027888e+01    7.120190e-01
  3.031063e+01    7.113199e-01
  3.034238e+01    7.332848e-01
  3.037413e+01    7.476956e-01
  3.040588e+01    7.565030e-01
  3.043763e+01    7.108821e-01
  3.046938e+01    7.607030e-01
  3.050113e+01    7.084371e-01
  3.053288e+01    7.232733e-01
  3.056464e+01    7.239895e-01
  3.059639e+01    7.093349e-01
  3.062814e+01    7.307159e-01
  3.065989e+01    7.247320e-01
  3.069164e+01    7.374560e-01
  3.072339e+01    7.258513e-01
  3.075514e+01    7.353368e-01
  3.078689e+01    7.384283e-01
  3.081865e+01    7.373211e-01
  3.085040e+01    7.401299e-01
  3.088215e+01    7.173125e-01
  3.091390e+01    7.277026e-01
  3.094565e+01    7.355003e-01
  3.097740e+01    7.505791e-01
  3.100915e+01    7.359350e-01
  3.104090e+01    7.110619e-01
  3.107265e+01    7.406796e-01
  3.110441e+01    7.442747e-01
  3.113616e+01    7.244338e-01
  3.116791e+01    7.635973e-01
  3.119966e+01    7.270077e-01
  3.123141e+01    7.412170e-01
  3.126316e+01    7.292957e-01
  3.129491e+01    7.311472e-01
  3.132666e+01    7.525655e-01
  3.135841e+01    7.812566e-01
  3.139017e+01    7.324073e-01
  3.142192e+01    7.529721e-01
  3.145367e+01    7.734283e-01
  3.148542e+01    7.440857e-01
  3.151717e+01    7.654628e-01
  3.154892e+01    7.797276e-01
  3.158067e+01    8.011526e-01
  3.161242e+01    8.141285e-01
  3.164418e+01    8.360553e-01
  3.167593e+01    8.806267e-01
  3.170768e+01    9.241189e-01
  3.173943e+01    9.947317e-01
  3.177118e+01    1.058225e+00
  3.180293e+01    1.231309e+00
  3.183468e+01    1.395948e+00
  3.186643e+01    1.699163e+00
  3.189818e+01    2.039118e+00
  3.192994e+01    2.450983e+00
  3.196169e+01    2.588598e+00
  3.199344e+01    2.475025e+00
  3.202519e+01    2.121817e+00
  3.205694e+01    1.777355e+00
  3.208869e+01    1.410383e+00
  3.212044e+01    1.208751e+00
  3.215219e+01    1.035275e+00
  3.218394e+01    9.754994e-01
  3.221570e+01    8.973536e-01
  3.224745e+01    8.653092e-01
  3.227920e+01    8.437492e-01
  3.231095e+01    8.111159e-01
  3.234270e+01    7.913082e-01
  3.237445e+01    8.006855e-01
  3.240620e+01    7.927270e-01
  3.243795e+01    7.763160e-01
  3.246970e+01    7.585418e-01
  3.250146e+01    7.278327e-01
  3.253321e+01    7.327945e-01
  3.254908e+01    7.547875e-01