File: XRD/Activation ramp/2024-07-27_002_Ru-CGO-ex_Activtation_ramp_000002_data_000171.dat
# == pyFAI calibration ==
# Distance Sample to Detector: 0.4 m
# PONI: 9.750e-02, 1.135e-01 m
# Rotations: -0.000175 0.000000 -0.000000 rad
#
# == Fit2d calibration ==
# Distance Sample-beamCenter: 400.000 mm
# Center: x=1514.000, y=1300.000 pix
# Tilt: 0.010 deg  TiltPlanRot: 0.010 deg
#
# Detector Detector	 Spline= None	 PixelSize= 7.500e-05, 7.500e-05 m
#    Detector has a mask: False
#    Detector has a dark current: False
#    detector has a flat field: False
#
# Wavelength: 6.888e-11 m
# Mask applied: user provided
# Dark current applied: False
# Flat field applied: False
# Polarization factor: 0.99
# Normalization factor: 1.0
# --> /home/myspot/data/2024_07_Rosario/Ru-CGO-ex/2024-07-27_002_Ru-CGO-ex_Activtation_ramp_000002_data_000171.dat
#       q_nm^-1             I
  2.003187e-02    1.424646e-01
  5.178302e-02    7.387542e-02
  8.353417e-02    1.158742e-01
  1.152853e-01    1.412721e-01
  1.470365e-01    1.243712e-02
  1.787876e-01    4.590868e-02
  2.105388e-01    7.565907e-02
  2.422899e-01    4.831280e-02
  2.740411e-01    6.735312e-02
  3.057922e-01    5.497773e-02
  3.375433e-01    5.134417e-02
  3.692945e-01    2.927081e-02
  4.010456e-01    2.995012e-02
  4.327968e-01    2.815823e-02
  4.645479e-01    4.292975e-02
  4.962991e-01    4.125814e-02
  5.280502e-01    3.802342e-02
  5.598014e-01    3.959174e-02
  5.915525e-01    3.509839e-02
  6.233037e-01    2.085524e-02
  6.550548e-01    3.829172e-02
  6.868060e-01    2.786189e-02
  7.185571e-01    5.797900e-02
  7.503083e-01    4.955619e-02
  7.820594e-01    1.151580e-01
  8.138106e-01    1.607731e-01
  8.455617e-01    3.581421e-01
  8.773129e-01    4.178906e-01
  9.090640e-01    5.459608e-01
  9.408152e-01    7.378492e-01
  9.725663e-01    8.932585e-01
  1.004317e+00    1.046085e+00
  1.036069e+00    1.192076e+00
  1.067820e+00    1.332279e+00
  1.099571e+00    1.319864e+00
  1.131322e+00    1.459162e+00
  1.163073e+00    1.507173e+00
  1.194824e+00    1.564052e+00
  1.226575e+00    1.904268e+00
  1.258327e+00    2.200455e+00
  1.290078e+00    2.344332e+00
  1.321829e+00    2.517683e+00
  1.353580e+00    2.502889e+00
  1.385331e+00    2.600301e+00
  1.417082e+00    2.654894e+00
  1.448834e+00    2.723928e+00
  1.480585e+00    2.785551e+00
  1.512336e+00    2.759357e+00
  1.544087e+00    3.008159e+00
  1.575838e+00    2.685138e+00
  1.607589e+00    2.839774e+00
  1.639340e+00    2.920335e+00
  1.671092e+00    2.821805e+00
  1.702843e+00    2.730237e+00
  1.734594e+00    2.622909e+00
  1.766345e+00    2.828695e+00
  1.798096e+00    2.739306e+00
  1.829847e+00    2.763720e+00
  1.861598e+00    2.693755e+00
  1.893350e+00    2.643684e+00
  1.925101e+00    2.654037e+00
  1.956852e+00    2.739953e+00
  1.988603e+00    2.757704e+00
  2.020354e+00    2.794758e+00
  2.052105e+00    2.719606e+00
  2.083856e+00    2.657289e+00
  2.115608e+00    2.824565e+00
  2.147359e+00    2.703168e+00
  2.179110e+00    2.791954e+00
  2.210861e+00    2.673844e+00
  2.242612e+00    2.725744e+00
  2.274363e+00    2.810060e+00
  2.306115e+00    2.663787e+00
  2.337866e+00    2.734073e+00
  2.369617e+00    2.648796e+00
  2.401368e+00    2.789645e+00
  2.433119e+00    2.616779e+00
  2.464870e+00    2.737437e+00
  2.496621e+00    2.865680e+00
  2.528373e+00    2.735172e+00
  2.560124e+00    2.875582e+00
  2.591875e+00    2.777720e+00
  2.623626e+00    2.751909e+00
  2.655377e+00    2.821776e+00
  2.687128e+00    2.742144e+00
  2.718879e+00    2.779367e+00
  2.750631e+00    2.852899e+00
  2.782382e+00    2.829349e+00
  2.814133e+00    2.920672e+00
  2.845884e+00    2.864206e+00
  2.877635e+00    2.855575e+00
  2.909386e+00    2.884059e+00
  2.941137e+00    2.888381e+00
  2.972889e+00    2.896880e+00
  3.004640e+00    2.843403e+00
  3.036391e+00    2.951117e+00
  3.068142e+00    3.018481e+00
  3.099893e+00    2.878500e+00
  3.131644e+00    2.850036e+00
  3.163395e+00    2.926282e+00
  3.195147e+00    3.008266e+00
  3.226898e+00    2.935493e+00
  3.258649e+00    2.900634e+00
  3.290400e+00    2.915632e+00
  3.322151e+00    2.943084e+00
  3.353902e+00    2.929564e+00
  3.385654e+00    3.000481e+00
  3.417405e+00    2.963372e+00
  3.449156e+00    3.011671e+00
  3.480907e+00    2.984572e+00
  3.512658e+00    2.986706e+00
  3.544409e+00    2.904493e+00
  3.576160e+00    2.878232e+00
  3.607912e+00    3.056924e+00
  3.639663e+00    3.047457e+00
  3.671414e+00    3.008869e+00
  3.703165e+00    3.052543e+00
  3.734916e+00    2.982888e+00
  3.766667e+00    2.928312e+00
  3.798418e+00    3.042915e+00
  3.830170e+00    3.017563e+00
  3.861921e+00    3.014863e+00
  3.893672e+00    2.996806e+00
  3.925423e+00    3.099359e+00
  3.957174e+00    3.056949e+00
  3.988925e+00    3.116159e+00
  4.020676e+00    3.003461e+00
  4.052428e+00    3.039512e+00
  4.084179e+00    3.050662e+00
  4.115930e+00    2.999069e+00
  4.147681e+00    3.014405e+00
  4.179432e+00    3.049262e+00
  4.211183e+00    2.982872e+00
  4.242935e+00    3.106121e+00
  4.274686e+00    2.989656e+00
  4.306437e+00    3.047759e+00
  4.338188e+00    3.029038e+00
  4.369939e+00    3.118720e+00
  4.401690e+00    3.165225e+00
  4.433441e+00    3.116116e+00
  4.465193e+00    2.976240e+00
  4.496944e+00    3.131668e+00
  4.528695e+00    3.083025e+00
  4.560446e+00    3.121540e+00
  4.592197e+00    3.102785e+00
  4.623948e+00    3.101045e+00
  4.655699e+00    3.022426e+00
  4.687451e+00    3.106363e+00
  4.719202e+00    3.092672e+00
  4.750953e+00    3.224358e+00
  4.782704e+00    3.161009e+00
  4.814455e+00    3.137545e+00
  4.846206e+00    3.168455e+00
  4.877957e+00    3.119870e+00
  4.909709e+00    3.086569e+00
  4.941460e+00    3.086896e+00
  4.973211e+00    3.230301e+00
  5.004962e+00    3.075405e+00
  5.036713e+00    3.100512e+00
  5.068464e+00    3.124315e+00
  5.100216e+00    3.148053e+00
  5.131967e+00    3.135866e+00
  5.163718e+00    3.133035e+00
  5.195469e+00    3.124759e+00
  5.227220e+00    3.121545e+00
  5.258971e+00    3.177928e+00
  5.290722e+00    3.208631e+00
  5.322474e+00    3.199611e+00
  5.354225e+00    3.158973e+00
  5.385976e+00    3.203494e+00
  5.417727e+00    3.122284e+00
  5.449478e+00    3.176161e+00
  5.481229e+00    3.124542e+00
  5.512980e+00    3.149967e+00
  5.544732e+00    3.176905e+00
  5.576483e+00    3.075546e+00
  5.608234e+00    3.069968e+00
  5.639985e+00    3.044163e+00
  5.671736e+00    3.073405e+00
  5.703487e+00    3.060611e+00
  5.735238e+00    3.090891e+00
  5.766990e+00    3.110429e+00
  5.798741e+00    3.054965e+00
  5.830492e+00    3.104155e+00
  5.862243e+00    3.059925e+00
  5.893994e+00    3.019100e+00
  5.925745e+00    2.975907e+00
  5.957497e+00    3.023107e+00
  5.989248e+00    2.983835e+00
  6.020999e+00    3.005788e+00
  6.052750e+00    3.003648e+00
  6.084501e+00    3.111862e+00
  6.116252e+00    3.148161e+00
  6.148003e+00    3.129699e+00
  6.179755e+00    3.051975e+00
  6.211506e+00    3.051847e+00
  6.243257e+00    3.095082e+00
  6.275008e+00    3.096394e+00
  6.306759e+00    3.037127e+00
  6.338510e+00    3.033683e+00
  6.370261e+00    3.012923e+00
  6.402013e+00    3.031394e+00
  6.433764e+00    2.997542e+00
  6.465515e+00    3.096213e+00
  6.497266e+00    3.079701e+00
  6.529017e+00    3.065588e+00
  6.560768e+00    2.991255e+00
  6.592519e+00    3.073243e+00
  6.624271e+00    3.069673e+00
  6.656022e+00    3.037244e+00
  6.687773e+00    3.031608e+00
  6.719524e+00    3.024107e+00
  6.751275e+00    3.105775e+00
  6.783026e+00    2.982635e+00
  6.814777e+00    2.999858e+00
  6.846529e+00    2.983798e+00
  6.878280e+00    3.034606e+00
  6.910031e+00    3.052674e+00
  6.941782e+00    3.032013e+00
  6.973533e+00    3.037385e+00
  7.005284e+00    3.046124e+00
  7.037036e+00    3.103379e+00
  7.068787e+00    3.051787e+00
  7.100538e+00    3.069371e+00
  7.132289e+00    3.037937e+00
  7.164040e+00    2.993899e+00
  7.195791e+00    3.055178e+00
  7.227542e+00    3.024138e+00
  7.259294e+00    2.984546e+00
  7.291045e+00    3.079909e+00
  7.322796e+00    3.066021e+00
  7.354547e+00    2.980765e+00
  7.386298e+00    2.998185e+00
  7.418049e+00    2.999486e+00
  7.449800e+00    3.046560e+00
  7.481552e+00    2.967304e+00
  7.513303e+00    2.988898e+00
  7.545054e+00    3.010250e+00
  7.576805e+00    2.948878e+00
  7.608556e+00    3.008939e+00
  7.640307e+00    2.967979e+00
  7.672058e+00    2.966456e+00
  7.703810e+00    3.029274e+00
  7.735561e+00    2.942515e+00
  7.767312e+00    2.996861e+00
  7.799063e+00    2.906021e+00
  7.830814e+00    2.936364e+00
  7.862565e+00    2.957461e+00
  7.894317e+00    2.947656e+00
  7.926068e+00    2.933309e+00
  7.957819e+00    2.895470e+00
  7.989570e+00    2.986397e+00
  8.021321e+00    2.939652e+00
  8.053072e+00    2.986470e+00
  8.084823e+00    2.941553e+00
  8.116575e+00    2.946458e+00
  8.148326e+00    2.990633e+00
  8.180077e+00    3.010885e+00
  8.211828e+00    2.952551e+00
  8.243579e+00    3.047355e+00
  8.275330e+00    2.957075e+00
  8.307081e+00    2.947824e+00
  8.338833e+00    2.894897e+00
  8.370584e+00    2.940032e+00
  8.402335e+00    2.942667e+00
  8.434086e+00    2.891241e+00
  8.465837e+00    2.894717e+00
  8.497588e+00    2.860639e+00
  8.529339e+00    2.885504e+00
  8.561091e+00    2.899917e+00
  8.592842e+00    2.998803e+00
  8.624593e+00    2.893430e+00
  8.656344e+00    2.876588e+00
  8.688095e+00    2.863781e+00
  8.719846e+00    2.901202e+00
  8.751598e+00    2.938120e+00
  8.783349e+00    2.871586e+00
  8.815100e+00    2.931537e+00
  8.846851e+00    2.821910e+00
  8.878602e+00    2.884868e+00
  8.910353e+00    2.887456e+00
  8.942104e+00    2.842978e+00
  8.973856e+00    2.845609e+00
  9.005607e+00    2.813596e+00
  9.037358e+00    2.829611e+00
  9.069109e+00    2.822845e+00
  9.100860e+00    2.845980e+00
  9.132611e+00    2.785553e+00
  9.164362e+00    2.811130e+00
  9.196114e+00    2.894140e+00
  9.227865e+00    2.765001e+00
  9.259616e+00    2.829498e+00
  9.291367e+00    2.806366e+00
  9.323118e+00    2.793596e+00
  9.354869e+00    2.778223e+00
  9.386620e+00    2.739456e+00
  9.418372e+00    2.741759e+00
  9.450123e+00    2.744535e+00
  9.481874e+00    2.855211e+00
  9.513625e+00    2.741358e+00
  9.545376e+00    2.775441e+00
  9.577127e+00    2.742136e+00
  9.608878e+00    2.761915e+00
  9.640630e+00    2.769914e+00
  9.672381e+00    2.717195e+00
  9.704132e+00    2.786782e+00
  9.735883e+00    2.743411e+00
  9.767634e+00    2.699276e+00
  9.799385e+00    2.690418e+00
  9.831137e+00    2.730287e+00
  9.862888e+00    2.695762e+00
  9.894639e+00    2.677110e+00
  9.926390e+00    2.704764e+00
  9.958141e+00    2.719501e+00
  9.989892e+00    2.666418e+00
  1.002164e+01    2.645753e+00
  1.005339e+01    2.715300e+00
  1.008515e+01    2.685679e+00
  1.011690e+01    2.672924e+00
  1.014865e+01    2.625783e+00
  1.018040e+01    2.663968e+00
  1.021215e+01    2.615145e+00
  1.024390e+01    2.665719e+00
  1.027565e+01    2.665059e+00
  1.030740e+01    2.680216e+00
  1.033915e+01    2.610532e+00
  1.037091e+01    2.637704e+00
  1.040266e+01    2.660369e+00
  1.043441e+01    2.606410e+00
  1.046616e+01    2.614321e+00
  1.049791e+01    2.605541e+00
  1.052966e+01    2.615754e+00
  1.056141e+01    2.595889e+00
  1.059316e+01    2.538467e+00
  1.062492e+01    2.556893e+00
  1.065667e+01    2.558334e+00
  1.068842e+01    2.609049e+00
  1.072017e+01    2.555303e+00
  1.075192e+01    2.587739e+00
  1.078367e+01    2.558139e+00
  1.081542e+01    2.548533e+00
  1.084717e+01    2.540034e+00
  1.087892e+01    2.521202e+00
  1.091068e+01    2.539246e+00
  1.094243e+01    2.522146e+00
  1.097418e+01    2.468906e+00
  1.100593e+01    2.478782e+00
  1.103768e+01    2.515060e+00
  1.106943e+01    2.490897e+00
  1.110118e+01    2.495280e+00
  1.113293e+01    2.502176e+00
  1.116468e+01    2.496006e+00
  1.119644e+01    2.470201e+00
  1.122819e+01    2.442859e+00
  1.125994e+01    2.406754e+00
  1.129169e+01    2.436916e+00
  1.132344e+01    2.490561e+00
  1.135519e+01    2.431215e+00
  1.138694e+01    2.443093e+00
  1.141869e+01    2.398442e+00
  1.145045e+01    2.421041e+00
  1.148220e+01    2.436980e+00
  1.151395e+01    2.404948e+00
  1.154570e+01    2.392894e+00
  1.157745e+01    2.413441e+00
  1.160920e+01    2.369277e+00
  1.164095e+01    2.453579e+00
  1.167270e+01    2.431798e+00
  1.170445e+01    2.417783e+00
  1.173621e+01    2.376844e+00
  1.176796e+01    2.350931e+00
  1.179971e+01    2.364686e+00
  1.183146e+01    2.364400e+00
  1.186321e+01    2.357013e+00
  1.189496e+01    2.320285e+00
  1.192671e+01    2.382275e+00
  1.195846e+01    2.316617e+00
  1.199021e+01    2.349569e+00
  1.202197e+01    2.330930e+00
  1.205372e+01    2.323696e+00
  1.208547e+01    2.291745e+00
  1.211722e+01    2.330475e+00
  1.214897e+01    2.374385e+00
  1.218072e+01    2.366132e+00
  1.221247e+01    2.332431e+00
  1.224422e+01    2.335326e+00
  1.227597e+01    2.362247e+00
  1.230773e+01    2.324849e+00
  1.233948e+01    2.349812e+00
  1.237123e+01    2.316367e+00
  1.240298e+01    2.358407e+00
  1.243473e+01    2.325280e+00
  1.246648e+01    2.294942e+00
  1.249823e+01    2.340627e+00
  1.252998e+01    2.386070e+00
  1.256174e+01    2.378220e+00
  1.259349e+01    2.343565e+00
  1.262524e+01    2.401356e+00
  1.265699e+01    2.398806e+00
  1.268874e+01    2.443950e+00
  1.272049e+01    2.500425e+00
  1.275224e+01    2.585185e+00
  1.278399e+01    2.628863e+00
  1.281574e+01    2.671799e+00
  1.284750e+01    2.895910e+00
  1.287925e+01    3.041707e+00
  1.291100e+01    3.252603e+00
  1.294275e+01    3.741651e+00
  1.297450e+01    4.486957e+00
  1.300625e+01    5.498427e+00
  1.303800e+01    7.146910e+00
  1.306975e+01    9.545197e+00
  1.310150e+01    1.208215e+01
  1.313326e+01    1.414919e+01
  1.316501e+01    1.587662e+01
  1.319676e+01    1.547386e+01
  1.322851e+01    1.249433e+01
  1.326026e+01    8.873057e+00
  1.329201e+01    6.444852e+00
  1.332376e+01    4.977570e+00
  1.335551e+01    4.073289e+00
  1.338727e+01    3.522446e+00
  1.341902e+01    3.137045e+00
  1.345077e+01    2.883193e+00
  1.348252e+01    2.690479e+00
  1.351427e+01    2.613184e+00
  1.354602e+01    2.503020e+00
  1.357777e+01    2.402861e+00
  1.360952e+01    2.381724e+00
  1.364127e+01    2.263061e+00
  1.367303e+01    2.277895e+00
  1.370478e+01    2.240532e+00
  1.373653e+01    2.173402e+00
  1.376828e+01    2.179004e+00
  1.380003e+01    2.196847e+00
  1.383178e+01    2.122172e+00
  1.386353e+01    2.096015e+00
  1.389528e+01    2.082515e+00
  1.392703e+01    2.070364e+00
  1.395879e+01    2.101699e+00
  1.399054e+01    2.030237e+00
  1.402229e+01    2.056415e+00
  1.405404e+01    2.050001e+00
  1.408579e+01    2.045869e+00
  1.411754e+01    2.009038e+00
  1.414929e+01    1.998192e+00
  1.418104e+01    2.023778e+00
  1.421279e+01    1.993066e+00
  1.424455e+01    1.988213e+00
  1.427630e+01    1.964322e+00
  1.430805e+01    1.979337e+00
  1.433980e+01    1.964669e+00
  1.437155e+01    1.956054e+00
  1.440330e+01    1.941361e+00
  1.443505e+01    1.934004e+00
  1.446680e+01    1.943137e+00
  1.449856e+01    1.939494e+00
  1.453031e+01    1.917280e+00
  1.456206e+01    1.908026e+00
  1.459381e+01    1.930316e+00
  1.462556e+01    1.934231e+00
  1.465731e+01    1.924929e+00
  1.468906e+01    1.938092e+00
  1.472081e+01    1.952739e+00
  1.475256e+01    1.941209e+00
  1.478432e+01    1.935690e+00
  1.481607e+01    1.930924e+00
  1.484782e+01    1.957167e+00
  1.487957e+01    1.942934e+00
  1.491132e+01    2.013612e+00
  1.494307e+01    2.054839e+00
  1.497482e+01    2.083831e+00
  1.500657e+01    2.183406e+00
  1.503832e+01    2.357653e+00
  1.507008e+01    2.564509e+00
  1.510183e+01    2.876756e+00
  1.513358e+01    3.501673e+00
  1.516533e+01    4.200361e+00
  1.519708e+01    4.822261e+00
  1.522883e+01    5.306922e+00
  1.526058e+01    5.558680e+00
  1.529233e+01    5.224578e+00
  1.532409e+01    4.443518e+00
  1.535584e+01    3.535931e+00
  1.538759e+01    2.902474e+00
  1.541934e+01    2.474385e+00
  1.545109e+01    2.243568e+00
  1.548284e+01    2.112253e+00
  1.551459e+01    1.949108e+00
  1.554634e+01    1.946898e+00
  1.557809e+01    1.856898e+00
  1.560985e+01    1.789652e+00
  1.564160e+01    1.800067e+00
  1.567335e+01    1.730477e+00
  1.570510e+01    1.754366e+00
  1.573685e+01    1.744629e+00
  1.576860e+01    1.682776e+00
  1.580035e+01    1.692588e+00
  1.583210e+01    1.677409e+00
  1.586385e+01    1.697825e+00
  1.589561e+01    1.677101e+00
  1.592736e+01    1.645713e+00
  1.595911e+01    1.598500e+00
  1.599086e+01    1.622694e+00
  1.602261e+01    1.635686e+00
  1.605436e+01    1.602150e+00
  1.608611e+01    1.618527e+00
  1.611786e+01    1.624607e+00
  1.614961e+01    1.597751e+00
  1.618137e+01    1.585129e+00
  1.621312e+01    1.588368e+00
  1.624487e+01    1.587376e+00
  1.627662e+01    1.543838e+00
  1.630837e+01    1.595287e+00
  1.634012e+01    1.572498e+00
  1.637187e+01    1.548229e+00
  1.640362e+01    1.554544e+00
  1.643538e+01    1.519564e+00
  1.646713e+01    1.526347e+00
  1.649888e+01    1.510356e+00
  1.653063e+01    1.520441e+00
  1.656238e+01    1.497348e+00
  1.659413e+01    1.492812e+00
  1.662588e+01    1.533418e+00
  1.665763e+01    1.497227e+00
  1.668938e+01    1.489318e+00
  1.672114e+01    1.528827e+00
  1.675289e+01    1.488417e+00
  1.678464e+01    1.472393e+00
  1.681639e+01    1.476390e+00
  1.684814e+01    1.442894e+00
  1.687989e+01    1.476935e+00
  1.691164e+01    1.468082e+00
  1.694339e+01    1.471796e+00
  1.697514e+01    1.434960e+00
  1.700690e+01    1.421828e+00
  1.703865e+01    1.460434e+00
  1.707040e+01    1.410980e+00
  1.710215e+01    1.459312e+00
  1.713390e+01    1.440236e+00
  1.716565e+01    1.437249e+00
  1.719740e+01    1.386193e+00
  1.722915e+01    1.420743e+00
  1.726091e+01    1.418465e+00
  1.729266e+01    1.392076e+00
  1.732441e+01    1.398591e+00
  1.735616e+01    1.390011e+00
  1.738791e+01    1.377122e+00
  1.741966e+01    1.401273e+00
  1.745141e+01    1.395651e+00
  1.748316e+01    1.376403e+00
  1.751491e+01    1.366271e+00
  1.754667e+01    1.372328e+00
  1.757842e+01    1.415266e+00
  1.761017e+01    1.379113e+00
  1.764192e+01    1.384449e+00
  1.767367e+01    1.316752e+00
  1.770542e+01    1.361876e+00
  1.773717e+01    1.349660e+00
  1.776892e+01    1.353236e+00
  1.780067e+01    1.365034e+00
  1.783243e+01    1.311084e+00
  1.786418e+01    1.332564e+00
  1.789593e+01    1.300955e+00
  1.792768e+01    1.314630e+00
  1.795943e+01    1.309544e+00
  1.799118e+01    1.287880e+00
  1.802293e+01    1.314751e+00
  1.805468e+01    1.295654e+00
  1.808643e+01    1.299427e+00
  1.811819e+01    1.291827e+00
  1.814994e+01    1.299982e+00
  1.818169e+01    1.302843e+00
  1.821344e+01    1.269850e+00
  1.824519e+01    1.279282e+00
  1.827694e+01    1.308400e+00
  1.830869e+01    1.314764e+00
  1.834044e+01    1.296616e+00
  1.837220e+01    1.278146e+00
  1.840395e+01    1.261231e+00
  1.843570e+01    1.264844e+00
  1.846745e+01    1.266161e+00
  1.849920e+01    1.240079e+00
  1.853095e+01    1.267001e+00
  1.856270e+01    1.230638e+00
  1.859445e+01    1.277431e+00
  1.862620e+01    1.269160e+00
  1.865796e+01    1.232832e+00
  1.868971e+01    1.223087e+00
  1.872146e+01    1.221118e+00
  1.875321e+01    1.234061e+00
  1.878496e+01    1.235214e+00
  1.881671e+01    1.257433e+00
  1.884846e+01    1.217000e+00
  1.888021e+01    1.197424e+00
  1.891196e+01    1.192469e+00
  1.894372e+01    1.226633e+00
  1.897547e+01    1.204461e+00
  1.900722e+01    1.182580e+00
  1.903897e+01    1.203668e+00
  1.907072e+01    1.199309e+00
  1.910247e+01    1.172491e+00
  1.913422e+01    1.188359e+00
  1.916597e+01    1.181647e+00
  1.919773e+01    1.169636e+00
  1.922948e+01    1.185734e+00
  1.926123e+01    1.179644e+00
  1.929298e+01    1.170413e+00
  1.932473e+01    1.220686e+00
  1.935648e+01    1.152547e+00
  1.938823e+01    1.151815e+00
  1.941998e+01    1.184721e+00
  1.945173e+01    1.185190e+00
  1.948349e+01    1.175816e+00
  1.951524e+01    1.165803e+00
  1.954699e+01    1.181524e+00
  1.957874e+01    1.156434e+00
  1.961049e+01    1.157221e+00
  1.964224e+01    1.150987e+00
  1.967399e+01    1.126726e+00
  1.970574e+01    1.154759e+00
  1.973749e+01    1.128475e+00
  1.976925e+01    1.146325e+00
  1.980100e+01    1.123048e+00
  1.983275e+01    1.140423e+00
  1.986450e+01    1.117764e+00
  1.989625e+01    1.099316e+00
  1.992800e+01    1.146543e+00
  1.995975e+01    1.108601e+00
  1.999150e+01    1.136025e+00
  2.002325e+01    1.142276e+00
  2.005501e+01    1.115195e+00
  2.008676e+01    1.122749e+00
  2.011851e+01    1.117354e+00
  2.015026e+01    1.089178e+00
  2.018201e+01    1.118093e+00
  2.021376e+01    1.102898e+00
  2.024551e+01    1.104603e+00
  2.027726e+01    1.082859e+00
  2.030902e+01    1.094136e+00
  2.034077e+01    1.100880e+00
  2.037252e+01    1.103164e+00
  2.040427e+01    1.117625e+00
  2.043602e+01    1.070261e+00
  2.046777e+01    1.081888e+00
  2.049952e+01    1.097803e+00
  2.053127e+01    1.109666e+00
  2.056302e+01    1.076161e+00
  2.059478e+01    1.095997e+00
  2.062653e+01    1.091444e+00
  2.065828e+01    1.086820e+00
  2.069003e+01    1.081508e+00
  2.072178e+01    1.081751e+00
  2.075353e+01    1.071503e+00
  2.078528e+01    1.082564e+00
  2.081703e+01    1.057782e+00
  2.084878e+01    1.071388e+00
  2.088054e+01    1.049512e+00
  2.091229e+01    1.091618e+00
  2.094404e+01    1.062632e+00
  2.097579e+01    1.101151e+00
  2.100754e+01    1.088162e+00
  2.103929e+01    1.077260e+00
  2.107104e+01    1.073534e+00
  2.110279e+01    1.077978e+00
  2.113455e+01    1.085283e+00
  2.116630e+01    1.083453e+00
  2.119805e+01    1.091902e+00
  2.122980e+01    1.100339e+00
  2.126155e+01    1.116488e+00
  2.129330e+01    1.110878e+00
  2.132505e+01    1.119267e+00
  2.135680e+01    1.162012e+00
  2.138855e+01    1.175426e+00
  2.142031e+01    1.180326e+00
  2.145206e+01    1.223279e+00
  2.148381e+01    1.266884e+00
  2.151556e+01    1.308336e+00
  2.154731e+01    1.403939e+00
  2.157906e+01    1.467489e+00
  2.161081e+01    1.631150e+00
  2.164256e+01    1.840510e+00
  2.167431e+01    2.114991e+00
  2.170607e+01    2.629255e+00
  2.173782e+01    3.336821e+00
  2.176957e+01    4.385753e+00
  2.180132e+01    5.596903e+00
  2.183307e+01    7.002120e+00
  2.186482e+01    8.206899e+00
  2.189657e+01    8.801052e+00
  2.192832e+01    8.252475e+00
  2.196007e+01    6.431663e+00
  2.199183e+01    4.655093e+00
  2.202358e+01    3.430512e+00
  2.205533e+01    2.606914e+00
  2.208708e+01    2.148674e+00
  2.211883e+01    1.810243e+00
  2.215058e+01    1.624759e+00
  2.218233e+01    1.462824e+00
  2.221408e+01    1.358867e+00
  2.224584e+01    1.274897e+00
  2.227759e+01    1.225197e+00
  2.230934e+01    1.163639e+00
  2.234109e+01    1.107799e+00
  2.237284e+01    1.119084e+00
  2.240459e+01    1.058832e+00
  2.243634e+01    1.057150e+00
  2.246809e+01    1.028866e+00
  2.249984e+01    1.038724e+00
  2.253160e+01    1.016707e+00
  2.256335e+01    9.857917e-01
  2.259510e+01    9.712000e-01
  2.262685e+01    9.860004e-01
  2.265860e+01    9.653234e-01
  2.269035e+01    9.499085e-01
  2.272210e+01    9.432356e-01
  2.275385e+01    9.317482e-01
  2.278560e+01    9.445028e-01
  2.281736e+01    9.387544e-01
  2.284911e+01    9.087566e-01
  2.288086e+01    9.167032e-01
  2.291261e+01    8.933141e-01
  2.294436e+01    9.046249e-01
  2.297611e+01    8.946172e-01
  2.300786e+01    8.887183e-01
  2.303961e+01    8.937244e-01
  2.307137e+01    8.916406e-01
  2.310312e+01    8.882746e-01
  2.313487e+01    8.659662e-01
  2.316662e+01    8.841892e-01
  2.319837e+01    8.654042e-01
  2.323012e+01    8.936055e-01
  2.326187e+01    8.594624e-01
  2.329362e+01    8.670138e-01
  2.332537e+01    8.685430e-01
  2.335713e+01    8.590884e-01
  2.338888e+01    8.734261e-01
  2.342063e+01    8.670889e-01
  2.345238e+01    8.549192e-01
  2.348413e+01    8.526124e-01
  2.351588e+01    8.466749e-01
  2.354763e+01    8.603030e-01
  2.357938e+01    8.325570e-01
  2.361113e+01    8.433571e-01
  2.364289e+01    8.413114e-01
  2.367464e+01    8.544605e-01
  2.370639e+01    8.436700e-01
  2.373814e+01    8.263111e-01
  2.376989e+01    8.186166e-01
  2.380164e+01    8.305411e-01
  2.383339e+01    7.946529e-01
  2.386514e+01    8.045933e-01
  2.389689e+01    7.962620e-01
  2.392865e+01    7.799436e-01
  2.396040e+01    7.890924e-01
  2.399215e+01    7.774093e-01
  2.402390e+01    7.811971e-01
  2.405565e+01    7.945102e-01
  2.408740e+01    7.976621e-01
  2.411915e+01    7.845262e-01
  2.415090e+01    7.904667e-01
  2.418266e+01    7.700849e-01
  2.421441e+01    7.701838e-01
  2.424616e+01    7.892736e-01
  2.427791e+01    7.965038e-01
  2.430966e+01    8.032548e-01
  2.434141e+01    7.802199e-01
  2.437316e+01    7.730025e-01
  2.440491e+01    7.721834e-01
  2.443666e+01    7.700250e-01
  2.446842e+01    7.972040e-01
  2.450017e+01    8.034436e-01
  2.453192e+01    7.838046e-01
  2.456367e+01    7.822692e-01
  2.459542e+01    7.850474e-01
  2.462717e+01    8.049551e-01
  2.465892e+01    7.873921e-01
  2.469067e+01    7.883270e-01
  2.472242e+01    7.806472e-01
  2.475418e+01    7.829211e-01
  2.478593e+01    7.880921e-01
  2.481768e+01    7.745655e-01
  2.484943e+01    7.805229e-01
  2.488118e+01    7.915913e-01
  2.491293e+01    8.002164e-01
  2.494468e+01    7.991264e-01
  2.497643e+01    7.912168e-01
  2.500819e+01    7.938036e-01
  2.503994e+01    7.996367e-01
  2.507169e+01    8.151278e-01
  2.510344e+01    8.080093e-01
  2.513519e+01    8.344278e-01
  2.516694e+01    8.005246e-01
  2.519869e+01    8.226909e-01
  2.523044e+01    8.622164e-01
  2.526219e+01    8.515587e-01
  2.529395e+01    8.562119e-01
  2.532570e+01    8.883286e-01
  2.535745e+01    8.822080e-01
  2.538920e+01    8.827433e-01
  2.542095e+01    9.134808e-01
  2.545270e+01    9.109608e-01
  2.548445e+01    9.786918e-01
  2.551620e+01    1.020907e+00
  2.554795e+01    1.013725e+00
  2.557971e+01    1.078082e+00
  2.561146e+01    1.144234e+00
  2.564321e+01    1.223715e+00
  2.567496e+01    1.343264e+00
  2.570671e+01    1.515028e+00
  2.573846e+01    1.763669e+00
  2.577021e+01    2.172681e+00
  2.580196e+01    2.708774e+00
  2.583371e+01    3.516229e+00
  2.586547e+01    4.547437e+00
  2.589722e+01    5.764465e+00
  2.592897e+01    6.787116e+00
  2.596072e+01    7.221526e+00
  2.599247e+01    6.672322e+00
  2.602422e+01    5.307309e+00
  2.605597e+01    3.903593e+00
  2.608772e+01    2.946579e+00
  2.611948e+01    2.274764e+00
  2.615123e+01    1.867076e+00
  2.618298e+01    1.580116e+00
  2.621473e+01    1.388430e+00
  2.624648e+01    1.223308e+00
  2.627823e+01    1.165609e+00
  2.630998e+01    1.086597e+00
  2.634173e+01    1.034853e+00
  2.637348e+01    9.981704e-01
  2.640524e+01    9.440214e-01
  2.643699e+01    9.436620e-01
  2.646874e+01    9.466937e-01
  2.650049e+01    9.178283e-01
  2.653224e+01    9.066841e-01
  2.656399e+01    9.087601e-01
  2.659574e+01    8.776538e-01
  2.662749e+01    8.647007e-01
  2.665924e+01    8.952324e-01
  2.669100e+01    8.751779e-01
  2.672275e+01    8.699840e-01
  2.675450e+01    8.417756e-01
  2.678625e+01    8.876492e-01
  2.681800e+01    8.822585e-01
  2.684975e+01    9.085929e-01
  2.688150e+01    8.948867e-01
  2.691325e+01    8.973610e-01
  2.694501e+01    9.650451e-01
  2.697676e+01    9.434903e-01
  2.700851e+01    1.051013e+00
  2.704026e+01    1.115988e+00
  2.707201e+01    1.215034e+00
  2.710376e+01    1.389289e+00
  2.713551e+01    1.650740e+00
  2.716726e+01    1.934158e+00
  2.719901e+01    2.124460e+00
  2.723077e+01    2.178352e+00
  2.726252e+01    1.929250e+00
  2.729427e+01    1.672913e+00
  2.732602e+01    1.408845e+00
  2.735777e+01    1.206398e+00
  2.738952e+01    1.088757e+00
  2.742127e+01    1.006475e+00
  2.745302e+01    9.383591e-01
  2.748477e+01    9.089214e-01
  2.751653e+01    8.942668e-01
  2.754828e+01    8.725455e-01
  2.758003e+01    8.452948e-01
  2.761178e+01    8.441628e-01
  2.764353e+01    8.410675e-01
  2.767528e+01    8.318325e-01
  2.770703e+01    8.225177e-01
  2.773878e+01    8.028071e-01
  2.777054e+01    8.091542e-01
  2.780229e+01    8.194249e-01
  2.783404e+01    7.879617e-01
  2.786579e+01    7.807961e-01
  2.789754e+01    7.805732e-01
  2.792929e+01    7.860740e-01
  2.796104e+01    7.674793e-01
  2.799279e+01    7.933582e-01
  2.802454e+01    7.908120e-01
  2.805630e+01    7.764315e-01
  2.808805e+01    7.746145e-01
  2.811980e+01    7.758978e-01
  2.815155e+01    7.701824e-01
  2.818330e+01    7.678993e-01
  2.821505e+01    7.560061e-01
  2.824680e+01    7.713190e-01
  2.827855e+01    7.485511e-01
  2.831030e+01    7.887148e-01
  2.834206e+01    7.511915e-01
  2.837381e+01    7.710634e-01
  2.840556e+01    7.634065e-01
  2.843731e+01    7.678640e-01
  2.846906e+01    7.416216e-01
  2.850081e+01    7.582587e-01
  2.853256e+01    7.687897e-01
  2.856431e+01    7.406153e-01
  2.859606e+01    7.535020e-01
  2.862782e+01    7.518418e-01
  2.865957e+01    7.403173e-01
  2.869132e+01    7.243988e-01
  2.872307e+01    7.235783e-01
  2.875482e+01    7.612643e-01
  2.878657e+01    7.216913e-01
  2.881832e+01    7.338465e-01
  2.885007e+01    7.355756e-01
  2.888183e+01    7.349911e-01
  2.891358e+01    7.141592e-01
  2.894533e+01    7.349018e-01
  2.897708e+01    7.298427e-01
  2.900883e+01    7.176657e-01
  2.904058e+01    7.265114e-01
  2.907233e+01    7.195053e-01
  2.910408e+01    7.192190e-01
  2.913583e+01    7.350175e-01
  2.916759e+01    7.467159e-01
  2.919934e+01    7.444334e-01
  2.923109e+01    7.541918e-01
  2.926284e+01    7.425750e-01
  2.929459e+01    7.130720e-01
  2.932634e+01    7.394181e-01
  2.935809e+01    7.299570e-01
  2.938984e+01    7.203436e-01
  2.942159e+01    7.388209e-01
  2.945335e+01    7.179197e-01
  2.948510e+01    7.242147e-01
  2.951685e+01    7.390640e-01
  2.954860e+01    7.238488e-01
  2.958035e+01    7.087395e-01
  2.961210e+01    7.124349e-01
  2.964385e+01    7.103094e-01
  2.967560e+01    7.203685e-01
  2.970736e+01    7.174391e-01
  2.973911e+01    7.364504e-01
  2.977086e+01    7.071401e-01
  2.980261e+01    7.051983e-01
  2.983436e+01    7.070604e-01
  2.986611e+01    7.123091e-01
  2.989786e+01    7.149028e-01
  2.992961e+01    7.263786e-01
  2.996136e+01    7.039317e-01
  2.999312e+01    7.151878e-01
  3.002487e+01    7.449250e-01
  3.005662e+01    7.195290e-01
  3.008837e+01    7.190471e-01
  3.012012e+01    7.194052e-01
  3.015187e+01    7.454818e-01
  3.018362e+01    7.112489e-01
  3.021537e+01    7.111525e-01
  3.024712e+01    7.180991e-01
  3.027888e+01    7.129712e-01
  3.031063e+01    7.374153e-01
  3.034238e+01    7.101724e-01
  3.037413e+01    6.983413e-01
  3.040588e+01    7.299443e-01
  3.043763e+01    7.038757e-01
  3.046938e+01    6.964467e-01
  3.050113e+01    7.107824e-01
  3.053288e+01    7.058415e-01
  3.056464e+01    7.142551e-01
  3.059639e+01    7.150021e-01
  3.062814e+01    7.123445e-01
  3.065989e+01    7.166520e-01
  3.069164e+01    7.194293e-01
  3.072339e+01    7.057034e-01
  3.075514e+01    6.934555e-01
  3.078689e+01    7.183647e-01
  3.081865e+01    7.199597e-01
  3.085040e+01    7.026410e-01
  3.088215e+01    7.221064e-01
  3.091390e+01    7.197810e-01
  3.094565e+01    7.143325e-01
  3.097740e+01    7.003602e-01
  3.100915e+01    7.221121e-01
  3.104090e+01    7.140089e-01
  3.107265e+01    7.179399e-01
  3.110441e+01    7.189726e-01
  3.113616e+01    7.071751e-01
  3.116791e+01    7.121199e-01
  3.119966e+01    6.973761e-01
  3.123141e+01    7.111443e-01
  3.126316e+01    7.416230e-01
  3.129491e+01    7.234257e-01
  3.132666e+01    7.112347e-01
  3.135841e+01    7.425331e-01
  3.139017e+01    7.360538e-01
  3.142192e+01    7.175034e-01
  3.145367e+01    7.487161e-01
  3.148542e+01    7.572764e-01
  3.151717e+01    7.635612e-01
  3.154892e+01    7.979873e-01
  3.158067e+01    8.132281e-01
  3.161242e+01    8.176492e-01
  3.164418e+01    8.591367e-01
  3.167593e+01    9.328340e-01
  3.170768e+01    9.642963e-01
  3.173943e+01    1.077329e+00
  3.177118e+01    1.200870e+00
  3.180293e+01    1.411020e+00
  3.183468e+01    1.670145e+00
  3.186643e+01    1.962471e+00
  3.189818e+01    2.115013e+00
  3.192994e+01    2.061255e+00
  3.196169e+01    1.822371e+00
  3.199344e+01    1.529441e+00
  3.202519e+01    1.274953e+00
  3.205694e+01    1.119155e+00
  3.208869e+01    9.626391e-01
  3.212044e+01    8.961438e-01
  3.215219e+01    8.483132e-01
  3.218394e+01    8.121933e-01
  3.221570e+01    7.745421e-01
  3.224745e+01    7.672712e-01
  3.227920e+01    7.730582e-01
  3.231095e+01    7.475008e-01
  3.234270e+01    7.230133e-01
  3.237445e+01    7.601998e-01
  3.240620e+01    7.413775e-01
  3.243795e+01    7.348810e-01
  3.246970e+01    7.218646e-01
  3.250146e+01    7.223278e-01
  3.253321e+01    7.228368e-01
  3.254908e+01    7.105605e-01