File: XRD/Activation ramp/2024-07-27_002_Ru-CGO-ex_Activtation_ramp_000002_data_000025.dat
# == pyFAI calibration ==
# Distance Sample to Detector: 0.4 m
# PONI: 9.750e-02, 1.135e-01 m
# Rotations: -0.000175 0.000000 -0.000000 rad
#
# == Fit2d calibration ==
# Distance Sample-beamCenter: 400.000 mm
# Center: x=1514.000, y=1300.000 pix
# Tilt: 0.010 deg  TiltPlanRot: 0.010 deg
#
# Detector Detector	 Spline= None	 PixelSize= 7.500e-05, 7.500e-05 m
#    Detector has a mask: False
#    Detector has a dark current: False
#    detector has a flat field: False
#
# Wavelength: 6.888e-11 m
# Mask applied: user provided
# Dark current applied: False
# Flat field applied: False
# Polarization factor: 0.99
# Normalization factor: 1.0
# --> /home/myspot/data/2024_07_Rosario/Ru-CGO-ex/2024-07-27_002_Ru-CGO-ex_Activtation_ramp_000002_data_000025.dat
#       q_nm^-1             I
  2.003187e-02    7.712225e-02
  5.178302e-02    4.717196e-02
  8.353417e-02    2.269001e-02
  1.152853e-01    5.198482e-02
  1.470365e-01    3.665479e-03
  1.787876e-01    3.829747e-02
  2.105388e-01    5.465588e-02
  2.422899e-01    8.874442e-02
  2.740411e-01    9.790760e-03
  3.057922e-01    4.942552e-02
  3.375433e-01    9.378725e-03
  3.692945e-01    6.077291e-02
  4.010456e-01    6.273849e-02
  4.327968e-01    7.546832e-02
  4.645479e-01    4.359283e-02
  4.962991e-01    2.457525e-02
  5.280502e-01    6.682412e-02
  5.598014e-01    5.270297e-02
  5.915525e-01    4.634767e-02
  6.233037e-01    7.014297e-02
  6.550548e-01    2.959536e-02
  6.868060e-01    5.388224e-02
  7.185571e-01    4.248276e-02
  7.503083e-01    4.652077e-02
  7.820594e-01    7.673536e-02
  8.138106e-01    1.853791e-01
  8.455617e-01    2.579761e-01
  8.773129e-01    4.370305e-01
  9.090640e-01    5.258720e-01
  9.408152e-01    7.075830e-01
  9.725663e-01    9.009089e-01
  1.004317e+00    1.072963e+00
  1.036069e+00    1.203889e+00
  1.067820e+00    1.362034e+00
  1.099571e+00    1.477725e+00
  1.131322e+00    1.399314e+00
  1.163073e+00    1.495242e+00
  1.194824e+00    1.584141e+00
  1.226575e+00    2.144312e+00
  1.258327e+00    2.347144e+00
  1.290078e+00    2.452108e+00
  1.321829e+00    2.652924e+00
  1.353580e+00    2.678565e+00
  1.385331e+00    2.511410e+00
  1.417082e+00    2.795866e+00
  1.448834e+00    2.753212e+00
  1.480585e+00    2.963682e+00
  1.512336e+00    2.993182e+00
  1.544087e+00    2.940545e+00
  1.575838e+00    3.145802e+00
  1.607589e+00    2.862942e+00
  1.639340e+00    2.920780e+00
  1.671092e+00    2.940640e+00
  1.702843e+00    2.864698e+00
  1.734594e+00    2.841058e+00
  1.766345e+00    2.810036e+00
  1.798096e+00    2.882694e+00
  1.829847e+00    2.825233e+00
  1.861598e+00    2.853667e+00
  1.893350e+00    2.866479e+00
  1.925101e+00    2.829185e+00
  1.956852e+00    2.752206e+00
  1.988603e+00    2.788735e+00
  2.020354e+00    2.696336e+00
  2.052105e+00    2.751673e+00
  2.083856e+00    2.880558e+00
  2.115608e+00    2.828966e+00
  2.147359e+00    2.743182e+00
  2.179110e+00    2.754383e+00
  2.210861e+00    2.804416e+00
  2.242612e+00    2.763438e+00
  2.274363e+00    2.649747e+00
  2.306115e+00    2.803042e+00
  2.337866e+00    2.855640e+00
  2.369617e+00    2.796250e+00
  2.401368e+00    2.818914e+00
  2.433119e+00    2.865019e+00
  2.464870e+00    2.833748e+00
  2.496621e+00    2.849589e+00
  2.528373e+00    2.818902e+00
  2.560124e+00    2.819990e+00
  2.591875e+00    2.868640e+00
  2.623626e+00    2.779515e+00
  2.655377e+00    2.833060e+00
  2.687128e+00    2.795091e+00
  2.718879e+00    2.862547e+00
  2.750631e+00    2.861719e+00
  2.782382e+00    2.924223e+00
  2.814133e+00    2.799911e+00
  2.845884e+00    2.957724e+00
  2.877635e+00    2.873971e+00
  2.909386e+00    2.900814e+00
  2.941137e+00    2.868095e+00
  2.972889e+00    2.942123e+00
  3.004640e+00    2.943944e+00
  3.036391e+00    2.911163e+00
  3.068142e+00    2.899581e+00
  3.099893e+00    2.978574e+00
  3.131644e+00    2.959459e+00
  3.163395e+00    2.949512e+00
  3.195147e+00    2.980253e+00
  3.226898e+00    2.889583e+00
  3.258649e+00    3.031792e+00
  3.290400e+00    2.902123e+00
  3.322151e+00    2.875385e+00
  3.353902e+00    2.943117e+00
  3.385654e+00    2.909405e+00
  3.417405e+00    2.903350e+00
  3.449156e+00    2.990782e+00
  3.480907e+00    2.950440e+00
  3.512658e+00    2.950083e+00
  3.544409e+00    3.016783e+00
  3.576160e+00    2.921734e+00
  3.607912e+00    3.001014e+00
  3.639663e+00    3.039706e+00
  3.671414e+00    2.955851e+00
  3.703165e+00    3.081191e+00
  3.734916e+00    3.003174e+00
  3.766667e+00    3.078036e+00
  3.798418e+00    3.094332e+00
  3.830170e+00    3.034548e+00
  3.861921e+00    3.022556e+00
  3.893672e+00    2.921791e+00
  3.925423e+00    3.094838e+00
  3.957174e+00    3.033773e+00
  3.988925e+00    3.026613e+00
  4.020676e+00    2.989577e+00
  4.052428e+00    2.937204e+00
  4.084179e+00    3.044542e+00
  4.115930e+00    3.087914e+00
  4.147681e+00    3.088394e+00
  4.179432e+00    3.047145e+00
  4.211183e+00    3.124251e+00
  4.242935e+00    3.092422e+00
  4.274686e+00    3.093619e+00
  4.306437e+00    3.045866e+00
  4.338188e+00    3.103448e+00
  4.369939e+00    3.036883e+00
  4.401690e+00    3.092684e+00
  4.433441e+00    3.106015e+00
  4.465193e+00    3.053273e+00
  4.496944e+00    3.162262e+00
  4.528695e+00    3.043397e+00
  4.560446e+00    3.104419e+00
  4.592197e+00    3.147298e+00
  4.623948e+00    3.134561e+00
  4.655699e+00    3.201148e+00
  4.687451e+00    3.100524e+00
  4.719202e+00    3.105332e+00
  4.750953e+00    3.268269e+00
  4.782704e+00    3.106209e+00
  4.814455e+00    3.213816e+00
  4.846206e+00    3.128709e+00
  4.877957e+00    3.124417e+00
  4.909709e+00    3.183193e+00
  4.941460e+00    3.148097e+00
  4.973211e+00    3.159131e+00
  5.004962e+00    3.077168e+00
  5.036713e+00    3.166583e+00
  5.068464e+00    3.093221e+00
  5.100216e+00    3.131111e+00
  5.131967e+00    3.160010e+00
  5.163718e+00    3.141687e+00
  5.195469e+00    3.144206e+00
  5.227220e+00    3.106324e+00
  5.258971e+00    3.109224e+00
  5.290722e+00    3.125689e+00
  5.322474e+00    3.166227e+00
  5.354225e+00    3.110773e+00
  5.385976e+00    3.155639e+00
  5.417727e+00    3.057175e+00
  5.449478e+00    3.167658e+00
  5.481229e+00    3.067416e+00
  5.512980e+00    3.092950e+00
  5.544732e+00    3.099262e+00
  5.576483e+00    3.133539e+00
  5.608234e+00    3.081007e+00
  5.639985e+00    3.099907e+00
  5.671736e+00    3.038886e+00
  5.703487e+00    3.131443e+00
  5.735238e+00    3.048521e+00
  5.766990e+00    3.095036e+00
  5.798741e+00    3.118145e+00
  5.830492e+00    3.064314e+00
  5.862243e+00    3.107954e+00
  5.893994e+00    3.160146e+00
  5.925745e+00    3.006346e+00
  5.957497e+00    3.045697e+00
  5.989248e+00    3.020568e+00
  6.020999e+00    2.982749e+00
  6.052750e+00    3.086483e+00
  6.084501e+00    3.095762e+00
  6.116252e+00    3.095936e+00
  6.148003e+00    3.089842e+00
  6.179755e+00    3.091234e+00
  6.211506e+00    3.070161e+00
  6.243257e+00    3.066955e+00
  6.275008e+00    3.058109e+00
  6.306759e+00    3.021657e+00
  6.338510e+00    3.060250e+00
  6.370261e+00    3.022264e+00
  6.402013e+00    3.000407e+00
  6.433764e+00    3.097910e+00
  6.465515e+00    2.969640e+00
  6.497266e+00    3.050459e+00
  6.529017e+00    3.080641e+00
  6.560768e+00    3.077394e+00
  6.592519e+00    3.014342e+00
  6.624271e+00    3.084454e+00
  6.656022e+00    3.019457e+00
  6.687773e+00    3.062267e+00
  6.719524e+00    3.067409e+00
  6.751275e+00    3.115087e+00
  6.783026e+00    3.114501e+00
  6.814777e+00    3.082324e+00
  6.846529e+00    3.084720e+00
  6.878280e+00    3.024700e+00
  6.910031e+00    3.039407e+00
  6.941782e+00    2.956957e+00
  6.973533e+00    3.103656e+00
  7.005284e+00    3.014969e+00
  7.037036e+00    3.086089e+00
  7.068787e+00    3.015267e+00
  7.100538e+00    2.994610e+00
  7.132289e+00    3.013628e+00
  7.164040e+00    3.023423e+00
  7.195791e+00    3.044653e+00
  7.227542e+00    3.086639e+00
  7.259294e+00    3.000286e+00
  7.291045e+00    2.966866e+00
  7.322796e+00    3.031268e+00
  7.354547e+00    2.982737e+00
  7.386298e+00    3.031786e+00
  7.418049e+00    2.994186e+00
  7.449800e+00    2.957714e+00
  7.481552e+00    2.996156e+00
  7.513303e+00    2.998409e+00
  7.545054e+00    2.974989e+00
  7.576805e+00    2.961843e+00
  7.608556e+00    2.990774e+00
  7.640307e+00    2.914635e+00
  7.672058e+00    3.048444e+00
  7.703810e+00    2.995419e+00
  7.735561e+00    2.970279e+00
  7.767312e+00    2.990840e+00
  7.799063e+00    2.918193e+00
  7.830814e+00    2.937447e+00
  7.862565e+00    2.966067e+00
  7.894317e+00    3.001203e+00
  7.926068e+00    2.937357e+00
  7.957819e+00    2.975823e+00
  7.989570e+00    2.957927e+00
  8.021321e+00    2.897082e+00
  8.053072e+00    2.934952e+00
  8.084823e+00    2.919532e+00
  8.116575e+00    2.923363e+00
  8.148326e+00    2.908142e+00
  8.180077e+00    2.983086e+00
  8.211828e+00    3.001238e+00
  8.243579e+00    3.039430e+00
  8.275330e+00    2.960185e+00
  8.307081e+00    2.912940e+00
  8.338833e+00    2.914812e+00
  8.370584e+00    2.886108e+00
  8.402335e+00    2.913764e+00
  8.434086e+00    2.871960e+00
  8.465837e+00    2.963778e+00
  8.497588e+00    2.830238e+00
  8.529339e+00    2.881005e+00
  8.561091e+00    2.878573e+00
  8.592842e+00    2.972256e+00
  8.624593e+00    2.873942e+00
  8.656344e+00    2.891648e+00
  8.688095e+00    2.902635e+00
  8.719846e+00    2.908829e+00
  8.751598e+00    2.855094e+00
  8.783349e+00    2.877248e+00
  8.815100e+00    2.894192e+00
  8.846851e+00    2.858454e+00
  8.878602e+00    2.822477e+00
  8.910353e+00    2.813414e+00
  8.942104e+00    2.860628e+00
  8.973856e+00    2.768880e+00
  9.005607e+00    2.857036e+00
  9.037358e+00    2.817412e+00
  9.069109e+00    2.842789e+00
  9.100860e+00    2.833062e+00
  9.132611e+00    2.811546e+00
  9.164362e+00    2.820681e+00
  9.196114e+00    2.802281e+00
  9.227865e+00    2.796649e+00
  9.259616e+00    2.841942e+00
  9.291367e+00    2.808480e+00
  9.323118e+00    2.796840e+00
  9.354869e+00    2.816017e+00
  9.386620e+00    2.791224e+00
  9.418372e+00    2.750218e+00
  9.450123e+00    2.757800e+00
  9.481874e+00    2.807351e+00
  9.513625e+00    2.810466e+00
  9.545376e+00    2.749362e+00
  9.577127e+00    2.707261e+00
  9.608878e+00    2.720376e+00
  9.640630e+00    2.764636e+00
  9.672381e+00    2.728735e+00
  9.704132e+00    2.781312e+00
  9.735883e+00    2.756305e+00
  9.767634e+00    2.739630e+00
  9.799385e+00    2.697630e+00
  9.831137e+00    2.734480e+00
  9.862888e+00    2.747553e+00
  9.894639e+00    2.666239e+00
  9.926390e+00    2.681012e+00
  9.958141e+00    2.644804e+00
  9.989892e+00    2.698261e+00
  1.002164e+01    2.646964e+00
  1.005339e+01    2.707320e+00
  1.008515e+01    2.657741e+00
  1.011690e+01    2.640655e+00
  1.014865e+01    2.685672e+00
  1.018040e+01    2.679013e+00
  1.021215e+01    2.678958e+00
  1.024390e+01    2.644633e+00
  1.027565e+01    2.684793e+00
  1.030740e+01    2.614987e+00
  1.033915e+01    2.554184e+00
  1.037091e+01    2.592166e+00
  1.040266e+01    2.607252e+00
  1.043441e+01    2.636375e+00
  1.046616e+01    2.600718e+00
  1.049791e+01    2.599667e+00
  1.052966e+01    2.547164e+00
  1.056141e+01    2.622631e+00
  1.059316e+01    2.530293e+00
  1.062492e+01    2.621433e+00
  1.065667e+01    2.603611e+00
  1.068842e+01    2.612577e+00
  1.072017e+01    2.548510e+00
  1.075192e+01    2.548724e+00
  1.078367e+01    2.506639e+00
  1.081542e+01    2.550923e+00
  1.084717e+01    2.562825e+00
  1.087892e+01    2.549350e+00
  1.091068e+01    2.490026e+00
  1.094243e+01    2.496394e+00
  1.097418e+01    2.448869e+00
  1.100593e+01    2.486109e+00
  1.103768e+01    2.492759e+00
  1.106943e+01    2.508404e+00
  1.110118e+01    2.502179e+00
  1.113293e+01    2.478856e+00
  1.116468e+01    2.488704e+00
  1.119644e+01    2.455788e+00
  1.122819e+01    2.426322e+00
  1.125994e+01    2.475106e+00
  1.129169e+01    2.490786e+00
  1.132344e+01    2.486107e+00
  1.135519e+01    2.437104e+00
  1.138694e+01    2.430238e+00
  1.141869e+01    2.438725e+00
  1.145045e+01    2.400430e+00
  1.148220e+01    2.469781e+00
  1.151395e+01    2.420037e+00
  1.154570e+01    2.413835e+00
  1.157745e+01    2.423205e+00
  1.160920e+01    2.362139e+00
  1.164095e+01    2.385881e+00
  1.167270e+01    2.381099e+00
  1.170445e+01    2.374392e+00
  1.173621e+01    2.356982e+00
  1.176796e+01    2.377815e+00
  1.179971e+01    2.397162e+00
  1.183146e+01    2.375100e+00
  1.186321e+01    2.366589e+00
  1.189496e+01    2.379697e+00
  1.192671e+01    2.350194e+00
  1.195846e+01    2.364145e+00
  1.199021e+01    2.374632e+00
  1.202197e+01    2.362600e+00
  1.205372e+01    2.326929e+00
  1.208547e+01    2.358321e+00
  1.211722e+01    2.338871e+00
  1.214897e+01    2.310831e+00
  1.218072e+01    2.344521e+00
  1.221247e+01    2.346534e+00
  1.224422e+01    2.298248e+00
  1.227597e+01    2.350831e+00
  1.230773e+01    2.332894e+00
  1.233948e+01    2.346489e+00
  1.237123e+01    2.316319e+00
  1.240298e+01    2.347333e+00
  1.243473e+01    2.335158e+00
  1.246648e+01    2.284714e+00
  1.249823e+01    2.342536e+00
  1.252998e+01    2.382422e+00
  1.256174e+01    2.418948e+00
  1.259349e+01    2.434943e+00
  1.262524e+01    2.413589e+00
  1.265699e+01    2.415007e+00
  1.268874e+01    2.535129e+00
  1.272049e+01    2.481333e+00
  1.275224e+01    2.535373e+00
  1.278399e+01    2.669353e+00
  1.281574e+01    2.758484e+00
  1.284750e+01    2.878431e+00
  1.287925e+01    3.046915e+00
  1.291100e+01    3.303031e+00
  1.294275e+01    3.596396e+00
  1.297450e+01    4.230004e+00
  1.300625e+01    5.240975e+00
  1.303800e+01    6.719101e+00
  1.306975e+01    8.998224e+00
  1.310150e+01    1.202561e+01
  1.313326e+01    1.507900e+01
  1.316501e+01    1.786512e+01
  1.319676e+01    1.967416e+01
  1.322851e+01    1.808572e+01
  1.326026e+01    1.377933e+01
  1.329201e+01    9.712531e+00
  1.332376e+01    7.027256e+00
  1.335551e+01    5.448976e+00
  1.338727e+01    4.389872e+00
  1.341902e+01    3.753744e+00
  1.345077e+01    3.377383e+00
  1.348252e+01    3.045355e+00
  1.351427e+01    2.810415e+00
  1.354602e+01    2.690771e+00
  1.357777e+01    2.579982e+00
  1.360952e+01    2.456511e+00
  1.364127e+01    2.443568e+00
  1.367303e+01    2.319990e+00
  1.370478e+01    2.285285e+00
  1.373653e+01    2.274114e+00
  1.376828e+01    2.225372e+00
  1.380003e+01    2.226657e+00
  1.383178e+01    2.209481e+00
  1.386353e+01    2.176999e+00
  1.389528e+01    2.142961e+00
  1.392703e+01    2.162316e+00
  1.395879e+01    2.108124e+00
  1.399054e+01    2.113617e+00
  1.402229e+01    2.103254e+00
  1.405404e+01    2.085182e+00
  1.408579e+01    2.047050e+00
  1.411754e+01    2.053881e+00
  1.414929e+01    2.071635e+00
  1.418104e+01    2.025797e+00
  1.421279e+01    2.012721e+00
  1.424455e+01    1.995832e+00
  1.427630e+01    1.972735e+00
  1.430805e+01    1.967725e+00
  1.433980e+01    1.999244e+00
  1.437155e+01    1.939855e+00
  1.440330e+01    1.949955e+00
  1.443505e+01    1.960960e+00
  1.446680e+01    1.960819e+00
  1.449856e+01    1.957940e+00
  1.453031e+01    1.946511e+00
  1.456206e+01    1.946325e+00
  1.459381e+01    1.947218e+00
  1.462556e+01    1.908573e+00
  1.465731e+01    1.987763e+00
  1.468906e+01    1.893441e+00
  1.472081e+01    1.956010e+00
  1.475256e+01    1.968664e+00
  1.478432e+01    1.893264e+00
  1.481607e+01    1.968475e+00
  1.484782e+01    1.938932e+00
  1.487957e+01    1.915037e+00
  1.491132e+01    1.976705e+00
  1.494307e+01    2.012316e+00
  1.497482e+01    2.115045e+00
  1.500657e+01    2.132580e+00
  1.503832e+01    2.249684e+00
  1.507008e+01    2.440658e+00
  1.510183e+01    2.778857e+00
  1.513358e+01    3.291664e+00
  1.516533e+01    3.981043e+00
  1.519708e+01    4.770283e+00
  1.522883e+01    5.644595e+00
  1.526058e+01    6.215844e+00
  1.529233e+01    6.559101e+00
  1.532409e+01    6.132651e+00
  1.535584e+01    4.927106e+00
  1.538759e+01    3.882536e+00
  1.541934e+01    3.138388e+00
  1.545109e+01    2.673574e+00
  1.548284e+01    2.394322e+00
  1.551459e+01    2.124401e+00
  1.554634e+01    2.043798e+00
  1.557809e+01    1.919168e+00
  1.560985e+01    1.905946e+00
  1.564160e+01    1.857309e+00
  1.567335e+01    1.830495e+00
  1.570510e+01    1.782531e+00
  1.573685e+01    1.772196e+00
  1.576860e+01    1.748424e+00
  1.580035e+01    1.688007e+00
  1.583210e+01    1.675798e+00
  1.586385e+01    1.692250e+00
  1.589561e+01    1.667260e+00
  1.592736e+01    1.670349e+00
  1.595911e+01    1.688856e+00
  1.599086e+01    1.650007e+00
  1.602261e+01    1.649896e+00
  1.605436e+01    1.610322e+00
  1.608611e+01    1.605923e+00
  1.611786e+01    1.585478e+00
  1.614961e+01    1.597014e+00
  1.618137e+01    1.578489e+00
  1.621312e+01    1.572019e+00
  1.624487e+01    1.575735e+00
  1.627662e+01    1.589249e+00
  1.630837e+01    1.553302e+00
  1.634012e+01    1.569940e+00
  1.637187e+01    1.540020e+00
  1.640362e+01    1.532256e+00
  1.643538e+01    1.576946e+00
  1.646713e+01    1.525181e+00
  1.649888e+01    1.557020e+00
  1.653063e+01    1.536975e+00
  1.656238e+01    1.543112e+00
  1.659413e+01    1.515388e+00
  1.662588e+01    1.525348e+00
  1.665763e+01    1.504761e+00
  1.668938e+01    1.502490e+00
  1.672114e+01    1.499084e+00
  1.675289e+01    1.496296e+00
  1.678464e+01    1.528716e+00
  1.681639e+01    1.474989e+00
  1.684814e+01    1.496334e+00
  1.687989e+01    1.437999e+00
  1.691164e+01    1.474324e+00
  1.694339e+01    1.466437e+00
  1.697514e+01    1.452256e+00
  1.700690e+01    1.476045e+00
  1.703865e+01    1.415136e+00
  1.707040e+01    1.438828e+00
  1.710215e+01    1.415539e+00
  1.713390e+01    1.427231e+00
  1.716565e+01    1.415381e+00
  1.719740e+01    1.434445e+00
  1.722915e+01    1.424503e+00
  1.726091e+01    1.438149e+00
  1.729266e+01    1.390785e+00
  1.732441e+01    1.409574e+00
  1.735616e+01    1.407449e+00
  1.738791e+01    1.384153e+00
  1.741966e+01    1.343417e+00
  1.745141e+01    1.396724e+00
  1.748316e+01    1.421949e+00
  1.751491e+01    1.374830e+00
  1.754667e+01    1.380858e+00
  1.757842e+01    1.377816e+00
  1.761017e+01    1.381132e+00
  1.764192e+01    1.398308e+00
  1.767367e+01    1.339605e+00
  1.770542e+01    1.335839e+00
  1.773717e+01    1.334742e+00
  1.776892e+01    1.336599e+00
  1.780067e+01    1.359302e+00
  1.783243e+01    1.347623e+00
  1.786418e+01    1.358509e+00
  1.789593e+01    1.310080e+00
  1.792768e+01    1.326001e+00
  1.795943e+01    1.294359e+00
  1.799118e+01    1.316963e+00
  1.802293e+01    1.315677e+00
  1.805468e+01    1.304846e+00
  1.808643e+01    1.312606e+00
  1.811819e+01    1.282367e+00
  1.814994e+01    1.302477e+00
  1.818169e+01    1.306049e+00
  1.821344e+01    1.322170e+00
  1.824519e+01    1.298611e+00
  1.827694e+01    1.300368e+00
  1.830869e+01    1.283879e+00
  1.834044e+01    1.265107e+00
  1.837220e+01    1.250446e+00
  1.840395e+01    1.286894e+00
  1.843570e+01    1.284291e+00
  1.846745e+01    1.310649e+00
  1.849920e+01    1.252664e+00
  1.853095e+01    1.240023e+00
  1.856270e+01    1.260761e+00
  1.859445e+01    1.251796e+00
  1.862620e+01    1.268763e+00
  1.865796e+01    1.213549e+00
  1.868971e+01    1.230622e+00
  1.872146e+01    1.237746e+00
  1.875321e+01    1.245552e+00
  1.878496e+01    1.211220e+00
  1.881671e+01    1.253648e+00
  1.884846e+01    1.234246e+00
  1.888021e+01    1.240531e+00
  1.891196e+01    1.221693e+00
  1.894372e+01    1.228896e+00
  1.897547e+01    1.229943e+00
  1.900722e+01    1.217868e+00
  1.903897e+01    1.197311e+00
  1.907072e+01    1.209362e+00
  1.910247e+01    1.222569e+00
  1.913422e+01    1.204794e+00
  1.916597e+01    1.176707e+00
  1.919773e+01    1.190990e+00
  1.922948e+01    1.201143e+00
  1.926123e+01    1.194328e+00
  1.929298e+01    1.184763e+00
  1.932473e+01    1.178657e+00
  1.935648e+01    1.186248e+00
  1.938823e+01    1.175184e+00
  1.941998e+01    1.183770e+00
  1.945173e+01    1.164394e+00
  1.948349e+01    1.167490e+00
  1.951524e+01    1.185806e+00
  1.954699e+01    1.163358e+00
  1.957874e+01    1.151213e+00
  1.961049e+01    1.151964e+00
  1.964224e+01    1.167976e+00
  1.967399e+01    1.156759e+00
  1.970574e+01    1.150597e+00
  1.973749e+01    1.150793e+00
  1.976925e+01    1.171853e+00
  1.980100e+01    1.142318e+00
  1.983275e+01    1.138677e+00
  1.986450e+01    1.153775e+00
  1.989625e+01    1.146813e+00
  1.992800e+01    1.151048e+00
  1.995975e+01    1.125922e+00
  1.999150e+01    1.153712e+00
  2.002325e+01    1.123749e+00
  2.005501e+01    1.139991e+00
  2.008676e+01    1.132507e+00
  2.011851e+01    1.150415e+00
  2.015026e+01    1.117476e+00
  2.018201e+01    1.127423e+00
  2.021376e+01    1.132514e+00
  2.024551e+01    1.106515e+00
  2.027726e+01    1.111411e+00
  2.030902e+01    1.133557e+00
  2.034077e+01    1.100671e+00
  2.037252e+01    1.109751e+00
  2.040427e+01    1.102732e+00
  2.043602e+01    1.113357e+00
  2.046777e+01    1.109311e+00
  2.049952e+01    1.077493e+00
  2.053127e+01    1.094266e+00
  2.056302e+01    1.125080e+00
  2.059478e+01    1.106731e+00
  2.062653e+01    1.121032e+00
  2.065828e+01    1.100070e+00
  2.069003e+01    1.130136e+00
  2.072178e+01    1.135236e+00
  2.075353e+01    1.085711e+00
  2.078528e+01    1.111695e+00
  2.081703e+01    1.081613e+00
  2.084878e+01    1.098739e+00
  2.088054e+01    1.107500e+00
  2.091229e+01    1.106915e+00
  2.094404e+01    1.100951e+00
  2.097579e+01    1.099955e+00
  2.100754e+01    1.102698e+00
  2.103929e+01    1.112675e+00
  2.107104e+01    1.111790e+00
  2.110279e+01    1.111710e+00
  2.113455e+01    1.085230e+00
  2.116630e+01    1.115251e+00
  2.119805e+01    1.108740e+00
  2.122980e+01    1.108131e+00
  2.126155e+01    1.134472e+00
  2.129330e+01    1.142346e+00
  2.132505e+01    1.160412e+00
  2.135680e+01    1.168855e+00
  2.138855e+01    1.149246e+00
  2.142031e+01    1.205658e+00
  2.145206e+01    1.227897e+00
  2.148381e+01    1.238466e+00
  2.151556e+01    1.291276e+00
  2.154731e+01    1.369972e+00
  2.157906e+01    1.457227e+00
  2.161081e+01    1.559340e+00
  2.164256e+01    1.741564e+00
  2.167431e+01    1.964081e+00
  2.170607e+01    2.291593e+00
  2.173782e+01    2.814062e+00
  2.176957e+01    3.648919e+00
  2.180132e+01    4.877335e+00
  2.183307e+01    6.379551e+00
  2.186482e+01    8.077300e+00
  2.189657e+01    9.910456e+00
  2.192832e+01    1.090403e+01
  2.196007e+01    1.035318e+01
  2.199183e+01    8.342208e+00
  2.202358e+01    6.053630e+00
  2.205533e+01    4.290683e+00
  2.208708e+01    3.288572e+00
  2.211883e+01    2.547346e+00
  2.215058e+01    2.128639e+00
  2.218233e+01    1.845261e+00
  2.221408e+01    1.604826e+00
  2.224584e+01    1.484320e+00
  2.227759e+01    1.374397e+00
  2.230934e+01    1.288821e+00
  2.234109e+01    1.236122e+00
  2.237284e+01    1.190883e+00
  2.240459e+01    1.157568e+00
  2.243634e+01    1.116116e+00
  2.246809e+01    1.077535e+00
  2.249984e+01    1.080298e+00
  2.253160e+01    1.049854e+00
  2.256335e+01    1.010729e+00
  2.259510e+01    1.012011e+00
  2.262685e+01    9.896290e-01
  2.265860e+01    1.024214e+00
  2.269035e+01    9.909438e-01
  2.272210e+01    9.742057e-01
  2.275385e+01    9.724068e-01
  2.278560e+01    9.895849e-01
  2.281736e+01    9.638968e-01
  2.284911e+01    9.566582e-01
  2.288086e+01    9.448368e-01
  2.291261e+01    9.257849e-01
  2.294436e+01    9.255927e-01
  2.297611e+01    9.461473e-01
  2.300786e+01    9.239672e-01
  2.303961e+01    9.329903e-01
  2.307137e+01    9.027203e-01
  2.310312e+01    9.052767e-01
  2.313487e+01    8.885474e-01
  2.316662e+01    9.005885e-01
  2.319837e+01    8.990381e-01
  2.323012e+01    8.925751e-01
  2.326187e+01    8.901601e-01
  2.329362e+01    8.639331e-01
  2.332537e+01    8.703316e-01
  2.335713e+01    8.693933e-01
  2.338888e+01    8.746219e-01
  2.342063e+01    8.536056e-01
  2.345238e+01    8.806366e-01
  2.348413e+01    8.552909e-01
  2.351588e+01    8.696496e-01
  2.354763e+01    8.586641e-01
  2.357938e+01    8.654906e-01
  2.361113e+01    8.747259e-01
  2.364289e+01    8.589309e-01
  2.367464e+01    8.451389e-01
  2.370639e+01    8.288575e-01
  2.373814e+01    8.164677e-01
  2.376989e+01    8.187625e-01
  2.380164e+01    8.021228e-01
  2.383339e+01    8.443915e-01
  2.386514e+01    8.142506e-01
  2.389689e+01    8.223920e-01
  2.392865e+01    8.179917e-01
  2.396040e+01    7.991999e-01
  2.399215e+01    8.058234e-01
  2.402390e+01    7.897222e-01
  2.405565e+01    7.931535e-01
  2.408740e+01    7.974477e-01
  2.411915e+01    7.948149e-01
  2.415090e+01    8.008442e-01
  2.418266e+01    8.016218e-01
  2.421441e+01    7.904726e-01
  2.424616e+01    7.741731e-01
  2.427791e+01    8.137606e-01
  2.430966e+01    8.178462e-01
  2.434141e+01    8.104342e-01
  2.437316e+01    7.970186e-01
  2.440491e+01    8.115953e-01
  2.443666e+01    7.953151e-01
  2.446842e+01    7.951566e-01
  2.450017e+01    8.027394e-01
  2.453192e+01    7.965771e-01
  2.456367e+01    8.105720e-01
  2.459542e+01    8.114014e-01
  2.462717e+01    8.184220e-01
  2.465892e+01    8.048754e-01
  2.469067e+01    8.074318e-01
  2.472242e+01    8.304251e-01
  2.475418e+01    7.983019e-01
  2.478593e+01    8.110101e-01
  2.481768e+01    8.089651e-01
  2.484943e+01    7.849385e-01
  2.488118e+01    8.194913e-01
  2.491293e+01    7.899610e-01
  2.494468e+01    7.989841e-01
  2.497643e+01    8.468872e-01
  2.500819e+01    8.229044e-01
  2.503994e+01    8.230107e-01
  2.507169e+01    8.254596e-01
  2.510344e+01    8.230181e-01
  2.513519e+01    8.209106e-01
  2.516694e+01    8.525234e-01
  2.519869e+01    8.499694e-01
  2.523044e+01    8.537541e-01
  2.526219e+01    8.848218e-01
  2.529395e+01    8.854231e-01
  2.532570e+01    8.647910e-01
  2.535745e+01    8.907284e-01
  2.538920e+01    8.808138e-01
  2.542095e+01    9.274883e-01
  2.545270e+01    9.621128e-01
  2.548445e+01    9.716980e-01
  2.551620e+01    1.013383e+00
  2.554795e+01    1.018495e+00
  2.557971e+01    1.060032e+00
  2.561146e+01    1.129245e+00
  2.564321e+01    1.159287e+00
  2.567496e+01    1.246762e+00
  2.570671e+01    1.365627e+00
  2.573846e+01    1.576487e+00
  2.577021e+01    1.809084e+00
  2.580196e+01    2.225934e+00
  2.583371e+01    2.804775e+00
  2.586547e+01    3.625661e+00
  2.589722e+01    4.875323e+00
  2.592897e+01    6.305844e+00
  2.596072e+01    7.891938e+00
  2.599247e+01    8.935777e+00
  2.602422e+01    8.879045e+00
  2.605597e+01    7.549238e+00
  2.608772e+01    5.613582e+00
  2.611948e+01    4.081379e+00
  2.615123e+01    3.095095e+00
  2.618298e+01    2.403688e+00
  2.621473e+01    1.965342e+00
  2.624648e+01    1.710269e+00
  2.627823e+01    1.464796e+00
  2.630998e+01    1.338345e+00
  2.634173e+01    1.234748e+00
  2.637348e+01    1.148594e+00
  2.640524e+01    1.088066e+00
  2.643699e+01    1.054155e+00
  2.646874e+01    1.006733e+00
  2.650049e+01    1.009350e+00
  2.653224e+01    9.912923e-01
  2.656399e+01    9.863350e-01
  2.659574e+01    9.494659e-01
  2.662749e+01    9.619757e-01
  2.665924e+01    9.576831e-01
  2.669100e+01    9.416881e-01
  2.672275e+01    9.190411e-01
  2.675450e+01    9.210953e-01
  2.678625e+01    9.007725e-01
  2.681800e+01    9.218147e-01
  2.684975e+01    9.176881e-01
  2.688150e+01    9.475430e-01
  2.691325e+01    9.292402e-01
  2.694501e+01    9.521918e-01
  2.697676e+01    9.660516e-01
  2.700851e+01    9.915143e-01
  2.704026e+01    1.061653e+00
  2.707201e+01    1.148110e+00
  2.710376e+01    1.256031e+00
  2.713551e+01    1.429459e+00
  2.716726e+01    1.719813e+00
  2.719901e+01    2.069405e+00
  2.723077e+01    2.414306e+00
  2.726252e+01    2.604717e+00
  2.729427e+01    2.487902e+00
  2.732602e+01    2.187927e+00
  2.735777e+01    1.758607e+00
  2.738952e+01    1.484798e+00
  2.742127e+01    1.294481e+00
  2.745302e+01    1.145481e+00
  2.748477e+01    1.044298e+00
  2.751653e+01    1.007409e+00
  2.754828e+01    9.701540e-01
  2.758003e+01    9.131839e-01
  2.761178e+01    8.904798e-01
  2.764353e+01    9.032294e-01
  2.767528e+01    8.777617e-01
  2.770703e+01    8.406066e-01
  2.773878e+01    8.521639e-01
  2.777054e+01    8.385881e-01
  2.780229e+01    8.576904e-01
  2.783404e+01    8.306414e-01
  2.786579e+01    8.333620e-01
  2.789754e+01    8.208167e-01
  2.792929e+01    8.167081e-01
  2.796104e+01    7.995983e-01
  2.799279e+01    8.066655e-01
  2.802454e+01    8.296205e-01
  2.805630e+01    7.963230e-01
  2.808805e+01    7.860089e-01
  2.811980e+01    8.018297e-01
  2.815155e+01    7.919077e-01
  2.818330e+01    7.923909e-01
  2.821505e+01    7.908174e-01
  2.824680e+01    7.915941e-01
  2.827855e+01    8.028874e-01
  2.831030e+01    7.726015e-01
  2.834206e+01    7.786915e-01
  2.837381e+01    7.893000e-01
  2.840556e+01    7.680798e-01
  2.843731e+01    7.768074e-01
  2.846906e+01    7.783726e-01
  2.850081e+01    7.674307e-01
  2.853256e+01    7.767344e-01
  2.856431e+01    7.779386e-01
  2.859606e+01    7.579978e-01
  2.862782e+01    7.845846e-01
  2.865957e+01    7.641240e-01
  2.869132e+01    7.644172e-01
  2.872307e+01    7.754234e-01
  2.875482e+01    7.459139e-01
  2.878657e+01    7.472719e-01
  2.881832e+01    7.608598e-01
  2.885007e+01    7.712134e-01
  2.888183e+01    7.574725e-01
  2.891358e+01    7.649359e-01
  2.894533e+01    7.692317e-01
  2.897708e+01    7.641262e-01
  2.900883e+01    7.447588e-01
  2.904058e+01    7.452137e-01
  2.907233e+01    7.613438e-01
  2.910408e+01    7.603100e-01
  2.913583e+01    7.670270e-01
  2.916759e+01    7.507093e-01
  2.919934e+01    7.352896e-01
  2.923109e+01    7.305906e-01
  2.926284e+01    7.282485e-01
  2.929459e+01    7.372236e-01
  2.932634e+01    7.560405e-01
  2.935809e+01    7.527336e-01
  2.938984e+01    7.403883e-01
  2.942159e+01    7.673863e-01
  2.945335e+01    7.255141e-01
  2.948510e+01    7.265403e-01
  2.951685e+01    7.355386e-01
  2.954860e+01    7.334030e-01
  2.958035e+01    7.168338e-01
  2.961210e+01    7.703555e-01
  2.964385e+01    7.483948e-01
  2.967560e+01    7.460365e-01
  2.970736e+01    7.528073e-01
  2.973911e+01    7.210830e-01
  2.977086e+01    7.401667e-01
  2.980261e+01    7.280927e-01
  2.983436e+01    7.135152e-01
  2.986611e+01    7.462909e-01
  2.989786e+01    7.239605e-01
  2.992961e+01    7.327628e-01
  2.996136e+01    7.173812e-01
  2.999312e+01    7.498506e-01
  3.002487e+01    7.542393e-01
  3.005662e+01    7.398962e-01
  3.008837e+01    7.497568e-01
  3.012012e+01    7.330165e-01
  3.015187e+01    7.315271e-01
  3.018362e+01    7.365282e-01
  3.021537e+01    7.443210e-01
  3.024712e+01    7.345572e-01
  3.027888e+01    6.911480e-01
  3.031063e+01    7.390494e-01
  3.034238e+01    7.162685e-01
  3.037413e+01    7.256851e-01
  3.040588e+01    7.455513e-01
  3.043763e+01    7.428359e-01
  3.046938e+01    7.318354e-01
  3.050113e+01    7.270466e-01
  3.053288e+01    7.097784e-01
  3.056464e+01    7.356978e-01
  3.059639e+01    7.355505e-01
  3.062814e+01    7.241248e-01
  3.065989e+01    7.178702e-01
  3.069164e+01    7.353610e-01
  3.072339e+01    7.421089e-01
  3.075514e+01    7.447240e-01
  3.078689e+01    7.280546e-01
  3.081865e+01    7.181156e-01
  3.085040e+01    7.332042e-01
  3.088215e+01    7.149142e-01
  3.091390e+01    7.287067e-01
  3.094565e+01    7.230256e-01
  3.097740e+01    7.242914e-01
  3.100915e+01    7.313920e-01
  3.104090e+01    7.248971e-01
  3.107265e+01    7.367123e-01
  3.110441e+01    7.468318e-01
  3.113616e+01    7.284296e-01
  3.116791e+01    7.369883e-01
  3.119966e+01    7.214870e-01
  3.123141e+01    7.313902e-01
  3.126316e+01    7.549111e-01
  3.129491e+01    7.499517e-01
  3.132666e+01    7.312719e-01
  3.135841e+01    7.453118e-01
  3.139017e+01    7.612639e-01
  3.142192e+01    7.660757e-01
  3.145367e+01    7.756475e-01
  3.148542e+01    7.740054e-01
  3.151717e+01    7.862736e-01
  3.154892e+01    7.789237e-01
  3.158067e+01    8.018755e-01
  3.161242e+01    8.233387e-01
  3.164418e+01    8.225811e-01
  3.167593e+01    8.623973e-01
  3.170768e+01    9.204338e-01
  3.173943e+01    9.706162e-01
  3.177118e+01    1.054740e+00
  3.180293e+01    1.178152e+00
  3.183468e+01    1.407206e+00
  3.186643e+01    1.698025e+00
  3.189818e+01    2.014047e+00
  3.192994e+01    2.372505e+00
  3.196169e+01    2.591052e+00
  3.199344e+01    2.503365e+00
  3.202519e+01    2.112899e+00
  3.205694e+01    1.727815e+00
  3.208869e+01    1.418867e+00
  3.212044e+01    1.182984e+00
  3.215219e+01    1.082379e+00
  3.218394e+01    9.495059e-01
  3.221570e+01    8.843393e-01
  3.224745e+01    8.775473e-01
  3.227920e+01    8.267498e-01
  3.231095e+01    8.128130e-01
  3.234270e+01    8.040075e-01
  3.237445e+01    7.767067e-01
  3.240620e+01    7.784913e-01
  3.243795e+01    7.751362e-01
  3.246970e+01    7.592512e-01
  3.250146e+01    7.301475e-01
  3.253321e+01    7.330331e-01
  3.254908e+01    7.458548e-01