File: XRD/Activation ramp/2024-07-27_002_Ru-CGO-ex_Activtation_ramp_000002_data_000145.dat
# == pyFAI calibration ==
# Distance Sample to Detector: 0.4 m
# PONI: 9.750e-02, 1.135e-01 m
# Rotations: -0.000175 0.000000 -0.000000 rad
#
# == Fit2d calibration ==
# Distance Sample-beamCenter: 400.000 mm
# Center: x=1514.000, y=1300.000 pix
# Tilt: 0.010 deg  TiltPlanRot: 0.010 deg
#
# Detector Detector	 Spline= None	 PixelSize= 7.500e-05, 7.500e-05 m
#    Detector has a mask: False
#    Detector has a dark current: False
#    detector has a flat field: False
#
# Wavelength: 6.888e-11 m
# Mask applied: user provided
# Dark current applied: False
# Flat field applied: False
# Polarization factor: 0.99
# Normalization factor: 1.0
# --> /home/myspot/data/2024_07_Rosario/Ru-CGO-ex/2024-07-27_002_Ru-CGO-ex_Activtation_ramp_000002_data_000145.dat
#       q_nm^-1             I
  2.003187e-02    0.000000e+00
  5.178302e-02    6.858626e-02
  8.353417e-02    2.370593e-01
  1.152853e-01    9.675020e-02
  1.470365e-01    5.394838e-02
  1.787876e-01    2.616778e-02
  2.105388e-01    3.804375e-02
  2.422899e-01    4.280229e-02
  2.740411e-01    3.407299e-02
  3.057922e-01    5.026530e-02
  3.375433e-01    4.264852e-02
  3.692945e-01    5.371254e-02
  4.010456e-01    5.668724e-02
  4.327968e-01    2.583658e-02
  4.645479e-01    2.789045e-02
  4.962991e-01    4.111330e-02
  5.280502e-01    2.421867e-02
  5.598014e-01    1.836484e-02
  5.915525e-01    2.458166e-02
  6.233037e-01    5.330486e-02
  6.550548e-01    1.718619e-02
  6.868060e-01    1.428793e-02
  7.185571e-01    2.846751e-02
  7.503083e-01    5.522383e-02
  7.820594e-01    1.302311e-01
  8.138106e-01    1.638962e-01
  8.455617e-01    3.370217e-01
  8.773129e-01    4.284513e-01
  9.090640e-01    6.090485e-01
  9.408152e-01    7.478272e-01
  9.725663e-01    8.660740e-01
  1.004317e+00    9.289008e-01
  1.036069e+00    1.186062e+00
  1.067820e+00    1.359249e+00
  1.099571e+00    1.409426e+00
  1.131322e+00    1.351878e+00
  1.163073e+00    1.575858e+00
  1.194824e+00    1.578375e+00
  1.226575e+00    2.016479e+00
  1.258327e+00    2.354405e+00
  1.290078e+00    2.305651e+00
  1.321829e+00    2.475992e+00
  1.353580e+00    2.407344e+00
  1.385331e+00    2.516674e+00
  1.417082e+00    2.728277e+00
  1.448834e+00    2.662470e+00
  1.480585e+00    2.682400e+00
  1.512336e+00    2.671646e+00
  1.544087e+00    2.971707e+00
  1.575838e+00    2.999082e+00
  1.607589e+00    2.935615e+00
  1.639340e+00    2.936671e+00
  1.671092e+00    2.802913e+00
  1.702843e+00    2.774228e+00
  1.734594e+00    2.921757e+00
  1.766345e+00    2.816644e+00
  1.798096e+00    2.677654e+00
  1.829847e+00    2.729042e+00
  1.861598e+00    2.695383e+00
  1.893350e+00    2.615794e+00
  1.925101e+00    2.713552e+00
  1.956852e+00    2.707186e+00
  1.988603e+00    2.751990e+00
  2.020354e+00    2.700220e+00
  2.052105e+00    2.659404e+00
  2.083856e+00    2.728685e+00
  2.115608e+00    2.764782e+00
  2.147359e+00    2.658141e+00
  2.179110e+00    2.762553e+00
  2.210861e+00    2.681204e+00
  2.242612e+00    2.741236e+00
  2.274363e+00    2.779294e+00
  2.306115e+00    2.726243e+00
  2.337866e+00    2.660339e+00
  2.369617e+00    2.722264e+00
  2.401368e+00    2.686882e+00
  2.433119e+00    2.823955e+00
  2.464870e+00    2.723455e+00
  2.496621e+00    2.752238e+00
  2.528373e+00    2.705926e+00
  2.560124e+00    2.740726e+00
  2.591875e+00    2.728747e+00
  2.623626e+00    2.848636e+00
  2.655377e+00    2.753620e+00
  2.687128e+00    2.783303e+00
  2.718879e+00    2.800480e+00
  2.750631e+00    2.798839e+00
  2.782382e+00    2.806901e+00
  2.814133e+00    2.808570e+00
  2.845884e+00    2.787464e+00
  2.877635e+00    2.749438e+00
  2.909386e+00    2.909034e+00
  2.941137e+00    2.809463e+00
  2.972889e+00    2.876688e+00
  3.004640e+00    2.881918e+00
  3.036391e+00    2.828554e+00
  3.068142e+00    2.863759e+00
  3.099893e+00    2.888244e+00
  3.131644e+00    2.847565e+00
  3.163395e+00    2.840667e+00
  3.195147e+00    2.861185e+00
  3.226898e+00    2.912807e+00
  3.258649e+00    2.911490e+00
  3.290400e+00    2.902118e+00
  3.322151e+00    2.958121e+00
  3.353902e+00    2.950720e+00
  3.385654e+00    2.908610e+00
  3.417405e+00    2.946147e+00
  3.449156e+00    2.903939e+00
  3.480907e+00    2.891170e+00
  3.512658e+00    2.999368e+00
  3.544409e+00    2.927685e+00
  3.576160e+00    2.923676e+00
  3.607912e+00    2.956623e+00
  3.639663e+00    2.895836e+00
  3.671414e+00    3.006585e+00
  3.703165e+00    2.966155e+00
  3.734916e+00    3.026445e+00
  3.766667e+00    2.883967e+00
  3.798418e+00    2.948641e+00
  3.830170e+00    3.046475e+00
  3.861921e+00    3.008200e+00
  3.893672e+00    2.897180e+00
  3.925423e+00    3.075965e+00
  3.957174e+00    3.042636e+00
  3.988925e+00    3.027887e+00
  4.020676e+00    2.967013e+00
  4.052428e+00    3.059053e+00
  4.084179e+00    2.996311e+00
  4.115930e+00    3.041023e+00
  4.147681e+00    3.066183e+00
  4.179432e+00    3.034670e+00
  4.211183e+00    3.091600e+00
  4.242935e+00    3.083458e+00
  4.274686e+00    3.089240e+00
  4.306437e+00    2.997168e+00
  4.338188e+00    3.093812e+00
  4.369939e+00    3.028007e+00
  4.401690e+00    3.056181e+00
  4.433441e+00    3.056615e+00
  4.465193e+00    3.082782e+00
  4.496944e+00    3.063459e+00
  4.528695e+00    3.079173e+00
  4.560446e+00    3.013607e+00
  4.592197e+00    3.043624e+00
  4.623948e+00    3.045676e+00
  4.655699e+00    3.072450e+00
  4.687451e+00    3.084712e+00
  4.719202e+00    3.051796e+00
  4.750953e+00    3.164321e+00
  4.782704e+00    3.100295e+00
  4.814455e+00    3.116137e+00
  4.846206e+00    3.096469e+00
  4.877957e+00    3.033333e+00
  4.909709e+00    3.095956e+00
  4.941460e+00    3.142467e+00
  4.973211e+00    3.003222e+00
  5.004962e+00    3.079765e+00
  5.036713e+00    3.113569e+00
  5.068464e+00    3.143191e+00
  5.100216e+00    3.167219e+00
  5.131967e+00    3.103204e+00
  5.163718e+00    3.149420e+00
  5.195469e+00    3.141856e+00
  5.227220e+00    3.172102e+00
  5.258971e+00    3.191638e+00
  5.290722e+00    3.060287e+00
  5.322474e+00    3.103590e+00
  5.354225e+00    3.107980e+00
  5.385976e+00    3.103929e+00
  5.417727e+00    3.205271e+00
  5.449478e+00    3.128097e+00
  5.481229e+00    3.076787e+00
  5.512980e+00    3.053185e+00
  5.544732e+00    3.028626e+00
  5.576483e+00    3.192871e+00
  5.608234e+00    3.159817e+00
  5.639985e+00    3.139591e+00
  5.671736e+00    3.095343e+00
  5.703487e+00    3.062596e+00
  5.735238e+00    3.057696e+00
  5.766990e+00    3.030591e+00
  5.798741e+00    2.967956e+00
  5.830492e+00    3.057104e+00
  5.862243e+00    2.974572e+00
  5.893994e+00    3.090376e+00
  5.925745e+00    2.970202e+00
  5.957497e+00    2.996268e+00
  5.989248e+00    2.980231e+00
  6.020999e+00    3.010455e+00
  6.052750e+00    3.135321e+00
  6.084501e+00    3.023242e+00
  6.116252e+00    3.051108e+00
  6.148003e+00    3.020818e+00
  6.179755e+00    3.057691e+00
  6.211506e+00    3.127240e+00
  6.243257e+00    3.008776e+00
  6.275008e+00    2.994179e+00
  6.306759e+00    3.140462e+00
  6.338510e+00    3.051715e+00
  6.370261e+00    3.036083e+00
  6.402013e+00    3.118712e+00
  6.433764e+00    3.064397e+00
  6.465515e+00    3.036662e+00
  6.497266e+00    3.022260e+00
  6.529017e+00    3.069511e+00
  6.560768e+00    2.970195e+00
  6.592519e+00    3.001289e+00
  6.624271e+00    3.027179e+00
  6.656022e+00    3.021694e+00
  6.687773e+00    3.040505e+00
  6.719524e+00    2.956528e+00
  6.751275e+00    3.034629e+00
  6.783026e+00    3.005005e+00
  6.814777e+00    3.051206e+00
  6.846529e+00    3.028762e+00
  6.878280e+00    3.059157e+00
  6.910031e+00    3.067626e+00
  6.941782e+00    2.988670e+00
  6.973533e+00    3.013398e+00
  7.005284e+00    2.969366e+00
  7.037036e+00    3.045539e+00
  7.068787e+00    3.026169e+00
  7.100538e+00    2.963195e+00
  7.132289e+00    3.015481e+00
  7.164040e+00    3.049665e+00
  7.195791e+00    2.984985e+00
  7.227542e+00    3.018317e+00
  7.259294e+00    2.986393e+00
  7.291045e+00    2.999990e+00
  7.322796e+00    2.918941e+00
  7.354547e+00    2.969724e+00
  7.386298e+00    2.952973e+00
  7.418049e+00    3.011634e+00
  7.449800e+00    2.987172e+00
  7.481552e+00    2.980674e+00
  7.513303e+00    3.023125e+00
  7.545054e+00    2.978929e+00
  7.576805e+00    2.989652e+00
  7.608556e+00    2.924266e+00
  7.640307e+00    2.948161e+00
  7.672058e+00    2.908767e+00
  7.703810e+00    2.988852e+00
  7.735561e+00    2.921156e+00
  7.767312e+00    2.873394e+00
  7.799063e+00    2.876427e+00
  7.830814e+00    2.918052e+00
  7.862565e+00    2.956806e+00
  7.894317e+00    3.022885e+00
  7.926068e+00    2.934292e+00
  7.957819e+00    2.950052e+00
  7.989570e+00    2.946741e+00
  8.021321e+00    2.957403e+00
  8.053072e+00    2.937329e+00
  8.084823e+00    2.925125e+00
  8.116575e+00    2.952005e+00
  8.148326e+00    2.964437e+00
  8.180077e+00    2.948216e+00
  8.211828e+00    2.961724e+00
  8.243579e+00    2.962679e+00
  8.275330e+00    2.907532e+00
  8.307081e+00    2.918934e+00
  8.338833e+00    2.829286e+00
  8.370584e+00    2.866896e+00
  8.402335e+00    2.908285e+00
  8.434086e+00    2.886889e+00
  8.465837e+00    2.841558e+00
  8.497588e+00    2.871006e+00
  8.529339e+00    2.784656e+00
  8.561091e+00    2.864672e+00
  8.592842e+00    2.856920e+00
  8.624593e+00    2.902391e+00
  8.656344e+00    2.887335e+00
  8.688095e+00    2.873599e+00
  8.719846e+00    2.869094e+00
  8.751598e+00    2.835248e+00
  8.783349e+00    2.871364e+00
  8.815100e+00    2.836133e+00
  8.846851e+00    2.846738e+00
  8.878602e+00    2.792310e+00
  8.910353e+00    2.779493e+00
  8.942104e+00    2.801510e+00
  8.973856e+00    2.860189e+00
  9.005607e+00    2.832839e+00
  9.037358e+00    2.833031e+00
  9.069109e+00    2.855061e+00
  9.100860e+00    2.759656e+00
  9.132611e+00    2.757617e+00
  9.164362e+00    2.810068e+00
  9.196114e+00    2.772579e+00
  9.227865e+00    2.804529e+00
  9.259616e+00    2.812722e+00
  9.291367e+00    2.724161e+00
  9.323118e+00    2.751960e+00
  9.354869e+00    2.775580e+00
  9.386620e+00    2.765949e+00
  9.418372e+00    2.799519e+00
  9.450123e+00    2.805482e+00
  9.481874e+00    2.787103e+00
  9.513625e+00    2.728219e+00
  9.545376e+00    2.737017e+00
  9.577127e+00    2.731099e+00
  9.608878e+00    2.764492e+00
  9.640630e+00    2.718966e+00
  9.672381e+00    2.752622e+00
  9.704132e+00    2.721827e+00
  9.735883e+00    2.729254e+00
  9.767634e+00    2.716778e+00
  9.799385e+00    2.700981e+00
  9.831137e+00    2.743154e+00
  9.862888e+00    2.740899e+00
  9.894639e+00    2.646701e+00
  9.926390e+00    2.666435e+00
  9.958141e+00    2.675493e+00
  9.989892e+00    2.668993e+00
  1.002164e+01    2.673796e+00
  1.005339e+01    2.671045e+00
  1.008515e+01    2.672910e+00
  1.011690e+01    2.661231e+00
  1.014865e+01    2.615642e+00
  1.018040e+01    2.628583e+00
  1.021215e+01    2.625136e+00
  1.024390e+01    2.584719e+00
  1.027565e+01    2.623626e+00
  1.030740e+01    2.631913e+00
  1.033915e+01    2.635701e+00
  1.037091e+01    2.565765e+00
  1.040266e+01    2.631577e+00
  1.043441e+01    2.597996e+00
  1.046616e+01    2.609110e+00
  1.049791e+01    2.578746e+00
  1.052966e+01    2.610769e+00
  1.056141e+01    2.573342e+00
  1.059316e+01    2.574719e+00
  1.062492e+01    2.541816e+00
  1.065667e+01    2.589442e+00
  1.068842e+01    2.551614e+00
  1.072017e+01    2.517155e+00
  1.075192e+01    2.559942e+00
  1.078367e+01    2.492004e+00
  1.081542e+01    2.559352e+00
  1.084717e+01    2.501878e+00
  1.087892e+01    2.577884e+00
  1.091068e+01    2.538249e+00
  1.094243e+01    2.505325e+00
  1.097418e+01    2.459416e+00
  1.100593e+01    2.455812e+00
  1.103768e+01    2.468503e+00
  1.106943e+01    2.429371e+00
  1.110118e+01    2.496464e+00
  1.113293e+01    2.429721e+00
  1.116468e+01    2.479600e+00
  1.119644e+01    2.442607e+00
  1.122819e+01    2.498172e+00
  1.125994e+01    2.447043e+00
  1.129169e+01    2.466468e+00
  1.132344e+01    2.452615e+00
  1.135519e+01    2.453735e+00
  1.138694e+01    2.426899e+00
  1.141869e+01    2.402691e+00
  1.145045e+01    2.430211e+00
  1.148220e+01    2.415628e+00
  1.151395e+01    2.436566e+00
  1.154570e+01    2.377608e+00
  1.157745e+01    2.378370e+00
  1.160920e+01    2.343338e+00
  1.164095e+01    2.381192e+00
  1.167270e+01    2.424528e+00
  1.170445e+01    2.360481e+00
  1.173621e+01    2.347772e+00
  1.176796e+01    2.354830e+00
  1.179971e+01    2.350822e+00
  1.183146e+01    2.346865e+00
  1.186321e+01    2.321043e+00
  1.189496e+01    2.377143e+00
  1.192671e+01    2.377893e+00
  1.195846e+01    2.333402e+00
  1.199021e+01    2.334799e+00
  1.202197e+01    2.335193e+00
  1.205372e+01    2.335703e+00
  1.208547e+01    2.319377e+00
  1.211722e+01    2.349100e+00
  1.214897e+01    2.305816e+00
  1.218072e+01    2.326145e+00
  1.221247e+01    2.280274e+00
  1.224422e+01    2.335265e+00
  1.227597e+01    2.333261e+00
  1.230773e+01    2.291341e+00
  1.233948e+01    2.349911e+00
  1.237123e+01    2.341872e+00
  1.240298e+01    2.341183e+00
  1.243473e+01    2.279625e+00
  1.246648e+01    2.312345e+00
  1.249823e+01    2.330696e+00
  1.252998e+01    2.334542e+00
  1.256174e+01    2.330386e+00
  1.259349e+01    2.395276e+00
  1.262524e+01    2.404280e+00
  1.265699e+01    2.450978e+00
  1.268874e+01    2.467945e+00
  1.272049e+01    2.527238e+00
  1.275224e+01    2.547420e+00
  1.278399e+01    2.559685e+00
  1.281574e+01    2.691115e+00
  1.284750e+01    2.816323e+00
  1.287925e+01    3.053066e+00
  1.291100e+01    3.293911e+00
  1.294275e+01    3.718586e+00
  1.297450e+01    4.369729e+00
  1.300625e+01    5.458383e+00
  1.303800e+01    7.182247e+00
  1.306975e+01    9.476314e+00
  1.310150e+01    1.204968e+01
  1.313326e+01    1.448487e+01
  1.316501e+01    1.652335e+01
  1.319676e+01    1.647195e+01
  1.322851e+01    1.342262e+01
  1.326026e+01    9.640117e+00
  1.329201e+01    6.938953e+00
  1.332376e+01    5.227310e+00
  1.335551e+01    4.264519e+00
  1.338727e+01    3.631303e+00
  1.341902e+01    3.207679e+00
  1.345077e+01    2.950866e+00
  1.348252e+01    2.728607e+00
  1.351427e+01    2.574158e+00
  1.354602e+01    2.488864e+00
  1.357777e+01    2.427768e+00
  1.360952e+01    2.385448e+00
  1.364127e+01    2.301394e+00
  1.367303e+01    2.251212e+00
  1.370478e+01    2.253806e+00
  1.373653e+01    2.202689e+00
  1.376828e+01    2.175720e+00
  1.380003e+01    2.120287e+00
  1.383178e+01    2.143959e+00
  1.386353e+01    2.116026e+00
  1.389528e+01    2.107773e+00
  1.392703e+01    2.050627e+00
  1.395879e+01    2.056257e+00
  1.399054e+01    2.095659e+00
  1.402229e+01    2.021155e+00
  1.405404e+01    1.994394e+00
  1.408579e+01    2.030340e+00
  1.411754e+01    2.001848e+00
  1.414929e+01    2.024210e+00
  1.418104e+01    1.979903e+00
  1.421279e+01    1.999195e+00
  1.424455e+01    1.947794e+00
  1.427630e+01    1.981587e+00
  1.430805e+01    1.960516e+00
  1.433980e+01    1.955451e+00
  1.437155e+01    1.949889e+00
  1.440330e+01    1.945661e+00
  1.443505e+01    1.946714e+00
  1.446680e+01    1.910283e+00
  1.449856e+01    1.910234e+00
  1.453031e+01    1.899991e+00
  1.456206e+01    1.900230e+00
  1.459381e+01    1.892106e+00
  1.462556e+01    1.889515e+00
  1.465731e+01    1.890459e+00
  1.468906e+01    1.894616e+00
  1.472081e+01    1.892076e+00
  1.475256e+01    1.903702e+00
  1.478432e+01    1.900134e+00
  1.481607e+01    1.936343e+00
  1.484782e+01    1.933581e+00
  1.487957e+01    1.897504e+00
  1.491132e+01    2.000134e+00
  1.494307e+01    2.029074e+00
  1.497482e+01    2.038751e+00
  1.500657e+01    2.134247e+00
  1.503832e+01    2.253047e+00
  1.507008e+01    2.550834e+00
  1.510183e+01    2.857099e+00
  1.513358e+01    3.448071e+00
  1.516533e+01    4.219300e+00
  1.519708e+01    4.825912e+00
  1.522883e+01    5.426946e+00
  1.526058e+01    5.682336e+00
  1.529233e+01    5.562301e+00
  1.532409e+01    4.716539e+00
  1.535584e+01    3.808084e+00
  1.538759e+01    3.022304e+00
  1.541934e+01    2.578062e+00
  1.545109e+01    2.318925e+00
  1.548284e+01    2.134743e+00
  1.551459e+01    2.030333e+00
  1.554634e+01    1.922329e+00
  1.557809e+01    1.891890e+00
  1.560985e+01    1.800469e+00
  1.564160e+01    1.785997e+00
  1.567335e+01    1.767645e+00
  1.570510e+01    1.766548e+00
  1.573685e+01    1.727204e+00
  1.576860e+01    1.665090e+00
  1.580035e+01    1.676401e+00
  1.583210e+01    1.671770e+00
  1.586385e+01    1.708056e+00
  1.589561e+01    1.630186e+00
  1.592736e+01    1.655043e+00
  1.595911e+01    1.625542e+00
  1.599086e+01    1.638625e+00
  1.602261e+01    1.583463e+00
  1.605436e+01    1.588815e+00
  1.608611e+01    1.621831e+00
  1.611786e+01    1.585980e+00
  1.614961e+01    1.561917e+00
  1.618137e+01    1.591549e+00
  1.621312e+01    1.540404e+00
  1.624487e+01    1.590294e+00
  1.627662e+01    1.512506e+00
  1.630837e+01    1.544227e+00
  1.634012e+01    1.513604e+00
  1.637187e+01    1.559568e+00
  1.640362e+01    1.506319e+00
  1.643538e+01    1.531548e+00
  1.646713e+01    1.526103e+00
  1.649888e+01    1.493875e+00
  1.653063e+01    1.518093e+00
  1.656238e+01    1.514034e+00
  1.659413e+01    1.494375e+00
  1.662588e+01    1.476811e+00
  1.665763e+01    1.501825e+00
  1.668938e+01    1.480044e+00
  1.672114e+01    1.468219e+00
  1.675289e+01    1.446884e+00
  1.678464e+01    1.461754e+00
  1.681639e+01    1.468729e+00
  1.684814e+01    1.430577e+00
  1.687989e+01    1.425954e+00
  1.691164e+01    1.452776e+00
  1.694339e+01    1.449805e+00
  1.697514e+01    1.437359e+00
  1.700690e+01    1.406706e+00
  1.703865e+01    1.438494e+00
  1.707040e+01    1.415386e+00
  1.710215e+01    1.427233e+00
  1.713390e+01    1.441637e+00
  1.716565e+01    1.408149e+00
  1.719740e+01    1.407028e+00
  1.722915e+01    1.418857e+00
  1.726091e+01    1.379022e+00
  1.729266e+01    1.399197e+00
  1.732441e+01    1.404462e+00
  1.735616e+01    1.385043e+00
  1.738791e+01    1.358723e+00
  1.741966e+01    1.361502e+00
  1.745141e+01    1.372906e+00
  1.748316e+01    1.390983e+00
  1.751491e+01    1.369603e+00
  1.754667e+01    1.381841e+00
  1.757842e+01    1.360338e+00
  1.761017e+01    1.349219e+00
  1.764192e+01    1.358486e+00
  1.767367e+01    1.339528e+00
  1.770542e+01    1.362480e+00
  1.773717e+01    1.331001e+00
  1.776892e+01    1.353593e+00
  1.780067e+01    1.321926e+00
  1.783243e+01    1.295764e+00
  1.786418e+01    1.338363e+00
  1.789593e+01    1.297371e+00
  1.792768e+01    1.278256e+00
  1.795943e+01    1.276345e+00
  1.799118e+01    1.313290e+00
  1.802293e+01    1.279470e+00
  1.805468e+01    1.294992e+00
  1.808643e+01    1.278811e+00
  1.811819e+01    1.263567e+00
  1.814994e+01    1.273773e+00
  1.818169e+01    1.269034e+00
  1.821344e+01    1.270726e+00
  1.824519e+01    1.286265e+00
  1.827694e+01    1.261892e+00
  1.830869e+01    1.252472e+00
  1.834044e+01    1.254017e+00
  1.837220e+01    1.246619e+00
  1.840395e+01    1.243753e+00
  1.843570e+01    1.284721e+00
  1.846745e+01    1.268417e+00
  1.849920e+01    1.259749e+00
  1.853095e+01    1.223291e+00
  1.856270e+01    1.232999e+00
  1.859445e+01    1.246062e+00
  1.862620e+01    1.251314e+00
  1.865796e+01    1.250983e+00
  1.868971e+01    1.234481e+00
  1.872146e+01    1.219291e+00
  1.875321e+01    1.228429e+00
  1.878496e+01    1.218790e+00
  1.881671e+01    1.196959e+00
  1.884846e+01    1.180662e+00
  1.888021e+01    1.211099e+00
  1.891196e+01    1.206131e+00
  1.894372e+01    1.188700e+00
  1.897547e+01    1.169718e+00
  1.900722e+01    1.180689e+00
  1.903897e+01    1.185370e+00
  1.907072e+01    1.199322e+00
  1.910247e+01    1.206879e+00
  1.913422e+01    1.173691e+00
  1.916597e+01    1.158281e+00
  1.919773e+01    1.184418e+00
  1.922948e+01    1.206821e+00
  1.926123e+01    1.179138e+00
  1.929298e+01    1.184812e+00
  1.932473e+01    1.183356e+00
  1.935648e+01    1.173140e+00
  1.938823e+01    1.186580e+00
  1.941998e+01    1.164069e+00
  1.945173e+01    1.173796e+00
  1.948349e+01    1.166580e+00
  1.951524e+01    1.184165e+00
  1.954699e+01    1.164597e+00
  1.957874e+01    1.142678e+00
  1.961049e+01    1.131814e+00
  1.964224e+01    1.132632e+00
  1.967399e+01    1.146270e+00
  1.970574e+01    1.139438e+00
  1.973749e+01    1.141778e+00
  1.976925e+01    1.157704e+00
  1.980100e+01    1.145478e+00
  1.983275e+01    1.139231e+00
  1.986450e+01    1.137243e+00
  1.989625e+01    1.124294e+00
  1.992800e+01    1.119169e+00
  1.995975e+01    1.123677e+00
  1.999150e+01    1.103281e+00
  2.002325e+01    1.139196e+00
  2.005501e+01    1.097782e+00
  2.008676e+01    1.123265e+00
  2.011851e+01    1.095679e+00
  2.015026e+01    1.077603e+00
  2.018201e+01    1.119021e+00
  2.021376e+01    1.124592e+00
  2.024551e+01    1.081133e+00
  2.027726e+01    1.117151e+00
  2.030902e+01    1.077490e+00
  2.034077e+01    1.104212e+00
  2.037252e+01    1.096673e+00
  2.040427e+01    1.081909e+00
  2.043602e+01    1.080015e+00
  2.046777e+01    1.080290e+00
  2.049952e+01    1.055860e+00
  2.053127e+01    1.075913e+00
  2.056302e+01    1.110795e+00
  2.059478e+01    1.063644e+00
  2.062653e+01    1.067567e+00
  2.065828e+01    1.062504e+00
  2.069003e+01    1.073452e+00
  2.072178e+01    1.074022e+00
  2.075353e+01    1.059727e+00
  2.078528e+01    1.057393e+00
  2.081703e+01    1.113206e+00
  2.084878e+01    1.108161e+00
  2.088054e+01    1.087052e+00
  2.091229e+01    1.074896e+00
  2.094404e+01    1.099651e+00
  2.097579e+01    1.077953e+00
  2.100754e+01    1.058546e+00
  2.103929e+01    1.068920e+00
  2.107104e+01    1.086654e+00
  2.110279e+01    1.062848e+00
  2.113455e+01    1.075313e+00
  2.116630e+01    1.101877e+00
  2.119805e+01    1.108735e+00
  2.122980e+01    1.090110e+00
  2.126155e+01    1.118236e+00
  2.129330e+01    1.082582e+00
  2.132505e+01    1.140113e+00
  2.135680e+01    1.140796e+00
  2.138855e+01    1.147009e+00
  2.142031e+01    1.147773e+00
  2.145206e+01    1.211727e+00
  2.148381e+01    1.246853e+00
  2.151556e+01    1.298548e+00
  2.154731e+01    1.368668e+00
  2.157906e+01    1.457486e+00
  2.161081e+01    1.572095e+00
  2.164256e+01    1.831364e+00
  2.167431e+01    2.080034e+00
  2.170607e+01    2.570918e+00
  2.173782e+01    3.252925e+00
  2.176957e+01    4.303411e+00
  2.180132e+01    5.524171e+00
  2.183307e+01    6.931982e+00
  2.186482e+01    8.284470e+00
  2.189657e+01    9.185437e+00
  2.192832e+01    8.748070e+00
  2.196007e+01    7.079439e+00
  2.199183e+01    5.209006e+00
  2.202358e+01    3.777464e+00
  2.205533e+01    2.866906e+00
  2.208708e+01    2.311303e+00
  2.211883e+01    1.922227e+00
  2.215058e+01    1.656806e+00
  2.218233e+01    1.484771e+00
  2.221408e+01    1.377970e+00
  2.224584e+01    1.305763e+00
  2.227759e+01    1.239002e+00
  2.230934e+01    1.166139e+00
  2.234109e+01    1.141909e+00
  2.237284e+01    1.101282e+00
  2.240459e+01    1.085028e+00
  2.243634e+01    1.040094e+00
  2.246809e+01    1.016799e+00
  2.249984e+01    1.017381e+00
  2.253160e+01    1.018549e+00
  2.256335e+01    1.010054e+00
  2.259510e+01    9.949337e-01
  2.262685e+01    9.658017e-01
  2.265860e+01    9.712899e-01
  2.269035e+01    9.442866e-01
  2.272210e+01    9.524351e-01
  2.275385e+01    9.229159e-01
  2.278560e+01    9.496984e-01
  2.281736e+01    9.230502e-01
  2.284911e+01    9.357873e-01
  2.288086e+01    8.901848e-01
  2.291261e+01    9.092516e-01
  2.294436e+01    9.020680e-01
  2.297611e+01    9.100408e-01
  2.300786e+01    9.139504e-01
  2.303961e+01    8.872181e-01
  2.307137e+01    8.904989e-01
  2.310312e+01    8.895893e-01
  2.313487e+01    8.941907e-01
  2.316662e+01    8.605289e-01
  2.319837e+01    8.788854e-01
  2.323012e+01    8.887282e-01
  2.326187e+01    8.582739e-01
  2.329362e+01    8.776326e-01
  2.332537e+01    8.787543e-01
  2.335713e+01    8.640981e-01
  2.338888e+01    8.453085e-01
  2.342063e+01    8.335887e-01
  2.345238e+01    8.451588e-01
  2.348413e+01    8.359808e-01
  2.351588e+01    8.411717e-01
  2.354763e+01    8.221624e-01
  2.357938e+01    8.328130e-01
  2.361113e+01    8.384324e-01
  2.364289e+01    8.260931e-01
  2.367464e+01    8.193944e-01
  2.370639e+01    8.177031e-01
  2.373814e+01    8.135055e-01
  2.376989e+01    8.151206e-01
  2.380164e+01    8.081120e-01
  2.383339e+01    8.240988e-01
  2.386514e+01    8.004188e-01
  2.389689e+01    8.011587e-01
  2.392865e+01    7.807935e-01
  2.396040e+01    7.982441e-01
  2.399215e+01    7.966422e-01
  2.402390e+01    7.803447e-01
  2.405565e+01    7.917327e-01
  2.408740e+01    7.601376e-01
  2.411915e+01    8.000860e-01
  2.415090e+01    7.864288e-01
  2.418266e+01    7.798562e-01
  2.421441e+01    7.771132e-01
  2.424616e+01    7.762725e-01
  2.427791e+01    8.078927e-01
  2.430966e+01    8.040090e-01
  2.434141e+01    7.686886e-01
  2.437316e+01    7.896973e-01
  2.440491e+01    7.864223e-01
  2.443666e+01    7.962544e-01
  2.446842e+01    7.897753e-01
  2.450017e+01    8.002653e-01
  2.453192e+01    7.914334e-01
  2.456367e+01    7.944804e-01
  2.459542e+01    7.991070e-01
  2.462717e+01    7.958502e-01
  2.465892e+01    8.037658e-01
  2.469067e+01    7.944230e-01
  2.472242e+01    7.851379e-01
  2.475418e+01    7.578463e-01
  2.478593e+01    7.852692e-01
  2.481768e+01    7.817150e-01
  2.484943e+01    7.829584e-01
  2.488118e+01    7.931707e-01
  2.491293e+01    7.888855e-01
  2.494468e+01    7.968659e-01
  2.497643e+01    8.020011e-01
  2.500819e+01    7.797107e-01
  2.503994e+01    8.052619e-01
  2.507169e+01    8.102701e-01
  2.510344e+01    8.053852e-01
  2.513519e+01    8.085204e-01
  2.516694e+01    8.221173e-01
  2.519869e+01    8.250641e-01
  2.523044e+01    8.369796e-01
  2.526219e+01    8.423539e-01
  2.529395e+01    8.437662e-01
  2.532570e+01    8.808256e-01
  2.535745e+01    8.663757e-01
  2.538920e+01    8.893502e-01
  2.542095e+01    9.002842e-01
  2.545270e+01    9.446965e-01
  2.548445e+01    9.534093e-01
  2.551620e+01    9.942209e-01
  2.554795e+01    1.021342e+00
  2.557971e+01    1.069852e+00
  2.561146e+01    1.127670e+00
  2.564321e+01    1.197624e+00
  2.567496e+01    1.327255e+00
  2.570671e+01    1.499595e+00
  2.573846e+01    1.708864e+00
  2.577021e+01    2.087124e+00
  2.580196e+01    2.658768e+00
  2.583371e+01    3.356239e+00
  2.586547e+01    4.389503e+00
  2.589722e+01    5.610662e+00
  2.592897e+01    6.830121e+00
  2.596072e+01    7.526268e+00
  2.599247e+01    7.183559e+00
  2.602422e+01    5.976512e+00
  2.605597e+01    4.445927e+00
  2.608772e+01    3.259349e+00
  2.611948e+01    2.468756e+00
  2.615123e+01    2.030973e+00
  2.618298e+01    1.650655e+00
  2.621473e+01    1.426154e+00
  2.624648e+01    1.313295e+00
  2.627823e+01    1.204621e+00
  2.630998e+01    1.132543e+00
  2.634173e+01    1.051570e+00
  2.637348e+01    9.910553e-01
  2.640524e+01    9.835222e-01
  2.643699e+01    9.716206e-01
  2.646874e+01    9.518992e-01
  2.650049e+01    9.289089e-01
  2.653224e+01    9.365950e-01
  2.656399e+01    9.014124e-01
  2.659574e+01    8.960962e-01
  2.662749e+01    8.761474e-01
  2.665924e+01    8.755886e-01
  2.669100e+01    8.844519e-01
  2.672275e+01    8.732764e-01
  2.675450e+01    9.031504e-01
  2.678625e+01    8.781779e-01
  2.681800e+01    8.697494e-01
  2.684975e+01    9.150167e-01
  2.688150e+01    9.037799e-01
  2.691325e+01    9.247109e-01
  2.694501e+01    9.436574e-01
  2.697676e+01    9.754917e-01
  2.700851e+01    9.946555e-01
  2.704026e+01    1.092281e+00
  2.707201e+01    1.200307e+00
  2.710376e+01    1.401690e+00
  2.713551e+01    1.588874e+00
  2.716726e+01    1.886950e+00
  2.719901e+01    2.164328e+00
  2.723077e+01    2.232289e+00
  2.726252e+01    2.079018e+00
  2.729427e+01    1.784980e+00
  2.732602e+01    1.466389e+00
  2.735777e+01    1.262843e+00
  2.738952e+01    1.142229e+00
  2.742127e+01    1.030662e+00
  2.745302e+01    9.700545e-01
  2.748477e+01    9.183366e-01
  2.751653e+01    9.095422e-01
  2.754828e+01    8.698460e-01
  2.758003e+01    8.683195e-01
  2.761178e+01    8.488269e-01
  2.764353e+01    8.283229e-01
  2.767528e+01    8.290941e-01
  2.770703e+01    8.094093e-01
  2.773878e+01    7.960321e-01
  2.777054e+01    8.044097e-01
  2.780229e+01    8.182918e-01
  2.783404e+01    8.052289e-01
  2.786579e+01    8.092184e-01
  2.789754e+01    7.885813e-01
  2.792929e+01    7.897847e-01
  2.796104e+01    8.049012e-01
  2.799279e+01    8.056776e-01
  2.802454e+01    8.012301e-01
  2.805630e+01    7.828978e-01
  2.808805e+01    7.821556e-01
  2.811980e+01    7.764679e-01
  2.815155e+01    7.767168e-01
  2.818330e+01    7.636048e-01
  2.821505e+01    7.788024e-01
  2.824680e+01    7.653252e-01
  2.827855e+01    7.603570e-01
  2.831030e+01    7.734361e-01
  2.834206e+01    7.706357e-01
  2.837381e+01    7.394796e-01
  2.840556e+01    7.576227e-01
  2.843731e+01    7.709354e-01
  2.846906e+01    7.456195e-01
  2.850081e+01    7.569869e-01
  2.853256e+01    7.552845e-01
  2.856431e+01    7.476151e-01
  2.859606e+01    7.309409e-01
  2.862782e+01    7.442321e-01
  2.865957e+01    7.491537e-01
  2.869132e+01    7.738605e-01
  2.872307e+01    7.463759e-01
  2.875482e+01    7.383066e-01
  2.878657e+01    7.383201e-01
  2.881832e+01    7.556720e-01
  2.885007e+01    7.240989e-01
  2.888183e+01    7.346190e-01
  2.891358e+01    7.122440e-01
  2.894533e+01    7.480565e-01
  2.897708e+01    7.137605e-01
  2.900883e+01    7.424505e-01
  2.904058e+01    7.338653e-01
  2.907233e+01    7.366809e-01
  2.910408e+01    7.448614e-01
  2.913583e+01    7.302092e-01
  2.916759e+01    7.383070e-01
  2.919934e+01    7.287039e-01
  2.923109e+01    7.394177e-01
  2.926284e+01    7.311824e-01
  2.929459e+01    7.229295e-01
  2.932634e+01    7.409641e-01
  2.935809e+01    7.303422e-01
  2.938984e+01    7.147232e-01
  2.942159e+01    7.027817e-01
  2.945335e+01    7.352666e-01
  2.948510e+01    7.340743e-01
  2.951685e+01    7.407933e-01
  2.954860e+01    7.203920e-01
  2.958035e+01    7.179419e-01
  2.961210e+01    7.092717e-01
  2.964385e+01    7.076411e-01
  2.967560e+01    7.266858e-01
  2.970736e+01    7.167633e-01
  2.973911e+01    7.002241e-01
  2.977086e+01    7.036045e-01
  2.980261e+01    7.046804e-01
  2.983436e+01    7.169263e-01
  2.986611e+01    7.336977e-01
  2.989786e+01    7.154528e-01
  2.992961e+01    7.242830e-01
  2.996136e+01    7.365704e-01
  2.999312e+01    7.355493e-01
  3.002487e+01    7.330019e-01
  3.005662e+01    7.387117e-01
  3.008837e+01    7.538027e-01
  3.012012e+01    7.112474e-01
  3.015187e+01    7.193605e-01
  3.018362e+01    7.126197e-01
  3.021537e+01    7.248659e-01
  3.024712e+01    7.023064e-01
  3.027888e+01    6.955318e-01
  3.031063e+01    6.968214e-01
  3.034238e+01    7.202678e-01
  3.037413e+01    7.071995e-01
  3.040588e+01    7.072037e-01
  3.043763e+01    6.962814e-01
  3.046938e+01    7.071723e-01
  3.050113e+01    7.276082e-01
  3.053288e+01    7.044488e-01
  3.056464e+01    7.070512e-01
  3.059639e+01    7.108936e-01
  3.062814e+01    7.076881e-01
  3.065989e+01    7.259822e-01
  3.069164e+01    7.032043e-01
  3.072339e+01    6.811680e-01
  3.075514e+01    7.021881e-01
  3.078689e+01    7.144707e-01
  3.081865e+01    7.126362e-01
  3.085040e+01    7.042900e-01
  3.088215e+01    7.124232e-01
  3.091390e+01    6.880547e-01
  3.094565e+01    7.166026e-01
  3.097740e+01    7.059600e-01
  3.100915e+01    7.044877e-01
  3.104090e+01    7.365690e-01
  3.107265e+01    7.112947e-01
  3.110441e+01    6.966592e-01
  3.113616e+01    7.308512e-01
  3.116791e+01    7.071654e-01
  3.119966e+01    7.168669e-01
  3.123141e+01    7.300402e-01
  3.126316e+01    7.088798e-01
  3.129491e+01    7.248220e-01
  3.132666e+01    7.279721e-01
  3.135841e+01    7.088995e-01
  3.139017e+01    7.443299e-01
  3.142192e+01    7.554021e-01
  3.145367e+01    7.501580e-01
  3.148542e+01    7.403699e-01
  3.151717e+01    7.800901e-01
  3.154892e+01    7.751154e-01
  3.158067e+01    7.776328e-01
  3.161242e+01    8.191966e-01
  3.164418e+01    8.504696e-01
  3.167593e+01    8.776993e-01
  3.170768e+01    9.588133e-01
  3.173943e+01    1.036204e+00
  3.177118e+01    1.188002e+00
  3.180293e+01    1.361923e+00
  3.183468e+01    1.628270e+00
  3.186643e+01    1.931073e+00
  3.189818e+01    2.150680e+00
  3.192994e+01    2.196062e+00
  3.196169e+01    1.977934e+00
  3.199344e+01    1.688984e+00
  3.202519e+01    1.404317e+00
  3.205694e+01    1.166650e+00
  3.208869e+01    1.027182e+00
  3.212044e+01    9.249058e-01
  3.215219e+01    8.857310e-01
  3.218394e+01    8.290900e-01
  3.221570e+01    8.152733e-01
  3.224745e+01    7.713916e-01
  3.227920e+01    7.871180e-01
  3.231095e+01    7.685412e-01
  3.234270e+01    7.575400e-01
  3.237445e+01    7.573111e-01
  3.240620e+01    7.194100e-01
  3.243795e+01    7.264435e-01
  3.246970e+01    7.056405e-01
  3.250146e+01    7.310696e-01
  3.253321e+01    7.199033e-01
  3.254908e+01    7.189133e-01