File: XRD/Activation ramp/2024-07-27_002_Ru-CGO-ex_Activtation_ramp_000002_data_000092.dat
# == pyFAI calibration ==
# Distance Sample to Detector: 0.4 m
# PONI: 9.750e-02, 1.135e-01 m
# Rotations: -0.000175 0.000000 -0.000000 rad
#
# == Fit2d calibration ==
# Distance Sample-beamCenter: 400.000 mm
# Center: x=1514.000, y=1300.000 pix
# Tilt: 0.010 deg  TiltPlanRot: 0.010 deg
#
# Detector Detector	 Spline= None	 PixelSize= 7.500e-05, 7.500e-05 m
#    Detector has a mask: False
#    Detector has a dark current: False
#    detector has a flat field: False
#
# Wavelength: 6.888e-11 m
# Mask applied: user provided
# Dark current applied: False
# Flat field applied: False
# Polarization factor: 0.99
# Normalization factor: 1.0
# --> /home/myspot/data/2024_07_Rosario/Ru-CGO-ex/2024-07-27_002_Ru-CGO-ex_Activtation_ramp_000002_data_000092.dat
#       q_nm^-1             I
  2.003187e-02    3.412503e-01
  5.178302e-02    1.813242e-01
  8.353417e-02    3.539762e-02
  1.152853e-01    1.505849e-02
  1.470365e-01    7.503691e-02
  1.787876e-01    2.099108e-02
  2.105388e-01    1.823753e-02
  2.422899e-01    3.439032e-02
  2.740411e-01    9.584929e-03
  3.057922e-01    2.147223e-02
  3.375433e-01    7.910676e-02
  3.692945e-01    4.742299e-02
  4.010456e-01    2.786627e-02
  4.327968e-01    6.168497e-02
  4.645479e-01    1.947537e-02
  4.962991e-01    4.715488e-02
  5.280502e-01    2.491748e-02
  5.598014e-01    1.901130e-02
  5.915525e-01    3.664069e-02
  6.233037e-01    5.542846e-02
  6.550548e-01    2.197767e-02
  6.868060e-01    1.758945e-02
  7.185571e-01    3.898270e-02
  7.503083e-01    5.399618e-02
  7.820594e-01    1.088914e-01
  8.138106e-01    1.738644e-01
  8.455617e-01    2.735847e-01
  8.773129e-01    3.917047e-01
  9.090640e-01    5.897676e-01
  9.408152e-01    7.004433e-01
  9.725663e-01    8.138163e-01
  1.004317e+00    1.002547e+00
  1.036069e+00    1.086867e+00
  1.067820e+00    1.265331e+00
  1.099571e+00    1.391245e+00
  1.131322e+00    1.354948e+00
  1.163073e+00    1.572107e+00
  1.194824e+00    1.662329e+00
  1.226575e+00    2.020800e+00
  1.258327e+00    2.273492e+00
  1.290078e+00    2.394048e+00
  1.321829e+00    2.317549e+00
  1.353580e+00    2.588224e+00
  1.385331e+00    2.552553e+00
  1.417082e+00    2.660549e+00
  1.448834e+00    2.793671e+00
  1.480585e+00    2.848568e+00
  1.512336e+00    2.830595e+00
  1.544087e+00    2.903790e+00
  1.575838e+00    2.906989e+00
  1.607589e+00    3.022399e+00
  1.639340e+00    2.827207e+00
  1.671092e+00    2.826651e+00
  1.702843e+00    2.673880e+00
  1.734594e+00    2.746756e+00
  1.766345e+00    2.746985e+00
  1.798096e+00    2.791646e+00
  1.829847e+00    2.741200e+00
  1.861598e+00    2.825212e+00
  1.893350e+00    2.693099e+00
  1.925101e+00    2.883699e+00
  1.956852e+00    2.786043e+00
  1.988603e+00    2.681283e+00
  2.020354e+00    2.697372e+00
  2.052105e+00    2.681846e+00
  2.083856e+00    2.746832e+00
  2.115608e+00    2.678562e+00
  2.147359e+00    2.852746e+00
  2.179110e+00    2.721693e+00
  2.210861e+00    2.685652e+00
  2.242612e+00    2.672099e+00
  2.274363e+00    2.786208e+00
  2.306115e+00    2.661455e+00
  2.337866e+00    2.730065e+00
  2.369617e+00    2.743623e+00
  2.401368e+00    2.702775e+00
  2.433119e+00    2.791562e+00
  2.464870e+00    2.719753e+00
  2.496621e+00    2.793695e+00
  2.528373e+00    2.693426e+00
  2.560124e+00    2.847575e+00
  2.591875e+00    2.664964e+00
  2.623626e+00    2.737084e+00
  2.655377e+00    2.675853e+00
  2.687128e+00    2.768536e+00
  2.718879e+00    2.746019e+00
  2.750631e+00    2.825285e+00
  2.782382e+00    2.781091e+00
  2.814133e+00    2.880167e+00
  2.845884e+00    2.800183e+00
  2.877635e+00    2.863474e+00
  2.909386e+00    2.778691e+00
  2.941137e+00    2.836060e+00
  2.972889e+00    2.694037e+00
  3.004640e+00    2.777335e+00
  3.036391e+00    2.866083e+00
  3.068142e+00    2.822508e+00
  3.099893e+00    2.829722e+00
  3.131644e+00    2.874882e+00
  3.163395e+00    2.873187e+00
  3.195147e+00    2.872200e+00
  3.226898e+00    2.827683e+00
  3.258649e+00    2.874611e+00
  3.290400e+00    2.898898e+00
  3.322151e+00    2.894362e+00
  3.353902e+00    2.866847e+00
  3.385654e+00    2.876970e+00
  3.417405e+00    2.806955e+00
  3.449156e+00    2.931249e+00
  3.480907e+00    2.865864e+00
  3.512658e+00    2.955124e+00
  3.544409e+00    2.954106e+00
  3.576160e+00    2.950662e+00
  3.607912e+00    2.916929e+00
  3.639663e+00    2.953380e+00
  3.671414e+00    2.871579e+00
  3.703165e+00    2.987120e+00
  3.734916e+00    3.011664e+00
  3.766667e+00    2.957284e+00
  3.798418e+00    2.972724e+00
  3.830170e+00    2.986964e+00
  3.861921e+00    2.891629e+00
  3.893672e+00    2.854503e+00
  3.925423e+00    2.966562e+00
  3.957174e+00    3.030858e+00
  3.988925e+00    2.950125e+00
  4.020676e+00    2.919159e+00
  4.052428e+00    2.941856e+00
  4.084179e+00    2.955245e+00
  4.115930e+00    2.919481e+00
  4.147681e+00    2.978483e+00
  4.179432e+00    2.931953e+00
  4.211183e+00    2.927087e+00
  4.242935e+00    3.073550e+00
  4.274686e+00    2.990403e+00
  4.306437e+00    3.085055e+00
  4.338188e+00    3.004248e+00
  4.369939e+00    3.035156e+00
  4.401690e+00    2.999269e+00
  4.433441e+00    3.061929e+00
  4.465193e+00    3.042456e+00
  4.496944e+00    3.021187e+00
  4.528695e+00    3.016185e+00
  4.560446e+00    3.029754e+00
  4.592197e+00    3.081028e+00
  4.623948e+00    3.098778e+00
  4.655699e+00    3.045144e+00
  4.687451e+00    3.001098e+00
  4.719202e+00    3.043013e+00
  4.750953e+00    3.070171e+00
  4.782704e+00    3.043742e+00
  4.814455e+00    3.040822e+00
  4.846206e+00    3.103183e+00
  4.877957e+00    3.127668e+00
  4.909709e+00    3.038565e+00
  4.941460e+00    3.069318e+00
  4.973211e+00    3.075396e+00
  5.004962e+00    3.056097e+00
  5.036713e+00    3.025684e+00
  5.068464e+00    3.119727e+00
  5.100216e+00    3.123390e+00
  5.131967e+00    2.987283e+00
  5.163718e+00    3.045922e+00
  5.195469e+00    3.067924e+00
  5.227220e+00    3.176231e+00
  5.258971e+00    3.082836e+00
  5.290722e+00    2.983483e+00
  5.322474e+00    3.070625e+00
  5.354225e+00    3.099775e+00
  5.385976e+00    3.065921e+00
  5.417727e+00    3.038965e+00
  5.449478e+00    3.031081e+00
  5.481229e+00    3.014848e+00
  5.512980e+00    3.083095e+00
  5.544732e+00    2.986832e+00
  5.576483e+00    3.014046e+00
  5.608234e+00    2.974489e+00
  5.639985e+00    3.106843e+00
  5.671736e+00    3.011124e+00
  5.703487e+00    3.016317e+00
  5.735238e+00    3.062370e+00
  5.766990e+00    3.129493e+00
  5.798741e+00    3.021632e+00
  5.830492e+00    3.098078e+00
  5.862243e+00    3.003198e+00
  5.893994e+00    2.917771e+00
  5.925745e+00    2.915205e+00
  5.957497e+00    2.939195e+00
  5.989248e+00    2.920113e+00
  6.020999e+00    2.941721e+00
  6.052750e+00    3.026941e+00
  6.084501e+00    3.039125e+00
  6.116252e+00    3.110321e+00
  6.148003e+00    3.045569e+00
  6.179755e+00    3.047846e+00
  6.211506e+00    2.957344e+00
  6.243257e+00    2.991007e+00
  6.275008e+00    2.987842e+00
  6.306759e+00    3.008222e+00
  6.338510e+00    3.023992e+00
  6.370261e+00    2.960496e+00
  6.402013e+00    2.978822e+00
  6.433764e+00    2.955365e+00
  6.465515e+00    3.031744e+00
  6.497266e+00    3.070318e+00
  6.529017e+00    2.979664e+00
  6.560768e+00    3.054925e+00
  6.592519e+00    2.910536e+00
  6.624271e+00    3.003517e+00
  6.656022e+00    2.986517e+00
  6.687773e+00    3.014784e+00
  6.719524e+00    2.994139e+00
  6.751275e+00    2.998724e+00
  6.783026e+00    2.929058e+00
  6.814777e+00    2.959274e+00
  6.846529e+00    3.030572e+00
  6.878280e+00    3.056458e+00
  6.910031e+00    2.927976e+00
  6.941782e+00    2.978730e+00
  6.973533e+00    2.966372e+00
  7.005284e+00    2.966380e+00
  7.037036e+00    2.987183e+00
  7.068787e+00    2.932680e+00
  7.100538e+00    2.946249e+00
  7.132289e+00    2.962596e+00
  7.164040e+00    2.935862e+00
  7.195791e+00    3.070353e+00
  7.227542e+00    2.934034e+00
  7.259294e+00    2.958355e+00
  7.291045e+00    2.950490e+00
  7.322796e+00    2.929740e+00
  7.354547e+00    2.894809e+00
  7.386298e+00    2.923002e+00
  7.418049e+00    2.960982e+00
  7.449800e+00    2.861513e+00
  7.481552e+00    2.840644e+00
  7.513303e+00    2.910142e+00
  7.545054e+00    2.911959e+00
  7.576805e+00    2.871135e+00
  7.608556e+00    2.920371e+00
  7.640307e+00    2.911677e+00
  7.672058e+00    2.871133e+00
  7.703810e+00    2.889208e+00
  7.735561e+00    2.918132e+00
  7.767312e+00    2.885035e+00
  7.799063e+00    2.879310e+00
  7.830814e+00    2.872566e+00
  7.862565e+00    2.892177e+00
  7.894317e+00    2.945031e+00
  7.926068e+00    2.915270e+00
  7.957819e+00    2.924273e+00
  7.989570e+00    2.869452e+00
  8.021321e+00    2.902909e+00
  8.053072e+00    2.885421e+00
  8.084823e+00    2.865098e+00
  8.116575e+00    2.956201e+00
  8.148326e+00    2.929535e+00
  8.180077e+00    2.879312e+00
  8.211828e+00    2.932315e+00
  8.243579e+00    2.903769e+00
  8.275330e+00    2.895934e+00
  8.307081e+00    2.835536e+00
  8.338833e+00    2.840770e+00
  8.370584e+00    2.861080e+00
  8.402335e+00    2.855649e+00
  8.434086e+00    2.884628e+00
  8.465837e+00    2.845157e+00
  8.497588e+00    2.812186e+00
  8.529339e+00    2.833013e+00
  8.561091e+00    2.769044e+00
  8.592842e+00    2.865904e+00
  8.624593e+00    2.835362e+00
  8.656344e+00    2.838253e+00
  8.688095e+00    2.774651e+00
  8.719846e+00    2.815557e+00
  8.751598e+00    2.830663e+00
  8.783349e+00    2.776618e+00
  8.815100e+00    2.794937e+00
  8.846851e+00    2.799233e+00
  8.878602e+00    2.803781e+00
  8.910353e+00    2.763403e+00
  8.942104e+00    2.762539e+00
  8.973856e+00    2.807857e+00
  9.005607e+00    2.702975e+00
  9.037358e+00    2.790622e+00
  9.069109e+00    2.744257e+00
  9.100860e+00    2.796117e+00
  9.132611e+00    2.771566e+00
  9.164362e+00    2.748969e+00
  9.196114e+00    2.703101e+00
  9.227865e+00    2.699637e+00
  9.259616e+00    2.672986e+00
  9.291367e+00    2.716395e+00
  9.323118e+00    2.714760e+00
  9.354869e+00    2.720029e+00
  9.386620e+00    2.724670e+00
  9.418372e+00    2.693163e+00
  9.450123e+00    2.707350e+00
  9.481874e+00    2.779692e+00
  9.513625e+00    2.690406e+00
  9.545376e+00    2.678761e+00
  9.577127e+00    2.677527e+00
  9.608878e+00    2.771487e+00
  9.640630e+00    2.717842e+00
  9.672381e+00    2.709174e+00
  9.704132e+00    2.653318e+00
  9.735883e+00    2.641618e+00
  9.767634e+00    2.707776e+00
  9.799385e+00    2.673071e+00
  9.831137e+00    2.689413e+00
  9.862888e+00    2.666279e+00
  9.894639e+00    2.658742e+00
  9.926390e+00    2.633163e+00
  9.958141e+00    2.639073e+00
  9.989892e+00    2.639705e+00
  1.002164e+01    2.633559e+00
  1.005339e+01    2.571826e+00
  1.008515e+01    2.657542e+00
  1.011690e+01    2.644600e+00
  1.014865e+01    2.651834e+00
  1.018040e+01    2.612179e+00
  1.021215e+01    2.636809e+00
  1.024390e+01    2.555606e+00
  1.027565e+01    2.605523e+00
  1.030740e+01    2.613975e+00
  1.033915e+01    2.598319e+00
  1.037091e+01    2.556363e+00
  1.040266e+01    2.611349e+00
  1.043441e+01    2.533711e+00
  1.046616e+01    2.539640e+00
  1.049791e+01    2.504503e+00
  1.052966e+01    2.540718e+00
  1.056141e+01    2.573147e+00
  1.059316e+01    2.496240e+00
  1.062492e+01    2.551181e+00
  1.065667e+01    2.464917e+00
  1.068842e+01    2.523638e+00
  1.072017e+01    2.509706e+00
  1.075192e+01    2.475568e+00
  1.078367e+01    2.497403e+00
  1.081542e+01    2.494609e+00
  1.084717e+01    2.493890e+00
  1.087892e+01    2.460664e+00
  1.091068e+01    2.415517e+00
  1.094243e+01    2.479933e+00
  1.097418e+01    2.476612e+00
  1.100593e+01    2.415371e+00
  1.103768e+01    2.432902e+00
  1.106943e+01    2.381012e+00
  1.110118e+01    2.437465e+00
  1.113293e+01    2.477189e+00
  1.116468e+01    2.388785e+00
  1.119644e+01    2.372038e+00
  1.122819e+01    2.428641e+00
  1.125994e+01    2.373306e+00
  1.129169e+01    2.459200e+00
  1.132344e+01    2.475110e+00
  1.135519e+01    2.406103e+00
  1.138694e+01    2.363468e+00
  1.141869e+01    2.422228e+00
  1.145045e+01    2.401798e+00
  1.148220e+01    2.390136e+00
  1.151395e+01    2.395598e+00
  1.154570e+01    2.337230e+00
  1.157745e+01    2.345330e+00
  1.160920e+01    2.380436e+00
  1.164095e+01    2.374702e+00
  1.167270e+01    2.353845e+00
  1.170445e+01    2.312968e+00
  1.173621e+01    2.298107e+00
  1.176796e+01    2.357772e+00
  1.179971e+01    2.322125e+00
  1.183146e+01    2.341739e+00
  1.186321e+01    2.300116e+00
  1.189496e+01    2.330282e+00
  1.192671e+01    2.333724e+00
  1.195846e+01    2.303788e+00
  1.199021e+01    2.306948e+00
  1.202197e+01    2.327365e+00
  1.205372e+01    2.318082e+00
  1.208547e+01    2.273330e+00
  1.211722e+01    2.270413e+00
  1.214897e+01    2.262884e+00
  1.218072e+01    2.278408e+00
  1.221247e+01    2.283259e+00
  1.224422e+01    2.284687e+00
  1.227597e+01    2.256530e+00
  1.230773e+01    2.316267e+00
  1.233948e+01    2.291517e+00
  1.237123e+01    2.280435e+00
  1.240298e+01    2.301004e+00
  1.243473e+01    2.261551e+00
  1.246648e+01    2.325471e+00
  1.249823e+01    2.300507e+00
  1.252998e+01    2.345384e+00
  1.256174e+01    2.365350e+00
  1.259349e+01    2.352743e+00
  1.262524e+01    2.373862e+00
  1.265699e+01    2.360069e+00
  1.268874e+01    2.404070e+00
  1.272049e+01    2.468419e+00
  1.275224e+01    2.559236e+00
  1.278399e+01    2.563803e+00
  1.281574e+01    2.639722e+00
  1.284750e+01    2.780984e+00
  1.287925e+01    3.018127e+00
  1.291100e+01    3.211728e+00
  1.294275e+01    3.651153e+00
  1.297450e+01    4.249062e+00
  1.300625e+01    5.213681e+00
  1.303800e+01    6.897470e+00
  1.306975e+01    9.236022e+00
  1.310150e+01    1.197213e+01
  1.313326e+01    1.477614e+01
  1.316501e+01    1.711490e+01
  1.319676e+01    1.777009e+01
  1.322851e+01    1.546464e+01
  1.326026e+01    1.120352e+01
  1.329201e+01    7.940073e+00
  1.332376e+01    5.954742e+00
  1.335551e+01    4.665128e+00
  1.338727e+01    3.908188e+00
  1.341902e+01    3.437100e+00
  1.345077e+01    3.054932e+00
  1.348252e+01    2.845706e+00
  1.351427e+01    2.656733e+00
  1.354602e+01    2.555008e+00
  1.357777e+01    2.455423e+00
  1.360952e+01    2.333019e+00
  1.364127e+01    2.298252e+00
  1.367303e+01    2.310859e+00
  1.370478e+01    2.260853e+00
  1.373653e+01    2.208854e+00
  1.376828e+01    2.173513e+00
  1.380003e+01    2.124989e+00
  1.383178e+01    2.096392e+00
  1.386353e+01    2.095701e+00
  1.389528e+01    2.089575e+00
  1.392703e+01    2.052107e+00
  1.395879e+01    2.036507e+00
  1.399054e+01    1.998958e+00
  1.402229e+01    2.042304e+00
  1.405404e+01    2.008786e+00
  1.408579e+01    1.989147e+00
  1.411754e+01    1.957911e+00
  1.414929e+01    1.943900e+00
  1.418104e+01    1.967750e+00
  1.421279e+01    1.980809e+00
  1.424455e+01    1.925418e+00
  1.427630e+01    1.928468e+00
  1.430805e+01    1.941560e+00
  1.433980e+01    1.942293e+00
  1.437155e+01    1.942653e+00
  1.440330e+01    1.909019e+00
  1.443505e+01    1.926754e+00
  1.446680e+01    1.910173e+00
  1.449856e+01    1.893346e+00
  1.453031e+01    1.890004e+00
  1.456206e+01    1.865885e+00
  1.459381e+01    1.920142e+00
  1.462556e+01    1.887957e+00
  1.465731e+01    1.901575e+00
  1.468906e+01    1.883068e+00
  1.472081e+01    1.861924e+00
  1.475256e+01    1.862884e+00
  1.478432e+01    1.859090e+00
  1.481607e+01    1.905546e+00
  1.484782e+01    1.939123e+00
  1.487957e+01    1.918432e+00
  1.491132e+01    1.976219e+00
  1.494307e+01    1.962560e+00
  1.497482e+01    2.027825e+00
  1.500657e+01    2.092100e+00
  1.503832e+01    2.265951e+00
  1.507008e+01    2.469527e+00
  1.510183e+01    2.809815e+00
  1.513358e+01    3.361810e+00
  1.516533e+01    4.072485e+00
  1.519708e+01    4.745562e+00
  1.522883e+01    5.468289e+00
  1.526058e+01    5.968545e+00
  1.529233e+01    6.062678e+00
  1.532409e+01    5.264711e+00
  1.535584e+01    4.193604e+00
  1.538759e+01    3.317056e+00
  1.541934e+01    2.716872e+00
  1.545109e+01    2.433725e+00
  1.548284e+01    2.164878e+00
  1.551459e+01    2.058209e+00
  1.554634e+01    1.916000e+00
  1.557809e+01    1.859389e+00
  1.560985e+01    1.810499e+00
  1.564160e+01    1.734557e+00
  1.567335e+01    1.751265e+00
  1.570510e+01    1.694917e+00
  1.573685e+01    1.717152e+00
  1.576860e+01    1.703966e+00
  1.580035e+01    1.688903e+00
  1.583210e+01    1.605098e+00
  1.586385e+01    1.635313e+00
  1.589561e+01    1.660400e+00
  1.592736e+01    1.624511e+00
  1.595911e+01    1.605694e+00
  1.599086e+01    1.606765e+00
  1.602261e+01    1.571668e+00
  1.605436e+01    1.582965e+00
  1.608611e+01    1.594270e+00
  1.611786e+01    1.555795e+00
  1.614961e+01    1.545498e+00
  1.618137e+01    1.500223e+00
  1.621312e+01    1.563533e+00
  1.624487e+01    1.541114e+00
  1.627662e+01    1.551353e+00
  1.630837e+01    1.533679e+00
  1.634012e+01    1.531780e+00
  1.637187e+01    1.492178e+00
  1.640362e+01    1.525128e+00
  1.643538e+01    1.541889e+00
  1.646713e+01    1.491359e+00
  1.649888e+01    1.516214e+00
  1.653063e+01    1.486498e+00
  1.656238e+01    1.498774e+00
  1.659413e+01    1.495497e+00
  1.662588e+01    1.484327e+00
  1.665763e+01    1.467866e+00
  1.668938e+01    1.458701e+00
  1.672114e+01    1.453648e+00
  1.675289e+01    1.485643e+00
  1.678464e+01    1.464085e+00
  1.681639e+01    1.458638e+00
  1.684814e+01    1.436132e+00
  1.687989e+01    1.449200e+00
  1.691164e+01    1.440810e+00
  1.694339e+01    1.417182e+00
  1.697514e+01    1.413389e+00
  1.700690e+01    1.422412e+00
  1.703865e+01    1.433013e+00
  1.707040e+01    1.417009e+00
  1.710215e+01    1.420395e+00
  1.713390e+01    1.402502e+00
  1.716565e+01    1.379366e+00
  1.719740e+01    1.362671e+00
  1.722915e+01    1.362737e+00
  1.726091e+01    1.389699e+00
  1.729266e+01    1.373857e+00
  1.732441e+01    1.360051e+00
  1.735616e+01    1.393824e+00
  1.738791e+01    1.328760e+00
  1.741966e+01    1.375596e+00
  1.745141e+01    1.352326e+00
  1.748316e+01    1.353824e+00
  1.751491e+01    1.311190e+00
  1.754667e+01    1.360340e+00
  1.757842e+01    1.339975e+00
  1.761017e+01    1.356642e+00
  1.764192e+01    1.308666e+00
  1.767367e+01    1.334598e+00
  1.770542e+01    1.348777e+00
  1.773717e+01    1.326890e+00
  1.776892e+01    1.312463e+00
  1.780067e+01    1.310434e+00
  1.783243e+01    1.316293e+00
  1.786418e+01    1.309894e+00
  1.789593e+01    1.296181e+00
  1.792768e+01    1.290964e+00
  1.795943e+01    1.290539e+00
  1.799118e+01    1.276764e+00
  1.802293e+01    1.277829e+00
  1.805468e+01    1.296514e+00
  1.808643e+01    1.274896e+00
  1.811819e+01    1.230736e+00
  1.814994e+01    1.250804e+00
  1.818169e+01    1.260126e+00
  1.821344e+01    1.273390e+00
  1.824519e+01    1.264507e+00
  1.827694e+01    1.251994e+00
  1.830869e+01    1.245422e+00
  1.834044e+01    1.226281e+00
  1.837220e+01    1.250286e+00
  1.840395e+01    1.234664e+00
  1.843570e+01    1.214761e+00
  1.846745e+01    1.240577e+00
  1.849920e+01    1.245125e+00
  1.853095e+01    1.242067e+00
  1.856270e+01    1.229579e+00
  1.859445e+01    1.207843e+00
  1.862620e+01    1.199445e+00
  1.865796e+01    1.211606e+00
  1.868971e+01    1.194381e+00
  1.872146e+01    1.233751e+00
  1.875321e+01    1.201110e+00
  1.878496e+01    1.193081e+00
  1.881671e+01    1.198087e+00
  1.884846e+01    1.212886e+00
  1.888021e+01    1.208182e+00
  1.891196e+01    1.167050e+00
  1.894372e+01    1.176029e+00
  1.897547e+01    1.193992e+00
  1.900722e+01    1.211882e+00
  1.903897e+01    1.191281e+00
  1.907072e+01    1.174825e+00
  1.910247e+01    1.170272e+00
  1.913422e+01    1.199404e+00
  1.916597e+01    1.175980e+00
  1.919773e+01    1.139603e+00
  1.922948e+01    1.162560e+00
  1.926123e+01    1.162492e+00
  1.929298e+01    1.154128e+00
  1.932473e+01    1.151866e+00
  1.935648e+01    1.171535e+00
  1.938823e+01    1.190061e+00
  1.941998e+01    1.134274e+00
  1.945173e+01    1.130332e+00
  1.948349e+01    1.137414e+00
  1.951524e+01    1.152658e+00
  1.954699e+01    1.160845e+00
  1.957874e+01    1.147812e+00
  1.961049e+01    1.125828e+00
  1.964224e+01    1.144429e+00
  1.967399e+01    1.149332e+00
  1.970574e+01    1.134190e+00
  1.973749e+01    1.127509e+00
  1.976925e+01    1.136988e+00
  1.980100e+01    1.135633e+00
  1.983275e+01    1.149795e+00
  1.986450e+01    1.100925e+00
  1.989625e+01    1.104014e+00
  1.992800e+01    1.097852e+00
  1.995975e+01    1.105747e+00
  1.999150e+01    1.098630e+00
  2.002325e+01    1.096958e+00
  2.005501e+01    1.106198e+00
  2.008676e+01    1.107049e+00
  2.011851e+01    1.075229e+00
  2.015026e+01    1.078580e+00
  2.018201e+01    1.090599e+00
  2.021376e+01    1.098247e+00
  2.024551e+01    1.089836e+00
  2.027726e+01    1.075882e+00
  2.030902e+01    1.075343e+00
  2.034077e+01    1.095469e+00
  2.037252e+01    1.075616e+00
  2.040427e+01    1.084234e+00
  2.043602e+01    1.085053e+00
  2.046777e+01    1.068407e+00
  2.049952e+01    1.075780e+00
  2.053127e+01    1.076391e+00
  2.056302e+01    1.071624e+00
  2.059478e+01    1.068276e+00
  2.062653e+01    1.062560e+00
  2.065828e+01    1.055968e+00
  2.069003e+01    1.062216e+00
  2.072178e+01    1.083220e+00
  2.075353e+01    1.080850e+00
  2.078528e+01    1.070160e+00
  2.081703e+01    1.058990e+00
  2.084878e+01    1.054482e+00
  2.088054e+01    1.077087e+00
  2.091229e+01    1.081154e+00
  2.094404e+01    1.076190e+00
  2.097579e+01    1.079412e+00
  2.100754e+01    1.069818e+00
  2.103929e+01    1.081972e+00
  2.107104e+01    1.096493e+00
  2.110279e+01    1.055940e+00
  2.113455e+01    1.078346e+00
  2.116630e+01    1.053537e+00
  2.119805e+01    1.094426e+00
  2.122980e+01    1.077038e+00
  2.126155e+01    1.098963e+00
  2.129330e+01    1.121838e+00
  2.132505e+01    1.125948e+00
  2.135680e+01    1.127942e+00
  2.138855e+01    1.131175e+00
  2.142031e+01    1.171432e+00
  2.145206e+01    1.211109e+00
  2.148381e+01    1.232783e+00
  2.151556e+01    1.300867e+00
  2.154731e+01    1.353265e+00
  2.157906e+01    1.458277e+00
  2.161081e+01    1.581375e+00
  2.164256e+01    1.759391e+00
  2.167431e+01    2.010184e+00
  2.170607e+01    2.425161e+00
  2.173782e+01    3.020943e+00
  2.176957e+01    4.002437e+00
  2.180132e+01    5.218680e+00
  2.183307e+01    6.610654e+00
  2.186482e+01    8.146913e+00
  2.189657e+01    9.499152e+00
  2.192832e+01    9.785542e+00
  2.196007e+01    8.516568e+00
  2.199183e+01    6.345116e+00
  2.202358e+01    4.532836e+00
  2.205533e+01    3.348166e+00
  2.208708e+01    2.609756e+00
  2.211883e+01    2.109576e+00
  2.215058e+01    1.816304e+00
  2.218233e+01    1.624075e+00
  2.221408e+01    1.450729e+00
  2.224584e+01    1.344981e+00
  2.227759e+01    1.281468e+00
  2.230934e+01    1.211555e+00
  2.234109e+01    1.147710e+00
  2.237284e+01    1.104206e+00
  2.240459e+01    1.069107e+00
  2.243634e+01    1.057978e+00
  2.246809e+01    1.057633e+00
  2.249984e+01    1.020317e+00
  2.253160e+01    1.026054e+00
  2.256335e+01    9.891902e-01
  2.259510e+01    9.679317e-01
  2.262685e+01    9.680310e-01
  2.265860e+01    9.641309e-01
  2.269035e+01    9.572120e-01
  2.272210e+01    9.499657e-01
  2.275385e+01    9.038001e-01
  2.278560e+01    9.317418e-01
  2.281736e+01    9.339899e-01
  2.284911e+01    9.285656e-01
  2.288086e+01    9.000095e-01
  2.291261e+01    8.912128e-01
  2.294436e+01    8.923660e-01
  2.297611e+01    8.826336e-01
  2.300786e+01    8.998917e-01
  2.303961e+01    8.825445e-01
  2.307137e+01    8.752086e-01
  2.310312e+01    8.703660e-01
  2.313487e+01    8.724558e-01
  2.316662e+01    9.047039e-01
  2.319837e+01    8.535852e-01
  2.323012e+01    8.672808e-01
  2.326187e+01    8.612274e-01
  2.329362e+01    8.573018e-01
  2.332537e+01    8.787280e-01
  2.335713e+01    8.272575e-01
  2.338888e+01    8.447840e-01
  2.342063e+01    8.633597e-01
  2.345238e+01    8.310208e-01
  2.348413e+01    8.339763e-01
  2.351588e+01    8.366912e-01
  2.354763e+01    8.490464e-01
  2.357938e+01    8.347898e-01
  2.361113e+01    8.256101e-01
  2.364289e+01    8.134421e-01
  2.367464e+01    8.238784e-01
  2.370639e+01    8.371536e-01
  2.373814e+01    8.260913e-01
  2.376989e+01    8.053153e-01
  2.380164e+01    8.130382e-01
  2.383339e+01    7.875592e-01
  2.386514e+01    8.001038e-01
  2.389689e+01    8.043982e-01
  2.392865e+01    7.634875e-01
  2.396040e+01    7.841889e-01
  2.399215e+01    7.811657e-01
  2.402390e+01    7.762848e-01
  2.405565e+01    7.798732e-01
  2.408740e+01    7.790192e-01
  2.411915e+01    7.785388e-01
  2.415090e+01    7.874951e-01
  2.418266e+01    7.805873e-01
  2.421441e+01    7.572064e-01
  2.424616e+01    7.929772e-01
  2.427791e+01    7.862098e-01
  2.430966e+01    7.718197e-01
  2.434141e+01    7.841349e-01
  2.437316e+01    7.768885e-01
  2.440491e+01    7.889382e-01
  2.443666e+01    7.755585e-01
  2.446842e+01    7.888533e-01
  2.450017e+01    8.016220e-01
  2.453192e+01    7.685572e-01
  2.456367e+01    7.797343e-01
  2.459542e+01    7.792411e-01
  2.462717e+01    7.810575e-01
  2.465892e+01    7.933643e-01
  2.469067e+01    7.763879e-01
  2.472242e+01    7.971744e-01
  2.475418e+01    7.868009e-01
  2.478593e+01    7.742284e-01
  2.481768e+01    7.753085e-01
  2.484943e+01    7.785936e-01
  2.488118e+01    7.779965e-01
  2.491293e+01    7.996423e-01
  2.494468e+01    7.831900e-01
  2.497643e+01    7.955667e-01
  2.500819e+01    7.922689e-01
  2.503994e+01    7.953520e-01
  2.507169e+01    7.969043e-01
  2.510344e+01    8.128123e-01
  2.513519e+01    8.195617e-01
  2.516694e+01    8.039992e-01
  2.519869e+01    8.073789e-01
  2.523044e+01    8.289225e-01
  2.526219e+01    8.355682e-01
  2.529395e+01    8.533533e-01
  2.532570e+01    8.629435e-01
  2.535745e+01    8.756706e-01
  2.538920e+01    8.836476e-01
  2.542095e+01    8.954193e-01
  2.545270e+01    9.149089e-01
  2.548445e+01    9.600194e-01
  2.551620e+01    9.630740e-01
  2.554795e+01    1.006242e+00
  2.557971e+01    1.062963e+00
  2.561146e+01    1.098262e+00
  2.564321e+01    1.196190e+00
  2.567496e+01    1.288864e+00
  2.570671e+01    1.434075e+00
  2.573846e+01    1.635425e+00
  2.577021e+01    1.941709e+00
  2.580196e+01    2.401634e+00
  2.583371e+01    3.081619e+00
  2.586547e+01    3.997671e+00
  2.589722e+01    5.327784e+00
  2.592897e+01    6.709283e+00
  2.596072e+01    7.904968e+00
  2.599247e+01    8.166739e+00
  2.602422e+01    7.167925e+00
  2.605597e+01    5.595531e+00
  2.608772e+01    4.022511e+00
  2.611948e+01    3.013831e+00
  2.615123e+01    2.316567e+00
  2.618298e+01    1.936129e+00
  2.621473e+01    1.625090e+00
  2.624648e+01    1.420768e+00
  2.627823e+01    1.280233e+00
  2.630998e+01    1.204904e+00
  2.634173e+01    1.111971e+00
  2.637348e+01    1.062924e+00
  2.640524e+01    1.026985e+00
  2.643699e+01    9.760973e-01
  2.646874e+01    9.688253e-01
  2.650049e+01    9.547656e-01
  2.653224e+01    9.369692e-01
  2.656399e+01    9.235086e-01
  2.659574e+01    8.904830e-01
  2.662749e+01    9.239047e-01
  2.665924e+01    9.099963e-01
  2.669100e+01    8.954521e-01
  2.672275e+01    8.944896e-01
  2.675450e+01    8.733031e-01
  2.678625e+01    8.695068e-01
  2.681800e+01    9.102541e-01
  2.684975e+01    9.157024e-01
  2.688150e+01    8.988615e-01
  2.691325e+01    9.298086e-01
  2.694501e+01    9.221222e-01
  2.697676e+01    9.532604e-01
  2.700851e+01    1.031282e+00
  2.704026e+01    1.079168e+00
  2.707201e+01    1.181155e+00
  2.710376e+01    1.343062e+00
  2.713551e+01    1.537610e+00
  2.716726e+01    1.823395e+00
  2.719901e+01    2.099349e+00
  2.723077e+01    2.362251e+00
  2.726252e+01    2.347615e+00
  2.729427e+01    2.058809e+00
  2.732602e+01    1.691091e+00
  2.735777e+01    1.452525e+00
  2.738952e+01    1.246147e+00
  2.742127e+01    1.134056e+00
  2.745302e+01    1.031076e+00
  2.748477e+01    9.701405e-01
  2.751653e+01    9.164379e-01
  2.754828e+01    8.870787e-01
  2.758003e+01    8.723634e-01
  2.761178e+01    8.740159e-01
  2.764353e+01    8.262569e-01
  2.767528e+01    8.222892e-01
  2.770703e+01    8.313274e-01
  2.773878e+01    7.889315e-01
  2.777054e+01    8.022343e-01
  2.780229e+01    8.308765e-01
  2.783404e+01    8.124427e-01
  2.786579e+01    7.955614e-01
  2.789754e+01    8.019619e-01
  2.792929e+01    8.026931e-01
  2.796104e+01    7.961133e-01
  2.799279e+01    7.761924e-01
  2.802454e+01    7.900423e-01
  2.805630e+01    7.842360e-01
  2.808805e+01    7.704104e-01
  2.811980e+01    7.529969e-01
  2.815155e+01    7.738475e-01
  2.818330e+01    7.757254e-01
  2.821505e+01    7.735766e-01
  2.824680e+01    7.892891e-01
  2.827855e+01    7.650532e-01
  2.831030e+01    7.356681e-01
  2.834206e+01    7.640437e-01
  2.837381e+01    7.662828e-01
  2.840556e+01    7.490962e-01
  2.843731e+01    7.651587e-01
  2.846906e+01    7.544697e-01
  2.850081e+01    7.556033e-01
  2.853256e+01    7.517077e-01
  2.856431e+01    7.551286e-01
  2.859606e+01    7.613297e-01
  2.862782e+01    7.443655e-01
  2.865957e+01    7.461203e-01
  2.869132e+01    7.459216e-01
  2.872307e+01    7.503442e-01
  2.875482e+01    7.610264e-01
  2.878657e+01    7.333733e-01
  2.881832e+01    7.244535e-01
  2.885007e+01    7.298838e-01
  2.888183e+01    7.539324e-01
  2.891358e+01    7.424509e-01
  2.894533e+01    7.448627e-01
  2.897708e+01    7.372537e-01
  2.900883e+01    7.209188e-01
  2.904058e+01    7.194931e-01
  2.907233e+01    7.290226e-01
  2.910408e+01    7.231678e-01
  2.913583e+01    7.258190e-01
  2.916759e+01    7.484188e-01
  2.919934e+01    7.348493e-01
  2.923109e+01    7.183215e-01
  2.926284e+01    7.315185e-01
  2.929459e+01    7.385898e-01
  2.932634e+01    7.175069e-01
  2.935809e+01    7.255268e-01
  2.938984e+01    7.310253e-01
  2.942159e+01    7.154174e-01
  2.945335e+01    7.304804e-01
  2.948510e+01    7.290126e-01
  2.951685e+01    7.078138e-01
  2.954860e+01    7.193191e-01
  2.958035e+01    6.947170e-01
  2.961210e+01    7.238579e-01
  2.964385e+01    7.160171e-01
  2.967560e+01    7.097516e-01
  2.970736e+01    6.995947e-01
  2.973911e+01    7.089833e-01
  2.977086e+01    6.924426e-01
  2.980261e+01    7.065353e-01
  2.983436e+01    7.216874e-01
  2.986611e+01    6.911416e-01
  2.989786e+01    7.302607e-01
  2.992961e+01    7.022532e-01
  2.996136e+01    7.397538e-01
  2.999312e+01    7.215867e-01
  3.002487e+01    7.430557e-01
  3.005662e+01    7.295936e-01
  3.008837e+01    7.334852e-01
  3.012012e+01    7.222205e-01
  3.015187e+01    7.123072e-01
  3.018362e+01    6.954193e-01
  3.021537e+01    6.974308e-01
  3.024712e+01    7.057544e-01
  3.027888e+01    6.989474e-01
  3.031063e+01    7.185306e-01
  3.034238e+01    7.150856e-01
  3.037413e+01    7.001822e-01
  3.040588e+01    7.130871e-01
  3.043763e+01    7.052227e-01
  3.046938e+01    7.071362e-01
  3.050113e+01    7.067344e-01
  3.053288e+01    7.104403e-01
  3.056464e+01    7.336340e-01
  3.059639e+01    7.248894e-01
  3.062814e+01    7.250066e-01
  3.065989e+01    6.985337e-01
  3.069164e+01    6.924570e-01
  3.072339e+01    7.048872e-01
  3.075514e+01    6.973438e-01
  3.078689e+01    7.283029e-01
  3.081865e+01    7.216811e-01
  3.085040e+01    7.239754e-01
  3.088215e+01    7.216703e-01
  3.091390e+01    7.082336e-01
  3.094565e+01    7.074273e-01
  3.097740e+01    6.945082e-01
  3.100915e+01    7.069202e-01
  3.104090e+01    7.191719e-01
  3.107265e+01    6.917149e-01
  3.110441e+01    7.087216e-01
  3.113616e+01    7.140425e-01
  3.116791e+01    7.160344e-01
  3.119966e+01    7.248498e-01
  3.123141e+01    7.282380e-01
  3.126316e+01    7.154511e-01
  3.129491e+01    7.510890e-01
  3.132666e+01    7.467958e-01
  3.135841e+01    7.295734e-01
  3.139017e+01    7.428178e-01
  3.142192e+01    7.366757e-01
  3.145367e+01    7.382806e-01
  3.148542e+01    7.678388e-01
  3.151717e+01    7.478552e-01
  3.154892e+01    8.002914e-01
  3.158067e+01    7.998935e-01
  3.161242e+01    8.179635e-01
  3.164418e+01    8.497786e-01
  3.167593e+01    8.962442e-01
  3.170768e+01    9.242868e-01
  3.173943e+01    1.005231e+00
  3.177118e+01    1.107700e+00
  3.180293e+01    1.303264e+00
  3.183468e+01    1.517006e+00
  3.186643e+01    1.819383e+00
  3.189818e+01    2.166705e+00
  3.192994e+01    2.351686e+00
  3.196169e+01    2.276015e+00
  3.199344e+01    1.976720e+00
  3.202519e+01    1.614298e+00
  3.205694e+01    1.357396e+00
  3.208869e+01    1.137602e+00
  3.212044e+01    1.020138e+00
  3.215219e+01    9.272996e-01
  3.218394e+01    8.750372e-01
  3.221570e+01    8.177344e-01
  3.224745e+01    8.066043e-01
  3.227920e+01    7.848637e-01
  3.231095e+01    7.787139e-01
  3.234270e+01    7.719956e-01
  3.237445e+01    7.402376e-01
  3.240620e+01    7.183380e-01
  3.243795e+01    7.207178e-01
  3.246970e+01    7.408528e-01
  3.250146e+01    7.354434e-01
  3.253321e+01    7.373630e-01
  3.254908e+01    7.154243e-01