File: XRD/Activation ramp/2024-07-27_002_Ru-CGO-ex_Activtation_ramp_000002_data_000115.dat
# == pyFAI calibration ==
# Distance Sample to Detector: 0.4 m
# PONI: 9.750e-02, 1.135e-01 m
# Rotations: -0.000175 0.000000 -0.000000 rad
#
# == Fit2d calibration ==
# Distance Sample-beamCenter: 400.000 mm
# Center: x=1514.000, y=1300.000 pix
# Tilt: 0.010 deg  TiltPlanRot: 0.010 deg
#
# Detector Detector	 Spline= None	 PixelSize= 7.500e-05, 7.500e-05 m
#    Detector has a mask: False
#    Detector has a dark current: False
#    detector has a flat field: False
#
# Wavelength: 6.888e-11 m
# Mask applied: user provided
# Dark current applied: False
# Flat field applied: False
# Polarization factor: 0.99
# Normalization factor: 1.0
# --> /home/myspot/data/2024_07_Rosario/Ru-CGO-ex/2024-07-27_002_Ru-CGO-ex_Activtation_ramp_000002_data_000115.dat
#       q_nm^-1             I
  2.003187e-02    9.939597e-02
  5.178302e-02    6.892205e-02
  8.353417e-02    2.263240e-01
  1.152853e-01    6.535669e-02
  1.470365e-01    1.548331e-02
  1.787876e-01    2.257930e-02
  2.105388e-01    5.267712e-02
  2.422899e-01    5.549468e-02
  2.740411e-01    3.517053e-02
  3.057922e-01    3.803374e-02
  3.375433e-01    6.565027e-02
  3.692945e-01    4.357833e-02
  4.010456e-01    6.891654e-02
  4.327968e-01    5.302658e-02
  4.645479e-01    4.387606e-02
  4.962991e-01    3.992694e-02
  5.280502e-01    2.910635e-02
  5.598014e-01    4.855883e-02
  5.915525e-01    5.607341e-02
  6.233037e-01    4.215987e-02
  6.550548e-01    5.115980e-02
  6.868060e-01    3.794387e-02
  7.185571e-01    2.617078e-02
  7.503083e-01    6.895795e-02
  7.820594e-01    9.149086e-02
  8.138106e-01    1.955584e-01
  8.455617e-01    2.690035e-01
  8.773129e-01    4.058736e-01
  9.090640e-01    5.467679e-01
  9.408152e-01    6.935957e-01
  9.725663e-01    8.701652e-01
  1.004317e+00    9.674233e-01
  1.036069e+00    1.274680e+00
  1.067820e+00    1.248548e+00
  1.099571e+00    1.367564e+00
  1.131322e+00    1.382733e+00
  1.163073e+00    1.426992e+00
  1.194824e+00    1.673800e+00
  1.226575e+00    2.073169e+00
  1.258327e+00    2.212734e+00
  1.290078e+00    2.338830e+00
  1.321829e+00    2.556136e+00
  1.353580e+00    2.475508e+00
  1.385331e+00    2.542260e+00
  1.417082e+00    2.692331e+00
  1.448834e+00    2.632635e+00
  1.480585e+00    2.814681e+00
  1.512336e+00    2.838822e+00
  1.544087e+00    2.895754e+00
  1.575838e+00    2.852450e+00
  1.607589e+00    2.824955e+00
  1.639340e+00    2.712254e+00
  1.671092e+00    2.775136e+00
  1.702843e+00    2.852879e+00
  1.734594e+00    2.655874e+00
  1.766345e+00    2.709893e+00
  1.798096e+00    2.777990e+00
  1.829847e+00    2.738180e+00
  1.861598e+00    2.744480e+00
  1.893350e+00    2.678830e+00
  1.925101e+00    2.727566e+00
  1.956852e+00    2.617159e+00
  1.988603e+00    2.750749e+00
  2.020354e+00    2.619754e+00
  2.052105e+00    2.737899e+00
  2.083856e+00    2.704830e+00
  2.115608e+00    2.763433e+00
  2.147359e+00    2.673954e+00
  2.179110e+00    2.731771e+00
  2.210861e+00    2.786665e+00
  2.242612e+00    2.657434e+00
  2.274363e+00    2.736528e+00
  2.306115e+00    2.757268e+00
  2.337866e+00    2.680065e+00
  2.369617e+00    2.679099e+00
  2.401368e+00    2.726994e+00
  2.433119e+00    2.667445e+00
  2.464870e+00    2.775330e+00
  2.496621e+00    2.710694e+00
  2.528373e+00    2.731651e+00
  2.560124e+00    2.681749e+00
  2.591875e+00    2.683563e+00
  2.623626e+00    2.754460e+00
  2.655377e+00    2.823648e+00
  2.687128e+00    2.847914e+00
  2.718879e+00    2.754688e+00
  2.750631e+00    2.676307e+00
  2.782382e+00    2.732202e+00
  2.814133e+00    2.784939e+00
  2.845884e+00    2.794244e+00
  2.877635e+00    2.792476e+00
  2.909386e+00    2.748942e+00
  2.941137e+00    2.826516e+00
  2.972889e+00    2.802761e+00
  3.004640e+00    2.895587e+00
  3.036391e+00    2.827705e+00
  3.068142e+00    2.774776e+00
  3.099893e+00    2.820308e+00
  3.131644e+00    2.877418e+00
  3.163395e+00    2.878723e+00
  3.195147e+00    2.874184e+00
  3.226898e+00    2.869928e+00
  3.258649e+00    2.808863e+00
  3.290400e+00    2.831854e+00
  3.322151e+00    2.864425e+00
  3.353902e+00    2.835284e+00
  3.385654e+00    2.966183e+00
  3.417405e+00    2.912037e+00
  3.449156e+00    2.873582e+00
  3.480907e+00    2.928030e+00
  3.512658e+00    2.906481e+00
  3.544409e+00    2.873948e+00
  3.576160e+00    2.856597e+00
  3.607912e+00    2.887199e+00
  3.639663e+00    2.898369e+00
  3.671414e+00    2.855937e+00
  3.703165e+00    2.876787e+00
  3.734916e+00    2.988907e+00
  3.766667e+00    3.017296e+00
  3.798418e+00    2.948014e+00
  3.830170e+00    2.929615e+00
  3.861921e+00    3.030478e+00
  3.893672e+00    2.926623e+00
  3.925423e+00    3.025454e+00
  3.957174e+00    2.937979e+00
  3.988925e+00    2.920686e+00
  4.020676e+00    3.012388e+00
  4.052428e+00    2.941087e+00
  4.084179e+00    2.990317e+00
  4.115930e+00    3.015976e+00
  4.147681e+00    2.929873e+00
  4.179432e+00    3.034737e+00
  4.211183e+00    2.882098e+00
  4.242935e+00    3.010189e+00
  4.274686e+00    3.058674e+00
  4.306437e+00    3.057332e+00
  4.338188e+00    2.978040e+00
  4.369939e+00    2.908616e+00
  4.401690e+00    2.933044e+00
  4.433441e+00    3.041023e+00
  4.465193e+00    3.051055e+00
  4.496944e+00    2.996275e+00
  4.528695e+00    3.022002e+00
  4.560446e+00    3.051981e+00
  4.592197e+00    3.055295e+00
  4.623948e+00    2.964654e+00
  4.655699e+00    3.027770e+00
  4.687451e+00    3.098625e+00
  4.719202e+00    2.994909e+00
  4.750953e+00    3.213358e+00
  4.782704e+00    2.990866e+00
  4.814455e+00    3.000573e+00
  4.846206e+00    3.111808e+00
  4.877957e+00    3.071598e+00
  4.909709e+00    3.032252e+00
  4.941460e+00    3.090999e+00
  4.973211e+00    3.104179e+00
  5.004962e+00    3.110037e+00
  5.036713e+00    3.048420e+00
  5.068464e+00    3.137959e+00
  5.100216e+00    3.024902e+00
  5.131967e+00    3.172172e+00
  5.163718e+00    3.253871e+00
  5.195469e+00    3.107186e+00
  5.227220e+00    3.035711e+00
  5.258971e+00    3.038426e+00
  5.290722e+00    3.077568e+00
  5.322474e+00    3.062969e+00
  5.354225e+00    3.043383e+00
  5.385976e+00    3.082616e+00
  5.417727e+00    3.038944e+00
  5.449478e+00    3.111303e+00
  5.481229e+00    3.033604e+00
  5.512980e+00    2.930240e+00
  5.544732e+00    3.097685e+00
  5.576483e+00    3.039606e+00
  5.608234e+00    2.957186e+00
  5.639985e+00    3.105005e+00
  5.671736e+00    3.032106e+00
  5.703487e+00    3.033348e+00
  5.735238e+00    3.003966e+00
  5.766990e+00    2.995718e+00
  5.798741e+00    3.053925e+00
  5.830492e+00    3.044868e+00
  5.862243e+00    3.012336e+00
  5.893994e+00    2.974593e+00
  5.925745e+00    2.989344e+00
  5.957497e+00    2.947586e+00
  5.989248e+00    2.933787e+00
  6.020999e+00    2.953000e+00
  6.052750e+00    3.027689e+00
  6.084501e+00    2.974937e+00
  6.116252e+00    2.935003e+00
  6.148003e+00    2.998410e+00
  6.179755e+00    2.942590e+00
  6.211506e+00    3.005214e+00
  6.243257e+00    2.985363e+00
  6.275008e+00    2.988202e+00
  6.306759e+00    2.973837e+00
  6.338510e+00    3.042617e+00
  6.370261e+00    2.976108e+00
  6.402013e+00    2.939686e+00
  6.433764e+00    2.979286e+00
  6.465515e+00    3.065821e+00
  6.497266e+00    2.896007e+00
  6.529017e+00    2.951068e+00
  6.560768e+00    3.009578e+00
  6.592519e+00    3.008356e+00
  6.624271e+00    3.026399e+00
  6.656022e+00    2.990841e+00
  6.687773e+00    2.982079e+00
  6.719524e+00    2.919258e+00
  6.751275e+00    2.949387e+00
  6.783026e+00    3.004145e+00
  6.814777e+00    2.967345e+00
  6.846529e+00    2.913656e+00
  6.878280e+00    2.934778e+00
  6.910031e+00    2.896945e+00
  6.941782e+00    2.949404e+00
  6.973533e+00    2.901756e+00
  7.005284e+00    2.986445e+00
  7.037036e+00    3.021808e+00
  7.068787e+00    3.043389e+00
  7.100538e+00    2.918295e+00
  7.132289e+00    2.915319e+00
  7.164040e+00    2.964705e+00
  7.195791e+00    2.944040e+00
  7.227542e+00    2.968702e+00
  7.259294e+00    2.942961e+00
  7.291045e+00    2.973624e+00
  7.322796e+00    2.974488e+00
  7.354547e+00    2.942822e+00
  7.386298e+00    2.900388e+00
  7.418049e+00    2.963243e+00
  7.449800e+00    2.936340e+00
  7.481552e+00    2.891588e+00
  7.513303e+00    2.863144e+00
  7.545054e+00    2.952261e+00
  7.576805e+00    2.864195e+00
  7.608556e+00    2.888863e+00
  7.640307e+00    2.834047e+00
  7.672058e+00    2.890519e+00
  7.703810e+00    2.900757e+00
  7.735561e+00    2.908499e+00
  7.767312e+00    2.924221e+00
  7.799063e+00    2.868253e+00
  7.830814e+00    2.940158e+00
  7.862565e+00    2.879083e+00
  7.894317e+00    2.869885e+00
  7.926068e+00    2.851433e+00
  7.957819e+00    2.881376e+00
  7.989570e+00    2.878737e+00
  8.021321e+00    2.868431e+00
  8.053072e+00    2.842370e+00
  8.084823e+00    2.860925e+00
  8.116575e+00    2.898253e+00
  8.148326e+00    2.937506e+00
  8.180077e+00    2.892805e+00
  8.211828e+00    2.944201e+00
  8.243579e+00    2.927032e+00
  8.275330e+00    2.874707e+00
  8.307081e+00    2.890110e+00
  8.338833e+00    2.865016e+00
  8.370584e+00    2.842100e+00
  8.402335e+00    2.803751e+00
  8.434086e+00    2.901109e+00
  8.465837e+00    2.849105e+00
  8.497588e+00    2.799112e+00
  8.529339e+00    2.859577e+00
  8.561091e+00    2.848244e+00
  8.592842e+00    2.902003e+00
  8.624593e+00    2.786218e+00
  8.656344e+00    2.815783e+00
  8.688095e+00    2.816670e+00
  8.719846e+00    2.871585e+00
  8.751598e+00    2.836215e+00
  8.783349e+00    2.821105e+00
  8.815100e+00    2.733268e+00
  8.846851e+00    2.827952e+00
  8.878602e+00    2.746608e+00
  8.910353e+00    2.838311e+00
  8.942104e+00    2.767352e+00
  8.973856e+00    2.801986e+00
  9.005607e+00    2.768591e+00
  9.037358e+00    2.773355e+00
  9.069109e+00    2.732991e+00
  9.100860e+00    2.737930e+00
  9.132611e+00    2.793939e+00
  9.164362e+00    2.699498e+00
  9.196114e+00    2.745090e+00
  9.227865e+00    2.718392e+00
  9.259616e+00    2.736490e+00
  9.291367e+00    2.738330e+00
  9.323118e+00    2.757301e+00
  9.354869e+00    2.701866e+00
  9.386620e+00    2.715312e+00
  9.418372e+00    2.685790e+00
  9.450123e+00    2.739022e+00
  9.481874e+00    2.693087e+00
  9.513625e+00    2.683659e+00
  9.545376e+00    2.723087e+00
  9.577127e+00    2.678459e+00
  9.608878e+00    2.750092e+00
  9.640630e+00    2.733708e+00
  9.672381e+00    2.654634e+00
  9.704132e+00    2.714766e+00
  9.735883e+00    2.669992e+00
  9.767634e+00    2.711402e+00
  9.799385e+00    2.626042e+00
  9.831137e+00    2.644733e+00
  9.862888e+00    2.666285e+00
  9.894639e+00    2.624220e+00
  9.926390e+00    2.655087e+00
  9.958141e+00    2.682150e+00
  9.989892e+00    2.590417e+00
  1.002164e+01    2.646269e+00
  1.005339e+01    2.649738e+00
  1.008515e+01    2.713586e+00
  1.011690e+01    2.603642e+00
  1.014865e+01    2.598150e+00
  1.018040e+01    2.606297e+00
  1.021215e+01    2.609730e+00
  1.024390e+01    2.590526e+00
  1.027565e+01    2.538939e+00
  1.030740e+01    2.563717e+00
  1.033915e+01    2.567152e+00
  1.037091e+01    2.586907e+00
  1.040266e+01    2.580513e+00
  1.043441e+01    2.544308e+00
  1.046616e+01    2.533742e+00
  1.049791e+01    2.554524e+00
  1.052966e+01    2.599603e+00
  1.056141e+01    2.547983e+00
  1.059316e+01    2.484616e+00
  1.062492e+01    2.503851e+00
  1.065667e+01    2.565908e+00
  1.068842e+01    2.533270e+00
  1.072017e+01    2.470700e+00
  1.075192e+01    2.490750e+00
  1.078367e+01    2.481205e+00
  1.081542e+01    2.519984e+00
  1.084717e+01    2.515061e+00
  1.087892e+01    2.499428e+00
  1.091068e+01    2.478440e+00
  1.094243e+01    2.462317e+00
  1.097418e+01    2.454987e+00
  1.100593e+01    2.470273e+00
  1.103768e+01    2.466092e+00
  1.106943e+01    2.439169e+00
  1.110118e+01    2.478606e+00
  1.113293e+01    2.437336e+00
  1.116468e+01    2.431211e+00
  1.119644e+01    2.386334e+00
  1.122819e+01    2.429839e+00
  1.125994e+01    2.409888e+00
  1.129169e+01    2.392999e+00
  1.132344e+01    2.430268e+00
  1.135519e+01    2.450659e+00
  1.138694e+01    2.436271e+00
  1.141869e+01    2.358788e+00
  1.145045e+01    2.365319e+00
  1.148220e+01    2.361654e+00
  1.151395e+01    2.370431e+00
  1.154570e+01    2.346539e+00
  1.157745e+01    2.318824e+00
  1.160920e+01    2.336318e+00
  1.164095e+01    2.302506e+00
  1.167270e+01    2.307411e+00
  1.170445e+01    2.302427e+00
  1.173621e+01    2.321424e+00
  1.176796e+01    2.337549e+00
  1.179971e+01    2.288472e+00
  1.183146e+01    2.328805e+00
  1.186321e+01    2.322998e+00
  1.189496e+01    2.316311e+00
  1.192671e+01    2.361889e+00
  1.195846e+01    2.338484e+00
  1.199021e+01    2.282932e+00
  1.202197e+01    2.291695e+00
  1.205372e+01    2.301716e+00
  1.208547e+01    2.258696e+00
  1.211722e+01    2.265892e+00
  1.214897e+01    2.233366e+00
  1.218072e+01    2.283578e+00
  1.221247e+01    2.294643e+00
  1.224422e+01    2.298448e+00
  1.227597e+01    2.254760e+00
  1.230773e+01    2.286245e+00
  1.233948e+01    2.320440e+00
  1.237123e+01    2.271575e+00
  1.240298e+01    2.301977e+00
  1.243473e+01    2.260296e+00
  1.246648e+01    2.345308e+00
  1.249823e+01    2.297276e+00
  1.252998e+01    2.390922e+00
  1.256174e+01    2.326675e+00
  1.259349e+01    2.308416e+00
  1.262524e+01    2.402913e+00
  1.265699e+01    2.366175e+00
  1.268874e+01    2.412502e+00
  1.272049e+01    2.429396e+00
  1.275224e+01    2.517561e+00
  1.278399e+01    2.574093e+00
  1.281574e+01    2.682020e+00
  1.284750e+01    2.788682e+00
  1.287925e+01    3.020200e+00
  1.291100e+01    3.248939e+00
  1.294275e+01    3.632594e+00
  1.297450e+01    4.315400e+00
  1.300625e+01    5.332017e+00
  1.303800e+01    7.081798e+00
  1.306975e+01    9.286124e+00
  1.310150e+01    1.217228e+01
  1.313326e+01    1.469776e+01
  1.316501e+01    1.686636e+01
  1.319676e+01    1.712475e+01
  1.322851e+01    1.419691e+01
  1.326026e+01    1.024108e+01
  1.329201e+01    7.395798e+00
  1.332376e+01    5.497769e+00
  1.335551e+01    4.415579e+00
  1.338727e+01    3.703926e+00
  1.341902e+01    3.253698e+00
  1.345077e+01    2.917223e+00
  1.348252e+01    2.796707e+00
  1.351427e+01    2.647666e+00
  1.354602e+01    2.473955e+00
  1.357777e+01    2.454134e+00
  1.360952e+01    2.368496e+00
  1.364127e+01    2.260273e+00
  1.367303e+01    2.254614e+00
  1.370478e+01    2.169869e+00
  1.373653e+01    2.177214e+00
  1.376828e+01    2.143573e+00
  1.380003e+01    2.123625e+00
  1.383178e+01    2.103239e+00
  1.386353e+01    2.113464e+00
  1.389528e+01    2.060578e+00
  1.392703e+01    2.082628e+00
  1.395879e+01    2.031947e+00
  1.399054e+01    2.060605e+00
  1.402229e+01    1.991213e+00
  1.405404e+01    1.999866e+00
  1.408579e+01    1.985524e+00
  1.411754e+01    2.018409e+00
  1.414929e+01    1.993616e+00
  1.418104e+01    1.992694e+00
  1.421279e+01    1.950996e+00
  1.424455e+01    1.941302e+00
  1.427630e+01    1.939728e+00
  1.430805e+01    1.934141e+00
  1.433980e+01    1.898229e+00
  1.437155e+01    1.926338e+00
  1.440330e+01    1.944275e+00
  1.443505e+01    1.888055e+00
  1.446680e+01    1.914181e+00
  1.449856e+01    1.882471e+00
  1.453031e+01    1.897162e+00
  1.456206e+01    1.851125e+00
  1.459381e+01    1.914226e+00
  1.462556e+01    1.882894e+00
  1.465731e+01    1.897333e+00
  1.468906e+01    1.871545e+00
  1.472081e+01    1.906913e+00
  1.475256e+01    1.907091e+00
  1.478432e+01    1.882183e+00
  1.481607e+01    1.913872e+00
  1.484782e+01    1.895852e+00
  1.487957e+01    1.890299e+00
  1.491132e+01    1.923289e+00
  1.494307e+01    1.980721e+00
  1.497482e+01    2.036945e+00
  1.500657e+01    2.122906e+00
  1.503832e+01    2.255291e+00
  1.507008e+01    2.445396e+00
  1.510183e+01    2.827645e+00
  1.513358e+01    3.398122e+00
  1.516533e+01    4.153950e+00
  1.519708e+01    4.857079e+00
  1.522883e+01    5.492679e+00
  1.526058e+01    5.799468e+00
  1.529233e+01    5.733586e+00
  1.532409e+01    4.985894e+00
  1.535584e+01    3.871079e+00
  1.538759e+01    3.099873e+00
  1.541934e+01    2.615563e+00
  1.545109e+01    2.294132e+00
  1.548284e+01    2.146609e+00
  1.551459e+01    2.000623e+00
  1.554634e+01    1.898672e+00
  1.557809e+01    1.846948e+00
  1.560985e+01    1.779218e+00
  1.564160e+01    1.761653e+00
  1.567335e+01    1.731438e+00
  1.570510e+01    1.731596e+00
  1.573685e+01    1.683676e+00
  1.576860e+01    1.681402e+00
  1.580035e+01    1.616807e+00
  1.583210e+01    1.602255e+00
  1.586385e+01    1.626184e+00
  1.589561e+01    1.615890e+00
  1.592736e+01    1.601298e+00
  1.595911e+01    1.590555e+00
  1.599086e+01    1.588641e+00
  1.602261e+01    1.557520e+00
  1.605436e+01    1.597751e+00
  1.608611e+01    1.596415e+00
  1.611786e+01    1.564872e+00
  1.614961e+01    1.573183e+00
  1.618137e+01    1.543435e+00
  1.621312e+01    1.528042e+00
  1.624487e+01    1.578511e+00
  1.627662e+01    1.514963e+00
  1.630837e+01    1.503390e+00
  1.634012e+01    1.521692e+00
  1.637187e+01    1.514953e+00
  1.640362e+01    1.504143e+00
  1.643538e+01    1.539342e+00
  1.646713e+01    1.500350e+00
  1.649888e+01    1.487750e+00
  1.653063e+01    1.497421e+00
  1.656238e+01    1.477720e+00
  1.659413e+01    1.486883e+00
  1.662588e+01    1.462994e+00
  1.665763e+01    1.494035e+00
  1.668938e+01    1.461095e+00
  1.672114e+01    1.476974e+00
  1.675289e+01    1.438590e+00
  1.678464e+01    1.427242e+00
  1.681639e+01    1.434000e+00
  1.684814e+01    1.434253e+00
  1.687989e+01    1.416463e+00
  1.691164e+01    1.414793e+00
  1.694339e+01    1.409649e+00
  1.697514e+01    1.426526e+00
  1.700690e+01    1.396624e+00
  1.703865e+01    1.398788e+00
  1.707040e+01    1.400564e+00
  1.710215e+01    1.400286e+00
  1.713390e+01    1.412908e+00
  1.716565e+01    1.380460e+00
  1.719740e+01    1.420832e+00
  1.722915e+01    1.392162e+00
  1.726091e+01    1.371343e+00
  1.729266e+01    1.370014e+00
  1.732441e+01    1.381786e+00
  1.735616e+01    1.373269e+00
  1.738791e+01    1.352808e+00
  1.741966e+01    1.347899e+00
  1.745141e+01    1.344503e+00
  1.748316e+01    1.357693e+00
  1.751491e+01    1.332389e+00
  1.754667e+01    1.328181e+00
  1.757842e+01    1.326232e+00
  1.761017e+01    1.346588e+00
  1.764192e+01    1.355172e+00
  1.767367e+01    1.325644e+00
  1.770542e+01    1.321966e+00
  1.773717e+01    1.302931e+00
  1.776892e+01    1.315345e+00
  1.780067e+01    1.309808e+00
  1.783243e+01    1.287331e+00
  1.786418e+01    1.273466e+00
  1.789593e+01    1.249139e+00
  1.792768e+01    1.284072e+00
  1.795943e+01    1.271669e+00
  1.799118e+01    1.306142e+00
  1.802293e+01    1.268461e+00
  1.805468e+01    1.254335e+00
  1.808643e+01    1.286002e+00
  1.811819e+01    1.268648e+00
  1.814994e+01    1.284215e+00
  1.818169e+01    1.271770e+00
  1.821344e+01    1.242540e+00
  1.824519e+01    1.280893e+00
  1.827694e+01    1.255412e+00
  1.830869e+01    1.266176e+00
  1.834044e+01    1.229919e+00
  1.837220e+01    1.248600e+00
  1.840395e+01    1.240311e+00
  1.843570e+01    1.252217e+00
  1.846745e+01    1.202897e+00
  1.849920e+01    1.230493e+00
  1.853095e+01    1.215007e+00
  1.856270e+01    1.204947e+00
  1.859445e+01    1.203693e+00
  1.862620e+01    1.218754e+00
  1.865796e+01    1.226847e+00
  1.868971e+01    1.197102e+00
  1.872146e+01    1.227274e+00
  1.875321e+01    1.212289e+00
  1.878496e+01    1.196042e+00
  1.881671e+01    1.202433e+00
  1.884846e+01    1.167032e+00
  1.888021e+01    1.198589e+00
  1.891196e+01    1.182370e+00
  1.894372e+01    1.193834e+00
  1.897547e+01    1.179253e+00
  1.900722e+01    1.204401e+00
  1.903897e+01    1.183065e+00
  1.907072e+01    1.188289e+00
  1.910247e+01    1.176049e+00
  1.913422e+01    1.152227e+00
  1.916597e+01    1.162093e+00
  1.919773e+01    1.165576e+00
  1.922948e+01    1.144470e+00
  1.926123e+01    1.157416e+00
  1.929298e+01    1.175197e+00
  1.932473e+01    1.180010e+00
  1.935648e+01    1.181942e+00
  1.938823e+01    1.153572e+00
  1.941998e+01    1.124780e+00
  1.945173e+01    1.163639e+00
  1.948349e+01    1.153247e+00
  1.951524e+01    1.156235e+00
  1.954699e+01    1.136998e+00
  1.957874e+01    1.119043e+00
  1.961049e+01    1.169135e+00
  1.964224e+01    1.145168e+00
  1.967399e+01    1.134796e+00
  1.970574e+01    1.116208e+00
  1.973749e+01    1.128943e+00
  1.976925e+01    1.111013e+00
  1.980100e+01    1.116038e+00
  1.983275e+01    1.139501e+00
  1.986450e+01    1.087763e+00
  1.989625e+01    1.106362e+00
  1.992800e+01    1.124864e+00
  1.995975e+01    1.107673e+00
  1.999150e+01    1.091953e+00
  2.002325e+01    1.109761e+00
  2.005501e+01    1.091071e+00
  2.008676e+01    1.092790e+00
  2.011851e+01    1.087791e+00
  2.015026e+01    1.070105e+00
  2.018201e+01    1.091216e+00
  2.021376e+01    1.077485e+00
  2.024551e+01    1.090369e+00
  2.027726e+01    1.084026e+00
  2.030902e+01    1.074214e+00
  2.034077e+01    1.110201e+00
  2.037252e+01    1.064054e+00
  2.040427e+01    1.082010e+00
  2.043602e+01    1.119732e+00
  2.046777e+01    1.064664e+00
  2.049952e+01    1.066252e+00
  2.053127e+01    1.072465e+00
  2.056302e+01    1.086647e+00
  2.059478e+01    1.074154e+00
  2.062653e+01    1.067924e+00
  2.065828e+01    1.058749e+00
  2.069003e+01    1.056811e+00
  2.072178e+01    1.049577e+00
  2.075353e+01    1.074408e+00
  2.078528e+01    1.074082e+00
  2.081703e+01    1.063958e+00
  2.084878e+01    1.073733e+00
  2.088054e+01    1.069813e+00
  2.091229e+01    1.070197e+00
  2.094404e+01    1.035938e+00
  2.097579e+01    1.083818e+00
  2.100754e+01    1.047696e+00
  2.103929e+01    1.053241e+00
  2.107104e+01    1.047271e+00
  2.110279e+01    1.047777e+00
  2.113455e+01    1.060357e+00
  2.116630e+01    1.076089e+00
  2.119805e+01    1.063825e+00
  2.122980e+01    1.089423e+00
  2.126155e+01    1.098087e+00
  2.129330e+01    1.095211e+00
  2.132505e+01    1.112848e+00
  2.135680e+01    1.142225e+00
  2.138855e+01    1.131135e+00
  2.142031e+01    1.181410e+00
  2.145206e+01    1.220150e+00
  2.148381e+01    1.255990e+00
  2.151556e+01    1.298272e+00
  2.154731e+01    1.362815e+00
  2.157906e+01    1.427011e+00
  2.161081e+01    1.583477e+00
  2.164256e+01    1.774540e+00
  2.167431e+01    2.126710e+00
  2.170607e+01    2.482743e+00
  2.173782e+01    3.163248e+00
  2.176957e+01    4.137392e+00
  2.180132e+01    5.465122e+00
  2.183307e+01    6.895057e+00
  2.186482e+01    8.375329e+00
  2.189657e+01    9.459205e+00
  2.192832e+01    9.241123e+00
  2.196007e+01    7.674906e+00
  2.199183e+01    5.620992e+00
  2.202358e+01    4.043424e+00
  2.205533e+01    3.060415e+00
  2.208708e+01    2.396610e+00
  2.211883e+01    2.007448e+00
  2.215058e+01    1.731974e+00
  2.218233e+01    1.530404e+00
  2.221408e+01    1.420937e+00
  2.224584e+01    1.298516e+00
  2.227759e+01    1.246536e+00
  2.230934e+01    1.196662e+00
  2.234109e+01    1.160059e+00
  2.237284e+01    1.079855e+00
  2.240459e+01    1.078479e+00
  2.243634e+01    1.071621e+00
  2.246809e+01    1.057872e+00
  2.249984e+01    1.026816e+00
  2.253160e+01    1.000694e+00
  2.256335e+01    9.958263e-01
  2.259510e+01    9.533274e-01
  2.262685e+01    9.692669e-01
  2.265860e+01    9.622697e-01
  2.269035e+01    9.374391e-01
  2.272210e+01    9.494196e-01
  2.275385e+01    9.338075e-01
  2.278560e+01    9.138369e-01
  2.281736e+01    9.519487e-01
  2.284911e+01    8.989612e-01
  2.288086e+01    9.196320e-01
  2.291261e+01    9.083270e-01
  2.294436e+01    8.821895e-01
  2.297611e+01    9.073417e-01
  2.300786e+01    9.045962e-01
  2.303961e+01    8.860826e-01
  2.307137e+01    8.978924e-01
  2.310312e+01    8.949382e-01
  2.313487e+01    8.747364e-01
  2.316662e+01    8.544756e-01
  2.319837e+01    8.604470e-01
  2.323012e+01    8.784448e-01
  2.326187e+01    8.710197e-01
  2.329362e+01    8.614449e-01
  2.332537e+01    8.494171e-01
  2.335713e+01    8.505985e-01
  2.338888e+01    8.488551e-01
  2.342063e+01    8.456904e-01
  2.345238e+01    8.505983e-01
  2.348413e+01    8.365270e-01
  2.351588e+01    8.445336e-01
  2.354763e+01    8.594316e-01
  2.357938e+01    8.406982e-01
  2.361113e+01    8.234258e-01
  2.364289e+01    8.481932e-01
  2.367464e+01    8.278303e-01
  2.370639e+01    8.056312e-01
  2.373814e+01    8.195649e-01
  2.376989e+01    7.919680e-01
  2.380164e+01    8.037059e-01
  2.383339e+01    7.915738e-01
  2.386514e+01    7.924160e-01
  2.389689e+01    7.925414e-01
  2.392865e+01    7.858258e-01
  2.396040e+01    7.909777e-01
  2.399215e+01    7.878258e-01
  2.402390e+01    7.885738e-01
  2.405565e+01    7.894472e-01
  2.408740e+01    7.807758e-01
  2.411915e+01    7.520697e-01
  2.415090e+01    7.703926e-01
  2.418266e+01    7.795151e-01
  2.421441e+01    7.623628e-01
  2.424616e+01    7.550285e-01
  2.427791e+01    7.629700e-01
  2.430966e+01    7.763814e-01
  2.434141e+01    7.763649e-01
  2.437316e+01    7.782629e-01
  2.440491e+01    7.792156e-01
  2.443666e+01    7.739688e-01
  2.446842e+01    7.887219e-01
  2.450017e+01    7.724654e-01
  2.453192e+01    7.548878e-01
  2.456367e+01    7.597483e-01
  2.459542e+01    7.863644e-01
  2.462717e+01    7.814257e-01
  2.465892e+01    7.874459e-01
  2.469067e+01    7.763222e-01
  2.472242e+01    7.938775e-01
  2.475418e+01    7.828376e-01
  2.478593e+01    7.707981e-01
  2.481768e+01    7.715712e-01
  2.484943e+01    7.809863e-01
  2.488118e+01    7.848763e-01
  2.491293e+01    7.751830e-01
  2.494468e+01    7.972882e-01
  2.497643e+01    7.830936e-01
  2.500819e+01    7.938025e-01
  2.503994e+01    8.242154e-01
  2.507169e+01    7.991100e-01
  2.510344e+01    7.975150e-01
  2.513519e+01    7.893866e-01
  2.516694e+01    8.228651e-01
  2.519869e+01    8.160964e-01
  2.523044e+01    8.351166e-01
  2.526219e+01    8.447693e-01
  2.529395e+01    8.427720e-01
  2.532570e+01    8.769738e-01
  2.535745e+01    8.730691e-01
  2.538920e+01    8.772031e-01
  2.542095e+01    9.039922e-01
  2.545270e+01    9.399700e-01
  2.548445e+01    9.661847e-01
  2.551620e+01    9.653539e-01
  2.554795e+01    1.004298e+00
  2.557971e+01    1.056514e+00
  2.561146e+01    1.122391e+00
  2.564321e+01    1.201295e+00
  2.567496e+01    1.283108e+00
  2.570671e+01    1.479753e+00
  2.573846e+01    1.705291e+00
  2.577021e+01    2.039246e+00
  2.580196e+01    2.534083e+00
  2.583371e+01    3.305953e+00
  2.586547e+01    4.313102e+00
  2.589722e+01    5.544926e+00
  2.592897e+01    6.916461e+00
  2.596072e+01    7.777549e+00
  2.599247e+01    7.676372e+00
  2.602422e+01    6.438996e+00
  2.605597e+01    4.890861e+00
  2.608772e+01    3.526900e+00
  2.611948e+01    2.671003e+00
  2.615123e+01    2.114552e+00
  2.618298e+01    1.793882e+00
  2.621473e+01    1.527827e+00
  2.624648e+01    1.363391e+00
  2.627823e+01    1.236762e+00
  2.630998e+01    1.137284e+00
  2.634173e+01    1.054070e+00
  2.637348e+01    1.022318e+00
  2.640524e+01    9.952254e-01
  2.643699e+01    9.529105e-01
  2.646874e+01    9.542153e-01
  2.650049e+01    9.462993e-01
  2.653224e+01    9.311120e-01
  2.656399e+01    9.008404e-01
  2.659574e+01    9.031569e-01
  2.662749e+01    8.983275e-01
  2.665924e+01    8.738151e-01
  2.669100e+01    8.975716e-01
  2.672275e+01    8.969876e-01
  2.675450e+01    8.977495e-01
  2.678625e+01    8.960730e-01
  2.681800e+01    8.962294e-01
  2.684975e+01    9.022259e-01
  2.688150e+01    9.045452e-01
  2.691325e+01    9.099637e-01
  2.694501e+01    9.292734e-01
  2.697676e+01    9.595407e-01
  2.700851e+01    1.016177e+00
  2.704026e+01    1.080122e+00
  2.707201e+01    1.190496e+00
  2.710376e+01    1.342703e+00
  2.713551e+01    1.585196e+00
  2.716726e+01    1.914149e+00
  2.719901e+01    2.190690e+00
  2.723077e+01    2.321039e+00
  2.726252e+01    2.215691e+00
  2.729427e+01    1.911793e+00
  2.732602e+01    1.557828e+00
  2.735777e+01    1.286158e+00
  2.738952e+01    1.183627e+00
  2.742127e+01    1.074722e+00
  2.745302e+01    9.872959e-01
  2.748477e+01    9.226249e-01
  2.751653e+01    8.820550e-01
  2.754828e+01    8.871754e-01
  2.758003e+01    8.470302e-01
  2.761178e+01    8.365001e-01
  2.764353e+01    8.551716e-01
  2.767528e+01    8.217063e-01
  2.770703e+01    8.101779e-01
  2.773878e+01    8.084986e-01
  2.777054e+01    8.072107e-01
  2.780229e+01    8.099048e-01
  2.783404e+01    7.952443e-01
  2.786579e+01    8.027044e-01
  2.789754e+01    7.814798e-01
  2.792929e+01    7.726740e-01
  2.796104e+01    7.887446e-01
  2.799279e+01    7.608383e-01
  2.802454e+01    7.812591e-01
  2.805630e+01    7.899606e-01
  2.808805e+01    7.824351e-01
  2.811980e+01    7.733472e-01
  2.815155e+01    7.752375e-01
  2.818330e+01    7.611731e-01
  2.821505e+01    7.813458e-01
  2.824680e+01    7.628468e-01
  2.827855e+01    7.532184e-01
  2.831030e+01    7.638330e-01
  2.834206e+01    7.476652e-01
  2.837381e+01    7.425544e-01
  2.840556e+01    7.588309e-01
  2.843731e+01    7.606042e-01
  2.846906e+01    7.626914e-01
  2.850081e+01    7.656929e-01
  2.853256e+01    7.414016e-01
  2.856431e+01    7.487822e-01
  2.859606e+01    7.531526e-01
  2.862782e+01    7.317656e-01
  2.865957e+01    7.279453e-01
  2.869132e+01    7.448441e-01
  2.872307e+01    7.401917e-01
  2.875482e+01    7.145593e-01
  2.878657e+01    7.251815e-01
  2.881832e+01    7.368540e-01
  2.885007e+01    7.262874e-01
  2.888183e+01    7.219377e-01
  2.891358e+01    7.341938e-01
  2.894533e+01    7.496956e-01
  2.897708e+01    7.197428e-01
  2.900883e+01    7.328508e-01
  2.904058e+01    7.305077e-01
  2.907233e+01    7.279078e-01
  2.910408e+01    7.280761e-01
  2.913583e+01    7.438089e-01
  2.916759e+01    7.221625e-01
  2.919934e+01    7.232392e-01
  2.923109e+01    7.202272e-01
  2.926284e+01    7.372743e-01
  2.929459e+01    7.119243e-01
  2.932634e+01    7.151884e-01
  2.935809e+01    7.520682e-01
  2.938984e+01    6.853204e-01
  2.942159e+01    7.054341e-01
  2.945335e+01    7.316921e-01
  2.948510e+01    7.236113e-01
  2.951685e+01    7.256893e-01
  2.954860e+01    6.922329e-01
  2.958035e+01    7.059401e-01
  2.961210e+01    7.389013e-01
  2.964385e+01    7.350798e-01
  2.967560e+01    7.034964e-01
  2.970736e+01    7.119938e-01
  2.973911e+01    7.102826e-01
  2.977086e+01    7.339530e-01
  2.980261e+01    7.040830e-01
  2.983436e+01    7.156722e-01
  2.986611e+01    7.080864e-01
  2.989786e+01    7.152308e-01
  2.992961e+01    7.186036e-01
  2.996136e+01    7.099648e-01
  2.999312e+01    7.206963e-01
  3.002487e+01    7.217805e-01
  3.005662e+01    7.222605e-01
  3.008837e+01    6.984512e-01
  3.012012e+01    7.050683e-01
  3.015187e+01    7.218273e-01
  3.018362e+01    6.862412e-01
  3.021537e+01    6.939058e-01
  3.024712e+01    7.066673e-01
  3.027888e+01    7.037974e-01
  3.031063e+01    7.050391e-01
  3.034238e+01    7.104813e-01
  3.037413e+01    7.066022e-01
  3.040588e+01    7.143320e-01
  3.043763e+01    6.800631e-01
  3.046938e+01    7.117728e-01
  3.050113e+01    6.988930e-01
  3.053288e+01    6.999841e-01
  3.056464e+01    6.913532e-01
  3.059639e+01    6.986355e-01
  3.062814e+01    6.956920e-01
  3.065989e+01    7.102109e-01
  3.069164e+01    7.162607e-01
  3.072339e+01    7.204521e-01
  3.075514e+01    7.039919e-01
  3.078689e+01    6.972642e-01
  3.081865e+01    6.976108e-01
  3.085040e+01    6.986125e-01
  3.088215e+01    7.195304e-01
  3.091390e+01    6.921279e-01
  3.094565e+01    7.154017e-01
  3.097740e+01    7.008703e-01
  3.100915e+01    7.000175e-01
  3.104090e+01    7.160207e-01
  3.107265e+01    7.102746e-01
  3.110441e+01    7.015981e-01
  3.113616e+01    7.241490e-01
  3.116791e+01    7.501388e-01
  3.119966e+01    7.367079e-01
  3.123141e+01    7.334998e-01
  3.126316e+01    7.292519e-01
  3.129491e+01    7.385698e-01
  3.132666e+01    7.352864e-01
  3.135841e+01    7.154242e-01
  3.139017e+01    7.184703e-01
  3.142192e+01    7.525458e-01
  3.145367e+01    7.520930e-01
  3.148542e+01    7.389584e-01
  3.151717e+01    7.685569e-01
  3.154892e+01    7.737209e-01
  3.158067e+01    7.711229e-01
  3.161242e+01    8.326921e-01
  3.164418e+01    8.276116e-01
  3.167593e+01    9.043832e-01
  3.170768e+01    9.657591e-01
  3.173943e+01    1.036211e+00
  3.177118e+01    1.154374e+00
  3.180293e+01    1.355934e+00
  3.183468e+01    1.596190e+00
  3.186643e+01    1.936560e+00
  3.189818e+01    2.207838e+00
  3.192994e+01    2.291605e+00
  3.196169e+01    2.105739e+00
  3.199344e+01    1.829001e+00
  3.202519e+01    1.446062e+00
  3.205694e+01    1.237871e+00
  3.208869e+01    1.064295e+00
  3.212044e+01    9.682249e-01
  3.215219e+01    9.101421e-01
  3.218394e+01    8.206627e-01
  3.221570e+01    8.393728e-01
  3.224745e+01    7.624706e-01
  3.227920e+01    7.821723e-01
  3.231095e+01    7.786238e-01
  3.234270e+01    7.419639e-01
  3.237445e+01    7.566028e-01
  3.240620e+01    7.137659e-01
  3.243795e+01    7.151941e-01
  3.246970e+01    7.215940e-01
  3.250146e+01    7.153968e-01
  3.253321e+01    6.913114e-01
  3.254908e+01    6.958395e-01