File: XRD/Activation ramp/2024-07-27_002_Ru-CGO-ex_Activtation_ramp_000002_data_000146.dat
# == pyFAI calibration ==
# Distance Sample to Detector: 0.4 m
# PONI: 9.750e-02, 1.135e-01 m
# Rotations: -0.000175 0.000000 -0.000000 rad
#
# == Fit2d calibration ==
# Distance Sample-beamCenter: 400.000 mm
# Center: x=1514.000, y=1300.000 pix
# Tilt: 0.010 deg  TiltPlanRot: 0.010 deg
#
# Detector Detector	 Spline= None	 PixelSize= 7.500e-05, 7.500e-05 m
#    Detector has a mask: False
#    Detector has a dark current: False
#    detector has a flat field: False
#
# Wavelength: 6.888e-11 m
# Mask applied: user provided
# Dark current applied: False
# Flat field applied: False
# Polarization factor: 0.99
# Normalization factor: 1.0
# --> /home/myspot/data/2024_07_Rosario/Ru-CGO-ex/2024-07-27_002_Ru-CGO-ex_Activtation_ramp_000002_data_000146.dat
#       q_nm^-1             I
  2.003187e-02    0.000000e+00
  5.178302e-02    2.671064e-02
  8.353417e-02    7.259813e-02
  1.152853e-01    5.930258e-02
  1.470365e-01    3.956344e-02
  1.787876e-01    8.666954e-02
  2.105388e-01    6.530764e-03
  2.422899e-01    2.053316e-02
  2.740411e-01    8.919606e-02
  3.057922e-01    5.545685e-02
  3.375433e-01    2.699662e-02
  3.692945e-01    3.390704e-02
  4.010456e-01    3.304136e-02
  4.327968e-01    2.411041e-02
  4.645479e-01    3.551297e-02
  4.962991e-01    7.995681e-02
  5.280502e-01    4.028298e-02
  5.598014e-01    5.944214e-02
  5.915525e-01    5.221647e-02
  6.233037e-01    4.654562e-02
  6.550548e-01    5.055873e-02
  6.868060e-01    5.166695e-02
  7.185571e-01    4.649205e-02
  7.503083e-01    3.329341e-02
  7.820594e-01    1.005517e-01
  8.138106e-01    2.121991e-01
  8.455617e-01    2.934409e-01
  8.773129e-01    3.671031e-01
  9.090640e-01    6.104754e-01
  9.408152e-01    7.368550e-01
  9.725663e-01    9.529858e-01
  1.004317e+00    9.691281e-01
  1.036069e+00    1.092164e+00
  1.067820e+00    1.280202e+00
  1.099571e+00    1.477039e+00
  1.131322e+00    1.395185e+00
  1.163073e+00    1.408515e+00
  1.194824e+00    1.629903e+00
  1.226575e+00    1.812407e+00
  1.258327e+00    2.266576e+00
  1.290078e+00    2.430818e+00
  1.321829e+00    2.540378e+00
  1.353580e+00    2.594486e+00
  1.385331e+00    2.646176e+00
  1.417082e+00    2.689379e+00
  1.448834e+00    2.671624e+00
  1.480585e+00    2.889678e+00
  1.512336e+00    2.643065e+00
  1.544087e+00    2.756736e+00
  1.575838e+00    2.874365e+00
  1.607589e+00    2.884688e+00
  1.639340e+00    2.949617e+00
  1.671092e+00    2.883796e+00
  1.702843e+00    2.786756e+00
  1.734594e+00    2.685635e+00
  1.766345e+00    2.673425e+00
  1.798096e+00    2.721161e+00
  1.829847e+00    2.692864e+00
  1.861598e+00    2.703256e+00
  1.893350e+00    2.738097e+00
  1.925101e+00    2.734860e+00
  1.956852e+00    2.610817e+00
  1.988603e+00    2.697408e+00
  2.020354e+00    2.604304e+00
  2.052105e+00    2.766330e+00
  2.083856e+00    2.553737e+00
  2.115608e+00    2.678051e+00
  2.147359e+00    2.777827e+00
  2.179110e+00    2.665300e+00
  2.210861e+00    2.769387e+00
  2.242612e+00    2.763949e+00
  2.274363e+00    2.730918e+00
  2.306115e+00    2.802382e+00
  2.337866e+00    2.790933e+00
  2.369617e+00    2.691584e+00
  2.401368e+00    2.751470e+00
  2.433119e+00    2.659904e+00
  2.464870e+00    2.750860e+00
  2.496621e+00    2.702911e+00
  2.528373e+00    2.845920e+00
  2.560124e+00    2.710172e+00
  2.591875e+00    2.755911e+00
  2.623626e+00    2.877417e+00
  2.655377e+00    2.858059e+00
  2.687128e+00    2.790534e+00
  2.718879e+00    2.654952e+00
  2.750631e+00    2.757791e+00
  2.782382e+00    2.781976e+00
  2.814133e+00    2.767921e+00
  2.845884e+00    2.830629e+00
  2.877635e+00    2.839296e+00
  2.909386e+00    2.847596e+00
  2.941137e+00    2.811400e+00
  2.972889e+00    2.889873e+00
  3.004640e+00    2.939229e+00
  3.036391e+00    2.871500e+00
  3.068142e+00    2.921958e+00
  3.099893e+00    2.889338e+00
  3.131644e+00    2.921949e+00
  3.163395e+00    2.926312e+00
  3.195147e+00    2.917852e+00
  3.226898e+00    2.897810e+00
  3.258649e+00    2.899346e+00
  3.290400e+00    2.903954e+00
  3.322151e+00    2.919878e+00
  3.353902e+00    2.893292e+00
  3.385654e+00    2.897077e+00
  3.417405e+00    2.908415e+00
  3.449156e+00    2.901523e+00
  3.480907e+00    2.940756e+00
  3.512658e+00    2.958109e+00
  3.544409e+00    2.999176e+00
  3.576160e+00    2.930412e+00
  3.607912e+00    3.049654e+00
  3.639663e+00    2.967783e+00
  3.671414e+00    2.929446e+00
  3.703165e+00    2.962229e+00
  3.734916e+00    3.095913e+00
  3.766667e+00    2.985159e+00
  3.798418e+00    2.930789e+00
  3.830170e+00    2.999340e+00
  3.861921e+00    3.000858e+00
  3.893672e+00    3.115789e+00
  3.925423e+00    2.992379e+00
  3.957174e+00    3.003886e+00
  3.988925e+00    3.049777e+00
  4.020676e+00    3.004524e+00
  4.052428e+00    3.009959e+00
  4.084179e+00    3.004037e+00
  4.115930e+00    3.068478e+00
  4.147681e+00    2.986341e+00
  4.179432e+00    3.027675e+00
  4.211183e+00    3.096430e+00
  4.242935e+00    2.934726e+00
  4.274686e+00    3.018252e+00
  4.306437e+00    3.040486e+00
  4.338188e+00    3.061240e+00
  4.369939e+00    3.007902e+00
  4.401690e+00    3.025822e+00
  4.433441e+00    3.071879e+00
  4.465193e+00    2.958122e+00
  4.496944e+00    3.111113e+00
  4.528695e+00    3.130764e+00
  4.560446e+00    3.041435e+00
  4.592197e+00    3.111654e+00
  4.623948e+00    2.977109e+00
  4.655699e+00    3.130609e+00
  4.687451e+00    3.100075e+00
  4.719202e+00    3.113436e+00
  4.750953e+00    3.109354e+00
  4.782704e+00    3.130708e+00
  4.814455e+00    3.109513e+00
  4.846206e+00    3.053137e+00
  4.877957e+00    3.081547e+00
  4.909709e+00    3.230380e+00
  4.941460e+00    3.120457e+00
  4.973211e+00    3.099450e+00
  5.004962e+00    3.116776e+00
  5.036713e+00    3.112470e+00
  5.068464e+00    3.065166e+00
  5.100216e+00    3.143540e+00
  5.131967e+00    3.108506e+00
  5.163718e+00    3.179912e+00
  5.195469e+00    3.098065e+00
  5.227220e+00    3.156856e+00
  5.258971e+00    3.172961e+00
  5.290722e+00    3.108003e+00
  5.322474e+00    3.116916e+00
  5.354225e+00    3.104375e+00
  5.385976e+00    3.177695e+00
  5.417727e+00    3.151115e+00
  5.449478e+00    3.043508e+00
  5.481229e+00    3.043268e+00
  5.512980e+00    3.129515e+00
  5.544732e+00    3.073285e+00
  5.576483e+00    3.078577e+00
  5.608234e+00    3.118233e+00
  5.639985e+00    3.030391e+00
  5.671736e+00    3.077783e+00
  5.703487e+00    3.028730e+00
  5.735238e+00    3.054621e+00
  5.766990e+00    3.066565e+00
  5.798741e+00    3.101304e+00
  5.830492e+00    3.055958e+00
  5.862243e+00    3.054794e+00
  5.893994e+00    3.051680e+00
  5.925745e+00    2.944380e+00
  5.957497e+00    3.008479e+00
  5.989248e+00    2.989948e+00
  6.020999e+00    3.006483e+00
  6.052750e+00    3.091635e+00
  6.084501e+00    2.966414e+00
  6.116252e+00    3.172313e+00
  6.148003e+00    3.152034e+00
  6.179755e+00    3.121639e+00
  6.211506e+00    3.055346e+00
  6.243257e+00    3.046010e+00
  6.275008e+00    3.092379e+00
  6.306759e+00    3.011363e+00
  6.338510e+00    3.016521e+00
  6.370261e+00    3.028549e+00
  6.402013e+00    3.076203e+00
  6.433764e+00    3.060845e+00
  6.465515e+00    3.050269e+00
  6.497266e+00    2.978317e+00
  6.529017e+00    3.071192e+00
  6.560768e+00    3.045975e+00
  6.592519e+00    3.046533e+00
  6.624271e+00    3.065744e+00
  6.656022e+00    3.047318e+00
  6.687773e+00    3.061874e+00
  6.719524e+00    3.066821e+00
  6.751275e+00    3.020751e+00
  6.783026e+00    3.046447e+00
  6.814777e+00    3.024264e+00
  6.846529e+00    3.009659e+00
  6.878280e+00    3.081757e+00
  6.910031e+00    2.998958e+00
  6.941782e+00    3.010377e+00
  6.973533e+00    3.026402e+00
  7.005284e+00    2.992036e+00
  7.037036e+00    3.041636e+00
  7.068787e+00    2.976887e+00
  7.100538e+00    2.979828e+00
  7.132289e+00    2.988641e+00
  7.164040e+00    2.987299e+00
  7.195791e+00    2.987876e+00
  7.227542e+00    2.942096e+00
  7.259294e+00    2.989552e+00
  7.291045e+00    2.969132e+00
  7.322796e+00    3.008752e+00
  7.354547e+00    2.995137e+00
  7.386298e+00    3.056117e+00
  7.418049e+00    2.954334e+00
  7.449800e+00    2.961298e+00
  7.481552e+00    2.964653e+00
  7.513303e+00    3.007102e+00
  7.545054e+00    2.948699e+00
  7.576805e+00    2.988271e+00
  7.608556e+00    2.938827e+00
  7.640307e+00    2.982845e+00
  7.672058e+00    2.992633e+00
  7.703810e+00    2.943063e+00
  7.735561e+00    2.882547e+00
  7.767312e+00    2.918974e+00
  7.799063e+00    2.978237e+00
  7.830814e+00    2.914319e+00
  7.862565e+00    2.916313e+00
  7.894317e+00    2.975134e+00
  7.926068e+00    3.002596e+00
  7.957819e+00    2.862029e+00
  7.989570e+00    2.900192e+00
  8.021321e+00    2.961585e+00
  8.053072e+00    2.882130e+00
  8.084823e+00    2.947317e+00
  8.116575e+00    2.969244e+00
  8.148326e+00    3.031203e+00
  8.180077e+00    3.004745e+00
  8.211828e+00    3.014406e+00
  8.243579e+00    2.978698e+00
  8.275330e+00    2.944937e+00
  8.307081e+00    2.906123e+00
  8.338833e+00    2.893612e+00
  8.370584e+00    2.869407e+00
  8.402335e+00    2.912179e+00
  8.434086e+00    2.838248e+00
  8.465837e+00    2.898413e+00
  8.497588e+00    2.860874e+00
  8.529339e+00    2.856528e+00
  8.561091e+00    2.877854e+00
  8.592842e+00    2.877180e+00
  8.624593e+00    2.858106e+00
  8.656344e+00    2.841130e+00
  8.688095e+00    2.866162e+00
  8.719846e+00    2.885462e+00
  8.751598e+00    2.945167e+00
  8.783349e+00    2.846158e+00
  8.815100e+00    2.855844e+00
  8.846851e+00    2.839682e+00
  8.878602e+00    2.834690e+00
  8.910353e+00    2.816490e+00
  8.942104e+00    2.789737e+00
  8.973856e+00    2.763120e+00
  9.005607e+00    2.810965e+00
  9.037358e+00    2.804676e+00
  9.069109e+00    2.773939e+00
  9.100860e+00    2.830946e+00
  9.132611e+00    2.799009e+00
  9.164362e+00    2.859186e+00
  9.196114e+00    2.815162e+00
  9.227865e+00    2.811385e+00
  9.259616e+00    2.851780e+00
  9.291367e+00    2.781850e+00
  9.323118e+00    2.782840e+00
  9.354869e+00    2.706081e+00
  9.386620e+00    2.778436e+00
  9.418372e+00    2.795152e+00
  9.450123e+00    2.730960e+00
  9.481874e+00    2.739758e+00
  9.513625e+00    2.765495e+00
  9.545376e+00    2.797719e+00
  9.577127e+00    2.755359e+00
  9.608878e+00    2.702759e+00
  9.640630e+00    2.740830e+00
  9.672381e+00    2.772491e+00
  9.704132e+00    2.737010e+00
  9.735883e+00    2.765692e+00
  9.767634e+00    2.691012e+00
  9.799385e+00    2.669146e+00
  9.831137e+00    2.752759e+00
  9.862888e+00    2.664818e+00
  9.894639e+00    2.640988e+00
  9.926390e+00    2.657146e+00
  9.958141e+00    2.685622e+00
  9.989892e+00    2.593689e+00
  1.002164e+01    2.605016e+00
  1.005339e+01    2.623746e+00
  1.008515e+01    2.661524e+00
  1.011690e+01    2.675673e+00
  1.014865e+01    2.658422e+00
  1.018040e+01    2.677490e+00
  1.021215e+01    2.671587e+00
  1.024390e+01    2.615858e+00
  1.027565e+01    2.615637e+00
  1.030740e+01    2.644914e+00
  1.033915e+01    2.654061e+00
  1.037091e+01    2.606338e+00
  1.040266e+01    2.580539e+00
  1.043441e+01    2.624271e+00
  1.046616e+01    2.595084e+00
  1.049791e+01    2.543905e+00
  1.052966e+01    2.585576e+00
  1.056141e+01    2.593001e+00
  1.059316e+01    2.548466e+00
  1.062492e+01    2.549394e+00
  1.065667e+01    2.567447e+00
  1.068842e+01    2.549573e+00
  1.072017e+01    2.548163e+00
  1.075192e+01    2.573373e+00
  1.078367e+01    2.530049e+00
  1.081542e+01    2.497966e+00
  1.084717e+01    2.474123e+00
  1.087892e+01    2.517449e+00
  1.091068e+01    2.472459e+00
  1.094243e+01    2.494978e+00
  1.097418e+01    2.499430e+00
  1.100593e+01    2.496879e+00
  1.103768e+01    2.536887e+00
  1.106943e+01    2.492365e+00
  1.110118e+01    2.467205e+00
  1.113293e+01    2.486212e+00
  1.116468e+01    2.448158e+00
  1.119644e+01    2.506838e+00
  1.122819e+01    2.477725e+00
  1.125994e+01    2.447945e+00
  1.129169e+01    2.489569e+00
  1.132344e+01    2.461328e+00
  1.135519e+01    2.438591e+00
  1.138694e+01    2.417965e+00
  1.141869e+01    2.432672e+00
  1.145045e+01    2.389055e+00
  1.148220e+01    2.417948e+00
  1.151395e+01    2.424469e+00
  1.154570e+01    2.402939e+00
  1.157745e+01    2.363052e+00
  1.160920e+01    2.390656e+00
  1.164095e+01    2.355426e+00
  1.167270e+01    2.367158e+00
  1.170445e+01    2.390833e+00
  1.173621e+01    2.356536e+00
  1.176796e+01    2.361971e+00
  1.179971e+01    2.371258e+00
  1.183146e+01    2.366170e+00
  1.186321e+01    2.391992e+00
  1.189496e+01    2.331720e+00
  1.192671e+01    2.324037e+00
  1.195846e+01    2.313769e+00
  1.199021e+01    2.313029e+00
  1.202197e+01    2.294473e+00
  1.205372e+01    2.364335e+00
  1.208547e+01    2.315627e+00
  1.211722e+01    2.300788e+00
  1.214897e+01    2.324088e+00
  1.218072e+01    2.320743e+00
  1.221247e+01    2.326407e+00
  1.224422e+01    2.319082e+00
  1.227597e+01    2.326569e+00
  1.230773e+01    2.277400e+00
  1.233948e+01    2.316625e+00
  1.237123e+01    2.305187e+00
  1.240298e+01    2.317693e+00
  1.243473e+01    2.348582e+00
  1.246648e+01    2.323833e+00
  1.249823e+01    2.332795e+00
  1.252998e+01    2.359080e+00
  1.256174e+01    2.389832e+00
  1.259349e+01    2.422837e+00
  1.262524e+01    2.385358e+00
  1.265699e+01    2.414184e+00
  1.268874e+01    2.463824e+00
  1.272049e+01    2.472524e+00
  1.275224e+01    2.548273e+00
  1.278399e+01    2.613317e+00
  1.281574e+01    2.740309e+00
  1.284750e+01    2.789201e+00
  1.287925e+01    3.048234e+00
  1.291100e+01    3.296012e+00
  1.294275e+01    3.720965e+00
  1.297450e+01    4.381299e+00
  1.300625e+01    5.311541e+00
  1.303800e+01    7.106542e+00
  1.306975e+01    9.538607e+00
  1.310150e+01    1.212590e+01
  1.313326e+01    1.441122e+01
  1.316501e+01    1.637369e+01
  1.319676e+01    1.641250e+01
  1.322851e+01    1.336373e+01
  1.326026e+01    9.626251e+00
  1.329201e+01    6.891352e+00
  1.332376e+01    5.299469e+00
  1.335551e+01    4.254593e+00
  1.338727e+01    3.619890e+00
  1.341902e+01    3.256929e+00
  1.345077e+01    2.932422e+00
  1.348252e+01    2.768855e+00
  1.351427e+01    2.628672e+00
  1.354602e+01    2.503708e+00
  1.357777e+01    2.399980e+00
  1.360952e+01    2.363073e+00
  1.364127e+01    2.287623e+00
  1.367303e+01    2.247508e+00
  1.370478e+01    2.243679e+00
  1.373653e+01    2.234599e+00
  1.376828e+01    2.145395e+00
  1.380003e+01    2.154984e+00
  1.383178e+01    2.155841e+00
  1.386353e+01    2.103781e+00
  1.389528e+01    2.102719e+00
  1.392703e+01    2.090511e+00
  1.395879e+01    2.143278e+00
  1.399054e+01    2.055840e+00
  1.402229e+01    2.081023e+00
  1.405404e+01    2.006541e+00
  1.408579e+01    2.051162e+00
  1.411754e+01    1.995685e+00
  1.414929e+01    1.969533e+00
  1.418104e+01    2.007749e+00
  1.421279e+01    1.985862e+00
  1.424455e+01    2.007990e+00
  1.427630e+01    1.984220e+00
  1.430805e+01    1.965248e+00
  1.433980e+01    1.942656e+00
  1.437155e+01    1.931828e+00
  1.440330e+01    1.931041e+00
  1.443505e+01    1.940730e+00
  1.446680e+01    1.948958e+00
  1.449856e+01    1.884071e+00
  1.453031e+01    1.951367e+00
  1.456206e+01    1.921692e+00
  1.459381e+01    1.883540e+00
  1.462556e+01    1.957336e+00
  1.465731e+01    1.986097e+00
  1.468906e+01    1.929712e+00
  1.472081e+01    1.900250e+00
  1.475256e+01    1.871297e+00
  1.478432e+01    1.875451e+00
  1.481607e+01    1.898511e+00
  1.484782e+01    1.888921e+00
  1.487957e+01    1.916197e+00
  1.491132e+01    1.996814e+00
  1.494307e+01    1.947485e+00
  1.497482e+01    2.074177e+00
  1.500657e+01    2.145117e+00
  1.503832e+01    2.312616e+00
  1.507008e+01    2.544761e+00
  1.510183e+01    2.853992e+00
  1.513358e+01    3.455377e+00
  1.516533e+01    4.159917e+00
  1.519708e+01    4.836744e+00
  1.522883e+01    5.401456e+00
  1.526058e+01    5.777154e+00
  1.529233e+01    5.498862e+00
  1.532409e+01    4.759380e+00
  1.535584e+01    3.725185e+00
  1.538759e+01    3.017246e+00
  1.541934e+01    2.598170e+00
  1.545109e+01    2.271547e+00
  1.548284e+01    2.115270e+00
  1.551459e+01    2.015492e+00
  1.554634e+01    1.943462e+00
  1.557809e+01    1.870731e+00
  1.560985e+01    1.803562e+00
  1.564160e+01    1.818995e+00
  1.567335e+01    1.746081e+00
  1.570510e+01    1.706764e+00
  1.573685e+01    1.746494e+00
  1.576860e+01    1.706773e+00
  1.580035e+01    1.674146e+00
  1.583210e+01    1.676830e+00
  1.586385e+01    1.646457e+00
  1.589561e+01    1.675534e+00
  1.592736e+01    1.654403e+00
  1.595911e+01    1.651509e+00
  1.599086e+01    1.643740e+00
  1.602261e+01    1.574242e+00
  1.605436e+01    1.596292e+00
  1.608611e+01    1.605713e+00
  1.611786e+01    1.582069e+00
  1.614961e+01    1.586747e+00
  1.618137e+01    1.582651e+00
  1.621312e+01    1.562309e+00
  1.624487e+01    1.521721e+00
  1.627662e+01    1.512341e+00
  1.630837e+01    1.587289e+00
  1.634012e+01    1.550756e+00
  1.637187e+01    1.530899e+00
  1.640362e+01    1.550428e+00
  1.643538e+01    1.462636e+00
  1.646713e+01    1.522538e+00
  1.649888e+01    1.513669e+00
  1.653063e+01    1.537926e+00
  1.656238e+01    1.499125e+00
  1.659413e+01    1.496644e+00
  1.662588e+01    1.512935e+00
  1.665763e+01    1.491287e+00
  1.668938e+01    1.490955e+00
  1.672114e+01    1.486087e+00
  1.675289e+01    1.467710e+00
  1.678464e+01    1.427270e+00
  1.681639e+01    1.464634e+00
  1.684814e+01    1.452456e+00
  1.687989e+01    1.443082e+00
  1.691164e+01    1.430958e+00
  1.694339e+01    1.394090e+00
  1.697514e+01    1.407228e+00
  1.700690e+01    1.458724e+00
  1.703865e+01    1.470931e+00
  1.707040e+01    1.430620e+00
  1.710215e+01    1.440468e+00
  1.713390e+01    1.392441e+00
  1.716565e+01    1.428528e+00
  1.719740e+01    1.417419e+00
  1.722915e+01    1.391609e+00
  1.726091e+01    1.401685e+00
  1.729266e+01    1.385067e+00
  1.732441e+01    1.396864e+00
  1.735616e+01    1.398353e+00
  1.738791e+01    1.385404e+00
  1.741966e+01    1.394426e+00
  1.745141e+01    1.353853e+00
  1.748316e+01    1.386971e+00
  1.751491e+01    1.340994e+00
  1.754667e+01    1.347595e+00
  1.757842e+01    1.336227e+00
  1.761017e+01    1.329775e+00
  1.764192e+01    1.347894e+00
  1.767367e+01    1.323073e+00
  1.770542e+01    1.343547e+00
  1.773717e+01    1.327434e+00
  1.776892e+01    1.327337e+00
  1.780067e+01    1.326682e+00
  1.783243e+01    1.311746e+00
  1.786418e+01    1.309817e+00
  1.789593e+01    1.293446e+00
  1.792768e+01    1.315282e+00
  1.795943e+01    1.325782e+00
  1.799118e+01    1.333511e+00
  1.802293e+01    1.312426e+00
  1.805468e+01    1.311850e+00
  1.808643e+01    1.292535e+00
  1.811819e+01    1.292128e+00
  1.814994e+01    1.270522e+00
  1.818169e+01    1.287309e+00
  1.821344e+01    1.287696e+00
  1.824519e+01    1.295960e+00
  1.827694e+01    1.297474e+00
  1.830869e+01    1.263711e+00
  1.834044e+01    1.252192e+00
  1.837220e+01    1.255437e+00
  1.840395e+01    1.258231e+00
  1.843570e+01    1.248035e+00
  1.846745e+01    1.241537e+00
  1.849920e+01    1.273071e+00
  1.853095e+01    1.252288e+00
  1.856270e+01    1.258060e+00
  1.859445e+01    1.240911e+00
  1.862620e+01    1.210264e+00
  1.865796e+01    1.223944e+00
  1.868971e+01    1.226388e+00
  1.872146e+01    1.222383e+00
  1.875321e+01    1.216163e+00
  1.878496e+01    1.231105e+00
  1.881671e+01    1.235640e+00
  1.884846e+01    1.200987e+00
  1.888021e+01    1.209539e+00
  1.891196e+01    1.237113e+00
  1.894372e+01    1.221573e+00
  1.897547e+01    1.181664e+00
  1.900722e+01    1.231627e+00
  1.903897e+01    1.195970e+00
  1.907072e+01    1.178467e+00
  1.910247e+01    1.201608e+00
  1.913422e+01    1.170115e+00
  1.916597e+01    1.206893e+00
  1.919773e+01    1.192930e+00
  1.922948e+01    1.174951e+00
  1.926123e+01    1.201047e+00
  1.929298e+01    1.173065e+00
  1.932473e+01    1.180234e+00
  1.935648e+01    1.176581e+00
  1.938823e+01    1.167232e+00
  1.941998e+01    1.177427e+00
  1.945173e+01    1.163711e+00
  1.948349e+01    1.149546e+00
  1.951524e+01    1.194311e+00
  1.954699e+01    1.132703e+00
  1.957874e+01    1.135475e+00
  1.961049e+01    1.161459e+00
  1.964224e+01    1.138137e+00
  1.967399e+01    1.157293e+00
  1.970574e+01    1.101350e+00
  1.973749e+01    1.150897e+00
  1.976925e+01    1.160417e+00
  1.980100e+01    1.118227e+00
  1.983275e+01    1.106754e+00
  1.986450e+01    1.105319e+00
  1.989625e+01    1.128171e+00
  1.992800e+01    1.141787e+00
  1.995975e+01    1.095936e+00
  1.999150e+01    1.111757e+00
  2.002325e+01    1.092814e+00
  2.005501e+01    1.137410e+00
  2.008676e+01    1.120304e+00
  2.011851e+01    1.120960e+00
  2.015026e+01    1.104272e+00
  2.018201e+01    1.108001e+00
  2.021376e+01    1.109359e+00
  2.024551e+01    1.082674e+00
  2.027726e+01    1.099793e+00
  2.030902e+01    1.093139e+00
  2.034077e+01    1.086116e+00
  2.037252e+01    1.092097e+00
  2.040427e+01    1.099879e+00
  2.043602e+01    1.102836e+00
  2.046777e+01    1.088530e+00
  2.049952e+01    1.085131e+00
  2.053127e+01    1.072180e+00
  2.056302e+01    1.099719e+00
  2.059478e+01    1.078573e+00
  2.062653e+01    1.082945e+00
  2.065828e+01    1.096573e+00
  2.069003e+01    1.073977e+00
  2.072178e+01    1.100170e+00
  2.075353e+01    1.100710e+00
  2.078528e+01    1.074184e+00
  2.081703e+01    1.100802e+00
  2.084878e+01    1.064391e+00
  2.088054e+01    1.072811e+00
  2.091229e+01    1.073366e+00
  2.094404e+01    1.075142e+00
  2.097579e+01    1.084429e+00
  2.100754e+01    1.061683e+00
  2.103929e+01    1.080703e+00
  2.107104e+01    1.078181e+00
  2.110279e+01    1.095382e+00
  2.113455e+01    1.077841e+00
  2.116630e+01    1.101124e+00
  2.119805e+01    1.107912e+00
  2.122980e+01    1.113880e+00
  2.126155e+01    1.087084e+00
  2.129330e+01    1.119387e+00
  2.132505e+01    1.124298e+00
  2.135680e+01    1.129428e+00
  2.138855e+01    1.163356e+00
  2.142031e+01    1.237529e+00
  2.145206e+01    1.225535e+00
  2.148381e+01    1.243074e+00
  2.151556e+01    1.300822e+00
  2.154731e+01    1.369311e+00
  2.157906e+01    1.457742e+00
  2.161081e+01    1.599698e+00
  2.164256e+01    1.811827e+00
  2.167431e+01    2.110804e+00
  2.170607e+01    2.537771e+00
  2.173782e+01    3.266023e+00
  2.176957e+01    4.259769e+00
  2.180132e+01    5.471615e+00
  2.183307e+01    6.923637e+00
  2.186482e+01    8.380639e+00
  2.189657e+01    9.180368e+00
  2.192832e+01    8.816579e+00
  2.196007e+01    7.080682e+00
  2.199183e+01    5.224515e+00
  2.202358e+01    3.736598e+00
  2.205533e+01    2.878494e+00
  2.208708e+01    2.336776e+00
  2.211883e+01    1.931771e+00
  2.215058e+01    1.717189e+00
  2.218233e+01    1.515026e+00
  2.221408e+01    1.405450e+00
  2.224584e+01    1.285883e+00
  2.227759e+01    1.224344e+00
  2.230934e+01    1.205424e+00
  2.234109e+01    1.136595e+00
  2.237284e+01    1.098907e+00
  2.240459e+01    1.080418e+00
  2.243634e+01    1.066401e+00
  2.246809e+01    1.025900e+00
  2.249984e+01    1.018618e+00
  2.253160e+01    1.013900e+00
  2.256335e+01    9.831191e-01
  2.259510e+01    9.878563e-01
  2.262685e+01    9.533458e-01
  2.265860e+01    9.590545e-01
  2.269035e+01    9.679104e-01
  2.272210e+01    9.643004e-01
  2.275385e+01    9.411022e-01
  2.278560e+01    9.462039e-01
  2.281736e+01    9.298657e-01
  2.284911e+01    9.432363e-01
  2.288086e+01    9.028758e-01
  2.291261e+01    9.178962e-01
  2.294436e+01    8.852609e-01
  2.297611e+01    8.801288e-01
  2.300786e+01    8.962328e-01
  2.303961e+01    9.009039e-01
  2.307137e+01    8.957167e-01
  2.310312e+01    8.935086e-01
  2.313487e+01    8.900020e-01
  2.316662e+01    8.816313e-01
  2.319837e+01    8.872073e-01
  2.323012e+01    8.794096e-01
  2.326187e+01    8.671963e-01
  2.329362e+01    8.731638e-01
  2.332537e+01    8.803113e-01
  2.335713e+01    8.566328e-01
  2.338888e+01    8.425466e-01
  2.342063e+01    8.305328e-01
  2.345238e+01    8.463145e-01
  2.348413e+01    8.378680e-01
  2.351588e+01    8.641041e-01
  2.354763e+01    8.136756e-01
  2.357938e+01    8.440518e-01
  2.361113e+01    8.539782e-01
  2.364289e+01    8.470785e-01
  2.367464e+01    8.413711e-01
  2.370639e+01    8.436466e-01
  2.373814e+01    8.221415e-01
  2.376989e+01    8.216402e-01
  2.380164e+01    8.187539e-01
  2.383339e+01    7.984752e-01
  2.386514e+01    8.058522e-01
  2.389689e+01    8.025085e-01
  2.392865e+01    8.073274e-01
  2.396040e+01    8.031748e-01
  2.399215e+01    7.889383e-01
  2.402390e+01    7.884909e-01
  2.405565e+01    7.718043e-01
  2.408740e+01    7.826365e-01
  2.411915e+01    7.797980e-01
  2.415090e+01    7.800882e-01
  2.418266e+01    7.808708e-01
  2.421441e+01    7.625495e-01
  2.424616e+01    7.743962e-01
  2.427791e+01    7.774513e-01
  2.430966e+01    7.933410e-01
  2.434141e+01    7.866234e-01
  2.437316e+01    7.897878e-01
  2.440491e+01    8.039095e-01
  2.443666e+01    7.841389e-01
  2.446842e+01    8.072096e-01
  2.450017e+01    8.025374e-01
  2.453192e+01    7.951843e-01
  2.456367e+01    7.980319e-01
  2.459542e+01    7.794982e-01
  2.462717e+01    7.858750e-01
  2.465892e+01    7.918817e-01
  2.469067e+01    7.873019e-01
  2.472242e+01    7.670591e-01
  2.475418e+01    7.847098e-01
  2.478593e+01    7.946573e-01
  2.481768e+01    7.892339e-01
  2.484943e+01    7.733659e-01
  2.488118e+01    7.949970e-01
  2.491293e+01    8.190050e-01
  2.494468e+01    8.028155e-01
  2.497643e+01    7.819993e-01
  2.500819e+01    7.815619e-01
  2.503994e+01    8.086649e-01
  2.507169e+01    8.141227e-01
  2.510344e+01    8.069958e-01
  2.513519e+01    8.116691e-01
  2.516694e+01    8.092306e-01
  2.519869e+01    8.315455e-01
  2.523044e+01    8.515444e-01
  2.526219e+01    8.311501e-01
  2.529395e+01    8.621796e-01
  2.532570e+01    8.600374e-01
  2.535745e+01    8.922086e-01
  2.538920e+01    9.063140e-01
  2.542095e+01    9.110317e-01
  2.545270e+01    9.563747e-01
  2.548445e+01    9.724131e-01
  2.551620e+01    9.781528e-01
  2.554795e+01    9.970326e-01
  2.557971e+01    1.072104e+00
  2.561146e+01    1.131045e+00
  2.564321e+01    1.218468e+00
  2.567496e+01    1.313462e+00
  2.570671e+01    1.492403e+00
  2.573846e+01    1.714106e+00
  2.577021e+01    2.106354e+00
  2.580196e+01    2.640833e+00
  2.583371e+01    3.385981e+00
  2.586547e+01    4.466270e+00
  2.589722e+01    5.652186e+00
  2.592897e+01    6.844757e+00
  2.596072e+01    7.511383e+00
  2.599247e+01    7.194765e+00
  2.602422e+01    5.947891e+00
  2.605597e+01    4.443671e+00
  2.608772e+01    3.247785e+00
  2.611948e+01    2.484737e+00
  2.615123e+01    1.966698e+00
  2.618298e+01    1.651983e+00
  2.621473e+01    1.450621e+00
  2.624648e+01    1.288506e+00
  2.627823e+01    1.213603e+00
  2.630998e+01    1.137947e+00
  2.634173e+01    1.053055e+00
  2.637348e+01    1.010734e+00
  2.640524e+01    9.696349e-01
  2.643699e+01    9.532614e-01
  2.646874e+01    9.247442e-01
  2.650049e+01    9.340820e-01
  2.653224e+01    9.394828e-01
  2.656399e+01    9.120330e-01
  2.659574e+01    8.896362e-01
  2.662749e+01    9.047793e-01
  2.665924e+01    8.868724e-01
  2.669100e+01    8.958922e-01
  2.672275e+01    8.803612e-01
  2.675450e+01    8.913498e-01
  2.678625e+01    8.629765e-01
  2.681800e+01    8.777513e-01
  2.684975e+01    9.042196e-01
  2.688150e+01    8.994611e-01
  2.691325e+01    9.217146e-01
  2.694501e+01    9.348422e-01
  2.697676e+01    9.831800e-01
  2.700851e+01    1.010641e+00
  2.704026e+01    1.114043e+00
  2.707201e+01    1.246441e+00
  2.710376e+01    1.381919e+00
  2.713551e+01    1.605931e+00
  2.716726e+01    1.918923e+00
  2.719901e+01    2.135659e+00
  2.723077e+01    2.216971e+00
  2.726252e+01    2.080516e+00
  2.729427e+01    1.787191e+00
  2.732602e+01    1.458163e+00
  2.735777e+01    1.273570e+00
  2.738952e+01    1.112720e+00
  2.742127e+01    1.027974e+00
  2.745302e+01    9.767833e-01
  2.748477e+01    9.311165e-01
  2.751653e+01    9.263384e-01
  2.754828e+01    8.865819e-01
  2.758003e+01    8.671488e-01
  2.761178e+01    8.697269e-01
  2.764353e+01    8.147350e-01
  2.767528e+01    8.297934e-01
  2.770703e+01    8.120342e-01
  2.773878e+01    8.111506e-01
  2.777054e+01    7.995019e-01
  2.780229e+01    8.128851e-01
  2.783404e+01    8.068603e-01
  2.786579e+01    7.955830e-01
  2.789754e+01    7.922524e-01
  2.792929e+01    8.112153e-01
  2.796104e+01    8.077343e-01
  2.799279e+01    7.971919e-01
  2.802454e+01    7.711060e-01
  2.805630e+01    7.921585e-01
  2.808805e+01    7.745932e-01
  2.811980e+01    7.748507e-01
  2.815155e+01    7.960207e-01
  2.818330e+01    7.650763e-01
  2.821505e+01    7.656067e-01
  2.824680e+01    7.634441e-01
  2.827855e+01    7.693617e-01
  2.831030e+01    7.649618e-01
  2.834206e+01    7.746282e-01
  2.837381e+01    7.619358e-01
  2.840556e+01    7.534727e-01
  2.843731e+01    7.478658e-01
  2.846906e+01    7.419933e-01
  2.850081e+01    7.299743e-01
  2.853256e+01    7.426590e-01
  2.856431e+01    7.531704e-01
  2.859606e+01    7.589573e-01
  2.862782e+01    7.546429e-01
  2.865957e+01    7.589142e-01
  2.869132e+01    7.388202e-01
  2.872307e+01    7.453048e-01
  2.875482e+01    7.468519e-01
  2.878657e+01    7.455643e-01
  2.881832e+01    7.483636e-01
  2.885007e+01    7.369505e-01
  2.888183e+01    7.381985e-01
  2.891358e+01    7.315047e-01
  2.894533e+01    7.237862e-01
  2.897708e+01    7.379975e-01
  2.900883e+01    7.262923e-01
  2.904058e+01    7.366000e-01
  2.907233e+01    7.531114e-01
  2.910408e+01    7.337995e-01
  2.913583e+01    7.405221e-01
  2.916759e+01    7.538406e-01
  2.919934e+01    7.279058e-01
  2.923109e+01    7.065319e-01
  2.926284e+01    7.105843e-01
  2.929459e+01    7.290292e-01
  2.932634e+01    7.416645e-01
  2.935809e+01    7.213511e-01
  2.938984e+01    7.225877e-01
  2.942159e+01    7.153205e-01
  2.945335e+01    7.182834e-01
  2.948510e+01    7.127025e-01
  2.951685e+01    7.238631e-01
  2.954860e+01    7.031417e-01
  2.958035e+01    7.270029e-01
  2.961210e+01    7.211758e-01
  2.964385e+01    7.086606e-01
  2.967560e+01    7.229269e-01
  2.970736e+01    7.220289e-01
  2.973911e+01    7.397791e-01
  2.977086e+01    7.190995e-01
  2.980261e+01    7.133420e-01
  2.983436e+01    7.236956e-01
  2.986611e+01    7.057986e-01
  2.989786e+01    7.249518e-01
  2.992961e+01    7.013384e-01
  2.996136e+01    7.292355e-01
  2.999312e+01    7.187522e-01
  3.002487e+01    7.210433e-01
  3.005662e+01    7.354355e-01
  3.008837e+01    7.281516e-01
  3.012012e+01    7.116933e-01
  3.015187e+01    6.994272e-01
  3.018362e+01    7.429457e-01
  3.021537e+01    7.057127e-01
  3.024712e+01    7.026491e-01
  3.027888e+01    7.067446e-01
  3.031063e+01    7.034785e-01
  3.034238e+01    7.320523e-01
  3.037413e+01    7.013487e-01
  3.040588e+01    7.081516e-01
  3.043763e+01    7.190175e-01
  3.046938e+01    7.051706e-01
  3.050113e+01    7.094867e-01
  3.053288e+01    7.154669e-01
  3.056464e+01    7.077711e-01
  3.059639e+01    7.040626e-01
  3.062814e+01    7.171336e-01
  3.065989e+01    7.254878e-01
  3.069164e+01    7.240420e-01
  3.072339e+01    7.123544e-01
  3.075514e+01    7.169691e-01
  3.078689e+01    7.048534e-01
  3.081865e+01    7.286162e-01
  3.085040e+01    6.926514e-01
  3.088215e+01    7.181718e-01
  3.091390e+01    7.181473e-01
  3.094565e+01    7.140572e-01
  3.097740e+01    7.086407e-01
  3.100915e+01    7.249638e-01
  3.104090e+01    7.162567e-01
  3.107265e+01    7.340388e-01
  3.110441e+01    7.302450e-01
  3.113616e+01    7.226363e-01
  3.116791e+01    7.164435e-01
  3.119966e+01    7.357668e-01
  3.123141e+01    7.166654e-01
  3.126316e+01    7.175820e-01
  3.129491e+01    7.399765e-01
  3.132666e+01    7.472232e-01
  3.135841e+01    7.150454e-01
  3.139017e+01    7.524051e-01
  3.142192e+01    7.521034e-01
  3.145367e+01    7.551695e-01
  3.148542e+01    7.674050e-01
  3.151717e+01    7.681248e-01
  3.154892e+01    7.724456e-01
  3.158067e+01    7.825603e-01
  3.161242e+01    8.201238e-01
  3.164418e+01    8.473578e-01
  3.167593e+01    9.082050e-01
  3.170768e+01    9.646489e-01
  3.173943e+01    1.052845e+00
  3.177118e+01    1.151436e+00
  3.180293e+01    1.387072e+00
  3.183468e+01    1.652717e+00
  3.186643e+01    1.921116e+00
  3.189818e+01    2.133228e+00
  3.192994e+01    2.171271e+00
  3.196169e+01    2.005715e+00
  3.199344e+01    1.669172e+00
  3.202519e+01    1.392573e+00
  3.205694e+01    1.169138e+00
  3.208869e+01    1.028040e+00
  3.212044e+01    9.309083e-01
  3.215219e+01    8.733814e-01
  3.218394e+01    8.204240e-01
  3.221570e+01    8.168432e-01
  3.224745e+01    7.623150e-01
  3.227920e+01    7.667160e-01
  3.231095e+01    7.338706e-01
  3.234270e+01    7.497174e-01
  3.237445e+01    7.671899e-01
  3.240620e+01    7.204276e-01
  3.243795e+01    7.148659e-01
  3.246970e+01    7.219437e-01
  3.250146e+01    7.114984e-01
  3.253321e+01    6.950808e-01
  3.254908e+01    7.086017e-01