File: XRD/Activation ramp/2024-07-27_002_Ru-CGO-ex_Activtation_ramp_000002_data_000114.dat
# == pyFAI calibration ==
# Distance Sample to Detector: 0.4 m
# PONI: 9.750e-02, 1.135e-01 m
# Rotations: -0.000175 0.000000 -0.000000 rad
#
# == Fit2d calibration ==
# Distance Sample-beamCenter: 400.000 mm
# Center: x=1514.000, y=1300.000 pix
# Tilt: 0.010 deg  TiltPlanRot: 0.010 deg
#
# Detector Detector	 Spline= None	 PixelSize= 7.500e-05, 7.500e-05 m
#    Detector has a mask: False
#    Detector has a dark current: False
#    detector has a flat field: False
#
# Wavelength: 6.888e-11 m
# Mask applied: user provided
# Dark current applied: False
# Flat field applied: False
# Polarization factor: 0.99
# Normalization factor: 1.0
# --> /home/myspot/data/2024_07_Rosario/Ru-CGO-ex/2024-07-27_002_Ru-CGO-ex_Activtation_ramp_000002_data_000114.dat
#       q_nm^-1             I
  2.003187e-02    2.195909e-01
  5.178302e-02    7.388126e-02
  8.353417e-02    2.995875e-02
  1.152853e-01    4.591928e-02
  1.470365e-01    8.626983e-02
  1.787876e-01    3.108660e-02
  2.105388e-01    1.369764e-02
  2.422899e-01    1.402389e-02
  2.740411e-01    4.619609e-02
  3.057922e-01    3.462438e-02
  3.375433e-01    6.793576e-02
  3.692945e-01    3.708297e-04
  4.010456e-01    4.267870e-02
  4.327968e-01    3.084704e-02
  4.645479e-01    5.420608e-02
  4.962991e-01    4.147929e-02
  5.280502e-01    1.980691e-02
  5.598014e-01    4.690860e-02
  5.915525e-01    3.572107e-02
  6.233037e-01    6.235314e-02
  6.550548e-01    5.868443e-02
  6.868060e-01    3.593352e-02
  7.185571e-01    2.552427e-02
  7.503083e-01    5.889273e-02
  7.820594e-01    9.970365e-02
  8.138106e-01    1.863680e-01
  8.455617e-01    2.494760e-01
  8.773129e-01    4.146714e-01
  9.090640e-01    5.800999e-01
  9.408152e-01    7.051419e-01
  9.725663e-01    1.017231e+00
  1.004317e+00    1.147733e+00
  1.036069e+00    1.107299e+00
  1.067820e+00    1.313118e+00
  1.099571e+00    1.367826e+00
  1.131322e+00    1.471896e+00
  1.163073e+00    1.439188e+00
  1.194824e+00    1.689517e+00
  1.226575e+00    2.180082e+00
  1.258327e+00    2.341027e+00
  1.290078e+00    2.454641e+00
  1.321829e+00    2.425353e+00
  1.353580e+00    2.599477e+00
  1.385331e+00    2.580503e+00
  1.417082e+00    2.470279e+00
  1.448834e+00    2.617627e+00
  1.480585e+00    2.812286e+00
  1.512336e+00    2.950865e+00
  1.544087e+00    2.884411e+00
  1.575838e+00    2.892605e+00
  1.607589e+00    2.848907e+00
  1.639340e+00    2.901893e+00
  1.671092e+00    2.806041e+00
  1.702843e+00    2.780829e+00
  1.734594e+00    2.784767e+00
  1.766345e+00    2.881033e+00
  1.798096e+00    2.799068e+00
  1.829847e+00    2.590540e+00
  1.861598e+00    2.794594e+00
  1.893350e+00    2.730995e+00
  1.925101e+00    2.756483e+00
  1.956852e+00    2.682838e+00
  1.988603e+00    2.710232e+00
  2.020354e+00    2.670232e+00
  2.052105e+00    2.674849e+00
  2.083856e+00    2.589424e+00
  2.115608e+00    2.723073e+00
  2.147359e+00    2.711962e+00
  2.179110e+00    2.785625e+00
  2.210861e+00    2.766057e+00
  2.242612e+00    2.674894e+00
  2.274363e+00    2.717110e+00
  2.306115e+00    2.751936e+00
  2.337866e+00    2.723927e+00
  2.369617e+00    2.756008e+00
  2.401368e+00    2.691845e+00
  2.433119e+00    2.762233e+00
  2.464870e+00    2.684556e+00
  2.496621e+00    2.714193e+00
  2.528373e+00    2.674371e+00
  2.560124e+00    2.806836e+00
  2.591875e+00    2.774684e+00
  2.623626e+00    2.756813e+00
  2.655377e+00    2.779408e+00
  2.687128e+00    2.736181e+00
  2.718879e+00    2.723234e+00
  2.750631e+00    2.753547e+00
  2.782382e+00    2.784221e+00
  2.814133e+00    2.707628e+00
  2.845884e+00    2.713289e+00
  2.877635e+00    2.814473e+00
  2.909386e+00    2.786700e+00
  2.941137e+00    2.858057e+00
  2.972889e+00    2.871009e+00
  3.004640e+00    2.835646e+00
  3.036391e+00    2.736120e+00
  3.068142e+00    2.794230e+00
  3.099893e+00    2.813419e+00
  3.131644e+00    2.893383e+00
  3.163395e+00    2.789391e+00
  3.195147e+00    2.903448e+00
  3.226898e+00    2.869414e+00
  3.258649e+00    2.908945e+00
  3.290400e+00    2.916752e+00
  3.322151e+00    2.911058e+00
  3.353902e+00    2.857965e+00
  3.385654e+00    2.831266e+00
  3.417405e+00    2.951710e+00
  3.449156e+00    2.941613e+00
  3.480907e+00    2.872819e+00
  3.512658e+00    2.890521e+00
  3.544409e+00    2.896105e+00
  3.576160e+00    2.948207e+00
  3.607912e+00    2.911189e+00
  3.639663e+00    2.920008e+00
  3.671414e+00    2.899606e+00
  3.703165e+00    2.961729e+00
  3.734916e+00    2.966076e+00
  3.766667e+00    2.882237e+00
  3.798418e+00    2.915216e+00
  3.830170e+00    2.972965e+00
  3.861921e+00    3.003530e+00
  3.893672e+00    2.968236e+00
  3.925423e+00    2.823875e+00
  3.957174e+00    3.065207e+00
  3.988925e+00    2.934119e+00
  4.020676e+00    3.014413e+00
  4.052428e+00    2.963659e+00
  4.084179e+00    2.986972e+00
  4.115930e+00    2.960035e+00
  4.147681e+00    2.931959e+00
  4.179432e+00    2.937115e+00
  4.211183e+00    2.989763e+00
  4.242935e+00    3.049661e+00
  4.274686e+00    3.009399e+00
  4.306437e+00    3.074036e+00
  4.338188e+00    3.004661e+00
  4.369939e+00    2.965165e+00
  4.401690e+00    2.934757e+00
  4.433441e+00    3.060706e+00
  4.465193e+00    3.013441e+00
  4.496944e+00    2.985885e+00
  4.528695e+00    3.030602e+00
  4.560446e+00    2.994889e+00
  4.592197e+00    3.038881e+00
  4.623948e+00    2.931909e+00
  4.655699e+00    3.014533e+00
  4.687451e+00    3.079031e+00
  4.719202e+00    3.062299e+00
  4.750953e+00    3.136576e+00
  4.782704e+00    2.999686e+00
  4.814455e+00    3.108733e+00
  4.846206e+00    3.051993e+00
  4.877957e+00    3.061244e+00
  4.909709e+00    3.105454e+00
  4.941460e+00    3.103402e+00
  4.973211e+00    2.993441e+00
  5.004962e+00    3.062794e+00
  5.036713e+00    3.102318e+00
  5.068464e+00    3.136807e+00
  5.100216e+00    3.095594e+00
  5.131967e+00    3.133387e+00
  5.163718e+00    3.085315e+00
  5.195469e+00    3.004476e+00
  5.227220e+00    3.060458e+00
  5.258971e+00    3.048833e+00
  5.290722e+00    3.015916e+00
  5.322474e+00    3.079106e+00
  5.354225e+00    3.096714e+00
  5.385976e+00    3.078694e+00
  5.417727e+00    3.123925e+00
  5.449478e+00    2.934301e+00
  5.481229e+00    2.987017e+00
  5.512980e+00    3.020624e+00
  5.544732e+00    3.042351e+00
  5.576483e+00    2.980805e+00
  5.608234e+00    3.075734e+00
  5.639985e+00    3.007091e+00
  5.671736e+00    3.123275e+00
  5.703487e+00    2.981454e+00
  5.735238e+00    3.117714e+00
  5.766990e+00    2.976100e+00
  5.798741e+00    2.889402e+00
  5.830492e+00    2.970446e+00
  5.862243e+00    2.954362e+00
  5.893994e+00    2.933956e+00
  5.925745e+00    2.964799e+00
  5.957497e+00    3.026680e+00
  5.989248e+00    2.958074e+00
  6.020999e+00    2.916258e+00
  6.052750e+00    3.014907e+00
  6.084501e+00    2.963654e+00
  6.116252e+00    3.011581e+00
  6.148003e+00    3.017364e+00
  6.179755e+00    3.037874e+00
  6.211506e+00    2.931013e+00
  6.243257e+00    2.993667e+00
  6.275008e+00    2.996793e+00
  6.306759e+00    2.977889e+00
  6.338510e+00    2.971158e+00
  6.370261e+00    3.061674e+00
  6.402013e+00    2.953895e+00
  6.433764e+00    3.076610e+00
  6.465515e+00    3.016078e+00
  6.497266e+00    3.012825e+00
  6.529017e+00    2.977657e+00
  6.560768e+00    2.978529e+00
  6.592519e+00    2.972521e+00
  6.624271e+00    2.888224e+00
  6.656022e+00    2.995823e+00
  6.687773e+00    3.012300e+00
  6.719524e+00    2.914494e+00
  6.751275e+00    2.985140e+00
  6.783026e+00    3.013386e+00
  6.814777e+00    2.922858e+00
  6.846529e+00    2.966761e+00
  6.878280e+00    2.972910e+00
  6.910031e+00    2.914035e+00
  6.941782e+00    2.972955e+00
  6.973533e+00    3.033672e+00
  7.005284e+00    2.912097e+00
  7.037036e+00    2.961064e+00
  7.068787e+00    2.921418e+00
  7.100538e+00    2.882173e+00
  7.132289e+00    2.852988e+00
  7.164040e+00    2.937596e+00
  7.195791e+00    2.990492e+00
  7.227542e+00    2.984819e+00
  7.259294e+00    2.927176e+00
  7.291045e+00    2.966028e+00
  7.322796e+00    2.975025e+00
  7.354547e+00    2.970146e+00
  7.386298e+00    2.907015e+00
  7.418049e+00    2.959800e+00
  7.449800e+00    2.923528e+00
  7.481552e+00    2.898070e+00
  7.513303e+00    2.951655e+00
  7.545054e+00    2.836744e+00
  7.576805e+00    2.950523e+00
  7.608556e+00    2.853062e+00
  7.640307e+00    2.957238e+00
  7.672058e+00    2.946838e+00
  7.703810e+00    2.918297e+00
  7.735561e+00    2.904303e+00
  7.767312e+00    2.842645e+00
  7.799063e+00    2.911120e+00
  7.830814e+00    2.849252e+00
  7.862565e+00    2.830651e+00
  7.894317e+00    2.924870e+00
  7.926068e+00    2.854820e+00
  7.957819e+00    2.848416e+00
  7.989570e+00    2.789893e+00
  8.021321e+00    2.903755e+00
  8.053072e+00    2.862088e+00
  8.084823e+00    2.869070e+00
  8.116575e+00    2.882744e+00
  8.148326e+00    2.870005e+00
  8.180077e+00    2.877983e+00
  8.211828e+00    2.909099e+00
  8.243579e+00    2.869965e+00
  8.275330e+00    2.818845e+00
  8.307081e+00    2.863630e+00
  8.338833e+00    2.826237e+00
  8.370584e+00    2.826878e+00
  8.402335e+00    2.870315e+00
  8.434086e+00    2.878634e+00
  8.465837e+00    2.896585e+00
  8.497588e+00    2.884272e+00
  8.529339e+00    2.740643e+00
  8.561091e+00    2.824749e+00
  8.592842e+00    2.826976e+00
  8.624593e+00    2.815281e+00
  8.656344e+00    2.794463e+00
  8.688095e+00    2.861382e+00
  8.719846e+00    2.815680e+00
  8.751598e+00    2.780560e+00
  8.783349e+00    2.809704e+00
  8.815100e+00    2.797440e+00
  8.846851e+00    2.819015e+00
  8.878602e+00    2.777073e+00
  8.910353e+00    2.743872e+00
  8.942104e+00    2.789413e+00
  8.973856e+00    2.783068e+00
  9.005607e+00    2.666300e+00
  9.037358e+00    2.778627e+00
  9.069109e+00    2.780070e+00
  9.100860e+00    2.752074e+00
  9.132611e+00    2.749164e+00
  9.164362e+00    2.765248e+00
  9.196114e+00    2.718808e+00
  9.227865e+00    2.758661e+00
  9.259616e+00    2.734405e+00
  9.291367e+00    2.635328e+00
  9.323118e+00    2.740331e+00
  9.354869e+00    2.772021e+00
  9.386620e+00    2.711786e+00
  9.418372e+00    2.759051e+00
  9.450123e+00    2.726588e+00
  9.481874e+00    2.718912e+00
  9.513625e+00    2.725913e+00
  9.545376e+00    2.742918e+00
  9.577127e+00    2.698980e+00
  9.608878e+00    2.714640e+00
  9.640630e+00    2.691478e+00
  9.672381e+00    2.738315e+00
  9.704132e+00    2.663156e+00
  9.735883e+00    2.638443e+00
  9.767634e+00    2.665667e+00
  9.799385e+00    2.644365e+00
  9.831137e+00    2.646094e+00
  9.862888e+00    2.578979e+00
  9.894639e+00    2.582947e+00
  9.926390e+00    2.599289e+00
  9.958141e+00    2.653718e+00
  9.989892e+00    2.631637e+00
  1.002164e+01    2.609030e+00
  1.005339e+01    2.665821e+00
  1.008515e+01    2.649352e+00
  1.011690e+01    2.577327e+00
  1.014865e+01    2.582982e+00
  1.018040e+01    2.624641e+00
  1.021215e+01    2.590604e+00
  1.024390e+01    2.555573e+00
  1.027565e+01    2.559818e+00
  1.030740e+01    2.578130e+00
  1.033915e+01    2.536954e+00
  1.037091e+01    2.518600e+00
  1.040266e+01    2.552485e+00
  1.043441e+01    2.492757e+00
  1.046616e+01    2.554795e+00
  1.049791e+01    2.557832e+00
  1.052966e+01    2.534782e+00
  1.056141e+01    2.564970e+00
  1.059316e+01    2.553556e+00
  1.062492e+01    2.523922e+00
  1.065667e+01    2.555427e+00
  1.068842e+01    2.521472e+00
  1.072017e+01    2.515516e+00
  1.075192e+01    2.506653e+00
  1.078367e+01    2.487051e+00
  1.081542e+01    2.537250e+00
  1.084717e+01    2.431667e+00
  1.087892e+01    2.456039e+00
  1.091068e+01    2.448434e+00
  1.094243e+01    2.439541e+00
  1.097418e+01    2.499852e+00
  1.100593e+01    2.479456e+00
  1.103768e+01    2.461684e+00
  1.106943e+01    2.443087e+00
  1.110118e+01    2.444358e+00
  1.113293e+01    2.416419e+00
  1.116468e+01    2.386670e+00
  1.119644e+01    2.447990e+00
  1.122819e+01    2.516750e+00
  1.125994e+01    2.396369e+00
  1.129169e+01    2.426983e+00
  1.132344e+01    2.415611e+00
  1.135519e+01    2.380667e+00
  1.138694e+01    2.371208e+00
  1.141869e+01    2.382288e+00
  1.145045e+01    2.380350e+00
  1.148220e+01    2.365158e+00
  1.151395e+01    2.365767e+00
  1.154570e+01    2.389542e+00
  1.157745e+01    2.363496e+00
  1.160920e+01    2.309975e+00
  1.164095e+01    2.342856e+00
  1.167270e+01    2.360502e+00
  1.170445e+01    2.363544e+00
  1.173621e+01    2.305135e+00
  1.176796e+01    2.318850e+00
  1.179971e+01    2.347710e+00
  1.183146e+01    2.327905e+00
  1.186321e+01    2.338934e+00
  1.189496e+01    2.274026e+00
  1.192671e+01    2.252112e+00
  1.195846e+01    2.284206e+00
  1.199021e+01    2.291400e+00
  1.202197e+01    2.288308e+00
  1.205372e+01    2.308403e+00
  1.208547e+01    2.275245e+00
  1.211722e+01    2.319879e+00
  1.214897e+01    2.268327e+00
  1.218072e+01    2.271495e+00
  1.221247e+01    2.272361e+00
  1.224422e+01    2.258485e+00
  1.227597e+01    2.310233e+00
  1.230773e+01    2.279547e+00
  1.233948e+01    2.272359e+00
  1.237123e+01    2.274549e+00
  1.240298e+01    2.277479e+00
  1.243473e+01    2.300803e+00
  1.246648e+01    2.303393e+00
  1.249823e+01    2.310685e+00
  1.252998e+01    2.332472e+00
  1.256174e+01    2.345850e+00
  1.259349e+01    2.383189e+00
  1.262524e+01    2.354280e+00
  1.265699e+01    2.407167e+00
  1.268874e+01    2.399515e+00
  1.272049e+01    2.474502e+00
  1.275224e+01    2.479943e+00
  1.278399e+01    2.572726e+00
  1.281574e+01    2.678277e+00
  1.284750e+01    2.788239e+00
  1.287925e+01    2.990072e+00
  1.291100e+01    3.228672e+00
  1.294275e+01    3.671843e+00
  1.297450e+01    4.287151e+00
  1.300625e+01    5.249728e+00
  1.303800e+01    6.920148e+00
  1.306975e+01    9.330569e+00
  1.310150e+01    1.198856e+01
  1.313326e+01    1.442832e+01
  1.316501e+01    1.669270e+01
  1.319676e+01    1.717062e+01
  1.322851e+01    1.450305e+01
  1.326026e+01    1.038696e+01
  1.329201e+01    7.395362e+00
  1.332376e+01    5.572906e+00
  1.335551e+01    4.401959e+00
  1.338727e+01    3.788809e+00
  1.341902e+01    3.266242e+00
  1.345077e+01    3.004331e+00
  1.348252e+01    2.824709e+00
  1.351427e+01    2.633768e+00
  1.354602e+01    2.468221e+00
  1.357777e+01    2.420501e+00
  1.360952e+01    2.372744e+00
  1.364127e+01    2.294975e+00
  1.367303e+01    2.219750e+00
  1.370478e+01    2.191254e+00
  1.373653e+01    2.184017e+00
  1.376828e+01    2.155798e+00
  1.380003e+01    2.121005e+00
  1.383178e+01    2.100727e+00
  1.386353e+01    2.102694e+00
  1.389528e+01    2.079574e+00
  1.392703e+01    2.014996e+00
  1.395879e+01    2.019193e+00
  1.399054e+01    2.037162e+00
  1.402229e+01    2.024198e+00
  1.405404e+01    1.992179e+00
  1.408579e+01    1.944637e+00
  1.411754e+01    2.020155e+00
  1.414929e+01    1.968367e+00
  1.418104e+01    1.945742e+00
  1.421279e+01    1.951134e+00
  1.424455e+01    1.972304e+00
  1.427630e+01    1.974915e+00
  1.430805e+01    1.933406e+00
  1.433980e+01    1.900101e+00
  1.437155e+01    1.915621e+00
  1.440330e+01    1.916689e+00
  1.443505e+01    1.876716e+00
  1.446680e+01    1.879681e+00
  1.449856e+01    1.899978e+00
  1.453031e+01    1.877783e+00
  1.456206e+01    1.887800e+00
  1.459381e+01    1.857682e+00
  1.462556e+01    1.874603e+00
  1.465731e+01    1.908400e+00
  1.468906e+01    1.869041e+00
  1.472081e+01    1.864377e+00
  1.475256e+01    1.877646e+00
  1.478432e+01    1.877633e+00
  1.481607e+01    1.882660e+00
  1.484782e+01    1.894557e+00
  1.487957e+01    1.908539e+00
  1.491132e+01    1.920677e+00
  1.494307e+01    1.932545e+00
  1.497482e+01    2.055433e+00
  1.500657e+01    2.114014e+00
  1.503832e+01    2.274075e+00
  1.507008e+01    2.433511e+00
  1.510183e+01    2.802816e+00
  1.513358e+01    3.396895e+00
  1.516533e+01    4.126990e+00
  1.519708e+01    4.827147e+00
  1.522883e+01    5.381603e+00
  1.526058e+01    5.891271e+00
  1.529233e+01    5.808986e+00
  1.532409e+01    5.036889e+00
  1.535584e+01    3.925417e+00
  1.538759e+01    3.171166e+00
  1.541934e+01    2.646783e+00
  1.545109e+01    2.329254e+00
  1.548284e+01    2.136134e+00
  1.551459e+01    1.995871e+00
  1.554634e+01    1.928700e+00
  1.557809e+01    1.840594e+00
  1.560985e+01    1.793630e+00
  1.564160e+01    1.793337e+00
  1.567335e+01    1.738275e+00
  1.570510e+01    1.716049e+00
  1.573685e+01    1.698301e+00
  1.576860e+01    1.652044e+00
  1.580035e+01    1.668417e+00
  1.583210e+01    1.659180e+00
  1.586385e+01    1.640628e+00
  1.589561e+01    1.594767e+00
  1.592736e+01    1.632066e+00
  1.595911e+01    1.585911e+00
  1.599086e+01    1.570856e+00
  1.602261e+01    1.597371e+00
  1.605436e+01    1.553381e+00
  1.608611e+01    1.569334e+00
  1.611786e+01    1.604830e+00
  1.614961e+01    1.562169e+00
  1.618137e+01    1.548446e+00
  1.621312e+01    1.539331e+00
  1.624487e+01    1.522984e+00
  1.627662e+01    1.527688e+00
  1.630837e+01    1.490734e+00
  1.634012e+01    1.511380e+00
  1.637187e+01    1.531103e+00
  1.640362e+01    1.539864e+00
  1.643538e+01    1.524249e+00
  1.646713e+01    1.496240e+00
  1.649888e+01    1.483420e+00
  1.653063e+01    1.475933e+00
  1.656238e+01    1.471591e+00
  1.659413e+01    1.477623e+00
  1.662588e+01    1.503897e+00
  1.665763e+01    1.465235e+00
  1.668938e+01    1.484018e+00
  1.672114e+01    1.461187e+00
  1.675289e+01    1.421577e+00
  1.678464e+01    1.443469e+00
  1.681639e+01    1.467236e+00
  1.684814e+01    1.408178e+00
  1.687989e+01    1.442082e+00
  1.691164e+01    1.436309e+00
  1.694339e+01    1.434012e+00
  1.697514e+01    1.441051e+00
  1.700690e+01    1.416776e+00
  1.703865e+01    1.412683e+00
  1.707040e+01    1.389441e+00
  1.710215e+01    1.407068e+00
  1.713390e+01    1.418556e+00
  1.716565e+01    1.402073e+00
  1.719740e+01    1.396221e+00
  1.722915e+01    1.368610e+00
  1.726091e+01    1.368227e+00
  1.729266e+01    1.389595e+00
  1.732441e+01    1.368219e+00
  1.735616e+01    1.375516e+00
  1.738791e+01    1.342677e+00
  1.741966e+01    1.390646e+00
  1.745141e+01    1.357861e+00
  1.748316e+01    1.350212e+00
  1.751491e+01    1.327837e+00
  1.754667e+01    1.359687e+00
  1.757842e+01    1.343200e+00
  1.761017e+01    1.310328e+00
  1.764192e+01    1.342240e+00
  1.767367e+01    1.307976e+00
  1.770542e+01    1.353848e+00
  1.773717e+01    1.299228e+00
  1.776892e+01    1.320438e+00
  1.780067e+01    1.329273e+00
  1.783243e+01    1.285226e+00
  1.786418e+01    1.319466e+00
  1.789593e+01    1.269165e+00
  1.792768e+01    1.291080e+00
  1.795943e+01    1.287845e+00
  1.799118e+01    1.315861e+00
  1.802293e+01    1.270279e+00
  1.805468e+01    1.286469e+00
  1.808643e+01    1.276443e+00
  1.811819e+01    1.270128e+00
  1.814994e+01    1.271534e+00
  1.818169e+01    1.247274e+00
  1.821344e+01    1.256387e+00
  1.824519e+01    1.247131e+00
  1.827694e+01    1.254016e+00
  1.830869e+01    1.239052e+00
  1.834044e+01    1.266378e+00
  1.837220e+01    1.240087e+00
  1.840395e+01    1.228691e+00
  1.843570e+01    1.239856e+00
  1.846745e+01    1.246815e+00
  1.849920e+01    1.260634e+00
  1.853095e+01    1.212584e+00
  1.856270e+01    1.223957e+00
  1.859445e+01    1.218917e+00
  1.862620e+01    1.216980e+00
  1.865796e+01    1.214840e+00
  1.868971e+01    1.225506e+00
  1.872146e+01    1.215927e+00
  1.875321e+01    1.185479e+00
  1.878496e+01    1.212187e+00
  1.881671e+01    1.223481e+00
  1.884846e+01    1.179416e+00
  1.888021e+01    1.203924e+00
  1.891196e+01    1.211594e+00
  1.894372e+01    1.188003e+00
  1.897547e+01    1.202795e+00
  1.900722e+01    1.183256e+00
  1.903897e+01    1.178092e+00
  1.907072e+01    1.190501e+00
  1.910247e+01    1.156986e+00
  1.913422e+01    1.169184e+00
  1.916597e+01    1.183610e+00
  1.919773e+01    1.168289e+00
  1.922948e+01    1.167873e+00
  1.926123e+01    1.166270e+00
  1.929298e+01    1.177406e+00
  1.932473e+01    1.170444e+00
  1.935648e+01    1.157549e+00
  1.938823e+01    1.155567e+00
  1.941998e+01    1.147950e+00
  1.945173e+01    1.155454e+00
  1.948349e+01    1.154299e+00
  1.951524e+01    1.116411e+00
  1.954699e+01    1.127120e+00
  1.957874e+01    1.139099e+00
  1.961049e+01    1.116948e+00
  1.964224e+01    1.126086e+00
  1.967399e+01    1.140234e+00
  1.970574e+01    1.107280e+00
  1.973749e+01    1.114229e+00
  1.976925e+01    1.108404e+00
  1.980100e+01    1.110570e+00
  1.983275e+01    1.123272e+00
  1.986450e+01    1.103725e+00
  1.989625e+01    1.097064e+00
  1.992800e+01    1.108929e+00
  1.995975e+01    1.085932e+00
  1.999150e+01    1.107973e+00
  2.002325e+01    1.123925e+00
  2.005501e+01    1.096675e+00
  2.008676e+01    1.099231e+00
  2.011851e+01    1.088572e+00
  2.015026e+01    1.078256e+00
  2.018201e+01    1.097832e+00
  2.021376e+01    1.054186e+00
  2.024551e+01    1.062102e+00
  2.027726e+01    1.065856e+00
  2.030902e+01    1.110227e+00
  2.034077e+01    1.089844e+00
  2.037252e+01    1.110235e+00
  2.040427e+01    1.068901e+00
  2.043602e+01    1.077053e+00
  2.046777e+01    1.077187e+00
  2.049952e+01    1.062770e+00
  2.053127e+01    1.077475e+00
  2.056302e+01    1.050503e+00
  2.059478e+01    1.078140e+00
  2.062653e+01    1.077937e+00
  2.065828e+01    1.084410e+00
  2.069003e+01    1.077652e+00
  2.072178e+01    1.013550e+00
  2.075353e+01    1.058095e+00
  2.078528e+01    1.084439e+00
  2.081703e+01    1.039191e+00
  2.084878e+01    1.069587e+00
  2.088054e+01    1.081608e+00
  2.091229e+01    1.067746e+00
  2.094404e+01    1.065339e+00
  2.097579e+01    1.060966e+00
  2.100754e+01    1.061021e+00
  2.103929e+01    1.089643e+00
  2.107104e+01    1.043753e+00
  2.110279e+01    1.057055e+00
  2.113455e+01    1.073933e+00
  2.116630e+01    1.089787e+00
  2.119805e+01    1.085049e+00
  2.122980e+01    1.077336e+00
  2.126155e+01    1.097669e+00
  2.129330e+01    1.101416e+00
  2.132505e+01    1.113272e+00
  2.135680e+01    1.136952e+00
  2.138855e+01    1.120520e+00
  2.142031e+01    1.155162e+00
  2.145206e+01    1.191143e+00
  2.148381e+01    1.203533e+00
  2.151556e+01    1.280636e+00
  2.154731e+01    1.363971e+00
  2.157906e+01    1.462132e+00
  2.161081e+01    1.582944e+00
  2.164256e+01    1.752457e+00
  2.167431e+01    2.034544e+00
  2.170607e+01    2.471517e+00
  2.173782e+01    3.126783e+00
  2.176957e+01    4.020249e+00
  2.180132e+01    5.291233e+00
  2.183307e+01    6.778134e+00
  2.186482e+01    8.283638e+00
  2.189657e+01    9.347904e+00
  2.192832e+01    9.344090e+00
  2.196007e+01    7.880174e+00
  2.199183e+01    5.786324e+00
  2.202358e+01    4.138557e+00
  2.205533e+01    3.134742e+00
  2.208708e+01    2.472681e+00
  2.211883e+01    2.006583e+00
  2.215058e+01    1.729109e+00
  2.218233e+01    1.553739e+00
  2.221408e+01    1.405685e+00
  2.224584e+01    1.313047e+00
  2.227759e+01    1.228469e+00
  2.230934e+01    1.186039e+00
  2.234109e+01    1.145401e+00
  2.237284e+01    1.083656e+00
  2.240459e+01    1.066778e+00
  2.243634e+01    1.065451e+00
  2.246809e+01    1.025363e+00
  2.249984e+01    1.006589e+00
  2.253160e+01    1.008690e+00
  2.256335e+01    9.826871e-01
  2.259510e+01    9.609725e-01
  2.262685e+01    9.686887e-01
  2.265860e+01    9.578190e-01
  2.269035e+01    9.496905e-01
  2.272210e+01    9.323277e-01
  2.275385e+01    9.348516e-01
  2.278560e+01    9.355506e-01
  2.281736e+01    9.215412e-01
  2.284911e+01    9.259346e-01
  2.288086e+01    9.094464e-01
  2.291261e+01    8.811265e-01
  2.294436e+01    8.773767e-01
  2.297611e+01    9.046304e-01
  2.300786e+01    8.978747e-01
  2.303961e+01    8.832400e-01
  2.307137e+01    8.885093e-01
  2.310312e+01    8.665105e-01
  2.313487e+01    8.623694e-01
  2.316662e+01    8.856237e-01
  2.319837e+01    8.619630e-01
  2.323012e+01    8.662257e-01
  2.326187e+01    8.667657e-01
  2.329362e+01    8.315527e-01
  2.332537e+01    8.559813e-01
  2.335713e+01    8.440748e-01
  2.338888e+01    8.276123e-01
  2.342063e+01    8.357272e-01
  2.345238e+01    8.328422e-01
  2.348413e+01    8.369567e-01
  2.351588e+01    8.283095e-01
  2.354763e+01    8.372343e-01
  2.357938e+01    8.398541e-01
  2.361113e+01    8.246186e-01
  2.364289e+01    8.381885e-01
  2.367464e+01    8.301886e-01
  2.370639e+01    8.180262e-01
  2.373814e+01    8.172490e-01
  2.376989e+01    7.945403e-01
  2.380164e+01    7.993625e-01
  2.383339e+01    8.009286e-01
  2.386514e+01    8.001015e-01
  2.389689e+01    7.944973e-01
  2.392865e+01    7.713911e-01
  2.396040e+01    7.874537e-01
  2.399215e+01    7.728291e-01
  2.402390e+01    7.754871e-01
  2.405565e+01    7.785898e-01
  2.408740e+01    7.956214e-01
  2.411915e+01    7.797652e-01
  2.415090e+01    7.827348e-01
  2.418266e+01    7.669426e-01
  2.421441e+01    7.688108e-01
  2.424616e+01    7.662807e-01
  2.427791e+01    7.779286e-01
  2.430966e+01    7.851763e-01
  2.434141e+01    7.713903e-01
  2.437316e+01    7.643719e-01
  2.440491e+01    7.781048e-01
  2.443666e+01    7.928985e-01
  2.446842e+01    8.218572e-01
  2.450017e+01    8.038543e-01
  2.453192e+01    7.780498e-01
  2.456367e+01    7.878894e-01
  2.459542e+01    7.790671e-01
  2.462717e+01    7.706985e-01
  2.465892e+01    7.649524e-01
  2.469067e+01    7.696815e-01
  2.472242e+01    7.701468e-01
  2.475418e+01    7.936862e-01
  2.478593e+01    7.911402e-01
  2.481768e+01    7.811755e-01
  2.484943e+01    7.888821e-01
  2.488118e+01    7.873308e-01
  2.491293e+01    7.882068e-01
  2.494468e+01    8.009269e-01
  2.497643e+01    7.761333e-01
  2.500819e+01    7.893021e-01
  2.503994e+01    7.856820e-01
  2.507169e+01    8.028814e-01
  2.510344e+01    7.922018e-01
  2.513519e+01    7.893922e-01
  2.516694e+01    8.071244e-01
  2.519869e+01    8.150373e-01
  2.523044e+01    8.336872e-01
  2.526219e+01    8.547016e-01
  2.529395e+01    8.479927e-01
  2.532570e+01    8.610806e-01
  2.535745e+01    8.874879e-01
  2.538920e+01    8.956800e-01
  2.542095e+01    8.967190e-01
  2.545270e+01    9.278405e-01
  2.548445e+01    9.591941e-01
  2.551620e+01    9.834847e-01
  2.554795e+01    1.018043e+00
  2.557971e+01    1.076357e+00
  2.561146e+01    1.119303e+00
  2.564321e+01    1.182268e+00
  2.567496e+01    1.305561e+00
  2.570671e+01    1.436238e+00
  2.573846e+01    1.642119e+00
  2.577021e+01    1.975070e+00
  2.580196e+01    2.475242e+00
  2.583371e+01    3.188133e+00
  2.586547e+01    4.191351e+00
  2.589722e+01    5.415295e+00
  2.592897e+01    6.717380e+00
  2.596072e+01    7.684992e+00
  2.599247e+01    7.780871e+00
  2.602422e+01    6.640431e+00
  2.605597e+01    4.997729e+00
  2.608772e+01    3.666270e+00
  2.611948e+01    2.805129e+00
  2.615123e+01    2.195498e+00
  2.618298e+01    1.804403e+00
  2.621473e+01    1.534909e+00
  2.624648e+01    1.352377e+00
  2.627823e+01    1.235849e+00
  2.630998e+01    1.156695e+00
  2.634173e+01    1.063352e+00
  2.637348e+01    1.068930e+00
  2.640524e+01    1.018509e+00
  2.643699e+01    9.526829e-01
  2.646874e+01    9.555724e-01
  2.650049e+01    9.081832e-01
  2.653224e+01    9.213767e-01
  2.656399e+01    9.144658e-01
  2.659574e+01    9.139043e-01
  2.662749e+01    9.254068e-01
  2.665924e+01    8.939590e-01
  2.669100e+01    8.568398e-01
  2.672275e+01    8.754161e-01
  2.675450e+01    8.911338e-01
  2.678625e+01    8.899580e-01
  2.681800e+01    8.897272e-01
  2.684975e+01    8.886052e-01
  2.688150e+01    9.159787e-01
  2.691325e+01    9.114459e-01
  2.694501e+01    9.111195e-01
  2.697676e+01    9.780707e-01
  2.700851e+01    1.001035e+00
  2.704026e+01    1.072902e+00
  2.707201e+01    1.180767e+00
  2.710376e+01    1.343145e+00
  2.713551e+01    1.528117e+00
  2.716726e+01    1.865649e+00
  2.719901e+01    2.178262e+00
  2.723077e+01    2.289376e+00
  2.726252e+01    2.259778e+00
  2.729427e+01    1.943294e+00
  2.732602e+01    1.651736e+00
  2.735777e+01    1.364629e+00
  2.738952e+01    1.185519e+00
  2.742127e+01    1.060337e+00
  2.745302e+01    9.968184e-01
  2.748477e+01    9.543203e-01
  2.751653e+01    9.374956e-01
  2.754828e+01    8.961815e-01
  2.758003e+01    8.559403e-01
  2.761178e+01    8.490139e-01
  2.764353e+01    8.368323e-01
  2.767528e+01    8.162154e-01
  2.770703e+01    8.347527e-01
  2.773878e+01    7.983685e-01
  2.777054e+01    8.189936e-01
  2.780229e+01    7.977303e-01
  2.783404e+01    7.920097e-01
  2.786579e+01    8.022900e-01
  2.789754e+01    7.917172e-01
  2.792929e+01    7.972788e-01
  2.796104e+01    7.717077e-01
  2.799279e+01    7.774225e-01
  2.802454e+01    7.708613e-01
  2.805630e+01    7.730950e-01
  2.808805e+01    7.552310e-01
  2.811980e+01    7.547786e-01
  2.815155e+01    7.579880e-01
  2.818330e+01    7.536662e-01
  2.821505e+01    7.654135e-01
  2.824680e+01    7.694864e-01
  2.827855e+01    7.526736e-01
  2.831030e+01    7.603085e-01
  2.834206e+01    7.654816e-01
  2.837381e+01    7.452311e-01
  2.840556e+01    7.722740e-01
  2.843731e+01    7.419880e-01
  2.846906e+01    7.417119e-01
  2.850081e+01    7.434224e-01
  2.853256e+01    7.298309e-01
  2.856431e+01    7.577044e-01
  2.859606e+01    7.296492e-01
  2.862782e+01    7.449871e-01
  2.865957e+01    7.508628e-01
  2.869132e+01    7.270288e-01
  2.872307e+01    7.318004e-01
  2.875482e+01    7.515134e-01
  2.878657e+01    7.348295e-01
  2.881832e+01    7.314450e-01
  2.885007e+01    7.187853e-01
  2.888183e+01    7.259879e-01
  2.891358e+01    7.283903e-01
  2.894533e+01    7.373688e-01
  2.897708e+01    7.178366e-01
  2.900883e+01    7.326428e-01
  2.904058e+01    7.320064e-01
  2.907233e+01    7.299693e-01
  2.910408e+01    7.259963e-01
  2.913583e+01    7.353864e-01
  2.916759e+01    7.195204e-01
  2.919934e+01    7.230139e-01
  2.923109e+01    7.296842e-01
  2.926284e+01    7.466782e-01
  2.929459e+01    7.154910e-01
  2.932634e+01    7.231486e-01
  2.935809e+01    7.318798e-01
  2.938984e+01    7.375743e-01
  2.942159e+01    7.195879e-01
  2.945335e+01    6.993042e-01
  2.948510e+01    7.128350e-01
  2.951685e+01    7.072608e-01
  2.954860e+01    7.076591e-01
  2.958035e+01    7.195442e-01
  2.961210e+01    7.142325e-01
  2.964385e+01    7.440766e-01
  2.967560e+01    7.300833e-01
  2.970736e+01    7.130780e-01
  2.973911e+01    7.034456e-01
  2.977086e+01    6.843731e-01
  2.980261e+01    7.222391e-01
  2.983436e+01    7.091458e-01
  2.986611e+01    7.267899e-01
  2.989786e+01    7.123016e-01
  2.992961e+01    7.076743e-01
  2.996136e+01    7.202400e-01
  2.999312e+01    7.251193e-01
  3.002487e+01    7.133692e-01
  3.005662e+01    7.190396e-01
  3.008837e+01    7.178836e-01
  3.012012e+01    7.195922e-01
  3.015187e+01    6.676984e-01
  3.018362e+01    7.115248e-01
  3.021537e+01    7.117683e-01
  3.024712e+01    7.079305e-01
  3.027888e+01    7.122683e-01
  3.031063e+01    7.091510e-01
  3.034238e+01    7.119067e-01
  3.037413e+01    7.055166e-01
  3.040588e+01    6.944561e-01
  3.043763e+01    7.077292e-01
  3.046938e+01    6.864092e-01
  3.050113e+01    6.977172e-01
  3.053288e+01    7.043476e-01
  3.056464e+01    7.235430e-01
  3.059639e+01    7.175987e-01
  3.062814e+01    7.127169e-01
  3.065989e+01    6.764290e-01
  3.069164e+01    7.048829e-01
  3.072339e+01    7.060619e-01
  3.075514e+01    6.898025e-01
  3.078689e+01    6.894321e-01
  3.081865e+01    7.056729e-01
  3.085040e+01    6.991515e-01
  3.088215e+01    7.014973e-01
  3.091390e+01    7.202355e-01
  3.094565e+01    7.136795e-01
  3.097740e+01    7.075379e-01
  3.100915e+01    7.013946e-01
  3.104090e+01    7.036717e-01
  3.107265e+01    7.030137e-01
  3.110441e+01    7.038035e-01
  3.113616e+01    7.183562e-01
  3.116791e+01    7.009367e-01
  3.119966e+01    7.215483e-01
  3.123141e+01    7.011994e-01
  3.126316e+01    7.277529e-01
  3.129491e+01    6.947057e-01
  3.132666e+01    7.170355e-01
  3.135841e+01    7.170502e-01
  3.139017e+01    7.397847e-01
  3.142192e+01    7.396479e-01
  3.145367e+01    7.564587e-01
  3.148542e+01    7.658730e-01
  3.151717e+01    7.765711e-01
  3.154892e+01    7.855653e-01
  3.158067e+01    8.086868e-01
  3.161242e+01    8.159171e-01
  3.164418e+01    8.399955e-01
  3.167593e+01    8.593210e-01
  3.170768e+01    9.459285e-01
  3.173943e+01    1.024562e+00
  3.177118e+01    1.150456e+00
  3.180293e+01    1.336311e+00
  3.183468e+01    1.561705e+00
  3.186643e+01    1.857512e+00
  3.189818e+01    2.165129e+00
  3.192994e+01    2.274779e+00
  3.196169e+01    2.109686e+00
  3.199344e+01    1.846833e+00
  3.202519e+01    1.533257e+00
  3.205694e+01    1.262916e+00
  3.208869e+01    1.090165e+00
  3.212044e+01    9.725572e-01
  3.215219e+01    8.875443e-01
  3.218394e+01    8.724176e-01
  3.221570e+01    8.089519e-01
  3.224745e+01    8.304726e-01
  3.227920e+01    7.794576e-01
  3.231095e+01    7.596079e-01
  3.234270e+01    7.441752e-01
  3.237445e+01    7.453437e-01
  3.240620e+01    7.328731e-01
  3.243795e+01    7.350104e-01
  3.246970e+01    7.370104e-01
  3.250146e+01    7.155242e-01
  3.253321e+01    7.170913e-01
  3.254908e+01    7.441795e-01