File: XRD/Activation ramp/2024-07-27_002_Ru-CGO-ex_Activtation_ramp_000002_data_000134.dat
# == pyFAI calibration ==
# Distance Sample to Detector: 0.4 m
# PONI: 9.750e-02, 1.135e-01 m
# Rotations: -0.000175 0.000000 -0.000000 rad
#
# == Fit2d calibration ==
# Distance Sample-beamCenter: 400.000 mm
# Center: x=1514.000, y=1300.000 pix
# Tilt: 0.010 deg  TiltPlanRot: 0.010 deg
#
# Detector Detector	 Spline= None	 PixelSize= 7.500e-05, 7.500e-05 m
#    Detector has a mask: False
#    Detector has a dark current: False
#    detector has a flat field: False
#
# Wavelength: 6.888e-11 m
# Mask applied: user provided
# Dark current applied: False
# Flat field applied: False
# Polarization factor: 0.99
# Normalization factor: 1.0
# --> /home/myspot/data/2024_07_Rosario/Ru-CGO-ex/2024-07-27_002_Ru-CGO-ex_Activtation_ramp_000002_data_000134.dat
#       q_nm^-1             I
  2.003187e-02    0.000000e+00
  5.178302e-02    0.000000e+00
  8.353417e-02    1.831973e-01
  1.152853e-01    8.112828e-02
  1.470365e-01    2.924068e-02
  1.787876e-01    6.860449e-02
  2.105388e-01    8.640472e-03
  2.422899e-01    1.116243e-02
  2.740411e-01    3.659583e-02
  3.057922e-01    8.289950e-02
  3.375433e-01    2.562190e-02
  3.692945e-01    7.367337e-03
  4.010456e-01    2.248611e-02
  4.327968e-01    1.653130e-02
  4.645479e-01    8.420092e-03
  4.962991e-01    8.891555e-03
  5.280502e-01    2.193422e-02
  5.598014e-01    5.571446e-02
  5.915525e-01    4.480819e-02
  6.233037e-01    3.376623e-02
  6.550548e-01    4.613211e-02
  6.868060e-01    3.706365e-02
  7.185571e-01    4.216565e-02
  7.503083e-01    3.370327e-02
  7.820594e-01    1.268853e-01
  8.138106e-01    1.418574e-01
  8.455617e-01    3.430589e-01
  8.773129e-01    3.552915e-01
  9.090640e-01    5.231436e-01
  9.408152e-01    5.649767e-01
  9.725663e-01    8.982711e-01
  1.004317e+00    1.041208e+00
  1.036069e+00    1.175684e+00
  1.067820e+00    1.266754e+00
  1.099571e+00    1.383715e+00
  1.131322e+00    1.478264e+00
  1.163073e+00    1.432736e+00
  1.194824e+00    1.554791e+00
  1.226575e+00    2.069696e+00
  1.258327e+00    2.287527e+00
  1.290078e+00    2.346536e+00
  1.321829e+00    2.428723e+00
  1.353580e+00    2.545449e+00
  1.385331e+00    2.512391e+00
  1.417082e+00    2.658636e+00
  1.448834e+00    2.847625e+00
  1.480585e+00    2.686757e+00
  1.512336e+00    2.716671e+00
  1.544087e+00    2.942860e+00
  1.575838e+00    2.924131e+00
  1.607589e+00    2.966054e+00
  1.639340e+00    2.974012e+00
  1.671092e+00    2.907056e+00
  1.702843e+00    2.804943e+00
  1.734594e+00    2.816196e+00
  1.766345e+00    2.696532e+00
  1.798096e+00    2.728463e+00
  1.829847e+00    2.618342e+00
  1.861598e+00    2.705790e+00
  1.893350e+00    2.761009e+00
  1.925101e+00    2.712096e+00
  1.956852e+00    2.806266e+00
  1.988603e+00    2.746491e+00
  2.020354e+00    2.745737e+00
  2.052105e+00    2.610128e+00
  2.083856e+00    2.748070e+00
  2.115608e+00    2.751391e+00
  2.147359e+00    2.751638e+00
  2.179110e+00    2.726836e+00
  2.210861e+00    2.746951e+00
  2.242612e+00    2.719473e+00
  2.274363e+00    2.678867e+00
  2.306115e+00    2.691673e+00
  2.337866e+00    2.694706e+00
  2.369617e+00    2.703219e+00
  2.401368e+00    2.768099e+00
  2.433119e+00    2.730959e+00
  2.464870e+00    2.745078e+00
  2.496621e+00    2.642292e+00
  2.528373e+00    2.795366e+00
  2.560124e+00    2.721720e+00
  2.591875e+00    2.898453e+00
  2.623626e+00    2.765045e+00
  2.655377e+00    2.787367e+00
  2.687128e+00    2.809091e+00
  2.718879e+00    2.866092e+00
  2.750631e+00    2.753158e+00
  2.782382e+00    2.731059e+00
  2.814133e+00    2.939101e+00
  2.845884e+00    2.875235e+00
  2.877635e+00    2.877857e+00
  2.909386e+00    2.859035e+00
  2.941137e+00    2.943254e+00
  2.972889e+00    2.771819e+00
  3.004640e+00    2.832472e+00
  3.036391e+00    2.841514e+00
  3.068142e+00    2.918455e+00
  3.099893e+00    2.817032e+00
  3.131644e+00    2.800497e+00
  3.163395e+00    2.864245e+00
  3.195147e+00    2.854457e+00
  3.226898e+00    2.922929e+00
  3.258649e+00    2.894822e+00
  3.290400e+00    2.970490e+00
  3.322151e+00    2.828485e+00
  3.353902e+00    2.853314e+00
  3.385654e+00    2.930556e+00
  3.417405e+00    2.897108e+00
  3.449156e+00    2.960751e+00
  3.480907e+00    2.878190e+00
  3.512658e+00    2.962325e+00
  3.544409e+00    2.924293e+00
  3.576160e+00    2.984377e+00
  3.607912e+00    2.845953e+00
  3.639663e+00    2.912179e+00
  3.671414e+00    2.912884e+00
  3.703165e+00    2.969931e+00
  3.734916e+00    2.958303e+00
  3.766667e+00    2.953221e+00
  3.798418e+00    2.947081e+00
  3.830170e+00    2.920704e+00
  3.861921e+00    2.964207e+00
  3.893672e+00    2.956642e+00
  3.925423e+00    2.990691e+00
  3.957174e+00    3.026191e+00
  3.988925e+00    3.016248e+00
  4.020676e+00    2.977912e+00
  4.052428e+00    2.988861e+00
  4.084179e+00    2.999856e+00
  4.115930e+00    2.968405e+00
  4.147681e+00    3.016261e+00
  4.179432e+00    2.948185e+00
  4.211183e+00    2.976568e+00
  4.242935e+00    3.008365e+00
  4.274686e+00    2.973397e+00
  4.306437e+00    3.008447e+00
  4.338188e+00    3.053590e+00
  4.369939e+00    3.069146e+00
  4.401690e+00    3.001470e+00
  4.433441e+00    3.062311e+00
  4.465193e+00    3.057631e+00
  4.496944e+00    3.051693e+00
  4.528695e+00    3.023808e+00
  4.560446e+00    2.980929e+00
  4.592197e+00    2.994763e+00
  4.623948e+00    3.076203e+00
  4.655699e+00    3.153484e+00
  4.687451e+00    3.026808e+00
  4.719202e+00    3.122910e+00
  4.750953e+00    3.213403e+00
  4.782704e+00    3.130591e+00
  4.814455e+00    3.035687e+00
  4.846206e+00    3.036524e+00
  4.877957e+00    3.153666e+00
  4.909709e+00    3.123313e+00
  4.941460e+00    3.189000e+00
  4.973211e+00    3.109552e+00
  5.004962e+00    3.141097e+00
  5.036713e+00    3.084596e+00
  5.068464e+00    3.117352e+00
  5.100216e+00    3.084188e+00
  5.131967e+00    3.133452e+00
  5.163718e+00    3.075987e+00
  5.195469e+00    3.155576e+00
  5.227220e+00    3.089761e+00
  5.258971e+00    3.149050e+00
  5.290722e+00    3.012928e+00
  5.322474e+00    3.206285e+00
  5.354225e+00    3.094568e+00
  5.385976e+00    3.129625e+00
  5.417727e+00    3.064044e+00
  5.449478e+00    2.964054e+00
  5.481229e+00    3.060239e+00
  5.512980e+00    3.048860e+00
  5.544732e+00    3.061936e+00
  5.576483e+00    3.042531e+00
  5.608234e+00    3.014495e+00
  5.639985e+00    3.019580e+00
  5.671736e+00    3.151053e+00
  5.703487e+00    3.004469e+00
  5.735238e+00    2.968082e+00
  5.766990e+00    3.037125e+00
  5.798741e+00    2.966287e+00
  5.830492e+00    3.091192e+00
  5.862243e+00    3.039258e+00
  5.893994e+00    2.967758e+00
  5.925745e+00    2.855793e+00
  5.957497e+00    2.999790e+00
  5.989248e+00    2.976324e+00
  6.020999e+00    2.957861e+00
  6.052750e+00    2.971314e+00
  6.084501e+00    3.016325e+00
  6.116252e+00    3.078767e+00
  6.148003e+00    2.994937e+00
  6.179755e+00    2.962954e+00
  6.211506e+00    3.087986e+00
  6.243257e+00    3.059535e+00
  6.275008e+00    2.917722e+00
  6.306759e+00    2.947711e+00
  6.338510e+00    3.076969e+00
  6.370261e+00    3.035933e+00
  6.402013e+00    2.970663e+00
  6.433764e+00    3.063000e+00
  6.465515e+00    2.976384e+00
  6.497266e+00    2.993328e+00
  6.529017e+00    2.985487e+00
  6.560768e+00    2.980124e+00
  6.592519e+00    2.985115e+00
  6.624271e+00    3.018313e+00
  6.656022e+00    3.019630e+00
  6.687773e+00    2.974522e+00
  6.719524e+00    2.983576e+00
  6.751275e+00    3.008623e+00
  6.783026e+00    2.975508e+00
  6.814777e+00    3.017281e+00
  6.846529e+00    2.955935e+00
  6.878280e+00    3.003548e+00
  6.910031e+00    3.001614e+00
  6.941782e+00    3.052517e+00
  6.973533e+00    3.017370e+00
  7.005284e+00    2.879930e+00
  7.037036e+00    3.124828e+00
  7.068787e+00    3.042715e+00
  7.100538e+00    2.991269e+00
  7.132289e+00    2.927778e+00
  7.164040e+00    2.993873e+00
  7.195791e+00    3.041743e+00
  7.227542e+00    3.009425e+00
  7.259294e+00    2.960106e+00
  7.291045e+00    2.921842e+00
  7.322796e+00    2.928813e+00
  7.354547e+00    2.945805e+00
  7.386298e+00    2.991888e+00
  7.418049e+00    2.917678e+00
  7.449800e+00    3.007014e+00
  7.481552e+00    2.953879e+00
  7.513303e+00    2.918986e+00
  7.545054e+00    2.929515e+00
  7.576805e+00    2.989161e+00
  7.608556e+00    3.019060e+00
  7.640307e+00    2.968603e+00
  7.672058e+00    2.972397e+00
  7.703810e+00    2.963179e+00
  7.735561e+00    2.939864e+00
  7.767312e+00    2.910391e+00
  7.799063e+00    2.953217e+00
  7.830814e+00    2.919115e+00
  7.862565e+00    2.863290e+00
  7.894317e+00    2.915999e+00
  7.926068e+00    2.924729e+00
  7.957819e+00    2.909194e+00
  7.989570e+00    2.884313e+00
  8.021321e+00    2.841319e+00
  8.053072e+00    2.973791e+00
  8.084823e+00    2.931103e+00
  8.116575e+00    2.854180e+00
  8.148326e+00    2.976449e+00
  8.180077e+00    2.973438e+00
  8.211828e+00    2.915505e+00
  8.243579e+00    2.932437e+00
  8.275330e+00    2.907130e+00
  8.307081e+00    2.930573e+00
  8.338833e+00    2.832695e+00
  8.370584e+00    2.861158e+00
  8.402335e+00    2.831603e+00
  8.434086e+00    2.927811e+00
  8.465837e+00    2.827764e+00
  8.497588e+00    2.878575e+00
  8.529339e+00    2.823406e+00
  8.561091e+00    2.831038e+00
  8.592842e+00    2.856299e+00
  8.624593e+00    2.838732e+00
  8.656344e+00    2.848776e+00
  8.688095e+00    2.811654e+00
  8.719846e+00    2.856851e+00
  8.751598e+00    2.819598e+00
  8.783349e+00    2.837457e+00
  8.815100e+00    2.791278e+00
  8.846851e+00    2.812529e+00
  8.878602e+00    2.789683e+00
  8.910353e+00    2.843648e+00
  8.942104e+00    2.836166e+00
  8.973856e+00    2.782393e+00
  9.005607e+00    2.817235e+00
  9.037358e+00    2.762801e+00
  9.069109e+00    2.809651e+00
  9.100860e+00    2.743987e+00
  9.132611e+00    2.812816e+00
  9.164362e+00    2.794687e+00
  9.196114e+00    2.801545e+00
  9.227865e+00    2.727509e+00
  9.259616e+00    2.754594e+00
  9.291367e+00    2.765291e+00
  9.323118e+00    2.772539e+00
  9.354869e+00    2.737218e+00
  9.386620e+00    2.731676e+00
  9.418372e+00    2.785177e+00
  9.450123e+00    2.829462e+00
  9.481874e+00    2.750585e+00
  9.513625e+00    2.737502e+00
  9.545376e+00    2.688468e+00
  9.577127e+00    2.729857e+00
  9.608878e+00    2.758959e+00
  9.640630e+00    2.684862e+00
  9.672381e+00    2.724517e+00
  9.704132e+00    2.695433e+00
  9.735883e+00    2.685246e+00
  9.767634e+00    2.714359e+00
  9.799385e+00    2.674510e+00
  9.831137e+00    2.650853e+00
  9.862888e+00    2.718769e+00
  9.894639e+00    2.633644e+00
  9.926390e+00    2.640489e+00
  9.958141e+00    2.620678e+00
  9.989892e+00    2.643277e+00
  1.002164e+01    2.678123e+00
  1.005339e+01    2.650594e+00
  1.008515e+01    2.615181e+00
  1.011690e+01    2.699271e+00
  1.014865e+01    2.582952e+00
  1.018040e+01    2.574407e+00
  1.021215e+01    2.649662e+00
  1.024390e+01    2.652585e+00
  1.027565e+01    2.626549e+00
  1.030740e+01    2.649439e+00
  1.033915e+01    2.544291e+00
  1.037091e+01    2.592693e+00
  1.040266e+01    2.579164e+00
  1.043441e+01    2.604553e+00
  1.046616e+01    2.605975e+00
  1.049791e+01    2.575383e+00
  1.052966e+01    2.561533e+00
  1.056141e+01    2.488594e+00
  1.059316e+01    2.549108e+00
  1.062492e+01    2.502918e+00
  1.065667e+01    2.609874e+00
  1.068842e+01    2.548797e+00
  1.072017e+01    2.510444e+00
  1.075192e+01    2.519134e+00
  1.078367e+01    2.527508e+00
  1.081542e+01    2.484836e+00
  1.084717e+01    2.532048e+00
  1.087892e+01    2.527359e+00
  1.091068e+01    2.463823e+00
  1.094243e+01    2.465691e+00
  1.097418e+01    2.499336e+00
  1.100593e+01    2.473341e+00
  1.103768e+01    2.418218e+00
  1.106943e+01    2.450788e+00
  1.110118e+01    2.408867e+00
  1.113293e+01    2.470245e+00
  1.116468e+01    2.469020e+00
  1.119644e+01    2.435254e+00
  1.122819e+01    2.454885e+00
  1.125994e+01    2.432060e+00
  1.129169e+01    2.455212e+00
  1.132344e+01    2.433327e+00
  1.135519e+01    2.396206e+00
  1.138694e+01    2.370001e+00
  1.141869e+01    2.387436e+00
  1.145045e+01    2.410624e+00
  1.148220e+01    2.352453e+00
  1.151395e+01    2.382353e+00
  1.154570e+01    2.410440e+00
  1.157745e+01    2.374368e+00
  1.160920e+01    2.411918e+00
  1.164095e+01    2.394112e+00
  1.167270e+01    2.380803e+00
  1.170445e+01    2.352413e+00
  1.173621e+01    2.321276e+00
  1.176796e+01    2.370173e+00
  1.179971e+01    2.323377e+00
  1.183146e+01    2.327476e+00
  1.186321e+01    2.317398e+00
  1.189496e+01    2.340895e+00
  1.192671e+01    2.280991e+00
  1.195846e+01    2.372565e+00
  1.199021e+01    2.340671e+00
  1.202197e+01    2.304332e+00
  1.205372e+01    2.330459e+00
  1.208547e+01    2.294007e+00
  1.211722e+01    2.285054e+00
  1.214897e+01    2.310378e+00
  1.218072e+01    2.292207e+00
  1.221247e+01    2.313555e+00
  1.224422e+01    2.319848e+00
  1.227597e+01    2.265726e+00
  1.230773e+01    2.341373e+00
  1.233948e+01    2.314840e+00
  1.237123e+01    2.271828e+00
  1.240298e+01    2.286856e+00
  1.243473e+01    2.319361e+00
  1.246648e+01    2.329057e+00
  1.249823e+01    2.323596e+00
  1.252998e+01    2.351186e+00
  1.256174e+01    2.360327e+00
  1.259349e+01    2.344371e+00
  1.262524e+01    2.378095e+00
  1.265699e+01    2.394827e+00
  1.268874e+01    2.428373e+00
  1.272049e+01    2.521306e+00
  1.275224e+01    2.496129e+00
  1.278399e+01    2.582474e+00
  1.281574e+01    2.732778e+00
  1.284750e+01    2.833326e+00
  1.287925e+01    3.025941e+00
  1.291100e+01    3.293532e+00
  1.294275e+01    3.756823e+00
  1.297450e+01    4.397337e+00
  1.300625e+01    5.440260e+00
  1.303800e+01    7.062168e+00
  1.306975e+01    9.532343e+00
  1.310150e+01    1.223989e+01
  1.313326e+01    1.460007e+01
  1.316501e+01    1.672939e+01
  1.319676e+01    1.675423e+01
  1.322851e+01    1.379251e+01
  1.326026e+01    9.787560e+00
  1.329201e+01    7.055739e+00
  1.332376e+01    5.383212e+00
  1.335551e+01    4.312360e+00
  1.338727e+01    3.675277e+00
  1.341902e+01    3.266660e+00
  1.345077e+01    2.963680e+00
  1.348252e+01    2.772951e+00
  1.351427e+01    2.598982e+00
  1.354602e+01    2.555660e+00
  1.357777e+01    2.415836e+00
  1.360952e+01    2.405754e+00
  1.364127e+01    2.316668e+00
  1.367303e+01    2.286644e+00
  1.370478e+01    2.259456e+00
  1.373653e+01    2.199088e+00
  1.376828e+01    2.138884e+00
  1.380003e+01    2.111087e+00
  1.383178e+01    2.161005e+00
  1.386353e+01    2.107791e+00
  1.389528e+01    2.092629e+00
  1.392703e+01    2.069221e+00
  1.395879e+01    2.037146e+00
  1.399054e+01    2.055425e+00
  1.402229e+01    2.007222e+00
  1.405404e+01    1.997312e+00
  1.408579e+01    2.023882e+00
  1.411754e+01    1.973205e+00
  1.414929e+01    1.978575e+00
  1.418104e+01    1.962500e+00
  1.421279e+01    2.003472e+00
  1.424455e+01    1.954846e+00
  1.427630e+01    1.975143e+00
  1.430805e+01    1.940914e+00
  1.433980e+01    1.942136e+00
  1.437155e+01    1.934023e+00
  1.440330e+01    1.895494e+00
  1.443505e+01    1.899610e+00
  1.446680e+01    1.935814e+00
  1.449856e+01    1.944969e+00
  1.453031e+01    1.932852e+00
  1.456206e+01    1.882460e+00
  1.459381e+01    1.895527e+00
  1.462556e+01    1.925369e+00
  1.465731e+01    1.873528e+00
  1.468906e+01    1.911271e+00
  1.472081e+01    1.882260e+00
  1.475256e+01    1.901914e+00
  1.478432e+01    1.920143e+00
  1.481607e+01    1.883715e+00
  1.484782e+01    1.932546e+00
  1.487957e+01    1.919809e+00
  1.491132e+01    1.965087e+00
  1.494307e+01    1.973350e+00
  1.497482e+01    2.049124e+00
  1.500657e+01    2.191499e+00
  1.503832e+01    2.335967e+00
  1.507008e+01    2.530977e+00
  1.510183e+01    2.835277e+00
  1.513358e+01    3.422447e+00
  1.516533e+01    4.163321e+00
  1.519708e+01    4.935275e+00
  1.522883e+01    5.484173e+00
  1.526058e+01    5.841363e+00
  1.529233e+01    5.646174e+00
  1.532409e+01    4.856457e+00
  1.535584e+01    3.771764e+00
  1.538759e+01    3.087064e+00
  1.541934e+01    2.554176e+00
  1.545109e+01    2.331358e+00
  1.548284e+01    2.143957e+00
  1.551459e+01    2.016265e+00
  1.554634e+01    1.908076e+00
  1.557809e+01    1.900988e+00
  1.560985e+01    1.849165e+00
  1.564160e+01    1.776618e+00
  1.567335e+01    1.771938e+00
  1.570510e+01    1.733821e+00
  1.573685e+01    1.732801e+00
  1.576860e+01    1.676043e+00
  1.580035e+01    1.638255e+00
  1.583210e+01    1.655367e+00
  1.586385e+01    1.658578e+00
  1.589561e+01    1.631208e+00
  1.592736e+01    1.629490e+00
  1.595911e+01    1.619638e+00
  1.599086e+01    1.605967e+00
  1.602261e+01    1.587330e+00
  1.605436e+01    1.601554e+00
  1.608611e+01    1.572311e+00
  1.611786e+01    1.612401e+00
  1.614961e+01    1.592480e+00
  1.618137e+01    1.563665e+00
  1.621312e+01    1.557826e+00
  1.624487e+01    1.545286e+00
  1.627662e+01    1.521120e+00
  1.630837e+01    1.581009e+00
  1.634012e+01    1.519858e+00
  1.637187e+01    1.491740e+00
  1.640362e+01    1.526405e+00
  1.643538e+01    1.532747e+00
  1.646713e+01    1.518319e+00
  1.649888e+01    1.505599e+00
  1.653063e+01    1.503397e+00
  1.656238e+01    1.491141e+00
  1.659413e+01    1.482204e+00
  1.662588e+01    1.479609e+00
  1.665763e+01    1.497697e+00
  1.668938e+01    1.491891e+00
  1.672114e+01    1.473269e+00
  1.675289e+01    1.475847e+00
  1.678464e+01    1.458542e+00
  1.681639e+01    1.466888e+00
  1.684814e+01    1.442829e+00
  1.687989e+01    1.450123e+00
  1.691164e+01    1.463151e+00
  1.694339e+01    1.409404e+00
  1.697514e+01    1.474456e+00
  1.700690e+01    1.419869e+00
  1.703865e+01    1.432068e+00
  1.707040e+01    1.407561e+00
  1.710215e+01    1.401438e+00
  1.713390e+01    1.394243e+00
  1.716565e+01    1.389961e+00
  1.719740e+01    1.422062e+00
  1.722915e+01    1.382781e+00
  1.726091e+01    1.378030e+00
  1.729266e+01    1.414159e+00
  1.732441e+01    1.381790e+00
  1.735616e+01    1.378266e+00
  1.738791e+01    1.363590e+00
  1.741966e+01    1.379682e+00
  1.745141e+01    1.360379e+00
  1.748316e+01    1.372528e+00
  1.751491e+01    1.354972e+00
  1.754667e+01    1.336552e+00
  1.757842e+01    1.352152e+00
  1.761017e+01    1.350444e+00
  1.764192e+01    1.336892e+00
  1.767367e+01    1.311291e+00
  1.770542e+01    1.342425e+00
  1.773717e+01    1.317628e+00
  1.776892e+01    1.319904e+00
  1.780067e+01    1.365878e+00
  1.783243e+01    1.324372e+00
  1.786418e+01    1.301565e+00
  1.789593e+01    1.294613e+00
  1.792768e+01    1.300947e+00
  1.795943e+01    1.286395e+00
  1.799118e+01    1.301744e+00
  1.802293e+01    1.285587e+00
  1.805468e+01    1.272803e+00
  1.808643e+01    1.298463e+00
  1.811819e+01    1.306856e+00
  1.814994e+01    1.294728e+00
  1.818169e+01    1.271794e+00
  1.821344e+01    1.267357e+00
  1.824519e+01    1.292479e+00
  1.827694e+01    1.275644e+00
  1.830869e+01    1.265824e+00
  1.834044e+01    1.251160e+00
  1.837220e+01    1.268969e+00
  1.840395e+01    1.255155e+00
  1.843570e+01    1.259282e+00
  1.846745e+01    1.240660e+00
  1.849920e+01    1.237885e+00
  1.853095e+01    1.215941e+00
  1.856270e+01    1.253714e+00
  1.859445e+01    1.224981e+00
  1.862620e+01    1.236072e+00
  1.865796e+01    1.240567e+00
  1.868971e+01    1.179075e+00
  1.872146e+01    1.208105e+00
  1.875321e+01    1.191614e+00
  1.878496e+01    1.189274e+00
  1.881671e+01    1.208655e+00
  1.884846e+01    1.217599e+00
  1.888021e+01    1.206975e+00
  1.891196e+01    1.192367e+00
  1.894372e+01    1.229878e+00
  1.897547e+01    1.199715e+00
  1.900722e+01    1.181539e+00
  1.903897e+01    1.187868e+00
  1.907072e+01    1.190319e+00
  1.910247e+01    1.172029e+00
  1.913422e+01    1.196186e+00
  1.916597e+01    1.188329e+00
  1.919773e+01    1.156532e+00
  1.922948e+01    1.178809e+00
  1.926123e+01    1.175729e+00
  1.929298e+01    1.166996e+00
  1.932473e+01    1.153639e+00
  1.935648e+01    1.171985e+00
  1.938823e+01    1.154757e+00
  1.941998e+01    1.144926e+00
  1.945173e+01    1.129404e+00
  1.948349e+01    1.158106e+00
  1.951524e+01    1.161069e+00
  1.954699e+01    1.145952e+00
  1.957874e+01    1.157218e+00
  1.961049e+01    1.156398e+00
  1.964224e+01    1.147298e+00
  1.967399e+01    1.115343e+00
  1.970574e+01    1.112345e+00
  1.973749e+01    1.136028e+00
  1.976925e+01    1.114997e+00
  1.980100e+01    1.140687e+00
  1.983275e+01    1.112365e+00
  1.986450e+01    1.130234e+00
  1.989625e+01    1.132749e+00
  1.992800e+01    1.114508e+00
  1.995975e+01    1.114688e+00
  1.999150e+01    1.109339e+00
  2.002325e+01    1.117149e+00
  2.005501e+01    1.093078e+00
  2.008676e+01    1.109626e+00
  2.011851e+01    1.112148e+00
  2.015026e+01    1.094281e+00
  2.018201e+01    1.095255e+00
  2.021376e+01    1.095055e+00
  2.024551e+01    1.070483e+00
  2.027726e+01    1.078186e+00
  2.030902e+01    1.100964e+00
  2.034077e+01    1.071307e+00
  2.037252e+01    1.071580e+00
  2.040427e+01    1.084410e+00
  2.043602e+01    1.083773e+00
  2.046777e+01    1.084011e+00
  2.049952e+01    1.084317e+00
  2.053127e+01    1.093677e+00
  2.056302e+01    1.069732e+00
  2.059478e+01    1.060276e+00
  2.062653e+01    1.057387e+00
  2.065828e+01    1.074231e+00
  2.069003e+01    1.063801e+00
  2.072178e+01    1.075961e+00
  2.075353e+01    1.064602e+00
  2.078528e+01    1.056754e+00
  2.081703e+01    1.059093e+00
  2.084878e+01    1.085653e+00
  2.088054e+01    1.077376e+00
  2.091229e+01    1.059739e+00
  2.094404e+01    1.051792e+00
  2.097579e+01    1.081288e+00
  2.100754e+01    1.073360e+00
  2.103929e+01    1.073514e+00
  2.107104e+01    1.068050e+00
  2.110279e+01    1.067368e+00
  2.113455e+01    1.097830e+00
  2.116630e+01    1.087682e+00
  2.119805e+01    1.074818e+00
  2.122980e+01    1.106957e+00
  2.126155e+01    1.093781e+00
  2.129330e+01    1.110759e+00
  2.132505e+01    1.123803e+00
  2.135680e+01    1.143016e+00
  2.138855e+01    1.163216e+00
  2.142031e+01    1.172020e+00
  2.145206e+01    1.226756e+00
  2.148381e+01    1.239882e+00
  2.151556e+01    1.293597e+00
  2.154731e+01    1.351954e+00
  2.157906e+01    1.486296e+00
  2.161081e+01    1.591893e+00
  2.164256e+01    1.799844e+00
  2.167431e+01    2.110616e+00
  2.170607e+01    2.560169e+00
  2.173782e+01    3.291645e+00
  2.176957e+01    4.271862e+00
  2.180132e+01    5.476126e+00
  2.183307e+01    6.929718e+00
  2.186482e+01    8.394783e+00
  2.189657e+01    9.306065e+00
  2.192832e+01    8.990716e+00
  2.196007e+01    7.232457e+00
  2.199183e+01    5.298394e+00
  2.202358e+01    3.864807e+00
  2.205533e+01    2.936079e+00
  2.208708e+01    2.344098e+00
  2.211883e+01    1.959543e+00
  2.215058e+01    1.677361e+00
  2.218233e+01    1.515334e+00
  2.221408e+01    1.399238e+00
  2.224584e+01    1.284731e+00
  2.227759e+01    1.237474e+00
  2.230934e+01    1.187784e+00
  2.234109e+01    1.152002e+00
  2.237284e+01    1.109744e+00
  2.240459e+01    1.079855e+00
  2.243634e+01    1.056636e+00
  2.246809e+01    1.029776e+00
  2.249984e+01    1.025835e+00
  2.253160e+01    1.005313e+00
  2.256335e+01    9.887301e-01
  2.259510e+01    1.014477e+00
  2.262685e+01    9.381923e-01
  2.265860e+01    9.700373e-01
  2.269035e+01    9.617088e-01
  2.272210e+01    9.440812e-01
  2.275385e+01    9.332886e-01
  2.278560e+01    9.400318e-01
  2.281736e+01    9.327146e-01
  2.284911e+01    9.100479e-01
  2.288086e+01    9.215193e-01
  2.291261e+01    9.241837e-01
  2.294436e+01    8.930777e-01
  2.297611e+01    8.744411e-01
  2.300786e+01    9.032677e-01
  2.303961e+01    8.973424e-01
  2.307137e+01    8.768684e-01
  2.310312e+01    8.698689e-01
  2.313487e+01    8.675902e-01
  2.316662e+01    8.635840e-01
  2.319837e+01    8.678228e-01
  2.323012e+01    8.760491e-01
  2.326187e+01    8.547258e-01
  2.329362e+01    8.445733e-01
  2.332537e+01    8.436655e-01
  2.335713e+01    8.461455e-01
  2.338888e+01    8.529624e-01
  2.342063e+01    8.413785e-01
  2.345238e+01    8.466727e-01
  2.348413e+01    8.469426e-01
  2.351588e+01    8.373435e-01
  2.354763e+01    8.396712e-01
  2.357938e+01    8.322081e-01
  2.361113e+01    8.463919e-01
  2.364289e+01    8.535226e-01
  2.367464e+01    8.348354e-01
  2.370639e+01    7.955279e-01
  2.373814e+01    8.259851e-01
  2.376989e+01    8.237794e-01
  2.380164e+01    8.224082e-01
  2.383339e+01    7.860525e-01
  2.386514e+01    8.082269e-01
  2.389689e+01    7.733598e-01
  2.392865e+01    7.988559e-01
  2.396040e+01    8.087945e-01
  2.399215e+01    7.994335e-01
  2.402390e+01    7.856287e-01
  2.405565e+01    7.919509e-01
  2.408740e+01    7.900497e-01
  2.411915e+01    7.689534e-01
  2.415090e+01    7.829384e-01
  2.418266e+01    7.614003e-01
  2.421441e+01    7.725435e-01
  2.424616e+01    7.639531e-01
  2.427791e+01    8.139150e-01
  2.430966e+01    7.726837e-01
  2.434141e+01    7.872062e-01
  2.437316e+01    8.033094e-01
  2.440491e+01    7.884281e-01
  2.443666e+01    7.775248e-01
  2.446842e+01    7.719250e-01
  2.450017e+01    7.768751e-01
  2.453192e+01    7.953101e-01
  2.456367e+01    7.849895e-01
  2.459542e+01    7.818457e-01
  2.462717e+01    7.790962e-01
  2.465892e+01    7.930652e-01
  2.469067e+01    7.657090e-01
  2.472242e+01    8.105981e-01
  2.475418e+01    7.856110e-01
  2.478593e+01    8.134706e-01
  2.481768e+01    7.725089e-01
  2.484943e+01    7.872568e-01
  2.488118e+01    8.090880e-01
  2.491293e+01    7.918084e-01
  2.494468e+01    7.969162e-01
  2.497643e+01    8.025331e-01
  2.500819e+01    7.806762e-01
  2.503994e+01    8.099320e-01
  2.507169e+01    7.989977e-01
  2.510344e+01    8.051979e-01
  2.513519e+01    8.066107e-01
  2.516694e+01    8.282996e-01
  2.519869e+01    8.263460e-01
  2.523044e+01    8.247010e-01
  2.526219e+01    8.521708e-01
  2.529395e+01    8.616015e-01
  2.532570e+01    8.639411e-01
  2.535745e+01    8.885661e-01
  2.538920e+01    8.857768e-01
  2.542095e+01    9.125324e-01
  2.545270e+01    9.120459e-01
  2.548445e+01    9.673775e-01
  2.551620e+01    9.789916e-01
  2.554795e+01    1.041465e+00
  2.557971e+01    1.062569e+00
  2.561146e+01    1.128259e+00
  2.564321e+01    1.191746e+00
  2.567496e+01    1.330594e+00
  2.570671e+01    1.503042e+00
  2.573846e+01    1.719176e+00
  2.577021e+01    2.057666e+00
  2.580196e+01    2.586873e+00
  2.583371e+01    3.372021e+00
  2.586547e+01    4.406100e+00
  2.589722e+01    5.721200e+00
  2.592897e+01    6.879437e+00
  2.596072e+01    7.616127e+00
  2.599247e+01    7.466655e+00
  2.602422e+01    6.106380e+00
  2.605597e+01    4.586536e+00
  2.608772e+01    3.340408e+00
  2.611948e+01    2.557146e+00
  2.615123e+01    2.056356e+00
  2.618298e+01    1.725638e+00
  2.621473e+01    1.461851e+00
  2.624648e+01    1.299406e+00
  2.627823e+01    1.220811e+00
  2.630998e+01    1.113189e+00
  2.634173e+01    1.090519e+00
  2.637348e+01    1.008828e+00
  2.640524e+01    9.790313e-01
  2.643699e+01    9.620327e-01
  2.646874e+01    9.278618e-01
  2.650049e+01    9.219972e-01
  2.653224e+01    9.101431e-01
  2.656399e+01    8.960820e-01
  2.659574e+01    9.122587e-01
  2.662749e+01    8.863174e-01
  2.665924e+01    8.893260e-01
  2.669100e+01    9.118546e-01
  2.672275e+01    8.665780e-01
  2.675450e+01    8.906168e-01
  2.678625e+01    8.841491e-01
  2.681800e+01    8.712962e-01
  2.684975e+01    9.065282e-01
  2.688150e+01    8.989955e-01
  2.691325e+01    9.271511e-01
  2.694501e+01    9.390717e-01
  2.697676e+01    9.938986e-01
  2.700851e+01    1.012944e+00
  2.704026e+01    1.086260e+00
  2.707201e+01    1.223815e+00
  2.710376e+01    1.370528e+00
  2.713551e+01    1.638445e+00
  2.716726e+01    1.916089e+00
  2.719901e+01    2.153659e+00
  2.723077e+01    2.255235e+00
  2.726252e+01    2.134970e+00
  2.729427e+01    1.817985e+00
  2.732602e+01    1.515454e+00
  2.735777e+01    1.281821e+00
  2.738952e+01    1.142406e+00
  2.742127e+01    1.049708e+00
  2.745302e+01    9.749302e-01
  2.748477e+01    9.500939e-01
  2.751653e+01    9.055001e-01
  2.754828e+01    8.692555e-01
  2.758003e+01    8.852669e-01
  2.761178e+01    8.644983e-01
  2.764353e+01    8.424384e-01
  2.767528e+01    8.272073e-01
  2.770703e+01    8.291851e-01
  2.773878e+01    8.305121e-01
  2.777054e+01    7.872553e-01
  2.780229e+01    8.126974e-01
  2.783404e+01    8.000011e-01
  2.786579e+01    7.707901e-01
  2.789754e+01    8.134993e-01
  2.792929e+01    7.995465e-01
  2.796104e+01    8.010302e-01
  2.799279e+01    7.841735e-01
  2.802454e+01    7.822406e-01
  2.805630e+01    7.592791e-01
  2.808805e+01    7.864782e-01
  2.811980e+01    7.619451e-01
  2.815155e+01    7.581297e-01
  2.818330e+01    7.855690e-01
  2.821505e+01    7.751608e-01
  2.824680e+01    7.416019e-01
  2.827855e+01    7.359445e-01
  2.831030e+01    7.746059e-01
  2.834206e+01    7.328960e-01
  2.837381e+01    7.632958e-01
  2.840556e+01    7.762958e-01
  2.843731e+01    7.638419e-01
  2.846906e+01    7.463387e-01
  2.850081e+01    7.492058e-01
  2.853256e+01    7.374088e-01
  2.856431e+01    7.504543e-01
  2.859606e+01    7.542868e-01
  2.862782e+01    7.424214e-01
  2.865957e+01    7.361174e-01
  2.869132e+01    7.368639e-01
  2.872307e+01    7.425294e-01
  2.875482e+01    7.269976e-01
  2.878657e+01    7.537615e-01
  2.881832e+01    7.388731e-01
  2.885007e+01    7.452955e-01
  2.888183e+01    7.511681e-01
  2.891358e+01    7.324862e-01
  2.894533e+01    7.355406e-01
  2.897708e+01    7.361986e-01
  2.900883e+01    7.395180e-01
  2.904058e+01    7.290222e-01
  2.907233e+01    7.351856e-01
  2.910408e+01    7.394363e-01
  2.913583e+01    7.212313e-01
  2.916759e+01    7.552823e-01
  2.919934e+01    7.257511e-01
  2.923109e+01    7.292475e-01
  2.926284e+01    7.329329e-01
  2.929459e+01    7.239624e-01
  2.932634e+01    7.399713e-01
  2.935809e+01    7.213095e-01
  2.938984e+01    7.279418e-01
  2.942159e+01    7.216176e-01
  2.945335e+01    7.353970e-01
  2.948510e+01    7.112408e-01
  2.951685e+01    7.590872e-01
  2.954860e+01    7.160797e-01
  2.958035e+01    7.264017e-01
  2.961210e+01    7.252870e-01
  2.964385e+01    7.167181e-01
  2.967560e+01    6.938335e-01
  2.970736e+01    7.205104e-01
  2.973911e+01    7.278867e-01
  2.977086e+01    7.181827e-01
  2.980261e+01    7.499476e-01
  2.983436e+01    7.178633e-01
  2.986611e+01    7.228642e-01
  2.989786e+01    7.066901e-01
  2.992961e+01    7.122413e-01
  2.996136e+01    7.166628e-01
  2.999312e+01    7.319624e-01
  3.002487e+01    7.263151e-01
  3.005662e+01    7.466161e-01
  3.008837e+01    7.171765e-01
  3.012012e+01    7.115496e-01
  3.015187e+01    6.996096e-01
  3.018362e+01    7.107868e-01
  3.021537e+01    7.205752e-01
  3.024712e+01    7.191585e-01
  3.027888e+01    7.030643e-01
  3.031063e+01    7.070031e-01
  3.034238e+01    7.020594e-01
  3.037413e+01    6.955266e-01
  3.040588e+01    7.107412e-01
  3.043763e+01    7.069404e-01
  3.046938e+01    7.143593e-01
  3.050113e+01    7.023120e-01
  3.053288e+01    7.107059e-01
  3.056464e+01    6.994767e-01
  3.059639e+01    7.157312e-01
  3.062814e+01    7.171576e-01
  3.065989e+01    7.073116e-01
  3.069164e+01    6.967589e-01
  3.072339e+01    7.138033e-01
  3.075514e+01    6.975959e-01
  3.078689e+01    7.054018e-01
  3.081865e+01    7.104380e-01
  3.085040e+01    7.110466e-01
  3.088215e+01    7.163465e-01
  3.091390e+01    7.258347e-01
  3.094565e+01    7.029950e-01
  3.097740e+01    6.899101e-01
  3.100915e+01    7.031746e-01
  3.104090e+01    7.301081e-01
  3.107265e+01    7.114376e-01
  3.110441e+01    7.063558e-01
  3.113616e+01    7.373743e-01
  3.116791e+01    7.456592e-01
  3.119966e+01    7.210176e-01
  3.123141e+01    7.392494e-01
  3.126316e+01    7.129281e-01
  3.129491e+01    7.267819e-01
  3.132666e+01    7.303705e-01
  3.135841e+01    7.155265e-01
  3.139017e+01    7.351260e-01
  3.142192e+01    7.408091e-01
  3.145367e+01    7.680436e-01
  3.148542e+01    7.525841e-01
  3.151717e+01    7.607454e-01
  3.154892e+01    7.945892e-01
  3.158067e+01    7.864938e-01
  3.161242e+01    8.502548e-01
  3.164418e+01    8.495830e-01
  3.167593e+01    8.910465e-01
  3.170768e+01    9.771160e-01
  3.173943e+01    1.014089e+00
  3.177118e+01    1.184382e+00
  3.180293e+01    1.353582e+00
  3.183468e+01    1.666053e+00
  3.186643e+01    1.980474e+00
  3.189818e+01    2.209931e+00
  3.192994e+01    2.235757e+00
  3.196169e+01    2.046604e+00
  3.199344e+01    1.708318e+00
  3.202519e+01    1.404834e+00
  3.205694e+01    1.216873e+00
  3.208869e+01    1.041421e+00
  3.212044e+01    9.636280e-01
  3.215219e+01    8.445128e-01
  3.218394e+01    8.306708e-01
  3.221570e+01    7.910706e-01
  3.224745e+01    7.738824e-01
  3.227920e+01    7.714042e-01
  3.231095e+01    7.571900e-01
  3.234270e+01    7.570284e-01
  3.237445e+01    7.324861e-01
  3.240620e+01    7.349768e-01
  3.243795e+01    7.348813e-01
  3.246970e+01    7.411647e-01
  3.250146e+01    7.336976e-01
  3.253321e+01    7.059425e-01
  3.254908e+01    7.058287e-01