File: XRD/Activation ramp/2024-07-27_002_Ru-CGO-ex_Activtation_ramp_000002_data_000073.dat
# == pyFAI calibration ==
# Distance Sample to Detector: 0.4 m
# PONI: 9.750e-02, 1.135e-01 m
# Rotations: -0.000175 0.000000 -0.000000 rad
#
# == Fit2d calibration ==
# Distance Sample-beamCenter: 400.000 mm
# Center: x=1514.000, y=1300.000 pix
# Tilt: 0.010 deg  TiltPlanRot: 0.010 deg
#
# Detector Detector	 Spline= None	 PixelSize= 7.500e-05, 7.500e-05 m
#    Detector has a mask: False
#    Detector has a dark current: False
#    detector has a flat field: False
#
# Wavelength: 6.888e-11 m
# Mask applied: user provided
# Dark current applied: False
# Flat field applied: False
# Polarization factor: 0.99
# Normalization factor: 1.0
# --> /home/myspot/data/2024_07_Rosario/Ru-CGO-ex/2024-07-27_002_Ru-CGO-ex_Activtation_ramp_000002_data_000073.dat
#       q_nm^-1             I
  2.003187e-02    7.712624e-02
  5.178302e-02    6.857615e-02
  8.353417e-02    9.537756e-02
  1.152853e-01    6.485469e-02
  1.470365e-01    3.177304e-02
  1.787876e-01    2.462335e-02
  2.105388e-01    1.477954e-02
  2.422899e-01    6.598472e-03
  2.740411e-01    2.131787e-02
  3.057922e-01    2.436997e-02
  3.375433e-01    3.485648e-02
  3.692945e-01    3.609097e-02
  4.010456e-01    2.352712e-02
  4.327968e-01    2.101428e-03
  4.645479e-01    2.133592e-02
  4.962991e-01    3.829954e-02
  5.280502e-01    4.514454e-02
  5.598014e-01    5.032653e-02
  5.915525e-01    5.259830e-02
  6.233037e-01    5.811125e-02
  6.550548e-01    3.687261e-02
  6.868060e-01    2.147657e-02
  7.185571e-01    1.695357e-02
  7.503083e-01    3.259287e-02
  7.820594e-01    8.111046e-02
  8.138106e-01    2.053830e-01
  8.455617e-01    3.249369e-01
  8.773129e-01    4.124031e-01
  9.090640e-01    5.671011e-01
  9.408152e-01    6.878505e-01
  9.725663e-01    8.717114e-01
  1.004317e+00    1.002622e+00
  1.036069e+00    1.164049e+00
  1.067820e+00    1.270317e+00
  1.099571e+00    1.305713e+00
  1.131322e+00    1.420127e+00
  1.163073e+00    1.448922e+00
  1.194824e+00    1.592276e+00
  1.226575e+00    2.069286e+00
  1.258327e+00    2.317006e+00
  1.290078e+00    2.534143e+00
  1.321829e+00    2.591701e+00
  1.353580e+00    2.580642e+00
  1.385331e+00    2.639247e+00
  1.417082e+00    2.747848e+00
  1.448834e+00    2.752332e+00
  1.480585e+00    2.975957e+00
  1.512336e+00    2.935952e+00
  1.544087e+00    2.846894e+00
  1.575838e+00    3.029783e+00
  1.607589e+00    2.966398e+00
  1.639340e+00    3.058575e+00
  1.671092e+00    3.002909e+00
  1.702843e+00    2.752872e+00
  1.734594e+00    2.730301e+00
  1.766345e+00    2.832049e+00
  1.798096e+00    2.835310e+00
  1.829847e+00    2.732565e+00
  1.861598e+00    2.907370e+00
  1.893350e+00    2.706700e+00
  1.925101e+00    2.764916e+00
  1.956852e+00    2.722398e+00
  1.988603e+00    2.776612e+00
  2.020354e+00    2.860824e+00
  2.052105e+00    2.773579e+00
  2.083856e+00    2.780080e+00
  2.115608e+00    2.683538e+00
  2.147359e+00    2.701768e+00
  2.179110e+00    2.710828e+00
  2.210861e+00    2.891577e+00
  2.242612e+00    2.691120e+00
  2.274363e+00    2.794650e+00
  2.306115e+00    2.716167e+00
  2.337866e+00    2.748593e+00
  2.369617e+00    2.853872e+00
  2.401368e+00    2.750837e+00
  2.433119e+00    2.874578e+00
  2.464870e+00    2.783950e+00
  2.496621e+00    2.805972e+00
  2.528373e+00    2.820763e+00
  2.560124e+00    2.834682e+00
  2.591875e+00    2.827576e+00
  2.623626e+00    2.837509e+00
  2.655377e+00    2.671929e+00
  2.687128e+00    2.803227e+00
  2.718879e+00    2.800976e+00
  2.750631e+00    2.809438e+00
  2.782382e+00    2.834476e+00
  2.814133e+00    2.919781e+00
  2.845884e+00    2.855323e+00
  2.877635e+00    2.866067e+00
  2.909386e+00    3.023646e+00
  2.941137e+00    2.857085e+00
  2.972889e+00    2.848456e+00
  3.004640e+00    2.928312e+00
  3.036391e+00    2.830129e+00
  3.068142e+00    2.826870e+00
  3.099893e+00    2.957501e+00
  3.131644e+00    2.913993e+00
  3.163395e+00    3.018610e+00
  3.195147e+00    2.854568e+00
  3.226898e+00    2.935789e+00
  3.258649e+00    2.839194e+00
  3.290400e+00    2.856076e+00
  3.322151e+00    2.895259e+00
  3.353902e+00    2.830295e+00
  3.385654e+00    2.907895e+00
  3.417405e+00    2.952960e+00
  3.449156e+00    2.881076e+00
  3.480907e+00    2.952081e+00
  3.512658e+00    3.013883e+00
  3.544409e+00    2.847979e+00
  3.576160e+00    2.921527e+00
  3.607912e+00    3.023876e+00
  3.639663e+00    2.961296e+00
  3.671414e+00    2.965804e+00
  3.703165e+00    2.922643e+00
  3.734916e+00    3.060111e+00
  3.766667e+00    3.040500e+00
  3.798418e+00    2.968122e+00
  3.830170e+00    2.993066e+00
  3.861921e+00    2.991422e+00
  3.893672e+00    3.031318e+00
  3.925423e+00    2.978983e+00
  3.957174e+00    2.973099e+00
  3.988925e+00    3.088129e+00
  4.020676e+00    3.054834e+00
  4.052428e+00    3.047469e+00
  4.084179e+00    2.986346e+00
  4.115930e+00    2.964597e+00
  4.147681e+00    3.080399e+00
  4.179432e+00    2.940356e+00
  4.211183e+00    2.914228e+00
  4.242935e+00    3.014827e+00
  4.274686e+00    3.088780e+00
  4.306437e+00    3.039445e+00
  4.338188e+00    3.000414e+00
  4.369939e+00    3.046504e+00
  4.401690e+00    3.116048e+00
  4.433441e+00    3.055154e+00
  4.465193e+00    3.016023e+00
  4.496944e+00    3.112332e+00
  4.528695e+00    3.123669e+00
  4.560446e+00    3.064536e+00
  4.592197e+00    3.009154e+00
  4.623948e+00    3.117954e+00
  4.655699e+00    3.082266e+00
  4.687451e+00    3.144597e+00
  4.719202e+00    3.084671e+00
  4.750953e+00    3.068680e+00
  4.782704e+00    3.097841e+00
  4.814455e+00    3.070843e+00
  4.846206e+00    3.040951e+00
  4.877957e+00    3.026275e+00
  4.909709e+00    3.106867e+00
  4.941460e+00    3.106962e+00
  4.973211e+00    3.157971e+00
  5.004962e+00    3.007445e+00
  5.036713e+00    3.157553e+00
  5.068464e+00    3.123753e+00
  5.100216e+00    3.123115e+00
  5.131967e+00    3.087185e+00
  5.163718e+00    3.139553e+00
  5.195469e+00    3.130698e+00
  5.227220e+00    3.111516e+00
  5.258971e+00    3.130876e+00
  5.290722e+00    3.114497e+00
  5.322474e+00    3.071287e+00
  5.354225e+00    3.085781e+00
  5.385976e+00    3.110398e+00
  5.417727e+00    3.018419e+00
  5.449478e+00    3.052275e+00
  5.481229e+00    3.132787e+00
  5.512980e+00    3.050638e+00
  5.544732e+00    3.085222e+00
  5.576483e+00    3.062198e+00
  5.608234e+00    3.033545e+00
  5.639985e+00    3.057383e+00
  5.671736e+00    3.107163e+00
  5.703487e+00    3.006009e+00
  5.735238e+00    3.064574e+00
  5.766990e+00    3.013602e+00
  5.798741e+00    3.010437e+00
  5.830492e+00    3.137487e+00
  5.862243e+00    3.075505e+00
  5.893994e+00    3.013428e+00
  5.925745e+00    3.087394e+00
  5.957497e+00    2.986483e+00
  5.989248e+00    2.964950e+00
  6.020999e+00    2.953156e+00
  6.052750e+00    3.045682e+00
  6.084501e+00    3.005077e+00
  6.116252e+00    3.115046e+00
  6.148003e+00    3.129144e+00
  6.179755e+00    3.013756e+00
  6.211506e+00    2.983691e+00
  6.243257e+00    3.053015e+00
  6.275008e+00    3.090418e+00
  6.306759e+00    3.007132e+00
  6.338510e+00    2.986425e+00
  6.370261e+00    3.038181e+00
  6.402013e+00    3.032486e+00
  6.433764e+00    2.933859e+00
  6.465515e+00    3.035336e+00
  6.497266e+00    2.995432e+00
  6.529017e+00    2.998988e+00
  6.560768e+00    3.040491e+00
  6.592519e+00    3.028598e+00
  6.624271e+00    3.031370e+00
  6.656022e+00    3.037753e+00
  6.687773e+00    3.105328e+00
  6.719524e+00    3.060639e+00
  6.751275e+00    2.994113e+00
  6.783026e+00    2.950172e+00
  6.814777e+00    3.055139e+00
  6.846529e+00    3.037908e+00
  6.878280e+00    3.008408e+00
  6.910031e+00    3.055054e+00
  6.941782e+00    3.054249e+00
  6.973533e+00    3.004836e+00
  7.005284e+00    3.034771e+00
  7.037036e+00    2.975902e+00
  7.068787e+00    2.970217e+00
  7.100538e+00    2.966517e+00
  7.132289e+00    2.986480e+00
  7.164040e+00    2.934226e+00
  7.195791e+00    2.968518e+00
  7.227542e+00    2.994388e+00
  7.259294e+00    3.043045e+00
  7.291045e+00    2.952608e+00
  7.322796e+00    2.978019e+00
  7.354547e+00    3.003492e+00
  7.386298e+00    3.033970e+00
  7.418049e+00    2.979032e+00
  7.449800e+00    2.961988e+00
  7.481552e+00    3.001098e+00
  7.513303e+00    2.947865e+00
  7.545054e+00    2.986132e+00
  7.576805e+00    3.058602e+00
  7.608556e+00    2.986252e+00
  7.640307e+00    2.956404e+00
  7.672058e+00    2.915080e+00
  7.703810e+00    2.914818e+00
  7.735561e+00    3.044145e+00
  7.767312e+00    2.899756e+00
  7.799063e+00    2.946731e+00
  7.830814e+00    2.885385e+00
  7.862565e+00    2.962379e+00
  7.894317e+00    2.853979e+00
  7.926068e+00    2.885777e+00
  7.957819e+00    2.940856e+00
  7.989570e+00    2.870114e+00
  8.021321e+00    2.881725e+00
  8.053072e+00    2.941218e+00
  8.084823e+00    2.906565e+00
  8.116575e+00    3.028706e+00
  8.148326e+00    2.960846e+00
  8.180077e+00    2.890898e+00
  8.211828e+00    2.934164e+00
  8.243579e+00    3.004097e+00
  8.275330e+00    2.863410e+00
  8.307081e+00    2.962854e+00
  8.338833e+00    2.879704e+00
  8.370584e+00    2.897715e+00
  8.402335e+00    2.931602e+00
  8.434086e+00    2.853125e+00
  8.465837e+00    2.921616e+00
  8.497588e+00    2.878342e+00
  8.529339e+00    2.842514e+00
  8.561091e+00    2.855078e+00
  8.592842e+00    2.898284e+00
  8.624593e+00    2.791222e+00
  8.656344e+00    2.888283e+00
  8.688095e+00    2.845184e+00
  8.719846e+00    2.885930e+00
  8.751598e+00    2.885011e+00
  8.783349e+00    2.808660e+00
  8.815100e+00    2.844102e+00
  8.846851e+00    2.878274e+00
  8.878602e+00    2.823584e+00
  8.910353e+00    2.851720e+00
  8.942104e+00    2.796868e+00
  8.973856e+00    2.794512e+00
  9.005607e+00    2.802591e+00
  9.037358e+00    2.851311e+00
  9.069109e+00    2.777676e+00
  9.100860e+00    2.838899e+00
  9.132611e+00    2.787274e+00
  9.164362e+00    2.750176e+00
  9.196114e+00    2.785927e+00
  9.227865e+00    2.831566e+00
  9.259616e+00    2.749693e+00
  9.291367e+00    2.723233e+00
  9.323118e+00    2.826156e+00
  9.354869e+00    2.792657e+00
  9.386620e+00    2.840721e+00
  9.418372e+00    2.736678e+00
  9.450123e+00    2.778479e+00
  9.481874e+00    2.807810e+00
  9.513625e+00    2.738790e+00
  9.545376e+00    2.725056e+00
  9.577127e+00    2.805376e+00
  9.608878e+00    2.755492e+00
  9.640630e+00    2.748393e+00
  9.672381e+00    2.759024e+00
  9.704132e+00    2.726962e+00
  9.735883e+00    2.698968e+00
  9.767634e+00    2.727042e+00
  9.799385e+00    2.689852e+00
  9.831137e+00    2.712128e+00
  9.862888e+00    2.664967e+00
  9.894639e+00    2.664016e+00
  9.926390e+00    2.715835e+00
  9.958141e+00    2.747907e+00
  9.989892e+00    2.603749e+00
  1.002164e+01    2.614110e+00
  1.005339e+01    2.623162e+00
  1.008515e+01    2.612657e+00
  1.011690e+01    2.624108e+00
  1.014865e+01    2.713623e+00
  1.018040e+01    2.677738e+00
  1.021215e+01    2.639117e+00
  1.024390e+01    2.649372e+00
  1.027565e+01    2.655391e+00
  1.030740e+01    2.607643e+00
  1.033915e+01    2.639061e+00
  1.037091e+01    2.642604e+00
  1.040266e+01    2.641336e+00
  1.043441e+01    2.613577e+00
  1.046616e+01    2.643555e+00
  1.049791e+01    2.567726e+00
  1.052966e+01    2.569684e+00
  1.056141e+01    2.591585e+00
  1.059316e+01    2.612309e+00
  1.062492e+01    2.587550e+00
  1.065667e+01    2.579437e+00
  1.068842e+01    2.518305e+00
  1.072017e+01    2.552275e+00
  1.075192e+01    2.537164e+00
  1.078367e+01    2.528731e+00
  1.081542e+01    2.464134e+00
  1.084717e+01    2.572394e+00
  1.087892e+01    2.567558e+00
  1.091068e+01    2.526304e+00
  1.094243e+01    2.561776e+00
  1.097418e+01    2.464493e+00
  1.100593e+01    2.497601e+00
  1.103768e+01    2.481499e+00
  1.106943e+01    2.471932e+00
  1.110118e+01    2.518006e+00
  1.113293e+01    2.463211e+00
  1.116468e+01    2.505671e+00
  1.119644e+01    2.450221e+00
  1.122819e+01    2.486068e+00
  1.125994e+01    2.422684e+00
  1.129169e+01    2.448084e+00
  1.132344e+01    2.359251e+00
  1.135519e+01    2.501211e+00
  1.138694e+01    2.458719e+00
  1.141869e+01    2.456850e+00
  1.145045e+01    2.379244e+00
  1.148220e+01    2.428531e+00
  1.151395e+01    2.378129e+00
  1.154570e+01    2.397261e+00
  1.157745e+01    2.376003e+00
  1.160920e+01    2.409251e+00
  1.164095e+01    2.411003e+00
  1.167270e+01    2.368446e+00
  1.170445e+01    2.339894e+00
  1.173621e+01    2.369855e+00
  1.176796e+01    2.345101e+00
  1.179971e+01    2.306188e+00
  1.183146e+01    2.323698e+00
  1.186321e+01    2.309884e+00
  1.189496e+01    2.316847e+00
  1.192671e+01    2.344646e+00
  1.195846e+01    2.307066e+00
  1.199021e+01    2.359389e+00
  1.202197e+01    2.308326e+00
  1.205372e+01    2.367391e+00
  1.208547e+01    2.282362e+00
  1.211722e+01    2.353909e+00
  1.214897e+01    2.369093e+00
  1.218072e+01    2.284895e+00
  1.221247e+01    2.315106e+00
  1.224422e+01    2.360793e+00
  1.227597e+01    2.315720e+00
  1.230773e+01    2.318598e+00
  1.233948e+01    2.314617e+00
  1.237123e+01    2.331728e+00
  1.240298e+01    2.340489e+00
  1.243473e+01    2.328316e+00
  1.246648e+01    2.385333e+00
  1.249823e+01    2.314538e+00
  1.252998e+01    2.418350e+00
  1.256174e+01    2.347920e+00
  1.259349e+01    2.402572e+00
  1.262524e+01    2.413279e+00
  1.265699e+01    2.411787e+00
  1.268874e+01    2.462836e+00
  1.272049e+01    2.493252e+00
  1.275224e+01    2.564709e+00
  1.278399e+01    2.620930e+00
  1.281574e+01    2.678430e+00
  1.284750e+01    2.878130e+00
  1.287925e+01    3.013487e+00
  1.291100e+01    3.325376e+00
  1.294275e+01    3.681334e+00
  1.297450e+01    4.303712e+00
  1.300625e+01    5.274788e+00
  1.303800e+01    6.880706e+00
  1.306975e+01    9.342519e+00
  1.310150e+01    1.227599e+01
  1.313326e+01    1.503632e+01
  1.316501e+01    1.751708e+01
  1.319676e+01    1.857045e+01
  1.322851e+01    1.613200e+01
  1.326026e+01    1.186639e+01
  1.329201e+01    8.391784e+00
  1.332376e+01    6.194053e+00
  1.335551e+01    4.855289e+00
  1.338727e+01    4.034255e+00
  1.341902e+01    3.472391e+00
  1.345077e+01    3.153468e+00
  1.348252e+01    2.884270e+00
  1.351427e+01    2.723666e+00
  1.354602e+01    2.580433e+00
  1.357777e+01    2.485948e+00
  1.360952e+01    2.400926e+00
  1.364127e+01    2.361533e+00
  1.367303e+01    2.297246e+00
  1.370478e+01    2.250075e+00
  1.373653e+01    2.273267e+00
  1.376828e+01    2.207762e+00
  1.380003e+01    2.167656e+00
  1.383178e+01    2.165973e+00
  1.386353e+01    2.117724e+00
  1.389528e+01    2.089868e+00
  1.392703e+01    2.128336e+00
  1.395879e+01    2.116274e+00
  1.399054e+01    2.063915e+00
  1.402229e+01    2.045486e+00
  1.405404e+01    2.051462e+00
  1.408579e+01    2.016478e+00
  1.411754e+01    2.028281e+00
  1.414929e+01    1.994289e+00
  1.418104e+01    2.031016e+00
  1.421279e+01    2.031133e+00
  1.424455e+01    1.975372e+00
  1.427630e+01    1.951709e+00
  1.430805e+01    1.954901e+00
  1.433980e+01    1.934169e+00
  1.437155e+01    1.956658e+00
  1.440330e+01    1.974294e+00
  1.443505e+01    1.926764e+00
  1.446680e+01    1.920433e+00
  1.449856e+01    1.945339e+00
  1.453031e+01    1.910684e+00
  1.456206e+01    1.913091e+00
  1.459381e+01    1.885123e+00
  1.462556e+01    1.926137e+00
  1.465731e+01    1.935340e+00
  1.468906e+01    1.900267e+00
  1.472081e+01    1.888933e+00
  1.475256e+01    1.910787e+00
  1.478432e+01    1.916364e+00
  1.481607e+01    1.952099e+00
  1.484782e+01    1.941343e+00
  1.487957e+01    1.931864e+00
  1.491132e+01    1.960402e+00
  1.494307e+01    2.012083e+00
  1.497482e+01    2.062732e+00
  1.500657e+01    2.191348e+00
  1.503832e+01    2.277901e+00
  1.507008e+01    2.508752e+00
  1.510183e+01    2.812975e+00
  1.513358e+01    3.326006e+00
  1.516533e+01    4.107862e+00
  1.519708e+01    4.912808e+00
  1.522883e+01    5.644732e+00
  1.526058e+01    6.151258e+00
  1.529233e+01    6.157176e+00
  1.532409e+01    5.529603e+00
  1.535584e+01    4.475188e+00
  1.538759e+01    3.408061e+00
  1.541934e+01    2.852757e+00
  1.545109e+01    2.458727e+00
  1.548284e+01    2.239997e+00
  1.551459e+01    2.054868e+00
  1.554634e+01    1.986364e+00
  1.557809e+01    1.970378e+00
  1.560985e+01    1.843591e+00
  1.564160e+01    1.808654e+00
  1.567335e+01    1.793072e+00
  1.570510e+01    1.755652e+00
  1.573685e+01    1.740995e+00
  1.576860e+01    1.709505e+00
  1.580035e+01    1.677480e+00
  1.583210e+01    1.656393e+00
  1.586385e+01    1.701609e+00
  1.589561e+01    1.629964e+00
  1.592736e+01    1.638148e+00
  1.595911e+01    1.650804e+00
  1.599086e+01    1.629054e+00
  1.602261e+01    1.611849e+00
  1.605436e+01    1.604664e+00
  1.608611e+01    1.576545e+00
  1.611786e+01    1.578999e+00
  1.614961e+01    1.590860e+00
  1.618137e+01    1.595254e+00
  1.621312e+01    1.560586e+00
  1.624487e+01    1.542597e+00
  1.627662e+01    1.567645e+00
  1.630837e+01    1.521632e+00
  1.634012e+01    1.534206e+00
  1.637187e+01    1.519589e+00
  1.640362e+01    1.544518e+00
  1.643538e+01    1.493940e+00
  1.646713e+01    1.527928e+00
  1.649888e+01    1.537809e+00
  1.653063e+01    1.559602e+00
  1.656238e+01    1.544105e+00
  1.659413e+01    1.485952e+00
  1.662588e+01    1.466629e+00
  1.665763e+01    1.509374e+00
  1.668938e+01    1.497188e+00
  1.672114e+01    1.438556e+00
  1.675289e+01    1.502679e+00
  1.678464e+01    1.462653e+00
  1.681639e+01    1.491201e+00
  1.684814e+01    1.468105e+00
  1.687989e+01    1.459609e+00
  1.691164e+01    1.460016e+00
  1.694339e+01    1.450865e+00
  1.697514e+01    1.439695e+00
  1.700690e+01    1.461227e+00
  1.703865e+01    1.444566e+00
  1.707040e+01    1.441005e+00
  1.710215e+01    1.403365e+00
  1.713390e+01    1.418991e+00
  1.716565e+01    1.399874e+00
  1.719740e+01    1.395187e+00
  1.722915e+01    1.405087e+00
  1.726091e+01    1.429959e+00
  1.729266e+01    1.412075e+00
  1.732441e+01    1.395694e+00
  1.735616e+01    1.414983e+00
  1.738791e+01    1.403937e+00
  1.741966e+01    1.381298e+00
  1.745141e+01    1.398482e+00
  1.748316e+01    1.374959e+00
  1.751491e+01    1.395410e+00
  1.754667e+01    1.377659e+00
  1.757842e+01    1.368954e+00
  1.761017e+01    1.336304e+00
  1.764192e+01    1.350290e+00
  1.767367e+01    1.373282e+00
  1.770542e+01    1.360424e+00
  1.773717e+01    1.331184e+00
  1.776892e+01    1.320280e+00
  1.780067e+01    1.311912e+00
  1.783243e+01    1.310576e+00
  1.786418e+01    1.336873e+00
  1.789593e+01    1.316841e+00
  1.792768e+01    1.318219e+00
  1.795943e+01    1.297865e+00
  1.799118e+01    1.320102e+00
  1.802293e+01    1.313045e+00
  1.805468e+01    1.292248e+00
  1.808643e+01    1.291003e+00
  1.811819e+01    1.307629e+00
  1.814994e+01    1.282030e+00
  1.818169e+01    1.290387e+00
  1.821344e+01    1.269339e+00
  1.824519e+01    1.264046e+00
  1.827694e+01    1.279265e+00
  1.830869e+01    1.281631e+00
  1.834044e+01    1.249511e+00
  1.837220e+01    1.245714e+00
  1.840395e+01    1.282059e+00
  1.843570e+01    1.284102e+00
  1.846745e+01    1.278644e+00
  1.849920e+01    1.237594e+00
  1.853095e+01    1.246241e+00
  1.856270e+01    1.271561e+00
  1.859445e+01    1.245687e+00
  1.862620e+01    1.253013e+00
  1.865796e+01    1.254339e+00
  1.868971e+01    1.232175e+00
  1.872146e+01    1.229308e+00
  1.875321e+01    1.222837e+00
  1.878496e+01    1.240067e+00
  1.881671e+01    1.228716e+00
  1.884846e+01    1.221717e+00
  1.888021e+01    1.197558e+00
  1.891196e+01    1.199737e+00
  1.894372e+01    1.209652e+00
  1.897547e+01    1.212583e+00
  1.900722e+01    1.203420e+00
  1.903897e+01    1.195051e+00
  1.907072e+01    1.191608e+00
  1.910247e+01    1.194357e+00
  1.913422e+01    1.188688e+00
  1.916597e+01    1.212234e+00
  1.919773e+01    1.174176e+00
  1.922948e+01    1.201735e+00
  1.926123e+01    1.189712e+00
  1.929298e+01    1.193559e+00
  1.932473e+01    1.191358e+00
  1.935648e+01    1.171080e+00
  1.938823e+01    1.182383e+00
  1.941998e+01    1.171257e+00
  1.945173e+01    1.189159e+00
  1.948349e+01    1.198169e+00
  1.951524e+01    1.174538e+00
  1.954699e+01    1.164439e+00
  1.957874e+01    1.182580e+00
  1.961049e+01    1.153787e+00
  1.964224e+01    1.152504e+00
  1.967399e+01    1.136878e+00
  1.970574e+01    1.134130e+00
  1.973749e+01    1.146448e+00
  1.976925e+01    1.152448e+00
  1.980100e+01    1.121987e+00
  1.983275e+01    1.144488e+00
  1.986450e+01    1.146017e+00
  1.989625e+01    1.135753e+00
  1.992800e+01    1.122970e+00
  1.995975e+01    1.125415e+00
  1.999150e+01    1.126164e+00
  2.002325e+01    1.125388e+00
  2.005501e+01    1.084859e+00
  2.008676e+01    1.138453e+00
  2.011851e+01    1.114154e+00
  2.015026e+01    1.114831e+00
  2.018201e+01    1.095242e+00
  2.021376e+01    1.086000e+00
  2.024551e+01    1.082609e+00
  2.027726e+01    1.126253e+00
  2.030902e+01    1.093525e+00
  2.034077e+01    1.104464e+00
  2.037252e+01    1.132957e+00
  2.040427e+01    1.088428e+00
  2.043602e+01    1.092937e+00
  2.046777e+01    1.093921e+00
  2.049952e+01    1.108256e+00
  2.053127e+01    1.081472e+00
  2.056302e+01    1.093266e+00
  2.059478e+01    1.080649e+00
  2.062653e+01    1.084596e+00
  2.065828e+01    1.065451e+00
  2.069003e+01    1.086218e+00
  2.072178e+01    1.095758e+00
  2.075353e+01    1.077072e+00
  2.078528e+01    1.108045e+00
  2.081703e+01    1.113345e+00
  2.084878e+01    1.130643e+00
  2.088054e+01    1.107746e+00
  2.091229e+01    1.071567e+00
  2.094404e+01    1.070235e+00
  2.097579e+01    1.063611e+00
  2.100754e+01    1.091227e+00
  2.103929e+01    1.103702e+00
  2.107104e+01    1.080382e+00
  2.110279e+01    1.094744e+00
  2.113455e+01    1.096125e+00
  2.116630e+01    1.109230e+00
  2.119805e+01    1.096165e+00
  2.122980e+01    1.096874e+00
  2.126155e+01    1.115062e+00
  2.129330e+01    1.144539e+00
  2.132505e+01    1.142439e+00
  2.135680e+01    1.140290e+00
  2.138855e+01    1.174684e+00
  2.142031e+01    1.164426e+00
  2.145206e+01    1.184420e+00
  2.148381e+01    1.284145e+00
  2.151556e+01    1.295362e+00
  2.154731e+01    1.360343e+00
  2.157906e+01    1.442616e+00
  2.161081e+01    1.568887e+00
  2.164256e+01    1.754921e+00
  2.167431e+01    2.022052e+00
  2.170607e+01    2.442273e+00
  2.173782e+01    3.028660e+00
  2.176957e+01    3.949609e+00
  2.180132e+01    5.208411e+00
  2.183307e+01    6.719588e+00
  2.186482e+01    8.429321e+00
  2.189657e+01    9.807923e+00
  2.192832e+01    1.023855e+01
  2.196007e+01    8.953046e+00
  2.199183e+01    6.689517e+00
  2.202358e+01    4.824274e+00
  2.205533e+01    3.535823e+00
  2.208708e+01    2.765218e+00
  2.211883e+01    2.235552e+00
  2.215058e+01    1.901911e+00
  2.218233e+01    1.650285e+00
  2.221408e+01    1.513000e+00
  2.224584e+01    1.352954e+00
  2.227759e+01    1.327615e+00
  2.230934e+01    1.229733e+00
  2.234109e+01    1.188530e+00
  2.237284e+01    1.176166e+00
  2.240459e+01    1.121805e+00
  2.243634e+01    1.070692e+00
  2.246809e+01    1.051612e+00
  2.249984e+01    1.047049e+00
  2.253160e+01    1.027773e+00
  2.256335e+01    1.009498e+00
  2.259510e+01    1.017639e+00
  2.262685e+01    9.821491e-01
  2.265860e+01    9.690479e-01
  2.269035e+01    9.947289e-01
  2.272210e+01    9.671227e-01
  2.275385e+01    9.650891e-01
  2.278560e+01    9.412093e-01
  2.281736e+01    9.425810e-01
  2.284911e+01    9.177259e-01
  2.288086e+01    9.357922e-01
  2.291261e+01    9.184132e-01
  2.294436e+01    9.114261e-01
  2.297611e+01    9.102809e-01
  2.300786e+01    9.099990e-01
  2.303961e+01    9.093056e-01
  2.307137e+01    8.968323e-01
  2.310312e+01    8.923017e-01
  2.313487e+01    8.910665e-01
  2.316662e+01    8.941961e-01
  2.319837e+01    8.857166e-01
  2.323012e+01    8.774676e-01
  2.326187e+01    8.807834e-01
  2.329362e+01    8.894360e-01
  2.332537e+01    8.590387e-01
  2.335713e+01    8.376708e-01
  2.338888e+01    8.516991e-01
  2.342063e+01    8.626761e-01
  2.345238e+01    8.621348e-01
  2.348413e+01    8.621560e-01
  2.351588e+01    8.440735e-01
  2.354763e+01    8.461839e-01
  2.357938e+01    8.276488e-01
  2.361113e+01    8.453723e-01
  2.364289e+01    8.323488e-01
  2.367464e+01    8.362230e-01
  2.370639e+01    8.392721e-01
  2.373814e+01    8.281469e-01
  2.376989e+01    8.198761e-01
  2.380164e+01    8.195611e-01
  2.383339e+01    8.283590e-01
  2.386514e+01    8.162549e-01
  2.389689e+01    7.998186e-01
  2.392865e+01    8.089911e-01
  2.396040e+01    8.073255e-01
  2.399215e+01    8.060325e-01
  2.402390e+01    8.036527e-01
  2.405565e+01    7.807530e-01
  2.408740e+01    7.941421e-01
  2.411915e+01    7.727904e-01
  2.415090e+01    7.715029e-01
  2.418266e+01    7.796643e-01
  2.421441e+01    7.778142e-01
  2.424616e+01    7.966866e-01
  2.427791e+01    7.896708e-01
  2.430966e+01    7.890650e-01
  2.434141e+01    7.967541e-01
  2.437316e+01    7.866919e-01
  2.440491e+01    8.050922e-01
  2.443666e+01    7.805936e-01
  2.446842e+01    7.930555e-01
  2.450017e+01    7.963467e-01
  2.453192e+01    8.014791e-01
  2.456367e+01    7.841777e-01
  2.459542e+01    8.002650e-01
  2.462717e+01    7.909672e-01
  2.465892e+01    8.023742e-01
  2.469067e+01    7.867687e-01
  2.472242e+01    8.034902e-01
  2.475418e+01    7.908044e-01
  2.478593e+01    7.905351e-01
  2.481768e+01    7.967072e-01
  2.484943e+01    8.091095e-01
  2.488118e+01    7.954801e-01
  2.491293e+01    8.116210e-01
  2.494468e+01    7.967042e-01
  2.497643e+01    8.073592e-01
  2.500819e+01    8.104278e-01
  2.503994e+01    8.240905e-01
  2.507169e+01    8.078102e-01
  2.510344e+01    8.329240e-01
  2.513519e+01    8.227319e-01
  2.516694e+01    8.287140e-01
  2.519869e+01    8.533583e-01
  2.523044e+01    8.717238e-01
  2.526219e+01    8.673677e-01
  2.529395e+01    8.699638e-01
  2.532570e+01    8.724385e-01
  2.535745e+01    8.963800e-01
  2.538920e+01    8.903095e-01
  2.542095e+01    9.090621e-01
  2.545270e+01    9.171702e-01
  2.548445e+01    9.555382e-01
  2.551620e+01    9.845375e-01
  2.554795e+01    1.026025e+00
  2.557971e+01    1.058636e+00
  2.561146e+01    1.101786e+00
  2.564321e+01    1.179550e+00
  2.567496e+01    1.285286e+00
  2.570671e+01    1.436948e+00
  2.573846e+01    1.654123e+00
  2.577021e+01    1.949194e+00
  2.580196e+01    2.366108e+00
  2.583371e+01    3.070073e+00
  2.586547e+01    4.009226e+00
  2.589722e+01    5.287068e+00
  2.592897e+01    6.708602e+00
  2.596072e+01    8.073447e+00
  2.599247e+01    8.543065e+00
  2.602422e+01    7.729991e+00
  2.605597e+01    6.055050e+00
  2.608772e+01    4.359260e+00
  2.611948e+01    3.228511e+00
  2.615123e+01    2.520856e+00
  2.618298e+01    2.045292e+00
  2.621473e+01    1.710354e+00
  2.624648e+01    1.505692e+00
  2.627823e+01    1.350260e+00
  2.630998e+01    1.219406e+00
  2.634173e+01    1.154327e+00
  2.637348e+01    1.100729e+00
  2.640524e+01    1.047468e+00
  2.643699e+01    1.018909e+00
  2.646874e+01    9.905303e-01
  2.650049e+01    9.522945e-01
  2.653224e+01    9.390541e-01
  2.656399e+01    9.307041e-01
  2.659574e+01    9.291820e-01
  2.662749e+01    9.265658e-01
  2.665924e+01    9.327897e-01
  2.669100e+01    9.045898e-01
  2.672275e+01    9.230943e-01
  2.675450e+01    9.093210e-01
  2.678625e+01    9.239057e-01
  2.681800e+01    9.028612e-01
  2.684975e+01    8.923135e-01
  2.688150e+01    9.316715e-01
  2.691325e+01    9.379479e-01
  2.694501e+01    9.564577e-01
  2.697676e+01    9.779946e-01
  2.700851e+01    1.006721e+00
  2.704026e+01    1.092443e+00
  2.707201e+01    1.168254e+00
  2.710376e+01    1.350545e+00
  2.713551e+01    1.583986e+00
  2.716726e+01    1.834924e+00
  2.719901e+01    2.139484e+00
  2.723077e+01    2.385936e+00
  2.726252e+01    2.433912e+00
  2.729427e+01    2.178035e+00
  2.732602e+01    1.852339e+00
  2.735777e+01    1.535588e+00
  2.738952e+01    1.320514e+00
  2.742127e+01    1.167260e+00
  2.745302e+01    1.061941e+00
  2.748477e+01    9.825134e-01
  2.751653e+01    9.621339e-01
  2.754828e+01    9.359614e-01
  2.758003e+01    8.953993e-01
  2.761178e+01    8.956098e-01
  2.764353e+01    8.715075e-01
  2.767528e+01    8.528917e-01
  2.770703e+01    8.439109e-01
  2.773878e+01    8.422728e-01
  2.777054e+01    8.287940e-01
  2.780229e+01    8.323072e-01
  2.783404e+01    8.174909e-01
  2.786579e+01    8.077587e-01
  2.789754e+01    7.972640e-01
  2.792929e+01    8.225574e-01
  2.796104e+01    8.091069e-01
  2.799279e+01    8.257273e-01
  2.802454e+01    8.075691e-01
  2.805630e+01    7.797937e-01
  2.808805e+01    7.913724e-01
  2.811980e+01    7.958618e-01
  2.815155e+01    7.773344e-01
  2.818330e+01    8.042994e-01
  2.821505e+01    7.939793e-01
  2.824680e+01    7.621279e-01
  2.827855e+01    7.748194e-01
  2.831030e+01    8.061690e-01
  2.834206e+01    7.769386e-01
  2.837381e+01    7.666137e-01
  2.840556e+01    7.633700e-01
  2.843731e+01    7.649503e-01
  2.846906e+01    7.721990e-01
  2.850081e+01    7.564002e-01
  2.853256e+01    7.682832e-01
  2.856431e+01    7.385781e-01
  2.859606e+01    7.538260e-01
  2.862782e+01    7.758602e-01
  2.865957e+01    7.696790e-01
  2.869132e+01    7.708234e-01
  2.872307e+01    7.588959e-01
  2.875482e+01    7.677324e-01
  2.878657e+01    7.598957e-01
  2.881832e+01    7.374899e-01
  2.885007e+01    7.484819e-01
  2.888183e+01    7.672800e-01
  2.891358e+01    7.583364e-01
  2.894533e+01    7.321339e-01
  2.897708e+01    7.483222e-01
  2.900883e+01    7.374187e-01
  2.904058e+01    7.541306e-01
  2.907233e+01    7.632459e-01
  2.910408e+01    7.486694e-01
  2.913583e+01    7.605442e-01
  2.916759e+01    7.537144e-01
  2.919934e+01    7.226576e-01
  2.923109e+01    7.325233e-01
  2.926284e+01    7.676111e-01
  2.929459e+01    7.491241e-01
  2.932634e+01    7.213853e-01
  2.935809e+01    7.414517e-01
  2.938984e+01    7.344665e-01
  2.942159e+01    7.413545e-01
  2.945335e+01    7.339132e-01
  2.948510e+01    7.164272e-01
  2.951685e+01    7.382675e-01
  2.954860e+01    7.099826e-01
  2.958035e+01    7.233921e-01
  2.961210e+01    7.128873e-01
  2.964385e+01    7.095143e-01
  2.967560e+01    7.197313e-01
  2.970736e+01    7.354345e-01
  2.973911e+01    7.088462e-01
  2.977086e+01    7.313330e-01
  2.980261e+01    7.327375e-01
  2.983436e+01    7.435213e-01
  2.986611e+01    7.270799e-01
  2.989786e+01    7.256373e-01
  2.992961e+01    7.130787e-01
  2.996136e+01    7.193113e-01
  2.999312e+01    7.263644e-01
  3.002487e+01    7.392588e-01
  3.005662e+01    7.632657e-01
  3.008837e+01    7.573021e-01
  3.012012e+01    7.429294e-01
  3.015187e+01    7.168235e-01
  3.018362e+01    7.241431e-01
  3.021537e+01    6.985403e-01
  3.024712e+01    7.105615e-01
  3.027888e+01    7.004166e-01
  3.031063e+01    6.909963e-01
  3.034238e+01    7.052265e-01
  3.037413e+01    7.214635e-01
  3.040588e+01    7.127650e-01
  3.043763e+01    7.077641e-01
  3.046938e+01    7.082662e-01
  3.050113e+01    7.194716e-01
  3.053288e+01    7.278868e-01
  3.056464e+01    7.077581e-01
  3.059639e+01    7.031084e-01
  3.062814e+01    7.178035e-01
  3.065989e+01    7.156316e-01
  3.069164e+01    7.157873e-01
  3.072339e+01    7.040617e-01
  3.075514e+01    7.057576e-01
  3.078689e+01    7.104971e-01
  3.081865e+01    7.099002e-01
  3.085040e+01    7.148359e-01
  3.088215e+01    7.124709e-01
  3.091390e+01    7.340543e-01
  3.094565e+01    7.203727e-01
  3.097740e+01    7.343365e-01
  3.100915e+01    7.458061e-01
  3.104090e+01    7.173871e-01
  3.107265e+01    7.427636e-01
  3.110441e+01    7.213968e-01
  3.113616e+01    6.975097e-01
  3.116791e+01    7.354791e-01
  3.119966e+01    7.124794e-01
  3.123141e+01    7.455298e-01
  3.126316e+01    7.295393e-01
  3.129491e+01    7.540094e-01
  3.132666e+01    7.216941e-01
  3.135841e+01    7.117640e-01
  3.139017e+01    7.533283e-01
  3.142192e+01    7.714829e-01
  3.145367e+01    7.578173e-01
  3.148542e+01    7.441244e-01
  3.151717e+01    7.609462e-01
  3.154892e+01    7.994885e-01
  3.158067e+01    8.065924e-01
  3.161242e+01    8.096440e-01
  3.164418e+01    8.340275e-01
  3.167593e+01    8.904818e-01
  3.170768e+01    9.183258e-01
  3.173943e+01    1.003137e+00
  3.177118e+01    1.114490e+00
  3.180293e+01    1.254869e+00
  3.183468e+01    1.515503e+00
  3.186643e+01    1.866928e+00
  3.189818e+01    2.197551e+00
  3.192994e+01    2.445139e+00
  3.196169e+01    2.362693e+00
  3.199344e+01    2.127719e+00
  3.202519e+01    1.737867e+00
  3.205694e+01    1.445345e+00
  3.208869e+01    1.177216e+00
  3.212044e+01    1.065451e+00
  3.215219e+01    9.441021e-01
  3.218394e+01    9.125422e-01
  3.221570e+01    8.518194e-01
  3.224745e+01    8.380618e-01
  3.227920e+01    8.122021e-01
  3.231095e+01    7.990543e-01
  3.234270e+01    7.650979e-01
  3.237445e+01    7.746232e-01
  3.240620e+01    7.328580e-01
  3.243795e+01    7.421491e-01
  3.246970e+01    7.229752e-01
  3.250146e+01    7.449362e-01
  3.253321e+01    7.122581e-01
  3.254908e+01    7.419237e-01