File: XRD/Activation ramp/2024-07-27_002_Ru-CGO-ex_Activtation_ramp_000002_data_000018.dat
# == pyFAI calibration ==
# Distance Sample to Detector: 0.4 m
# PONI: 9.750e-02, 1.135e-01 m
# Rotations: -0.000175 0.000000 -0.000000 rad
#
# == Fit2d calibration ==
# Distance Sample-beamCenter: 400.000 mm
# Center: x=1514.000, y=1300.000 pix
# Tilt: 0.010 deg  TiltPlanRot: 0.010 deg
#
# Detector Detector	 Spline= None	 PixelSize= 7.500e-05, 7.500e-05 m
#    Detector has a mask: False
#    Detector has a dark current: False
#    detector has a flat field: False
#
# Wavelength: 6.888e-11 m
# Mask applied: user provided
# Dark current applied: False
# Flat field applied: False
# Polarization factor: 0.99
# Normalization factor: 1.0
# --> /home/myspot/data/2024_07_Rosario/Ru-CGO-ex/2024-07-27_002_Ru-CGO-ex_Activtation_ramp_000002_data_000018.dat
#       q_nm^-1             I
  2.003187e-02    1.542410e-01
  5.178302e-02    0.000000e+00
  8.353417e-02    1.196972e-01
  1.152853e-01    7.227210e-02
  1.470365e-01    7.797642e-02
  1.787876e-01    1.340750e-02
  2.105388e-01    2.204624e-02
  2.422899e-01    1.593336e-02
  2.740411e-01    3.755496e-02
  3.057922e-01    7.811867e-02
  3.375433e-01    4.330964e-02
  3.692945e-01    2.106642e-02
  4.010456e-01    9.903056e-02
  4.327968e-01    3.965480e-02
  4.645479e-01    4.174637e-02
  4.962991e-01    5.400102e-02
  5.280502e-01    1.133909e-02
  5.598014e-01    3.882841e-02
  5.915525e-01    3.476695e-02
  6.233037e-01    4.128778e-02
  6.550548e-01    3.073035e-02
  6.868060e-01    5.288403e-02
  7.185571e-01    3.218576e-02
  7.503083e-01    4.049598e-02
  7.820594e-01    1.055916e-01
  8.138106e-01    1.904648e-01
  8.455617e-01    3.023082e-01
  8.773129e-01    4.737027e-01
  9.090640e-01    5.974317e-01
  9.408152e-01    6.933954e-01
  9.725663e-01    7.928348e-01
  1.004317e+00    1.120101e+00
  1.036069e+00    1.189418e+00
  1.067820e+00    1.329003e+00
  1.099571e+00    1.390375e+00
  1.131322e+00    1.551502e+00
  1.163073e+00    1.534363e+00
  1.194824e+00    1.649406e+00
  1.226575e+00    2.131331e+00
  1.258327e+00    2.407011e+00
  1.290078e+00    2.558766e+00
  1.321829e+00    2.567835e+00
  1.353580e+00    2.664766e+00
  1.385331e+00    2.718367e+00
  1.417082e+00    2.791668e+00
  1.448834e+00    2.877404e+00
  1.480585e+00    2.862986e+00
  1.512336e+00    3.037252e+00
  1.544087e+00    3.106395e+00
  1.575838e+00    2.905006e+00
  1.607589e+00    2.895233e+00
  1.639340e+00    2.962532e+00
  1.671092e+00    2.939299e+00
  1.702843e+00    2.989446e+00
  1.734594e+00    2.969659e+00
  1.766345e+00    2.868173e+00
  1.798096e+00    2.928844e+00
  1.829847e+00    2.949348e+00
  1.861598e+00    2.809353e+00
  1.893350e+00    2.792818e+00
  1.925101e+00    2.734308e+00
  1.956852e+00    2.760487e+00
  1.988603e+00    2.803571e+00
  2.020354e+00    2.892165e+00
  2.052105e+00    2.788921e+00
  2.083856e+00    2.766779e+00
  2.115608e+00    2.743257e+00
  2.147359e+00    2.889431e+00
  2.179110e+00    2.857958e+00
  2.210861e+00    2.867994e+00
  2.242612e+00    2.699992e+00
  2.274363e+00    2.770394e+00
  2.306115e+00    2.792881e+00
  2.337866e+00    2.849266e+00
  2.369617e+00    2.765366e+00
  2.401368e+00    2.942128e+00
  2.433119e+00    2.842069e+00
  2.464870e+00    2.814500e+00
  2.496621e+00    2.823510e+00
  2.528373e+00    2.771899e+00
  2.560124e+00    2.873986e+00
  2.591875e+00    2.818662e+00
  2.623626e+00    2.928110e+00
  2.655377e+00    2.781570e+00
  2.687128e+00    2.771546e+00
  2.718879e+00    2.822724e+00
  2.750631e+00    2.958260e+00
  2.782382e+00    2.873209e+00
  2.814133e+00    2.885795e+00
  2.845884e+00    2.779340e+00
  2.877635e+00    2.785072e+00
  2.909386e+00    2.981461e+00
  2.941137e+00    2.896611e+00
  2.972889e+00    2.939326e+00
  3.004640e+00    2.848210e+00
  3.036391e+00    2.847458e+00
  3.068142e+00    2.977787e+00
  3.099893e+00    3.082476e+00
  3.131644e+00    2.908518e+00
  3.163395e+00    2.887685e+00
  3.195147e+00    2.959299e+00
  3.226898e+00    2.997013e+00
  3.258649e+00    2.883492e+00
  3.290400e+00    2.837717e+00
  3.322151e+00    2.946622e+00
  3.353902e+00    2.931589e+00
  3.385654e+00    2.982540e+00
  3.417405e+00    2.930562e+00
  3.449156e+00    2.963567e+00
  3.480907e+00    2.878171e+00
  3.512658e+00    3.037221e+00
  3.544409e+00    2.976739e+00
  3.576160e+00    3.034457e+00
  3.607912e+00    2.961286e+00
  3.639663e+00    3.033480e+00
  3.671414e+00    3.025134e+00
  3.703165e+00    2.967143e+00
  3.734916e+00    2.971846e+00
  3.766667e+00    2.993317e+00
  3.798418e+00    3.033202e+00
  3.830170e+00    2.972834e+00
  3.861921e+00    3.021846e+00
  3.893672e+00    3.025711e+00
  3.925423e+00    3.060891e+00
  3.957174e+00    3.031053e+00
  3.988925e+00    2.986416e+00
  4.020676e+00    3.051531e+00
  4.052428e+00    3.012062e+00
  4.084179e+00    3.096010e+00
  4.115930e+00    3.040836e+00
  4.147681e+00    3.048155e+00
  4.179432e+00    3.072432e+00
  4.211183e+00    3.026351e+00
  4.242935e+00    3.104636e+00
  4.274686e+00    3.023923e+00
  4.306437e+00    3.117181e+00
  4.338188e+00    2.911529e+00
  4.369939e+00    3.063386e+00
  4.401690e+00    3.087139e+00
  4.433441e+00    3.088509e+00
  4.465193e+00    3.083151e+00
  4.496944e+00    3.088347e+00
  4.528695e+00    3.098501e+00
  4.560446e+00    3.097133e+00
  4.592197e+00    3.101909e+00
  4.623948e+00    3.100797e+00
  4.655699e+00    3.020515e+00
  4.687451e+00    3.060413e+00
  4.719202e+00    3.052737e+00
  4.750953e+00    3.159034e+00
  4.782704e+00    3.102748e+00
  4.814455e+00    3.116411e+00
  4.846206e+00    3.093159e+00
  4.877957e+00    3.048899e+00
  4.909709e+00    3.094284e+00
  4.941460e+00    3.122303e+00
  4.973211e+00    3.204232e+00
  5.004962e+00    3.146904e+00
  5.036713e+00    3.167163e+00
  5.068464e+00    3.147527e+00
  5.100216e+00    3.166739e+00
  5.131967e+00    3.163667e+00
  5.163718e+00    3.146199e+00
  5.195469e+00    3.119187e+00
  5.227220e+00    3.126137e+00
  5.258971e+00    3.202015e+00
  5.290722e+00    3.153107e+00
  5.322474e+00    3.078995e+00
  5.354225e+00    3.190954e+00
  5.385976e+00    3.072789e+00
  5.417727e+00    3.092979e+00
  5.449478e+00    3.058775e+00
  5.481229e+00    3.090406e+00
  5.512980e+00    3.083954e+00
  5.544732e+00    3.061296e+00
  5.576483e+00    3.052978e+00
  5.608234e+00    3.012015e+00
  5.639985e+00    3.092247e+00
  5.671736e+00    3.043114e+00
  5.703487e+00    3.064216e+00
  5.735238e+00    3.026819e+00
  5.766990e+00    3.067272e+00
  5.798741e+00    3.034356e+00
  5.830492e+00    3.084801e+00
  5.862243e+00    3.043799e+00
  5.893994e+00    3.047384e+00
  5.925745e+00    2.989472e+00
  5.957497e+00    3.041916e+00
  5.989248e+00    2.981422e+00
  6.020999e+00    2.970607e+00
  6.052750e+00    2.969866e+00
  6.084501e+00    3.034823e+00
  6.116252e+00    3.114130e+00
  6.148003e+00    3.029200e+00
  6.179755e+00    3.116483e+00
  6.211506e+00    3.007389e+00
  6.243257e+00    3.111019e+00
  6.275008e+00    3.055482e+00
  6.306759e+00    3.101845e+00
  6.338510e+00    3.014525e+00
  6.370261e+00    3.055129e+00
  6.402013e+00    3.064397e+00
  6.433764e+00    3.025192e+00
  6.465515e+00    3.095346e+00
  6.497266e+00    3.016306e+00
  6.529017e+00    2.987243e+00
  6.560768e+00    3.048575e+00
  6.592519e+00    3.028811e+00
  6.624271e+00    3.046168e+00
  6.656022e+00    3.027966e+00
  6.687773e+00    3.036699e+00
  6.719524e+00    3.014512e+00
  6.751275e+00    3.016018e+00
  6.783026e+00    3.053047e+00
  6.814777e+00    3.063358e+00
  6.846529e+00    3.092460e+00
  6.878280e+00    3.068752e+00
  6.910031e+00    3.166154e+00
  6.941782e+00    3.081611e+00
  6.973533e+00    2.992245e+00
  7.005284e+00    3.087263e+00
  7.037036e+00    3.025312e+00
  7.068787e+00    3.012141e+00
  7.100538e+00    3.050703e+00
  7.132289e+00    2.997481e+00
  7.164040e+00    3.039153e+00
  7.195791e+00    2.959272e+00
  7.227542e+00    3.042181e+00
  7.259294e+00    3.066477e+00
  7.291045e+00    2.931166e+00
  7.322796e+00    3.049684e+00
  7.354547e+00    2.981242e+00
  7.386298e+00    2.999264e+00
  7.418049e+00    3.005684e+00
  7.449800e+00    2.955684e+00
  7.481552e+00    2.988183e+00
  7.513303e+00    2.975518e+00
  7.545054e+00    2.986030e+00
  7.576805e+00    2.973007e+00
  7.608556e+00    2.940579e+00
  7.640307e+00    2.930806e+00
  7.672058e+00    3.034449e+00
  7.703810e+00    2.962940e+00
  7.735561e+00    2.859913e+00
  7.767312e+00    2.961701e+00
  7.799063e+00    2.960737e+00
  7.830814e+00    2.936313e+00
  7.862565e+00    2.986925e+00
  7.894317e+00    3.024433e+00
  7.926068e+00    2.899968e+00
  7.957819e+00    2.894930e+00
  7.989570e+00    2.969660e+00
  8.021321e+00    2.936535e+00
  8.053072e+00    2.912282e+00
  8.084823e+00    2.942455e+00
  8.116575e+00    3.000345e+00
  8.148326e+00    2.963860e+00
  8.180077e+00    3.063743e+00
  8.211828e+00    3.022617e+00
  8.243579e+00    3.045321e+00
  8.275330e+00    2.941425e+00
  8.307081e+00    2.903227e+00
  8.338833e+00    2.892475e+00
  8.370584e+00    2.909097e+00
  8.402335e+00    2.921623e+00
  8.434086e+00    2.892402e+00
  8.465837e+00    2.826401e+00
  8.497588e+00    2.887706e+00
  8.529339e+00    2.913894e+00
  8.561091e+00    2.927154e+00
  8.592842e+00    2.916327e+00
  8.624593e+00    2.931337e+00
  8.656344e+00    2.917916e+00
  8.688095e+00    2.878999e+00
  8.719846e+00    2.807142e+00
  8.751598e+00    2.928120e+00
  8.783349e+00    2.868061e+00
  8.815100e+00    2.862809e+00
  8.846851e+00    2.844176e+00
  8.878602e+00    2.857579e+00
  8.910353e+00    2.924469e+00
  8.942104e+00    2.887430e+00
  8.973856e+00    2.852463e+00
  9.005607e+00    2.828817e+00
  9.037358e+00    2.866697e+00
  9.069109e+00    2.817209e+00
  9.100860e+00    2.794019e+00
  9.132611e+00    2.854757e+00
  9.164362e+00    2.815747e+00
  9.196114e+00    2.779451e+00
  9.227865e+00    2.799755e+00
  9.259616e+00    2.789452e+00
  9.291367e+00    2.851211e+00
  9.323118e+00    2.769296e+00
  9.354869e+00    2.805202e+00
  9.386620e+00    2.767778e+00
  9.418372e+00    2.845259e+00
  9.450123e+00    2.778397e+00
  9.481874e+00    2.750385e+00
  9.513625e+00    2.805107e+00
  9.545376e+00    2.759752e+00
  9.577127e+00    2.790901e+00
  9.608878e+00    2.796204e+00
  9.640630e+00    2.826909e+00
  9.672381e+00    2.722682e+00
  9.704132e+00    2.771029e+00
  9.735883e+00    2.688249e+00
  9.767634e+00    2.725332e+00
  9.799385e+00    2.733541e+00
  9.831137e+00    2.726448e+00
  9.862888e+00    2.679652e+00
  9.894639e+00    2.672275e+00
  9.926390e+00    2.700865e+00
  9.958141e+00    2.688285e+00
  9.989892e+00    2.701638e+00
  1.002164e+01    2.703418e+00
  1.005339e+01    2.663505e+00
  1.008515e+01    2.657412e+00
  1.011690e+01    2.737827e+00
  1.014865e+01    2.655525e+00
  1.018040e+01    2.654047e+00
  1.021215e+01    2.701556e+00
  1.024390e+01    2.678704e+00
  1.027565e+01    2.662607e+00
  1.030740e+01    2.657750e+00
  1.033915e+01    2.616302e+00
  1.037091e+01    2.557863e+00
  1.040266e+01    2.608902e+00
  1.043441e+01    2.622912e+00
  1.046616e+01    2.639549e+00
  1.049791e+01    2.552562e+00
  1.052966e+01    2.577060e+00
  1.056141e+01    2.604154e+00
  1.059316e+01    2.554528e+00
  1.062492e+01    2.558608e+00
  1.065667e+01    2.576273e+00
  1.068842e+01    2.526847e+00
  1.072017e+01    2.574861e+00
  1.075192e+01    2.562179e+00
  1.078367e+01    2.569526e+00
  1.081542e+01    2.556644e+00
  1.084717e+01    2.530472e+00
  1.087892e+01    2.582985e+00
  1.091068e+01    2.517040e+00
  1.094243e+01    2.563640e+00
  1.097418e+01    2.524501e+00
  1.100593e+01    2.518273e+00
  1.103768e+01    2.522980e+00
  1.106943e+01    2.514632e+00
  1.110118e+01    2.532118e+00
  1.113293e+01    2.500233e+00
  1.116468e+01    2.485857e+00
  1.119644e+01    2.458147e+00
  1.122819e+01    2.472333e+00
  1.125994e+01    2.437463e+00
  1.129169e+01    2.416625e+00
  1.132344e+01    2.453625e+00
  1.135519e+01    2.465266e+00
  1.138694e+01    2.425397e+00
  1.141869e+01    2.463332e+00
  1.145045e+01    2.379834e+00
  1.148220e+01    2.386517e+00
  1.151395e+01    2.367866e+00
  1.154570e+01    2.405531e+00
  1.157745e+01    2.408642e+00
  1.160920e+01    2.437740e+00
  1.164095e+01    2.381989e+00
  1.167270e+01    2.396931e+00
  1.170445e+01    2.363598e+00
  1.173621e+01    2.366563e+00
  1.176796e+01    2.354342e+00
  1.179971e+01    2.371192e+00
  1.183146e+01    2.371030e+00
  1.186321e+01    2.392502e+00
  1.189496e+01    2.366021e+00
  1.192671e+01    2.389105e+00
  1.195846e+01    2.374887e+00
  1.199021e+01    2.376890e+00
  1.202197e+01    2.352003e+00
  1.205372e+01    2.323337e+00
  1.208547e+01    2.379150e+00
  1.211722e+01    2.319631e+00
  1.214897e+01    2.332482e+00
  1.218072e+01    2.351493e+00
  1.221247e+01    2.326682e+00
  1.224422e+01    2.345285e+00
  1.227597e+01    2.376736e+00
  1.230773e+01    2.326289e+00
  1.233948e+01    2.393479e+00
  1.237123e+01    2.359372e+00
  1.240298e+01    2.398773e+00
  1.243473e+01    2.386839e+00
  1.246648e+01    2.323614e+00
  1.249823e+01    2.367415e+00
  1.252998e+01    2.366570e+00
  1.256174e+01    2.397990e+00
  1.259349e+01    2.415890e+00
  1.262524e+01    2.429605e+00
  1.265699e+01    2.453626e+00
  1.268874e+01    2.464177e+00
  1.272049e+01    2.546734e+00
  1.275224e+01    2.612426e+00
  1.278399e+01    2.628287e+00
  1.281574e+01    2.758737e+00
  1.284750e+01    2.888469e+00
  1.287925e+01    3.073601e+00
  1.291100e+01    3.273558e+00
  1.294275e+01    3.642274e+00
  1.297450e+01    4.281326e+00
  1.300625e+01    5.141298e+00
  1.303800e+01    6.799493e+00
  1.306975e+01    9.020975e+00
  1.310150e+01    1.197430e+01
  1.313326e+01    1.508745e+01
  1.316501e+01    1.796212e+01
  1.319676e+01    1.979782e+01
  1.322851e+01    1.842898e+01
  1.326026e+01    1.414303e+01
  1.329201e+01    9.821172e+00
  1.332376e+01    7.194348e+00
  1.335551e+01    5.459652e+00
  1.338727e+01    4.449430e+00
  1.341902e+01    3.748031e+00
  1.345077e+01    3.385285e+00
  1.348252e+01    3.008991e+00
  1.351427e+01    2.803213e+00
  1.354602e+01    2.725599e+00
  1.357777e+01    2.543954e+00
  1.360952e+01    2.436462e+00
  1.364127e+01    2.420876e+00
  1.367303e+01    2.369864e+00
  1.370478e+01    2.295802e+00
  1.373653e+01    2.238833e+00
  1.376828e+01    2.246289e+00
  1.380003e+01    2.238576e+00
  1.383178e+01    2.211533e+00
  1.386353e+01    2.167530e+00
  1.389528e+01    2.140122e+00
  1.392703e+01    2.128912e+00
  1.395879e+01    2.113048e+00
  1.399054e+01    2.099104e+00
  1.402229e+01    2.069880e+00
  1.405404e+01    2.048440e+00
  1.408579e+01    2.041988e+00
  1.411754e+01    2.035793e+00
  1.414929e+01    2.024995e+00
  1.418104e+01    2.038341e+00
  1.421279e+01    2.014192e+00
  1.424455e+01    1.989058e+00
  1.427630e+01    1.954129e+00
  1.430805e+01    2.023667e+00
  1.433980e+01    1.948202e+00
  1.437155e+01    1.986505e+00
  1.440330e+01    1.977690e+00
  1.443505e+01    1.934165e+00
  1.446680e+01    1.974692e+00
  1.449856e+01    1.954374e+00
  1.453031e+01    1.888817e+00
  1.456206e+01    1.953043e+00
  1.459381e+01    1.925539e+00
  1.462556e+01    1.935615e+00
  1.465731e+01    1.953726e+00
  1.468906e+01    1.958396e+00
  1.472081e+01    1.942665e+00
  1.475256e+01    1.929839e+00
  1.478432e+01    1.919172e+00
  1.481607e+01    1.903849e+00
  1.484782e+01    1.936988e+00
  1.487957e+01    1.929751e+00
  1.491132e+01    1.986940e+00
  1.494307e+01    2.016464e+00
  1.497482e+01    2.100004e+00
  1.500657e+01    2.145288e+00
  1.503832e+01    2.252506e+00
  1.507008e+01    2.481193e+00
  1.510183e+01    2.770349e+00
  1.513358e+01    3.258657e+00
  1.516533e+01    3.948769e+00
  1.519708e+01    4.761518e+00
  1.522883e+01    5.650214e+00
  1.526058e+01    6.259681e+00
  1.529233e+01    6.527421e+00
  1.532409e+01    6.244360e+00
  1.535584e+01    5.034153e+00
  1.538759e+01    3.850497e+00
  1.541934e+01    3.156692e+00
  1.545109e+01    2.675204e+00
  1.548284e+01    2.441112e+00
  1.551459e+01    2.216786e+00
  1.554634e+01    2.090608e+00
  1.557809e+01    1.976863e+00
  1.560985e+01    1.906159e+00
  1.564160e+01    1.853978e+00
  1.567335e+01    1.797260e+00
  1.570510e+01    1.812586e+00
  1.573685e+01    1.735621e+00
  1.576860e+01    1.695114e+00
  1.580035e+01    1.665748e+00
  1.583210e+01    1.704747e+00
  1.586385e+01    1.679964e+00
  1.589561e+01    1.683592e+00
  1.592736e+01    1.652651e+00
  1.595911e+01    1.692271e+00
  1.599086e+01    1.626834e+00
  1.602261e+01    1.637240e+00
  1.605436e+01    1.605801e+00
  1.608611e+01    1.601456e+00
  1.611786e+01    1.604047e+00
  1.614961e+01    1.634920e+00
  1.618137e+01    1.591117e+00
  1.621312e+01    1.596944e+00
  1.624487e+01    1.602601e+00
  1.627662e+01    1.588095e+00
  1.630837e+01    1.606834e+00
  1.634012e+01    1.567335e+00
  1.637187e+01    1.575154e+00
  1.640362e+01    1.567001e+00
  1.643538e+01    1.536850e+00
  1.646713e+01    1.540352e+00
  1.649888e+01    1.553861e+00
  1.653063e+01    1.501997e+00
  1.656238e+01    1.510126e+00
  1.659413e+01    1.508882e+00
  1.662588e+01    1.518473e+00
  1.665763e+01    1.533061e+00
  1.668938e+01    1.522293e+00
  1.672114e+01    1.487087e+00
  1.675289e+01    1.486706e+00
  1.678464e+01    1.475088e+00
  1.681639e+01    1.497710e+00
  1.684814e+01    1.500141e+00
  1.687989e+01    1.446472e+00
  1.691164e+01    1.493743e+00
  1.694339e+01    1.454558e+00
  1.697514e+01    1.459254e+00
  1.700690e+01    1.461881e+00
  1.703865e+01    1.453084e+00
  1.707040e+01    1.468804e+00
  1.710215e+01    1.450618e+00
  1.713390e+01    1.432701e+00
  1.716565e+01    1.425659e+00
  1.719740e+01    1.413542e+00
  1.722915e+01    1.426803e+00
  1.726091e+01    1.417472e+00
  1.729266e+01    1.374481e+00
  1.732441e+01    1.408074e+00
  1.735616e+01    1.395690e+00
  1.738791e+01    1.396750e+00
  1.741966e+01    1.377909e+00
  1.745141e+01    1.384486e+00
  1.748316e+01    1.374058e+00
  1.751491e+01    1.358515e+00
  1.754667e+01    1.362669e+00
  1.757842e+01    1.377634e+00
  1.761017e+01    1.344166e+00
  1.764192e+01    1.335089e+00
  1.767367e+01    1.337521e+00
  1.770542e+01    1.344036e+00
  1.773717e+01    1.313884e+00
  1.776892e+01    1.360938e+00
  1.780067e+01    1.356222e+00
  1.783243e+01    1.370050e+00
  1.786418e+01    1.364164e+00
  1.789593e+01    1.328678e+00
  1.792768e+01    1.326313e+00
  1.795943e+01    1.295843e+00
  1.799118e+01    1.324578e+00
  1.802293e+01    1.297685e+00
  1.805468e+01    1.304998e+00
  1.808643e+01    1.328863e+00
  1.811819e+01    1.304143e+00
  1.814994e+01    1.292953e+00
  1.818169e+01    1.287356e+00
  1.821344e+01    1.335703e+00
  1.824519e+01    1.283418e+00
  1.827694e+01    1.307099e+00
  1.830869e+01    1.311269e+00
  1.834044e+01    1.292437e+00
  1.837220e+01    1.264882e+00
  1.840395e+01    1.262645e+00
  1.843570e+01    1.270162e+00
  1.846745e+01    1.269296e+00
  1.849920e+01    1.240832e+00
  1.853095e+01    1.260085e+00
  1.856270e+01    1.250861e+00
  1.859445e+01    1.268796e+00
  1.862620e+01    1.250392e+00
  1.865796e+01    1.256069e+00
  1.868971e+01    1.248201e+00
  1.872146e+01    1.275913e+00
  1.875321e+01    1.259414e+00
  1.878496e+01    1.248991e+00
  1.881671e+01    1.232933e+00
  1.884846e+01    1.236661e+00
  1.888021e+01    1.233783e+00
  1.891196e+01    1.250059e+00
  1.894372e+01    1.226910e+00
  1.897547e+01    1.185652e+00
  1.900722e+01    1.220119e+00
  1.903897e+01    1.234417e+00
  1.907072e+01    1.198366e+00
  1.910247e+01    1.203160e+00
  1.913422e+01    1.217212e+00
  1.916597e+01    1.195078e+00
  1.919773e+01    1.219038e+00
  1.922948e+01    1.212973e+00
  1.926123e+01    1.181738e+00
  1.929298e+01    1.171071e+00
  1.932473e+01    1.183718e+00
  1.935648e+01    1.214507e+00
  1.938823e+01    1.201777e+00
  1.941998e+01    1.187922e+00
  1.945173e+01    1.169497e+00
  1.948349e+01    1.171908e+00
  1.951524e+01    1.173843e+00
  1.954699e+01    1.179181e+00
  1.957874e+01    1.165237e+00
  1.961049e+01    1.159122e+00
  1.964224e+01    1.175130e+00
  1.967399e+01    1.139556e+00
  1.970574e+01    1.159577e+00
  1.973749e+01    1.171322e+00
  1.976925e+01    1.139322e+00
  1.980100e+01    1.159838e+00
  1.983275e+01    1.136163e+00
  1.986450e+01    1.170846e+00
  1.989625e+01    1.147191e+00
  1.992800e+01    1.131673e+00
  1.995975e+01    1.112795e+00
  1.999150e+01    1.140308e+00
  2.002325e+01    1.123993e+00
  2.005501e+01    1.139216e+00
  2.008676e+01    1.120032e+00
  2.011851e+01    1.120391e+00
  2.015026e+01    1.126548e+00
  2.018201e+01    1.124792e+00
  2.021376e+01    1.109615e+00
  2.024551e+01    1.133504e+00
  2.027726e+01    1.098160e+00
  2.030902e+01    1.109310e+00
  2.034077e+01    1.130146e+00
  2.037252e+01    1.108017e+00
  2.040427e+01    1.108500e+00
  2.043602e+01    1.114635e+00
  2.046777e+01    1.135842e+00
  2.049952e+01    1.109227e+00
  2.053127e+01    1.074718e+00
  2.056302e+01    1.113062e+00
  2.059478e+01    1.106311e+00
  2.062653e+01    1.077393e+00
  2.065828e+01    1.096763e+00
  2.069003e+01    1.117081e+00
  2.072178e+01    1.085948e+00
  2.075353e+01    1.092721e+00
  2.078528e+01    1.093144e+00
  2.081703e+01    1.087763e+00
  2.084878e+01    1.100864e+00
  2.088054e+01    1.115313e+00
  2.091229e+01    1.116121e+00
  2.094404e+01    1.113518e+00
  2.097579e+01    1.099932e+00
  2.100754e+01    1.100472e+00
  2.103929e+01    1.108906e+00
  2.107104e+01    1.107655e+00
  2.110279e+01    1.084818e+00
  2.113455e+01    1.107697e+00
  2.116630e+01    1.089298e+00
  2.119805e+01    1.114276e+00
  2.122980e+01    1.107283e+00
  2.126155e+01    1.126722e+00
  2.129330e+01    1.143279e+00
  2.132505e+01    1.131515e+00
  2.135680e+01    1.153799e+00
  2.138855e+01    1.145569e+00
  2.142031e+01    1.206541e+00
  2.145206e+01    1.224447e+00
  2.148381e+01    1.267010e+00
  2.151556e+01    1.314347e+00
  2.154731e+01    1.356142e+00
  2.157906e+01    1.450042e+00
  2.161081e+01    1.554980e+00
  2.164256e+01    1.741996e+00
  2.167431e+01    1.982024e+00
  2.170607e+01    2.267857e+00
  2.173782e+01    2.823451e+00
  2.176957e+01    3.661246e+00
  2.180132e+01    4.829689e+00
  2.183307e+01    6.301597e+00
  2.186482e+01    7.936643e+00
  2.189657e+01    9.820610e+00
  2.192832e+01    1.091598e+01
  2.196007e+01    1.051361e+01
  2.199183e+01    8.479188e+00
  2.202358e+01    6.128449e+00
  2.205533e+01    4.419457e+00
  2.208708e+01    3.285262e+00
  2.211883e+01    2.600624e+00
  2.215058e+01    2.135364e+00
  2.218233e+01    1.846728e+00
  2.221408e+01    1.632445e+00
  2.224584e+01    1.493575e+00
  2.227759e+01    1.386066e+00
  2.230934e+01    1.294402e+00
  2.234109e+01    1.235308e+00
  2.237284e+01    1.181378e+00
  2.240459e+01    1.152665e+00
  2.243634e+01    1.103188e+00
  2.246809e+01    1.093422e+00
  2.249984e+01    1.084904e+00
  2.253160e+01    1.066429e+00
  2.256335e+01    1.053587e+00
  2.259510e+01    1.026745e+00
  2.262685e+01    9.932833e-01
  2.265860e+01    1.015792e+00
  2.269035e+01    9.826856e-01
  2.272210e+01    9.630453e-01
  2.275385e+01    9.760652e-01
  2.278560e+01    9.634033e-01
  2.281736e+01    9.739845e-01
  2.284911e+01    9.500651e-01
  2.288086e+01    9.519964e-01
  2.291261e+01    9.289216e-01
  2.294436e+01    9.381328e-01
  2.297611e+01    9.131790e-01
  2.300786e+01    9.421910e-01
  2.303961e+01    9.120789e-01
  2.307137e+01    9.008188e-01
  2.310312e+01    9.106894e-01
  2.313487e+01    9.056405e-01
  2.316662e+01    9.142624e-01
  2.319837e+01    8.978221e-01
  2.323012e+01    8.824994e-01
  2.326187e+01    8.859072e-01
  2.329362e+01    8.866087e-01
  2.332537e+01    8.717945e-01
  2.335713e+01    8.762496e-01
  2.338888e+01    8.719408e-01
  2.342063e+01    8.742082e-01
  2.345238e+01    8.747700e-01
  2.348413e+01    8.316795e-01
  2.351588e+01    8.599938e-01
  2.354763e+01    8.748119e-01
  2.357938e+01    8.510093e-01
  2.361113e+01    8.466402e-01
  2.364289e+01    8.585991e-01
  2.367464e+01    8.430039e-01
  2.370639e+01    8.413060e-01
  2.373814e+01    8.405203e-01
  2.376989e+01    8.111432e-01
  2.380164e+01    8.193037e-01
  2.383339e+01    8.162274e-01
  2.386514e+01    8.214572e-01
  2.389689e+01    8.068300e-01
  2.392865e+01    8.098752e-01
  2.396040e+01    7.976874e-01
  2.399215e+01    7.998173e-01
  2.402390e+01    8.056737e-01
  2.405565e+01    8.078906e-01
  2.408740e+01    8.040304e-01
  2.411915e+01    7.954960e-01
  2.415090e+01    7.847736e-01
  2.418266e+01    8.034489e-01
  2.421441e+01    8.091365e-01
  2.424616e+01    7.903252e-01
  2.427791e+01    8.072802e-01
  2.430966e+01    8.262650e-01
  2.434141e+01    7.981445e-01
  2.437316e+01    8.037098e-01
  2.440491e+01    8.054657e-01
  2.443666e+01    7.919225e-01
  2.446842e+01    8.080230e-01
  2.450017e+01    8.013411e-01
  2.453192e+01    8.079798e-01
  2.456367e+01    8.015716e-01
  2.459542e+01    8.110247e-01
  2.462717e+01    7.988936e-01
  2.465892e+01    8.132249e-01
  2.469067e+01    8.020602e-01
  2.472242e+01    8.008848e-01
  2.475418e+01    7.999156e-01
  2.478593e+01    8.068751e-01
  2.481768e+01    8.034585e-01
  2.484943e+01    7.960007e-01
  2.488118e+01    7.916210e-01
  2.491293e+01    8.194329e-01
  2.494468e+01    8.165676e-01
  2.497643e+01    8.152317e-01
  2.500819e+01    8.071595e-01
  2.503994e+01    8.133415e-01
  2.507169e+01    8.234012e-01
  2.510344e+01    8.075320e-01
  2.513519e+01    8.288234e-01
  2.516694e+01    8.547390e-01
  2.519869e+01    8.681584e-01
  2.523044e+01    8.445378e-01
  2.526219e+01    8.769999e-01
  2.529395e+01    8.936974e-01
  2.532570e+01    8.867506e-01
  2.535745e+01    8.897711e-01
  2.538920e+01    9.105614e-01
  2.542095e+01    9.128658e-01
  2.545270e+01    9.534008e-01
  2.548445e+01    9.910566e-01
  2.551620e+01    9.829438e-01
  2.554795e+01    9.829603e-01
  2.557971e+01    1.061886e+00
  2.561146e+01    1.105893e+00
  2.564321e+01    1.176124e+00
  2.567496e+01    1.255223e+00
  2.570671e+01    1.404628e+00
  2.573846e+01    1.583285e+00
  2.577021e+01    1.832206e+00
  2.580196e+01    2.192774e+00
  2.583371e+01    2.749570e+00
  2.586547e+01    3.625034e+00
  2.589722e+01    4.802505e+00
  2.592897e+01    6.234440e+00
  2.596072e+01    7.833580e+00
  2.599247e+01    8.944381e+00
  2.602422e+01    8.958628e+00
  2.605597e+01    7.627132e+00
  2.608772e+01    5.748987e+00
  2.611948e+01    4.198359e+00
  2.615123e+01    3.165096e+00
  2.618298e+01    2.444567e+00
  2.621473e+01    2.014982e+00
  2.624648e+01    1.720094e+00
  2.627823e+01    1.506966e+00
  2.630998e+01    1.359640e+00
  2.634173e+01    1.224732e+00
  2.637348e+01    1.130003e+00
  2.640524e+01    1.104001e+00
  2.643699e+01    1.038417e+00
  2.646874e+01    1.041727e+00
  2.650049e+01    9.910051e-01
  2.653224e+01    9.906770e-01
  2.656399e+01    9.981753e-01
  2.659574e+01    9.735528e-01
  2.662749e+01    9.352466e-01
  2.665924e+01    9.276621e-01
  2.669100e+01    9.343873e-01
  2.672275e+01    9.334800e-01
  2.675450e+01    9.272401e-01
  2.678625e+01    9.190200e-01
  2.681800e+01    8.989030e-01
  2.684975e+01    9.405171e-01
  2.688150e+01    9.435341e-01
  2.691325e+01    9.412009e-01
  2.694501e+01    9.664130e-01
  2.697676e+01    9.802878e-01
  2.700851e+01    9.933555e-01
  2.704026e+01    1.080564e+00
  2.707201e+01    1.143824e+00
  2.710376e+01    1.242298e+00
  2.713551e+01    1.439569e+00
  2.716726e+01    1.738704e+00
  2.719901e+01    2.047530e+00
  2.723077e+01    2.401392e+00
  2.726252e+01    2.582984e+00
  2.729427e+01    2.515278e+00
  2.732602e+01    2.179775e+00
  2.735777e+01    1.770546e+00
  2.738952e+01    1.495871e+00
  2.742127e+01    1.286824e+00
  2.745302e+01    1.172618e+00
  2.748477e+01    1.065280e+00
  2.751653e+01    9.872864e-01
  2.754828e+01    9.617752e-01
  2.758003e+01    9.134062e-01
  2.761178e+01    9.000642e-01
  2.764353e+01    8.868620e-01
  2.767528e+01    8.676664e-01
  2.770703e+01    8.936096e-01
  2.773878e+01    8.494576e-01
  2.777054e+01    8.263116e-01
  2.780229e+01    8.401515e-01
  2.783404e+01    8.431217e-01
  2.786579e+01    8.105310e-01
  2.789754e+01    8.363625e-01
  2.792929e+01    8.301852e-01
  2.796104e+01    8.159124e-01
  2.799279e+01    7.925575e-01
  2.802454e+01    8.133007e-01
  2.805630e+01    8.127387e-01
  2.808805e+01    8.027586e-01
  2.811980e+01    7.882252e-01
  2.815155e+01    8.024355e-01
  2.818330e+01    7.896295e-01
  2.821505e+01    7.738476e-01
  2.824680e+01    8.107117e-01
  2.827855e+01    7.932268e-01
  2.831030e+01    7.864292e-01
  2.834206e+01    7.878265e-01
  2.837381e+01    7.770995e-01
  2.840556e+01    7.861480e-01
  2.843731e+01    7.868032e-01
  2.846906e+01    7.898145e-01
  2.850081e+01    7.619480e-01
  2.853256e+01    7.649114e-01
  2.856431e+01    7.825418e-01
  2.859606e+01    7.686625e-01
  2.862782e+01    7.432696e-01
  2.865957e+01    7.602299e-01
  2.869132e+01    7.488961e-01
  2.872307e+01    7.552150e-01
  2.875482e+01    7.659853e-01
  2.878657e+01    7.602199e-01
  2.881832e+01    7.658548e-01
  2.885007e+01    7.624790e-01
  2.888183e+01    7.433430e-01
  2.891358e+01    7.530159e-01
  2.894533e+01    7.437309e-01
  2.897708e+01    7.546411e-01
  2.900883e+01    7.509136e-01
  2.904058e+01    7.481894e-01
  2.907233e+01    7.462940e-01
  2.910408e+01    7.484952e-01
  2.913583e+01    7.469066e-01
  2.916759e+01    7.397386e-01
  2.919934e+01    7.660876e-01
  2.923109e+01    7.333480e-01
  2.926284e+01    7.532874e-01
  2.929459e+01    7.596685e-01
  2.932634e+01    7.587876e-01
  2.935809e+01    7.548977e-01
  2.938984e+01    7.197781e-01
  2.942159e+01    7.313405e-01
  2.945335e+01    7.344969e-01
  2.948510e+01    7.312398e-01
  2.951685e+01    7.232695e-01
  2.954860e+01    7.156124e-01
  2.958035e+01    7.134976e-01
  2.961210e+01    7.153223e-01
  2.964385e+01    7.322037e-01
  2.967560e+01    7.413004e-01
  2.970736e+01    7.435607e-01
  2.973911e+01    7.366583e-01
  2.977086e+01    7.477309e-01
  2.980261e+01    7.385439e-01
  2.983436e+01    7.183108e-01
  2.986611e+01    7.259173e-01
  2.989786e+01    7.208403e-01
  2.992961e+01    7.242151e-01
  2.996136e+01    7.339296e-01
  2.999312e+01    7.528529e-01
  3.002487e+01    7.364630e-01
  3.005662e+01    7.473652e-01
  3.008837e+01    7.424157e-01
  3.012012e+01    7.170444e-01
  3.015187e+01    7.338731e-01
  3.018362e+01    7.225344e-01
  3.021537e+01    7.316439e-01
  3.024712e+01    7.476025e-01
  3.027888e+01    7.008473e-01
  3.031063e+01    7.450658e-01
  3.034238e+01    7.629554e-01
  3.037413e+01    7.240957e-01
  3.040588e+01    7.242741e-01
  3.043763e+01    7.164654e-01
  3.046938e+01    7.212956e-01
  3.050113e+01    7.074273e-01
  3.053288e+01    7.479398e-01
  3.056464e+01    7.281989e-01
  3.059639e+01    7.225958e-01
  3.062814e+01    7.310392e-01
  3.065989e+01    7.238018e-01
  3.069164e+01    7.439446e-01
  3.072339e+01    7.241865e-01
  3.075514e+01    7.058470e-01
  3.078689e+01    7.206717e-01
  3.081865e+01    7.268655e-01
  3.085040e+01    7.165841e-01
  3.088215e+01    7.261646e-01
  3.091390e+01    7.183715e-01
  3.094565e+01    7.103602e-01
  3.097740e+01    7.488713e-01
  3.100915e+01    7.385699e-01
  3.104090e+01    7.098471e-01
  3.107265e+01    7.440157e-01
  3.110441e+01    7.271498e-01
  3.113616e+01    7.379777e-01
  3.116791e+01    7.223021e-01
  3.119966e+01    7.151366e-01
  3.123141e+01    7.415385e-01
  3.126316e+01    7.565902e-01
  3.129491e+01    7.198642e-01
  3.132666e+01    7.393384e-01
  3.135841e+01    7.563775e-01
  3.139017e+01    7.500810e-01
  3.142192e+01    7.321744e-01
  3.145367e+01    7.793753e-01
  3.148542e+01    7.803915e-01
  3.151717e+01    8.134169e-01
  3.154892e+01    7.895321e-01
  3.158067e+01    7.850370e-01
  3.161242e+01    8.276599e-01
  3.164418e+01    8.269408e-01
  3.167593e+01    8.668956e-01
  3.170768e+01    8.930900e-01
  3.173943e+01    9.813501e-01
  3.177118e+01    1.067910e+00
  3.180293e+01    1.184295e+00
  3.183468e+01    1.374799e+00
  3.186643e+01    1.676828e+00
  3.189818e+01    2.046991e+00
  3.192994e+01    2.393171e+00
  3.196169e+01    2.599046e+00
  3.199344e+01    2.506867e+00
  3.202519e+01    2.170517e+00
  3.205694e+01    1.775577e+00
  3.208869e+01    1.474430e+00
  3.212044e+01    1.205152e+00
  3.215219e+01    1.069113e+00
  3.218394e+01    9.754104e-01
  3.221570e+01    9.119802e-01
  3.224745e+01    8.682674e-01
  3.227920e+01    8.551074e-01
  3.231095e+01    8.445619e-01
  3.234270e+01    7.928704e-01
  3.237445e+01    7.805482e-01
  3.240620e+01    7.903491e-01
  3.243795e+01    7.608582e-01
  3.246970e+01    7.497522e-01
  3.250146e+01    7.540379e-01
  3.253321e+01    7.632855e-01
  3.254908e+01    7.595922e-01