File: XRD/Activation ramp/2024-07-27_002_Ru-CGO-ex_Activtation_ramp_000002_data_000123.dat
# == pyFAI calibration ==
# Distance Sample to Detector: 0.4 m
# PONI: 9.750e-02, 1.135e-01 m
# Rotations: -0.000175 0.000000 -0.000000 rad
#
# == Fit2d calibration ==
# Distance Sample-beamCenter: 400.000 mm
# Center: x=1514.000, y=1300.000 pix
# Tilt: 0.010 deg  TiltPlanRot: 0.010 deg
#
# Detector Detector	 Spline= None	 PixelSize= 7.500e-05, 7.500e-05 m
#    Detector has a mask: False
#    Detector has a dark current: False
#    detector has a flat field: False
#
# Wavelength: 6.888e-11 m
# Mask applied: user provided
# Dark current applied: False
# Flat field applied: False
# Polarization factor: 0.99
# Normalization factor: 1.0
# --> /home/myspot/data/2024_07_Rosario/Ru-CGO-ex/2024-07-27_002_Ru-CGO-ex_Activtation_ramp_000002_data_000123.dat
#       q_nm^-1             I
  2.003187e-02    7.711996e-02
  5.178302e-02    2.671360e-02
  8.353417e-02    1.316382e-01
  1.152853e-01    1.325690e-01
  1.470365e-01    8.824394e-02
  1.787876e-01    1.388577e-02
  2.105388e-01    3.296755e-02
  2.422899e-01    9.208584e-02
  2.740411e-01    6.069512e-02
  3.057922e-01    2.282052e-02
  3.375433e-01    1.287861e-02
  3.692945e-01    3.715181e-02
  4.010456e-01    3.134261e-02
  4.327968e-01    2.199502e-02
  4.645479e-01    5.671686e-02
  4.962991e-01    3.384145e-02
  5.280502e-01    3.200776e-02
  5.598014e-01    6.013948e-02
  5.915525e-01    3.433553e-02
  6.233037e-01    1.661146e-02
  6.550548e-01    4.347605e-02
  6.868060e-01    2.863989e-02
  7.185571e-01    5.727370e-02
  7.503083e-01    3.542236e-02
  7.820594e-01    1.019335e-01
  8.138106e-01    2.169099e-01
  8.455617e-01    2.918188e-01
  8.773129e-01    4.185750e-01
  9.090640e-01    6.135598e-01
  9.408152e-01    6.336299e-01
  9.725663e-01    9.717467e-01
  1.004317e+00    1.029750e+00
  1.036069e+00    1.086530e+00
  1.067820e+00    1.280820e+00
  1.099571e+00    1.394019e+00
  1.131322e+00    1.428671e+00
  1.163073e+00    1.465614e+00
  1.194824e+00    1.563050e+00
  1.226575e+00    2.285838e+00
  1.258327e+00    2.335909e+00
  1.290078e+00    2.399774e+00
  1.321829e+00    2.529351e+00
  1.353580e+00    2.619391e+00
  1.385331e+00    2.678904e+00
  1.417082e+00    2.662343e+00
  1.448834e+00    2.671099e+00
  1.480585e+00    2.830942e+00
  1.512336e+00    2.754106e+00
  1.544087e+00    3.003641e+00
  1.575838e+00    2.904312e+00
  1.607589e+00    2.909630e+00
  1.639340e+00    2.851678e+00
  1.671092e+00    2.712389e+00
  1.702843e+00    2.866562e+00
  1.734594e+00    2.769883e+00
  1.766345e+00    2.796768e+00
  1.798096e+00    2.670805e+00
  1.829847e+00    2.720295e+00
  1.861598e+00    2.676902e+00
  1.893350e+00    2.674103e+00
  1.925101e+00    2.663748e+00
  1.956852e+00    2.645316e+00
  1.988603e+00    2.667567e+00
  2.020354e+00    2.902625e+00
  2.052105e+00    2.818401e+00
  2.083856e+00    2.697136e+00
  2.115608e+00    2.726178e+00
  2.147359e+00    2.610447e+00
  2.179110e+00    2.815991e+00
  2.210861e+00    2.760174e+00
  2.242612e+00    2.673511e+00
  2.274363e+00    2.856264e+00
  2.306115e+00    2.638776e+00
  2.337866e+00    2.714636e+00
  2.369617e+00    2.580574e+00
  2.401368e+00    2.861530e+00
  2.433119e+00    2.730685e+00
  2.464870e+00    2.717029e+00
  2.496621e+00    2.696854e+00
  2.528373e+00    2.761834e+00
  2.560124e+00    2.687621e+00
  2.591875e+00    2.870891e+00
  2.623626e+00    2.732558e+00
  2.655377e+00    2.744650e+00
  2.687128e+00    2.797620e+00
  2.718879e+00    2.805212e+00
  2.750631e+00    2.838927e+00
  2.782382e+00    2.829093e+00
  2.814133e+00    2.749399e+00
  2.845884e+00    2.780025e+00
  2.877635e+00    2.848026e+00
  2.909386e+00    2.897325e+00
  2.941137e+00    2.765840e+00
  2.972889e+00    2.866522e+00
  3.004640e+00    2.843098e+00
  3.036391e+00    2.864212e+00
  3.068142e+00    2.839979e+00
  3.099893e+00    2.787106e+00
  3.131644e+00    2.830729e+00
  3.163395e+00    2.804338e+00
  3.195147e+00    2.999001e+00
  3.226898e+00    2.793728e+00
  3.258649e+00    2.817718e+00
  3.290400e+00    2.897976e+00
  3.322151e+00    2.963970e+00
  3.353902e+00    2.929697e+00
  3.385654e+00    2.858453e+00
  3.417405e+00    2.957865e+00
  3.449156e+00    2.964887e+00
  3.480907e+00    2.928442e+00
  3.512658e+00    2.865295e+00
  3.544409e+00    2.933096e+00
  3.576160e+00    2.862512e+00
  3.607912e+00    2.813128e+00
  3.639663e+00    2.852391e+00
  3.671414e+00    2.934711e+00
  3.703165e+00    2.988049e+00
  3.734916e+00    2.885719e+00
  3.766667e+00    2.944199e+00
  3.798418e+00    2.918386e+00
  3.830170e+00    3.051721e+00
  3.861921e+00    2.967176e+00
  3.893672e+00    2.990773e+00
  3.925423e+00    3.028603e+00
  3.957174e+00    2.974370e+00
  3.988925e+00    2.965566e+00
  4.020676e+00    2.979456e+00
  4.052428e+00    2.974200e+00
  4.084179e+00    3.016556e+00
  4.115930e+00    2.971221e+00
  4.147681e+00    3.031702e+00
  4.179432e+00    3.007593e+00
  4.211183e+00    2.917478e+00
  4.242935e+00    3.007144e+00
  4.274686e+00    3.048264e+00
  4.306437e+00    3.021507e+00
  4.338188e+00    3.021857e+00
  4.369939e+00    2.963970e+00
  4.401690e+00    3.129516e+00
  4.433441e+00    3.059110e+00
  4.465193e+00    3.053314e+00
  4.496944e+00    2.991755e+00
  4.528695e+00    3.023928e+00
  4.560446e+00    3.063524e+00
  4.592197e+00    2.981051e+00
  4.623948e+00    2.918043e+00
  4.655699e+00    3.105466e+00
  4.687451e+00    3.083511e+00
  4.719202e+00    3.014963e+00
  4.750953e+00    3.231764e+00
  4.782704e+00    3.041151e+00
  4.814455e+00    3.080434e+00
  4.846206e+00    3.061038e+00
  4.877957e+00    3.128799e+00
  4.909709e+00    3.123698e+00
  4.941460e+00    3.065337e+00
  4.973211e+00    3.024994e+00
  5.004962e+00    3.119016e+00
  5.036713e+00    3.106242e+00
  5.068464e+00    3.113387e+00
  5.100216e+00    3.117954e+00
  5.131967e+00    3.091838e+00
  5.163718e+00    3.049920e+00
  5.195469e+00    3.078826e+00
  5.227220e+00    3.102529e+00
  5.258971e+00    3.104738e+00
  5.290722e+00    3.082625e+00
  5.322474e+00    3.118937e+00
  5.354225e+00    3.051717e+00
  5.385976e+00    3.136715e+00
  5.417727e+00    3.140779e+00
  5.449478e+00    3.037046e+00
  5.481229e+00    3.033949e+00
  5.512980e+00    2.993270e+00
  5.544732e+00    2.954802e+00
  5.576483e+00    2.954910e+00
  5.608234e+00    3.045844e+00
  5.639985e+00    3.032358e+00
  5.671736e+00    3.030818e+00
  5.703487e+00    3.056813e+00
  5.735238e+00    3.051637e+00
  5.766990e+00    3.026284e+00
  5.798741e+00    3.049826e+00
  5.830492e+00    3.074365e+00
  5.862243e+00    2.969650e+00
  5.893994e+00    2.989132e+00
  5.925745e+00    3.040025e+00
  5.957497e+00    2.953308e+00
  5.989248e+00    3.017796e+00
  6.020999e+00    2.943133e+00
  6.052750e+00    2.943504e+00
  6.084501e+00    3.058156e+00
  6.116252e+00    3.071558e+00
  6.148003e+00    3.050691e+00
  6.179755e+00    3.081838e+00
  6.211506e+00    3.071198e+00
  6.243257e+00    2.942832e+00
  6.275008e+00    3.030422e+00
  6.306759e+00    3.031562e+00
  6.338510e+00    2.988673e+00
  6.370261e+00    3.004389e+00
  6.402013e+00    2.961666e+00
  6.433764e+00    3.002258e+00
  6.465515e+00    2.992263e+00
  6.497266e+00    3.008059e+00
  6.529017e+00    3.018035e+00
  6.560768e+00    3.003113e+00
  6.592519e+00    2.954197e+00
  6.624271e+00    2.986964e+00
  6.656022e+00    2.995610e+00
  6.687773e+00    3.052679e+00
  6.719524e+00    2.952794e+00
  6.751275e+00    2.937618e+00
  6.783026e+00    3.052193e+00
  6.814777e+00    2.983683e+00
  6.846529e+00    3.034626e+00
  6.878280e+00    2.923626e+00
  6.910031e+00    2.946215e+00
  6.941782e+00    3.001532e+00
  6.973533e+00    2.960853e+00
  7.005284e+00    2.932384e+00
  7.037036e+00    2.977711e+00
  7.068787e+00    2.932827e+00
  7.100538e+00    2.945387e+00
  7.132289e+00    2.976130e+00
  7.164040e+00    3.058342e+00
  7.195791e+00    2.983865e+00
  7.227542e+00    2.976806e+00
  7.259294e+00    2.942967e+00
  7.291045e+00    2.942611e+00
  7.322796e+00    2.934829e+00
  7.354547e+00    2.951769e+00
  7.386298e+00    3.033254e+00
  7.418049e+00    3.006296e+00
  7.449800e+00    2.936672e+00
  7.481552e+00    2.941338e+00
  7.513303e+00    2.910885e+00
  7.545054e+00    2.944048e+00
  7.576805e+00    2.860642e+00
  7.608556e+00    2.975631e+00
  7.640307e+00    2.944756e+00
  7.672058e+00    2.948582e+00
  7.703810e+00    2.970958e+00
  7.735561e+00    2.909068e+00
  7.767312e+00    2.915525e+00
  7.799063e+00    2.893324e+00
  7.830814e+00    2.900843e+00
  7.862565e+00    2.968847e+00
  7.894317e+00    2.909095e+00
  7.926068e+00    2.849823e+00
  7.957819e+00    2.938026e+00
  7.989570e+00    2.911887e+00
  8.021321e+00    2.924757e+00
  8.053072e+00    2.936360e+00
  8.084823e+00    2.867438e+00
  8.116575e+00    2.918244e+00
  8.148326e+00    2.888441e+00
  8.180077e+00    2.894450e+00
  8.211828e+00    2.903558e+00
  8.243579e+00    2.948703e+00
  8.275330e+00    2.874467e+00
  8.307081e+00    2.890914e+00
  8.338833e+00    2.928103e+00
  8.370584e+00    2.791492e+00
  8.402335e+00    2.849366e+00
  8.434086e+00    2.854407e+00
  8.465837e+00    2.838159e+00
  8.497588e+00    2.849687e+00
  8.529339e+00    2.803026e+00
  8.561091e+00    2.768267e+00
  8.592842e+00    2.872770e+00
  8.624593e+00    2.831550e+00
  8.656344e+00    2.840991e+00
  8.688095e+00    2.813088e+00
  8.719846e+00    2.823686e+00
  8.751598e+00    2.791090e+00
  8.783349e+00    2.793855e+00
  8.815100e+00    2.738292e+00
  8.846851e+00    2.843730e+00
  8.878602e+00    2.804298e+00
  8.910353e+00    2.817194e+00
  8.942104e+00    2.780195e+00
  8.973856e+00    2.761081e+00
  9.005607e+00    2.765289e+00
  9.037358e+00    2.798240e+00
  9.069109e+00    2.739500e+00
  9.100860e+00    2.755736e+00
  9.132611e+00    2.760830e+00
  9.164362e+00    2.831456e+00
  9.196114e+00    2.741521e+00
  9.227865e+00    2.772462e+00
  9.259616e+00    2.752730e+00
  9.291367e+00    2.736718e+00
  9.323118e+00    2.718349e+00
  9.354869e+00    2.702310e+00
  9.386620e+00    2.687787e+00
  9.418372e+00    2.800190e+00
  9.450123e+00    2.731122e+00
  9.481874e+00    2.758432e+00
  9.513625e+00    2.769578e+00
  9.545376e+00    2.709972e+00
  9.577127e+00    2.703152e+00
  9.608878e+00    2.726179e+00
  9.640630e+00    2.745107e+00
  9.672381e+00    2.701827e+00
  9.704132e+00    2.715002e+00
  9.735883e+00    2.721950e+00
  9.767634e+00    2.698928e+00
  9.799385e+00    2.739666e+00
  9.831137e+00    2.683936e+00
  9.862888e+00    2.674911e+00
  9.894639e+00    2.669947e+00
  9.926390e+00    2.675000e+00
  9.958141e+00    2.646638e+00
  9.989892e+00    2.669067e+00
  1.002164e+01    2.630622e+00
  1.005339e+01    2.653402e+00
  1.008515e+01    2.578713e+00
  1.011690e+01    2.613615e+00
  1.014865e+01    2.642617e+00
  1.018040e+01    2.610874e+00
  1.021215e+01    2.626860e+00
  1.024390e+01    2.632290e+00
  1.027565e+01    2.596872e+00
  1.030740e+01    2.623700e+00
  1.033915e+01    2.603660e+00
  1.037091e+01    2.577117e+00
  1.040266e+01    2.541325e+00
  1.043441e+01    2.561745e+00
  1.046616e+01    2.580419e+00
  1.049791e+01    2.549228e+00
  1.052966e+01    2.553719e+00
  1.056141e+01    2.535784e+00
  1.059316e+01    2.558952e+00
  1.062492e+01    2.580527e+00
  1.065667e+01    2.480788e+00
  1.068842e+01    2.565482e+00
  1.072017e+01    2.524720e+00
  1.075192e+01    2.534040e+00
  1.078367e+01    2.513247e+00
  1.081542e+01    2.516421e+00
  1.084717e+01    2.456127e+00
  1.087892e+01    2.463994e+00
  1.091068e+01    2.468228e+00
  1.094243e+01    2.477771e+00
  1.097418e+01    2.467965e+00
  1.100593e+01    2.458799e+00
  1.103768e+01    2.391639e+00
  1.106943e+01    2.423693e+00
  1.110118e+01    2.428828e+00
  1.113293e+01    2.396443e+00
  1.116468e+01    2.421867e+00
  1.119644e+01    2.432230e+00
  1.122819e+01    2.434268e+00
  1.125994e+01    2.427560e+00
  1.129169e+01    2.458064e+00
  1.132344e+01    2.404060e+00
  1.135519e+01    2.398150e+00
  1.138694e+01    2.426265e+00
  1.141869e+01    2.398229e+00
  1.145045e+01    2.355839e+00
  1.148220e+01    2.390642e+00
  1.151395e+01    2.354111e+00
  1.154570e+01    2.397780e+00
  1.157745e+01    2.330755e+00
  1.160920e+01    2.418885e+00
  1.164095e+01    2.366031e+00
  1.167270e+01    2.333204e+00
  1.170445e+01    2.297476e+00
  1.173621e+01    2.328715e+00
  1.176796e+01    2.350944e+00
  1.179971e+01    2.390577e+00
  1.183146e+01    2.367163e+00
  1.186321e+01    2.292410e+00
  1.189496e+01    2.266109e+00
  1.192671e+01    2.285060e+00
  1.195846e+01    2.310044e+00
  1.199021e+01    2.264426e+00
  1.202197e+01    2.304781e+00
  1.205372e+01    2.281172e+00
  1.208547e+01    2.281619e+00
  1.211722e+01    2.323714e+00
  1.214897e+01    2.268950e+00
  1.218072e+01    2.309241e+00
  1.221247e+01    2.287171e+00
  1.224422e+01    2.262840e+00
  1.227597e+01    2.285476e+00
  1.230773e+01    2.280956e+00
  1.233948e+01    2.284565e+00
  1.237123e+01    2.283721e+00
  1.240298e+01    2.314369e+00
  1.243473e+01    2.326920e+00
  1.246648e+01    2.338665e+00
  1.249823e+01    2.314102e+00
  1.252998e+01    2.355617e+00
  1.256174e+01    2.320099e+00
  1.259349e+01    2.404690e+00
  1.262524e+01    2.383857e+00
  1.265699e+01    2.385080e+00
  1.268874e+01    2.410642e+00
  1.272049e+01    2.491567e+00
  1.275224e+01    2.481877e+00
  1.278399e+01    2.578398e+00
  1.281574e+01    2.679788e+00
  1.284750e+01    2.850104e+00
  1.287925e+01    2.964873e+00
  1.291100e+01    3.253239e+00
  1.294275e+01    3.657269e+00
  1.297450e+01    4.340187e+00
  1.300625e+01    5.404145e+00
  1.303800e+01    7.104181e+00
  1.306975e+01    9.461870e+00
  1.310150e+01    1.210187e+01
  1.313326e+01    1.458315e+01
  1.316501e+01    1.674218e+01
  1.319676e+01    1.703322e+01
  1.322851e+01    1.410510e+01
  1.326026e+01    1.013088e+01
  1.329201e+01    7.230248e+00
  1.332376e+01    5.483777e+00
  1.335551e+01    4.403711e+00
  1.338727e+01    3.784712e+00
  1.341902e+01    3.293477e+00
  1.345077e+01    2.986653e+00
  1.348252e+01    2.748857e+00
  1.351427e+01    2.654075e+00
  1.354602e+01    2.501113e+00
  1.357777e+01    2.433382e+00
  1.360952e+01    2.370939e+00
  1.364127e+01    2.334147e+00
  1.367303e+01    2.286072e+00
  1.370478e+01    2.221922e+00
  1.373653e+01    2.197218e+00
  1.376828e+01    2.133956e+00
  1.380003e+01    2.192238e+00
  1.383178e+01    2.079113e+00
  1.386353e+01    2.103261e+00
  1.389528e+01    2.105478e+00
  1.392703e+01    2.077709e+00
  1.395879e+01    2.045848e+00
  1.399054e+01    2.049065e+00
  1.402229e+01    2.029218e+00
  1.405404e+01    2.004349e+00
  1.408579e+01    2.030478e+00
  1.411754e+01    2.023439e+00
  1.414929e+01    1.968312e+00
  1.418104e+01    1.969327e+00
  1.421279e+01    1.941233e+00
  1.424455e+01    1.951658e+00
  1.427630e+01    1.967231e+00
  1.430805e+01    1.936219e+00
  1.433980e+01    1.918844e+00
  1.437155e+01    1.923428e+00
  1.440330e+01    1.906901e+00
  1.443505e+01    1.948112e+00
  1.446680e+01    1.864878e+00
  1.449856e+01    1.914997e+00
  1.453031e+01    1.871428e+00
  1.456206e+01    1.883318e+00
  1.459381e+01    1.926835e+00
  1.462556e+01    1.905267e+00
  1.465731e+01    1.869576e+00
  1.468906e+01    1.904954e+00
  1.472081e+01    1.871776e+00
  1.475256e+01    1.905030e+00
  1.478432e+01    1.853484e+00
  1.481607e+01    1.899728e+00
  1.484782e+01    1.917172e+00
  1.487957e+01    1.921103e+00
  1.491132e+01    1.942982e+00
  1.494307e+01    1.933880e+00
  1.497482e+01    2.037369e+00
  1.500657e+01    2.124164e+00
  1.503832e+01    2.278498e+00
  1.507008e+01    2.475846e+00
  1.510183e+01    2.849219e+00
  1.513358e+01    3.423938e+00
  1.516533e+01    4.159628e+00
  1.519708e+01    4.817681e+00
  1.522883e+01    5.450651e+00
  1.526058e+01    5.822682e+00
  1.529233e+01    5.696635e+00
  1.532409e+01    4.956338e+00
  1.535584e+01    3.876036e+00
  1.538759e+01    3.118186e+00
  1.541934e+01    2.583025e+00
  1.545109e+01    2.348755e+00
  1.548284e+01    2.117979e+00
  1.551459e+01    2.014942e+00
  1.554634e+01    1.940710e+00
  1.557809e+01    1.820810e+00
  1.560985e+01    1.770755e+00
  1.564160e+01    1.784465e+00
  1.567335e+01    1.758754e+00
  1.570510e+01    1.714524e+00
  1.573685e+01    1.698268e+00
  1.576860e+01    1.740917e+00
  1.580035e+01    1.677860e+00
  1.583210e+01    1.687954e+00
  1.586385e+01    1.638546e+00
  1.589561e+01    1.592269e+00
  1.592736e+01    1.567502e+00
  1.595911e+01    1.612817e+00
  1.599086e+01    1.610102e+00
  1.602261e+01    1.569051e+00
  1.605436e+01    1.620949e+00
  1.608611e+01    1.578254e+00
  1.611786e+01    1.590807e+00
  1.614961e+01    1.551815e+00
  1.618137e+01    1.541093e+00
  1.621312e+01    1.563170e+00
  1.624487e+01    1.583171e+00
  1.627662e+01    1.551300e+00
  1.630837e+01    1.491869e+00
  1.634012e+01    1.518930e+00
  1.637187e+01    1.515444e+00
  1.640362e+01    1.515827e+00
  1.643538e+01    1.513362e+00
  1.646713e+01    1.517030e+00
  1.649888e+01    1.498544e+00
  1.653063e+01    1.513472e+00
  1.656238e+01    1.465055e+00
  1.659413e+01    1.445561e+00
  1.662588e+01    1.457209e+00
  1.665763e+01    1.482063e+00
  1.668938e+01    1.440200e+00
  1.672114e+01    1.460044e+00
  1.675289e+01    1.471961e+00
  1.678464e+01    1.430311e+00
  1.681639e+01    1.467127e+00
  1.684814e+01    1.434278e+00
  1.687989e+01    1.428790e+00
  1.691164e+01    1.425607e+00
  1.694339e+01    1.440423e+00
  1.697514e+01    1.411026e+00
  1.700690e+01    1.420605e+00
  1.703865e+01    1.435600e+00
  1.707040e+01    1.416149e+00
  1.710215e+01    1.402908e+00
  1.713390e+01    1.393182e+00
  1.716565e+01    1.399198e+00
  1.719740e+01    1.414999e+00
  1.722915e+01    1.406077e+00
  1.726091e+01    1.378149e+00
  1.729266e+01    1.377882e+00
  1.732441e+01    1.413422e+00
  1.735616e+01    1.339609e+00
  1.738791e+01    1.372706e+00
  1.741966e+01    1.368080e+00
  1.745141e+01    1.349084e+00
  1.748316e+01    1.394886e+00
  1.751491e+01    1.341699e+00
  1.754667e+01    1.346497e+00
  1.757842e+01    1.350913e+00
  1.761017e+01    1.303393e+00
  1.764192e+01    1.360542e+00
  1.767367e+01    1.279945e+00
  1.770542e+01    1.336143e+00
  1.773717e+01    1.318354e+00
  1.776892e+01    1.326413e+00
  1.780067e+01    1.314135e+00
  1.783243e+01    1.321459e+00
  1.786418e+01    1.289661e+00
  1.789593e+01    1.287402e+00
  1.792768e+01    1.287978e+00
  1.795943e+01    1.289809e+00
  1.799118e+01    1.306502e+00
  1.802293e+01    1.271874e+00
  1.805468e+01    1.288689e+00
  1.808643e+01    1.272507e+00
  1.811819e+01    1.256371e+00
  1.814994e+01    1.270151e+00
  1.818169e+01    1.292135e+00
  1.821344e+01    1.284409e+00
  1.824519e+01    1.277741e+00
  1.827694e+01    1.255192e+00
  1.830869e+01    1.236279e+00
  1.834044e+01    1.267616e+00
  1.837220e+01    1.251238e+00
  1.840395e+01    1.227720e+00
  1.843570e+01    1.234393e+00
  1.846745e+01    1.237105e+00
  1.849920e+01    1.230277e+00
  1.853095e+01    1.227385e+00
  1.856270e+01    1.249706e+00
  1.859445e+01    1.206559e+00
  1.862620e+01    1.191554e+00
  1.865796e+01    1.211939e+00
  1.868971e+01    1.215120e+00
  1.872146e+01    1.236015e+00
  1.875321e+01    1.179492e+00
  1.878496e+01    1.220177e+00
  1.881671e+01    1.218826e+00
  1.884846e+01    1.211060e+00
  1.888021e+01    1.184322e+00
  1.891196e+01    1.213552e+00
  1.894372e+01    1.194415e+00
  1.897547e+01    1.178967e+00
  1.900722e+01    1.192108e+00
  1.903897e+01    1.188885e+00
  1.907072e+01    1.178437e+00
  1.910247e+01    1.186322e+00
  1.913422e+01    1.172681e+00
  1.916597e+01    1.183022e+00
  1.919773e+01    1.178442e+00
  1.922948e+01    1.177543e+00
  1.926123e+01    1.177620e+00
  1.929298e+01    1.179024e+00
  1.932473e+01    1.147193e+00
  1.935648e+01    1.189363e+00
  1.938823e+01    1.157057e+00
  1.941998e+01    1.156235e+00
  1.945173e+01    1.136431e+00
  1.948349e+01    1.148468e+00
  1.951524e+01    1.150008e+00
  1.954699e+01    1.179914e+00
  1.957874e+01    1.139317e+00
  1.961049e+01    1.129594e+00
  1.964224e+01    1.114404e+00
  1.967399e+01    1.140269e+00
  1.970574e+01    1.114856e+00
  1.973749e+01    1.127433e+00
  1.976925e+01    1.135063e+00
  1.980100e+01    1.156214e+00
  1.983275e+01    1.129369e+00
  1.986450e+01    1.107790e+00
  1.989625e+01    1.094292e+00
  1.992800e+01    1.123214e+00
  1.995975e+01    1.125767e+00
  1.999150e+01    1.104815e+00
  2.002325e+01    1.108314e+00
  2.005501e+01    1.114975e+00
  2.008676e+01    1.114570e+00
  2.011851e+01    1.100547e+00
  2.015026e+01    1.097729e+00
  2.018201e+01    1.082646e+00
  2.021376e+01    1.103901e+00
  2.024551e+01    1.077104e+00
  2.027726e+01    1.077375e+00
  2.030902e+01    1.092075e+00
  2.034077e+01    1.118405e+00
  2.037252e+01    1.073468e+00
  2.040427e+01    1.110286e+00
  2.043602e+01    1.071777e+00
  2.046777e+01    1.085685e+00
  2.049952e+01    1.061185e+00
  2.053127e+01    1.060077e+00
  2.056302e+01    1.074369e+00
  2.059478e+01    1.066884e+00
  2.062653e+01    1.080371e+00
  2.065828e+01    1.087585e+00
  2.069003e+01    1.064019e+00
  2.072178e+01    1.082744e+00
  2.075353e+01    1.087435e+00
  2.078528e+01    1.060917e+00
  2.081703e+01    1.065644e+00
  2.084878e+01    1.079247e+00
  2.088054e+01    1.079955e+00
  2.091229e+01    1.068937e+00
  2.094404e+01    1.068330e+00
  2.097579e+01    1.060886e+00
  2.100754e+01    1.054213e+00
  2.103929e+01    1.072286e+00
  2.107104e+01    1.062575e+00
  2.110279e+01    1.081285e+00
  2.113455e+01    1.074214e+00
  2.116630e+01    1.082968e+00
  2.119805e+01    1.099706e+00
  2.122980e+01    1.104623e+00
  2.126155e+01    1.115360e+00
  2.129330e+01    1.088747e+00
  2.132505e+01    1.139683e+00
  2.135680e+01    1.151735e+00
  2.138855e+01    1.141136e+00
  2.142031e+01    1.158832e+00
  2.145206e+01    1.231983e+00
  2.148381e+01    1.236009e+00
  2.151556e+01    1.314650e+00
  2.154731e+01    1.370015e+00
  2.157906e+01    1.456532e+00
  2.161081e+01    1.620408e+00
  2.164256e+01    1.793031e+00
  2.167431e+01    2.062491e+00
  2.170607e+01    2.486291e+00
  2.173782e+01    3.195006e+00
  2.176957e+01    4.206764e+00
  2.180132e+01    5.488821e+00
  2.183307e+01    6.873863e+00
  2.186482e+01    8.415807e+00
  2.189657e+01    9.382004e+00
  2.192832e+01    9.090632e+00
  2.196007e+01    7.525923e+00
  2.199183e+01    5.495371e+00
  2.202358e+01    3.962538e+00
  2.205533e+01    2.980783e+00
  2.208708e+01    2.373791e+00
  2.211883e+01    1.999521e+00
  2.215058e+01    1.710561e+00
  2.218233e+01    1.527547e+00
  2.221408e+01    1.385411e+00
  2.224584e+01    1.276983e+00
  2.227759e+01    1.230560e+00
  2.230934e+01    1.176739e+00
  2.234109e+01    1.138494e+00
  2.237284e+01    1.120657e+00
  2.240459e+01    1.073356e+00
  2.243634e+01    1.076183e+00
  2.246809e+01    1.047361e+00
  2.249984e+01    1.014522e+00
  2.253160e+01    9.762549e-01
  2.256335e+01    9.955583e-01
  2.259510e+01    9.815519e-01
  2.262685e+01    9.498762e-01
  2.265860e+01    9.758411e-01
  2.269035e+01    9.420661e-01
  2.272210e+01    9.329646e-01
  2.275385e+01    9.363318e-01
  2.278560e+01    9.424349e-01
  2.281736e+01    9.375677e-01
  2.284911e+01    9.125112e-01
  2.288086e+01    9.026482e-01
  2.291261e+01    9.065698e-01
  2.294436e+01    8.828831e-01
  2.297611e+01    9.030173e-01
  2.300786e+01    8.866458e-01
  2.303961e+01    9.036183e-01
  2.307137e+01    8.613923e-01
  2.310312e+01    8.676944e-01
  2.313487e+01    8.961619e-01
  2.316662e+01    8.617916e-01
  2.319837e+01    8.488927e-01
  2.323012e+01    8.710108e-01
  2.326187e+01    8.460053e-01
  2.329362e+01    8.474005e-01
  2.332537e+01    8.553227e-01
  2.335713e+01    8.625374e-01
  2.338888e+01    8.421826e-01
  2.342063e+01    8.433869e-01
  2.345238e+01    8.434816e-01
  2.348413e+01    8.188893e-01
  2.351588e+01    8.333914e-01
  2.354763e+01    8.357287e-01
  2.357938e+01    8.238599e-01
  2.361113e+01    8.229414e-01
  2.364289e+01    8.209308e-01
  2.367464e+01    8.613995e-01
  2.370639e+01    8.166086e-01
  2.373814e+01    8.150851e-01
  2.376989e+01    8.037071e-01
  2.380164e+01    8.089604e-01
  2.383339e+01    7.946304e-01
  2.386514e+01    8.046978e-01
  2.389689e+01    7.847522e-01
  2.392865e+01    7.997612e-01
  2.396040e+01    8.004324e-01
  2.399215e+01    7.881973e-01
  2.402390e+01    7.834907e-01
  2.405565e+01    7.839004e-01
  2.408740e+01    7.610915e-01
  2.411915e+01    7.794643e-01
  2.415090e+01    7.677383e-01
  2.418266e+01    7.675003e-01
  2.421441e+01    7.573478e-01
  2.424616e+01    7.538249e-01
  2.427791e+01    7.781169e-01
  2.430966e+01    7.997357e-01
  2.434141e+01    8.071309e-01
  2.437316e+01    7.879558e-01
  2.440491e+01    7.803755e-01
  2.443666e+01    7.759231e-01
  2.446842e+01    7.878020e-01
  2.450017e+01    7.625308e-01
  2.453192e+01    7.877929e-01
  2.456367e+01    7.874749e-01
  2.459542e+01    7.938452e-01
  2.462717e+01    7.867116e-01
  2.465892e+01    7.867573e-01
  2.469067e+01    7.897152e-01
  2.472242e+01    8.028822e-01
  2.475418e+01    7.794485e-01
  2.478593e+01    8.006529e-01
  2.481768e+01    8.035451e-01
  2.484943e+01    7.996880e-01
  2.488118e+01    7.797258e-01
  2.491293e+01    7.898464e-01
  2.494468e+01    7.948409e-01
  2.497643e+01    7.936589e-01
  2.500819e+01    8.069487e-01
  2.503994e+01    8.104773e-01
  2.507169e+01    8.115258e-01
  2.510344e+01    8.116927e-01
  2.513519e+01    8.089628e-01
  2.516694e+01    8.083506e-01
  2.519869e+01    8.297014e-01
  2.523044e+01    8.294755e-01
  2.526219e+01    8.474227e-01
  2.529395e+01    8.686493e-01
  2.532570e+01    8.629172e-01
  2.535745e+01    8.812990e-01
  2.538920e+01    8.971697e-01
  2.542095e+01    9.103463e-01
  2.545270e+01    9.008579e-01
  2.548445e+01    9.539901e-01
  2.551620e+01    9.783655e-01
  2.554795e+01    1.011822e+00
  2.557971e+01    1.073751e+00
  2.561146e+01    1.123225e+00
  2.564321e+01    1.218035e+00
  2.567496e+01    1.314127e+00
  2.570671e+01    1.486750e+00
  2.573846e+01    1.731890e+00
  2.577021e+01    2.011753e+00
  2.580196e+01    2.594049e+00
  2.583371e+01    3.350751e+00
  2.586547e+01    4.333528e+00
  2.589722e+01    5.647600e+00
  2.592897e+01    6.909485e+00
  2.596072e+01    7.737208e+00
  2.599247e+01    7.511945e+00
  2.602422e+01    6.329210e+00
  2.605597e+01    4.733918e+00
  2.608772e+01    3.477422e+00
  2.611948e+01    2.615201e+00
  2.615123e+01    2.096062e+00
  2.618298e+01    1.747018e+00
  2.621473e+01    1.529097e+00
  2.624648e+01    1.338104e+00
  2.627823e+01    1.214517e+00
  2.630998e+01    1.122401e+00
  2.634173e+01    1.066369e+00
  2.637348e+01    1.001712e+00
  2.640524e+01    9.800090e-01
  2.643699e+01    9.711575e-01
  2.646874e+01    9.606727e-01
  2.650049e+01    9.363980e-01
  2.653224e+01    9.227589e-01
  2.656399e+01    9.056326e-01
  2.659574e+01    9.138437e-01
  2.662749e+01    8.750767e-01
  2.665924e+01    8.995035e-01
  2.669100e+01    9.133189e-01
  2.672275e+01    8.785354e-01
  2.675450e+01    9.033232e-01
  2.678625e+01    8.806062e-01
  2.681800e+01    8.899310e-01
  2.684975e+01    9.100738e-01
  2.688150e+01    9.001704e-01
  2.691325e+01    9.031586e-01
  2.694501e+01    9.321363e-01
  2.697676e+01    9.622629e-01
  2.700851e+01    1.025411e+00
  2.704026e+01    1.092796e+00
  2.707201e+01    1.217909e+00
  2.710376e+01    1.390153e+00
  2.713551e+01    1.594925e+00
  2.716726e+01    1.881094e+00
  2.719901e+01    2.178123e+00
  2.723077e+01    2.276091e+00
  2.726252e+01    2.203340e+00
  2.729427e+01    1.877255e+00
  2.732602e+01    1.541588e+00
  2.735777e+01    1.302540e+00
  2.738952e+01    1.158487e+00
  2.742127e+01    1.044408e+00
  2.745302e+01    9.900584e-01
  2.748477e+01    9.154658e-01
  2.751653e+01    9.314533e-01
  2.754828e+01    8.837649e-01
  2.758003e+01    8.582488e-01
  2.761178e+01    8.591112e-01
  2.764353e+01    8.380861e-01
  2.767528e+01    8.329043e-01
  2.770703e+01    8.490366e-01
  2.773878e+01    8.032786e-01
  2.777054e+01    7.892699e-01
  2.780229e+01    8.130955e-01
  2.783404e+01    7.922170e-01
  2.786579e+01    8.211033e-01
  2.789754e+01    7.996007e-01
  2.792929e+01    7.786654e-01
  2.796104e+01    7.977008e-01
  2.799279e+01    8.011153e-01
  2.802454e+01    7.968078e-01
  2.805630e+01    7.681769e-01
  2.808805e+01    7.652279e-01
  2.811980e+01    7.783905e-01
  2.815155e+01    7.692325e-01
  2.818330e+01    7.425136e-01
  2.821505e+01    7.632738e-01
  2.824680e+01    7.822565e-01
  2.827855e+01    7.563927e-01
  2.831030e+01    7.644700e-01
  2.834206e+01    7.559076e-01
  2.837381e+01    7.622723e-01
  2.840556e+01    7.552977e-01
  2.843731e+01    7.577585e-01
  2.846906e+01    7.503688e-01
  2.850081e+01    7.769173e-01
  2.853256e+01    7.823465e-01
  2.856431e+01    7.349578e-01
  2.859606e+01    7.541469e-01
  2.862782e+01    7.699158e-01
  2.865957e+01    7.673660e-01
  2.869132e+01    7.392639e-01
  2.872307e+01    7.539468e-01
  2.875482e+01    7.154521e-01
  2.878657e+01    7.296520e-01
  2.881832e+01    7.391248e-01
  2.885007e+01    7.284274e-01
  2.888183e+01    7.513333e-01
  2.891358e+01    7.143372e-01
  2.894533e+01    7.298056e-01
  2.897708e+01    7.280563e-01
  2.900883e+01    7.578387e-01
  2.904058e+01    7.104201e-01
  2.907233e+01    7.347798e-01
  2.910408e+01    7.377315e-01
  2.913583e+01    7.351040e-01
  2.916759e+01    7.350350e-01
  2.919934e+01    7.361319e-01
  2.923109e+01    7.433022e-01
  2.926284e+01    7.198573e-01
  2.929459e+01    7.141764e-01
  2.932634e+01    7.239372e-01
  2.935809e+01    7.249550e-01
  2.938984e+01    7.113652e-01
  2.942159e+01    7.118601e-01
  2.945335e+01    7.306371e-01
  2.948510e+01    7.267502e-01
  2.951685e+01    7.135646e-01
  2.954860e+01    7.348844e-01
  2.958035e+01    7.382004e-01
  2.961210e+01    7.239323e-01
  2.964385e+01    7.123512e-01
  2.967560e+01    7.041638e-01
  2.970736e+01    7.241910e-01
  2.973911e+01    7.233166e-01
  2.977086e+01    7.104236e-01
  2.980261e+01    7.064617e-01
  2.983436e+01    7.045482e-01
  2.986611e+01    7.120147e-01
  2.989786e+01    7.307433e-01
  2.992961e+01    7.333788e-01
  2.996136e+01    7.306209e-01
  2.999312e+01    7.240325e-01
  3.002487e+01    7.231595e-01
  3.005662e+01    7.224995e-01
  3.008837e+01    7.346078e-01
  3.012012e+01    7.407941e-01
  3.015187e+01    7.236547e-01
  3.018362e+01    6.830015e-01
  3.021537e+01    7.031955e-01
  3.024712e+01    6.821602e-01
  3.027888e+01    7.023015e-01
  3.031063e+01    7.046468e-01
  3.034238e+01    6.987348e-01
  3.037413e+01    7.099308e-01
  3.040588e+01    7.066859e-01
  3.043763e+01    7.079610e-01
  3.046938e+01    7.067155e-01
  3.050113e+01    7.042651e-01
  3.053288e+01    7.068570e-01
  3.056464e+01    7.118723e-01
  3.059639e+01    7.008668e-01
  3.062814e+01    6.979394e-01
  3.065989e+01    7.037931e-01
  3.069164e+01    7.127286e-01
  3.072339e+01    7.082727e-01
  3.075514e+01    7.082350e-01
  3.078689e+01    7.090887e-01
  3.081865e+01    7.141891e-01
  3.085040e+01    7.199129e-01
  3.088215e+01    7.325082e-01
  3.091390e+01    6.962276e-01
  3.094565e+01    7.118049e-01
  3.097740e+01    7.154197e-01
  3.100915e+01    6.954386e-01
  3.104090e+01    6.819997e-01
  3.107265e+01    7.333727e-01
  3.110441e+01    6.907501e-01
  3.113616e+01    7.117020e-01
  3.116791e+01    7.095806e-01
  3.119966e+01    7.236491e-01
  3.123141e+01    7.123803e-01
  3.126316e+01    7.152258e-01
  3.129491e+01    7.207060e-01
  3.132666e+01    7.357090e-01
  3.135841e+01    7.400567e-01
  3.139017e+01    7.113374e-01
  3.142192e+01    7.549616e-01
  3.145367e+01    7.308519e-01
  3.148542e+01    7.516688e-01
  3.151717e+01    7.656866e-01
  3.154892e+01    7.909462e-01
  3.158067e+01    7.927451e-01
  3.161242e+01    8.040668e-01
  3.164418e+01    8.357152e-01
  3.167593e+01    8.977769e-01
  3.170768e+01    9.712594e-01
  3.173943e+01    1.038741e+00
  3.177118e+01    1.155024e+00
  3.180293e+01    1.375944e+00
  3.183468e+01    1.610657e+00
  3.186643e+01    1.901029e+00
  3.189818e+01    2.173837e+00
  3.192994e+01    2.247889e+00
  3.196169e+01    2.096136e+00
  3.199344e+01    1.765756e+00
  3.202519e+01    1.456453e+00
  3.205694e+01    1.222186e+00
  3.208869e+01    1.046914e+00
  3.212044e+01    9.942066e-01
  3.215219e+01    8.971424e-01
  3.218394e+01    8.458883e-01
  3.221570e+01    8.278663e-01
  3.224745e+01    7.677257e-01
  3.227920e+01    7.747400e-01
  3.231095e+01    7.656178e-01
  3.234270e+01    7.254961e-01
  3.237445e+01    7.470046e-01
  3.240620e+01    7.325308e-01
  3.243795e+01    7.501439e-01
  3.246970e+01    7.019147e-01
  3.250146e+01    7.272789e-01
  3.253321e+01    7.146295e-01
  3.254908e+01    7.208050e-01