File: XRD/Activation ramp/2024-07-27_002_Ru-CGO-ex_Activtation_ramp_000002_data_000078.dat
# == pyFAI calibration ==
# Distance Sample to Detector: 0.4 m
# PONI: 9.750e-02, 1.135e-01 m
# Rotations: -0.000175 0.000000 -0.000000 rad
#
# == Fit2d calibration ==
# Distance Sample-beamCenter: 400.000 mm
# Center: x=1514.000, y=1300.000 pix
# Tilt: 0.010 deg  TiltPlanRot: 0.010 deg
#
# Detector Detector	 Spline= None	 PixelSize= 7.500e-05, 7.500e-05 m
#    Detector has a mask: False
#    Detector has a dark current: False
#    detector has a flat field: False
#
# Wavelength: 6.888e-11 m
# Mask applied: user provided
# Dark current applied: False
# Flat field applied: False
# Polarization factor: 0.99
# Normalization factor: 1.0
# --> /home/myspot/data/2024_07_Rosario/Ru-CGO-ex/2024-07-27_002_Ru-CGO-ex_Activtation_ramp_000002_data_000078.dat
#       q_nm^-1             I
  2.003187e-02    0.000000e+00
  5.178302e-02    2.670345e-02
  8.353417e-02    8.947597e-02
  1.152853e-01    1.577930e-02
  1.470365e-01    6.494864e-02
  1.787876e-01    4.344329e-02
  2.105388e-01    3.685626e-02
  2.422899e-01    2.531838e-02
  2.740411e-01    1.617265e-02
  3.057922e-01    2.310269e-02
  3.375433e-01    2.491798e-02
  3.692945e-01    2.332603e-02
  4.010456e-01    3.246890e-02
  4.327968e-01    2.971420e-02
  4.645479e-01    6.272309e-02
  4.962991e-01    4.769387e-02
  5.280502e-01    4.407359e-02
  5.598014e-01    6.044947e-02
  5.915525e-01    3.407288e-02
  6.233037e-01    4.904893e-02
  6.550548e-01    2.702936e-02
  6.868060e-01    2.846264e-02
  7.185571e-01    4.189024e-02
  7.503083e-01    3.776960e-02
  7.820594e-01    1.374025e-01
  8.138106e-01    2.126922e-01
  8.455617e-01    2.924861e-01
  8.773129e-01    4.013796e-01
  9.090640e-01    5.304732e-01
  9.408152e-01    6.528270e-01
  9.725663e-01    8.469630e-01
  1.004317e+00    1.028911e+00
  1.036069e+00    1.129295e+00
  1.067820e+00    1.316549e+00
  1.099571e+00    1.393455e+00
  1.131322e+00    1.508418e+00
  1.163073e+00    1.457992e+00
  1.194824e+00    1.680068e+00
  1.226575e+00    2.065673e+00
  1.258327e+00    2.323259e+00
  1.290078e+00    2.390919e+00
  1.321829e+00    2.324242e+00
  1.353580e+00    2.578484e+00
  1.385331e+00    2.594435e+00
  1.417082e+00    2.646450e+00
  1.448834e+00    2.847585e+00
  1.480585e+00    2.804899e+00
  1.512336e+00    2.964323e+00
  1.544087e+00    2.887196e+00
  1.575838e+00    3.043443e+00
  1.607589e+00    2.924426e+00
  1.639340e+00    2.969848e+00
  1.671092e+00    2.997454e+00
  1.702843e+00    2.833892e+00
  1.734594e+00    2.853187e+00
  1.766345e+00    2.892313e+00
  1.798096e+00    2.827353e+00
  1.829847e+00    2.728104e+00
  1.861598e+00    2.928293e+00
  1.893350e+00    2.752577e+00
  1.925101e+00    2.616133e+00
  1.956852e+00    2.858707e+00
  1.988603e+00    2.644619e+00
  2.020354e+00    2.797288e+00
  2.052105e+00    2.653242e+00
  2.083856e+00    2.776118e+00
  2.115608e+00    2.719016e+00
  2.147359e+00    2.769120e+00
  2.179110e+00    2.746892e+00
  2.210861e+00    2.787570e+00
  2.242612e+00    2.769611e+00
  2.274363e+00    2.643894e+00
  2.306115e+00    2.744748e+00
  2.337866e+00    2.806724e+00
  2.369617e+00    2.774833e+00
  2.401368e+00    2.686291e+00
  2.433119e+00    2.637652e+00
  2.464870e+00    2.705214e+00
  2.496621e+00    2.741384e+00
  2.528373e+00    2.835083e+00
  2.560124e+00    2.764589e+00
  2.591875e+00    2.823169e+00
  2.623626e+00    2.856766e+00
  2.655377e+00    2.867285e+00
  2.687128e+00    2.795251e+00
  2.718879e+00    2.764045e+00
  2.750631e+00    2.836480e+00
  2.782382e+00    2.850744e+00
  2.814133e+00    2.828483e+00
  2.845884e+00    2.885820e+00
  2.877635e+00    2.894854e+00
  2.909386e+00    2.824865e+00
  2.941137e+00    2.868186e+00
  2.972889e+00    2.763723e+00
  3.004640e+00    2.965756e+00
  3.036391e+00    2.876697e+00
  3.068142e+00    2.951043e+00
  3.099893e+00    2.987795e+00
  3.131644e+00    2.932396e+00
  3.163395e+00    2.858097e+00
  3.195147e+00    2.934079e+00
  3.226898e+00    2.847473e+00
  3.258649e+00    2.919721e+00
  3.290400e+00    2.830618e+00
  3.322151e+00    2.855822e+00
  3.353902e+00    2.861809e+00
  3.385654e+00    2.974521e+00
  3.417405e+00    2.932913e+00
  3.449156e+00    2.916710e+00
  3.480907e+00    2.901131e+00
  3.512658e+00    2.910494e+00
  3.544409e+00    2.944441e+00
  3.576160e+00    2.947206e+00
  3.607912e+00    2.994091e+00
  3.639663e+00    2.982309e+00
  3.671414e+00    2.892560e+00
  3.703165e+00    2.937122e+00
  3.734916e+00    2.949066e+00
  3.766667e+00    2.979032e+00
  3.798418e+00    2.936692e+00
  3.830170e+00    2.954330e+00
  3.861921e+00    3.013786e+00
  3.893672e+00    3.074152e+00
  3.925423e+00    2.993909e+00
  3.957174e+00    3.018504e+00
  3.988925e+00    3.022997e+00
  4.020676e+00    3.038271e+00
  4.052428e+00    2.881311e+00
  4.084179e+00    2.945545e+00
  4.115930e+00    3.079490e+00
  4.147681e+00    2.866538e+00
  4.179432e+00    3.129342e+00
  4.211183e+00    2.991858e+00
  4.242935e+00    2.938919e+00
  4.274686e+00    2.981641e+00
  4.306437e+00    3.073998e+00
  4.338188e+00    3.105935e+00
  4.369939e+00    2.996873e+00
  4.401690e+00    2.989441e+00
  4.433441e+00    3.105406e+00
  4.465193e+00    3.049781e+00
  4.496944e+00    3.102887e+00
  4.528695e+00    3.081568e+00
  4.560446e+00    3.150003e+00
  4.592197e+00    3.022763e+00
  4.623948e+00    3.131830e+00
  4.655699e+00    3.052239e+00
  4.687451e+00    3.030157e+00
  4.719202e+00    3.025109e+00
  4.750953e+00    3.229820e+00
  4.782704e+00    3.080570e+00
  4.814455e+00    3.064930e+00
  4.846206e+00    3.132934e+00
  4.877957e+00    3.033318e+00
  4.909709e+00    3.129079e+00
  4.941460e+00    3.112747e+00
  4.973211e+00    3.086955e+00
  5.004962e+00    3.118746e+00
  5.036713e+00    3.120434e+00
  5.068464e+00    3.140308e+00
  5.100216e+00    3.177315e+00
  5.131967e+00    3.150929e+00
  5.163718e+00    3.304802e+00
  5.195469e+00    3.159848e+00
  5.227220e+00    3.107868e+00
  5.258971e+00    3.059766e+00
  5.290722e+00    3.130128e+00
  5.322474e+00    3.137043e+00
  5.354225e+00    3.143688e+00
  5.385976e+00    3.167358e+00
  5.417727e+00    3.065716e+00
  5.449478e+00    3.098555e+00
  5.481229e+00    3.068055e+00
  5.512980e+00    3.105954e+00
  5.544732e+00    3.110569e+00
  5.576483e+00    3.095226e+00
  5.608234e+00    3.038061e+00
  5.639985e+00    3.074334e+00
  5.671736e+00    3.023222e+00
  5.703487e+00    3.063900e+00
  5.735238e+00    3.056238e+00
  5.766990e+00    3.065049e+00
  5.798741e+00    3.006619e+00
  5.830492e+00    3.144226e+00
  5.862243e+00    2.953101e+00
  5.893994e+00    2.997107e+00
  5.925745e+00    3.040568e+00
  5.957497e+00    3.102849e+00
  5.989248e+00    2.997581e+00
  6.020999e+00    3.025621e+00
  6.052750e+00    3.061256e+00
  6.084501e+00    3.052900e+00
  6.116252e+00    3.094514e+00
  6.148003e+00    3.081770e+00
  6.179755e+00    3.047842e+00
  6.211506e+00    3.101039e+00
  6.243257e+00    3.020652e+00
  6.275008e+00    3.070418e+00
  6.306759e+00    2.943922e+00
  6.338510e+00    3.039553e+00
  6.370261e+00    3.049960e+00
  6.402013e+00    3.051168e+00
  6.433764e+00    2.965082e+00
  6.465515e+00    3.015815e+00
  6.497266e+00    3.076417e+00
  6.529017e+00    3.058654e+00
  6.560768e+00    3.039735e+00
  6.592519e+00    2.964371e+00
  6.624271e+00    3.073953e+00
  6.656022e+00    3.034695e+00
  6.687773e+00    2.992178e+00
  6.719524e+00    3.067853e+00
  6.751275e+00    3.005487e+00
  6.783026e+00    3.032491e+00
  6.814777e+00    2.989863e+00
  6.846529e+00    3.004831e+00
  6.878280e+00    2.959730e+00
  6.910031e+00    3.091589e+00
  6.941782e+00    2.995820e+00
  6.973533e+00    2.963953e+00
  7.005284e+00    2.949794e+00
  7.037036e+00    3.038274e+00
  7.068787e+00    2.984270e+00
  7.100538e+00    2.939707e+00
  7.132289e+00    2.998638e+00
  7.164040e+00    2.931291e+00
  7.195791e+00    2.968399e+00
  7.227542e+00    2.948135e+00
  7.259294e+00    2.902322e+00
  7.291045e+00    2.984646e+00
  7.322796e+00    2.939465e+00
  7.354547e+00    2.965139e+00
  7.386298e+00    2.922691e+00
  7.418049e+00    3.039572e+00
  7.449800e+00    3.024584e+00
  7.481552e+00    2.985131e+00
  7.513303e+00    2.931478e+00
  7.545054e+00    2.973626e+00
  7.576805e+00    2.914939e+00
  7.608556e+00    2.944326e+00
  7.640307e+00    2.877788e+00
  7.672058e+00    2.922986e+00
  7.703810e+00    2.880402e+00
  7.735561e+00    2.945963e+00
  7.767312e+00    2.933005e+00
  7.799063e+00    2.930236e+00
  7.830814e+00    2.889830e+00
  7.862565e+00    2.883389e+00
  7.894317e+00    2.828633e+00
  7.926068e+00    2.929397e+00
  7.957819e+00    2.886472e+00
  7.989570e+00    2.925941e+00
  8.021321e+00    2.931369e+00
  8.053072e+00    2.853269e+00
  8.084823e+00    2.888144e+00
  8.116575e+00    2.916861e+00
  8.148326e+00    3.017015e+00
  8.180077e+00    2.925436e+00
  8.211828e+00    2.923856e+00
  8.243579e+00    3.003778e+00
  8.275330e+00    2.904680e+00
  8.307081e+00    2.880661e+00
  8.338833e+00    2.905646e+00
  8.370584e+00    2.844937e+00
  8.402335e+00    2.867949e+00
  8.434086e+00    2.883137e+00
  8.465837e+00    2.931793e+00
  8.497588e+00    2.865212e+00
  8.529339e+00    2.908610e+00
  8.561091e+00    2.847100e+00
  8.592842e+00    2.850185e+00
  8.624593e+00    2.840796e+00
  8.656344e+00    2.874827e+00
  8.688095e+00    2.899351e+00
  8.719846e+00    2.891258e+00
  8.751598e+00    2.852061e+00
  8.783349e+00    2.887677e+00
  8.815100e+00    2.865047e+00
  8.846851e+00    2.739245e+00
  8.878602e+00    2.839669e+00
  8.910353e+00    2.818522e+00
  8.942104e+00    2.832073e+00
  8.973856e+00    2.766582e+00
  9.005607e+00    2.771991e+00
  9.037358e+00    2.783026e+00
  9.069109e+00    2.779385e+00
  9.100860e+00    2.751867e+00
  9.132611e+00    2.831532e+00
  9.164362e+00    2.769595e+00
  9.196114e+00    2.783670e+00
  9.227865e+00    2.847176e+00
  9.259616e+00    2.793221e+00
  9.291367e+00    2.772282e+00
  9.323118e+00    2.748899e+00
  9.354869e+00    2.773406e+00
  9.386620e+00    2.767050e+00
  9.418372e+00    2.720042e+00
  9.450123e+00    2.789151e+00
  9.481874e+00    2.735172e+00
  9.513625e+00    2.733849e+00
  9.545376e+00    2.745513e+00
  9.577127e+00    2.753244e+00
  9.608878e+00    2.683518e+00
  9.640630e+00    2.743545e+00
  9.672381e+00    2.717143e+00
  9.704132e+00    2.742498e+00
  9.735883e+00    2.683043e+00
  9.767634e+00    2.703305e+00
  9.799385e+00    2.692419e+00
  9.831137e+00    2.693033e+00
  9.862888e+00    2.740302e+00
  9.894639e+00    2.670009e+00
  9.926390e+00    2.641648e+00
  9.958141e+00    2.631939e+00
  9.989892e+00    2.721442e+00
  1.002164e+01    2.691751e+00
  1.005339e+01    2.653622e+00
  1.008515e+01    2.696507e+00
  1.011690e+01    2.643597e+00
  1.014865e+01    2.649151e+00
  1.018040e+01    2.644501e+00
  1.021215e+01    2.626872e+00
  1.024390e+01    2.668262e+00
  1.027565e+01    2.635616e+00
  1.030740e+01    2.618049e+00
  1.033915e+01    2.639184e+00
  1.037091e+01    2.645581e+00
  1.040266e+01    2.541193e+00
  1.043441e+01    2.555144e+00
  1.046616e+01    2.526537e+00
  1.049791e+01    2.602235e+00
  1.052966e+01    2.612052e+00
  1.056141e+01    2.602019e+00
  1.059316e+01    2.613049e+00
  1.062492e+01    2.505441e+00
  1.065667e+01    2.570624e+00
  1.068842e+01    2.568566e+00
  1.072017e+01    2.560435e+00
  1.075192e+01    2.497859e+00
  1.078367e+01    2.522372e+00
  1.081542e+01    2.496197e+00
  1.084717e+01    2.475419e+00
  1.087892e+01    2.435028e+00
  1.091068e+01    2.509707e+00
  1.094243e+01    2.549450e+00
  1.097418e+01    2.563056e+00
  1.100593e+01    2.445478e+00
  1.103768e+01    2.474776e+00
  1.106943e+01    2.478915e+00
  1.110118e+01    2.477553e+00
  1.113293e+01    2.399022e+00
  1.116468e+01    2.477934e+00
  1.119644e+01    2.413727e+00
  1.122819e+01    2.405811e+00
  1.125994e+01    2.425691e+00
  1.129169e+01    2.437261e+00
  1.132344e+01    2.422112e+00
  1.135519e+01    2.419851e+00
  1.138694e+01    2.380626e+00
  1.141869e+01    2.422971e+00
  1.145045e+01    2.405172e+00
  1.148220e+01    2.345069e+00
  1.151395e+01    2.410989e+00
  1.154570e+01    2.389489e+00
  1.157745e+01    2.409933e+00
  1.160920e+01    2.389870e+00
  1.164095e+01    2.384795e+00
  1.167270e+01    2.348182e+00
  1.170445e+01    2.353710e+00
  1.173621e+01    2.364571e+00
  1.176796e+01    2.362740e+00
  1.179971e+01    2.341170e+00
  1.183146e+01    2.353932e+00
  1.186321e+01    2.355994e+00
  1.189496e+01    2.318466e+00
  1.192671e+01    2.345472e+00
  1.195846e+01    2.325894e+00
  1.199021e+01    2.306356e+00
  1.202197e+01    2.332559e+00
  1.205372e+01    2.300160e+00
  1.208547e+01    2.337870e+00
  1.211722e+01    2.340494e+00
  1.214897e+01    2.344150e+00
  1.218072e+01    2.303490e+00
  1.221247e+01    2.298333e+00
  1.224422e+01    2.303452e+00
  1.227597e+01    2.305148e+00
  1.230773e+01    2.345286e+00
  1.233948e+01    2.313229e+00
  1.237123e+01    2.317877e+00
  1.240298e+01    2.285867e+00
  1.243473e+01    2.321551e+00
  1.246648e+01    2.297142e+00
  1.249823e+01    2.363514e+00
  1.252998e+01    2.344203e+00
  1.256174e+01    2.376175e+00
  1.259349e+01    2.421927e+00
  1.262524e+01    2.438725e+00
  1.265699e+01    2.411506e+00
  1.268874e+01    2.427929e+00
  1.272049e+01    2.496151e+00
  1.275224e+01    2.552744e+00
  1.278399e+01    2.632416e+00
  1.281574e+01    2.685254e+00
  1.284750e+01    2.824042e+00
  1.287925e+01    3.070168e+00
  1.291100e+01    3.225076e+00
  1.294275e+01    3.744974e+00
  1.297450e+01    4.275963e+00
  1.300625e+01    5.269205e+00
  1.303800e+01    6.806767e+00
  1.306975e+01    9.205994e+00
  1.310150e+01    1.208734e+01
  1.313326e+01    1.474438e+01
  1.316501e+01    1.723282e+01
  1.319676e+01    1.840736e+01
  1.322851e+01    1.614466e+01
  1.326026e+01    1.185204e+01
  1.329201e+01    8.322256e+00
  1.332376e+01    6.185168e+00
  1.335551e+01    4.797587e+00
  1.338727e+01    4.071816e+00
  1.341902e+01    3.515506e+00
  1.345077e+01    3.102251e+00
  1.348252e+01    2.851002e+00
  1.351427e+01    2.731332e+00
  1.354602e+01    2.547755e+00
  1.357777e+01    2.501280e+00
  1.360952e+01    2.464368e+00
  1.364127e+01    2.322116e+00
  1.367303e+01    2.310214e+00
  1.370478e+01    2.280843e+00
  1.373653e+01    2.223863e+00
  1.376828e+01    2.208385e+00
  1.380003e+01    2.176784e+00
  1.383178e+01    2.117327e+00
  1.386353e+01    2.162409e+00
  1.389528e+01    2.126950e+00
  1.392703e+01    2.083603e+00
  1.395879e+01    2.064990e+00
  1.399054e+01    2.059742e+00
  1.402229e+01    2.081107e+00
  1.405404e+01    2.068952e+00
  1.408579e+01    2.010347e+00
  1.411754e+01    2.030733e+00
  1.414929e+01    2.021865e+00
  1.418104e+01    1.969153e+00
  1.421279e+01    1.968995e+00
  1.424455e+01    1.953173e+00
  1.427630e+01    1.967617e+00
  1.430805e+01    1.914583e+00
  1.433980e+01    1.945992e+00
  1.437155e+01    1.935382e+00
  1.440330e+01    1.947415e+00
  1.443505e+01    1.942565e+00
  1.446680e+01    1.929345e+00
  1.449856e+01    1.897361e+00
  1.453031e+01    1.894554e+00
  1.456206e+01    1.928463e+00
  1.459381e+01    1.903368e+00
  1.462556e+01    1.908902e+00
  1.465731e+01    1.917860e+00
  1.468906e+01    1.903830e+00
  1.472081e+01    1.898693e+00
  1.475256e+01    1.926916e+00
  1.478432e+01    1.909178e+00
  1.481607e+01    1.896566e+00
  1.484782e+01    1.947976e+00
  1.487957e+01    1.991566e+00
  1.491132e+01    1.936968e+00
  1.494307e+01    2.003143e+00
  1.497482e+01    2.048175e+00
  1.500657e+01    2.123000e+00
  1.503832e+01    2.270295e+00
  1.507008e+01    2.471561e+00
  1.510183e+01    2.849782e+00
  1.513358e+01    3.338301e+00
  1.516533e+01    4.014073e+00
  1.519708e+01    4.886855e+00
  1.522883e+01    5.512264e+00
  1.526058e+01    6.127720e+00
  1.529233e+01    6.133549e+00
  1.532409e+01    5.625437e+00
  1.535584e+01    4.406903e+00
  1.538759e+01    3.450418e+00
  1.541934e+01    2.886566e+00
  1.545109e+01    2.440311e+00
  1.548284e+01    2.225979e+00
  1.551459e+01    2.060018e+00
  1.554634e+01    1.986841e+00
  1.557809e+01    1.918964e+00
  1.560985e+01    1.856861e+00
  1.564160e+01    1.799442e+00
  1.567335e+01    1.781045e+00
  1.570510e+01    1.775555e+00
  1.573685e+01    1.718158e+00
  1.576860e+01    1.745992e+00
  1.580035e+01    1.696896e+00
  1.583210e+01    1.704924e+00
  1.586385e+01    1.675339e+00
  1.589561e+01    1.651703e+00
  1.592736e+01    1.638029e+00
  1.595911e+01    1.634968e+00
  1.599086e+01    1.635667e+00
  1.602261e+01    1.616006e+00
  1.605436e+01    1.593603e+00
  1.608611e+01    1.596446e+00
  1.611786e+01    1.585866e+00
  1.614961e+01    1.593466e+00
  1.618137e+01    1.563828e+00
  1.621312e+01    1.595058e+00
  1.624487e+01    1.541429e+00
  1.627662e+01    1.527358e+00
  1.630837e+01    1.526904e+00
  1.634012e+01    1.532368e+00
  1.637187e+01    1.527427e+00
  1.640362e+01    1.528204e+00
  1.643538e+01    1.499117e+00
  1.646713e+01    1.565136e+00
  1.649888e+01    1.510968e+00
  1.653063e+01    1.522095e+00
  1.656238e+01    1.486109e+00
  1.659413e+01    1.505759e+00
  1.662588e+01    1.473881e+00
  1.665763e+01    1.488512e+00
  1.668938e+01    1.479954e+00
  1.672114e+01    1.456794e+00
  1.675289e+01    1.470808e+00
  1.678464e+01    1.468962e+00
  1.681639e+01    1.479245e+00
  1.684814e+01    1.442324e+00
  1.687989e+01    1.455365e+00
  1.691164e+01    1.461963e+00
  1.694339e+01    1.436763e+00
  1.697514e+01    1.435767e+00
  1.700690e+01    1.420614e+00
  1.703865e+01    1.428415e+00
  1.707040e+01    1.385826e+00
  1.710215e+01    1.429402e+00
  1.713390e+01    1.410879e+00
  1.716565e+01    1.408952e+00
  1.719740e+01    1.386533e+00
  1.722915e+01    1.375421e+00
  1.726091e+01    1.358341e+00
  1.729266e+01    1.334987e+00
  1.732441e+01    1.397035e+00
  1.735616e+01    1.409593e+00
  1.738791e+01    1.353310e+00
  1.741966e+01    1.336341e+00
  1.745141e+01    1.366314e+00
  1.748316e+01    1.347447e+00
  1.751491e+01    1.376075e+00
  1.754667e+01    1.329195e+00
  1.757842e+01    1.369018e+00
  1.761017e+01    1.370245e+00
  1.764192e+01    1.326203e+00
  1.767367e+01    1.365658e+00
  1.770542e+01    1.342178e+00
  1.773717e+01    1.327904e+00
  1.776892e+01    1.335784e+00
  1.780067e+01    1.342279e+00
  1.783243e+01    1.318277e+00
  1.786418e+01    1.320750e+00
  1.789593e+01    1.321141e+00
  1.792768e+01    1.302319e+00
  1.795943e+01    1.300531e+00
  1.799118e+01    1.326079e+00
  1.802293e+01    1.320390e+00
  1.805468e+01    1.292636e+00
  1.808643e+01    1.279829e+00
  1.811819e+01    1.297773e+00
  1.814994e+01    1.282109e+00
  1.818169e+01    1.305206e+00
  1.821344e+01    1.276809e+00
  1.824519e+01    1.286621e+00
  1.827694e+01    1.249418e+00
  1.830869e+01    1.280633e+00
  1.834044e+01    1.286745e+00
  1.837220e+01    1.250748e+00
  1.840395e+01    1.260796e+00
  1.843570e+01    1.254691e+00
  1.846745e+01    1.263267e+00
  1.849920e+01    1.260964e+00
  1.853095e+01    1.264135e+00
  1.856270e+01    1.235999e+00
  1.859445e+01    1.233865e+00
  1.862620e+01    1.223227e+00
  1.865796e+01    1.255610e+00
  1.868971e+01    1.192602e+00
  1.872146e+01    1.219373e+00
  1.875321e+01    1.225402e+00
  1.878496e+01    1.213274e+00
  1.881671e+01    1.202109e+00
  1.884846e+01    1.209575e+00
  1.888021e+01    1.215623e+00
  1.891196e+01    1.215258e+00
  1.894372e+01    1.186623e+00
  1.897547e+01    1.196808e+00
  1.900722e+01    1.168849e+00
  1.903897e+01    1.195396e+00
  1.907072e+01    1.181189e+00
  1.910247e+01    1.204413e+00
  1.913422e+01    1.211438e+00
  1.916597e+01    1.185347e+00
  1.919773e+01    1.170577e+00
  1.922948e+01    1.175970e+00
  1.926123e+01    1.181974e+00
  1.929298e+01    1.190714e+00
  1.932473e+01    1.175797e+00
  1.935648e+01    1.160923e+00
  1.938823e+01    1.170485e+00
  1.941998e+01    1.153143e+00
  1.945173e+01    1.172280e+00
  1.948349e+01    1.164866e+00
  1.951524e+01    1.175722e+00
  1.954699e+01    1.153542e+00
  1.957874e+01    1.158999e+00
  1.961049e+01    1.150797e+00
  1.964224e+01    1.166520e+00
  1.967399e+01    1.162636e+00
  1.970574e+01    1.136027e+00
  1.973749e+01    1.138689e+00
  1.976925e+01    1.116198e+00
  1.980100e+01    1.150668e+00
  1.983275e+01    1.118636e+00
  1.986450e+01    1.131852e+00
  1.989625e+01    1.151583e+00
  1.992800e+01    1.107553e+00
  1.995975e+01    1.114856e+00
  1.999150e+01    1.128400e+00
  2.002325e+01    1.122293e+00
  2.005501e+01    1.077594e+00
  2.008676e+01    1.126536e+00
  2.011851e+01    1.135764e+00
  2.015026e+01    1.071186e+00
  2.018201e+01    1.101442e+00
  2.021376e+01    1.117199e+00
  2.024551e+01    1.094534e+00
  2.027726e+01    1.063793e+00
  2.030902e+01    1.106821e+00
  2.034077e+01    1.092488e+00
  2.037252e+01    1.062773e+00
  2.040427e+01    1.094255e+00
  2.043602e+01    1.088311e+00
  2.046777e+01    1.114860e+00
  2.049952e+01    1.093420e+00
  2.053127e+01    1.093953e+00
  2.056302e+01    1.083069e+00
  2.059478e+01    1.088578e+00
  2.062653e+01    1.074751e+00
  2.065828e+01    1.055096e+00
  2.069003e+01    1.070518e+00
  2.072178e+01    1.114430e+00
  2.075353e+01    1.120271e+00
  2.078528e+01    1.101063e+00
  2.081703e+01    1.089457e+00
  2.084878e+01    1.084328e+00
  2.088054e+01    1.093825e+00
  2.091229e+01    1.076634e+00
  2.094404e+01    1.070588e+00
  2.097579e+01    1.082940e+00
  2.100754e+01    1.062973e+00
  2.103929e+01    1.106938e+00
  2.107104e+01    1.095089e+00
  2.110279e+01    1.075538e+00
  2.113455e+01    1.065777e+00
  2.116630e+01    1.098581e+00
  2.119805e+01    1.089068e+00
  2.122980e+01    1.112036e+00
  2.126155e+01    1.111064e+00
  2.129330e+01    1.114187e+00
  2.132505e+01    1.118061e+00
  2.135680e+01    1.159667e+00
  2.138855e+01    1.177002e+00
  2.142031e+01    1.204357e+00
  2.145206e+01    1.216393e+00
  2.148381e+01    1.292013e+00
  2.151556e+01    1.275184e+00
  2.154731e+01    1.352496e+00
  2.157906e+01    1.447765e+00
  2.161081e+01    1.552016e+00
  2.164256e+01    1.751755e+00
  2.167431e+01    2.046596e+00
  2.170607e+01    2.399688e+00
  2.173782e+01    3.000191e+00
  2.176957e+01    3.893761e+00
  2.180132e+01    5.154228e+00
  2.183307e+01    6.649756e+00
  2.186482e+01    8.135185e+00
  2.189657e+01    9.707294e+00
  2.192832e+01    1.016645e+01
  2.196007e+01    9.036568e+00
  2.199183e+01    6.803530e+00
  2.202358e+01    4.865535e+00
  2.205533e+01    3.560647e+00
  2.208708e+01    2.731838e+00
  2.211883e+01    2.241200e+00
  2.215058e+01    1.904957e+00
  2.218233e+01    1.639753e+00
  2.221408e+01    1.502807e+00
  2.224584e+01    1.390807e+00
  2.227759e+01    1.273137e+00
  2.230934e+01    1.224745e+00
  2.234109e+01    1.179865e+00
  2.237284e+01    1.126329e+00
  2.240459e+01    1.117388e+00
  2.243634e+01    1.084865e+00
  2.246809e+01    1.084973e+00
  2.249984e+01    1.043030e+00
  2.253160e+01    1.038138e+00
  2.256335e+01    1.000590e+00
  2.259510e+01    9.912469e-01
  2.262685e+01    9.786562e-01
  2.265860e+01    9.604680e-01
  2.269035e+01    9.855216e-01
  2.272210e+01    9.549950e-01
  2.275385e+01    9.508613e-01
  2.278560e+01    9.511677e-01
  2.281736e+01    9.265913e-01
  2.284911e+01    9.265355e-01
  2.288086e+01    9.142357e-01
  2.291261e+01    9.264805e-01
  2.294436e+01    9.094233e-01
  2.297611e+01    9.003167e-01
  2.300786e+01    9.021880e-01
  2.303961e+01    8.759598e-01
  2.307137e+01    8.838829e-01
  2.310312e+01    8.905758e-01
  2.313487e+01    8.905866e-01
  2.316662e+01    8.827440e-01
  2.319837e+01    8.920810e-01
  2.323012e+01    8.816327e-01
  2.326187e+01    8.757499e-01
  2.329362e+01    8.671587e-01
  2.332537e+01    8.689995e-01
  2.335713e+01    8.695988e-01
  2.338888e+01    8.668329e-01
  2.342063e+01    8.691379e-01
  2.345238e+01    8.606616e-01
  2.348413e+01    8.496191e-01
  2.351588e+01    8.218442e-01
  2.354763e+01    8.455575e-01
  2.357938e+01    8.380708e-01
  2.361113e+01    8.639757e-01
  2.364289e+01    8.646353e-01
  2.367464e+01    8.274309e-01
  2.370639e+01    8.397879e-01
  2.373814e+01    8.085181e-01
  2.376989e+01    8.417469e-01
  2.380164e+01    8.208658e-01
  2.383339e+01    8.202857e-01
  2.386514e+01    7.836009e-01
  2.389689e+01    7.930163e-01
  2.392865e+01    8.133395e-01
  2.396040e+01    8.112236e-01
  2.399215e+01    7.991880e-01
  2.402390e+01    8.047947e-01
  2.405565e+01    7.813468e-01
  2.408740e+01    7.906467e-01
  2.411915e+01    7.762764e-01
  2.415090e+01    7.945898e-01
  2.418266e+01    7.983373e-01
  2.421441e+01    7.868172e-01
  2.424616e+01    8.000035e-01
  2.427791e+01    7.761186e-01
  2.430966e+01    7.667938e-01
  2.434141e+01    7.691444e-01
  2.437316e+01    7.934409e-01
  2.440491e+01    8.069555e-01
  2.443666e+01    8.066955e-01
  2.446842e+01    7.982199e-01
  2.450017e+01    7.894766e-01
  2.453192e+01    7.871048e-01
  2.456367e+01    7.957942e-01
  2.459542e+01    7.989503e-01
  2.462717e+01    7.842515e-01
  2.465892e+01    8.091336e-01
  2.469067e+01    7.847153e-01
  2.472242e+01    7.890080e-01
  2.475418e+01    7.838538e-01
  2.478593e+01    7.823187e-01
  2.481768e+01    8.095334e-01
  2.484943e+01    7.889125e-01
  2.488118e+01    7.983888e-01
  2.491293e+01    7.981210e-01
  2.494468e+01    7.976326e-01
  2.497643e+01    8.093103e-01
  2.500819e+01    8.010513e-01
  2.503994e+01    8.153523e-01
  2.507169e+01    8.333502e-01
  2.510344e+01    8.095140e-01
  2.513519e+01    8.155630e-01
  2.516694e+01    8.255614e-01
  2.519869e+01    8.320355e-01
  2.523044e+01    8.516536e-01
  2.526219e+01    8.617750e-01
  2.529395e+01    8.377703e-01
  2.532570e+01    8.775018e-01
  2.535745e+01    8.788675e-01
  2.538920e+01    9.027883e-01
  2.542095e+01    9.057923e-01
  2.545270e+01    9.239570e-01
  2.548445e+01    9.709688e-01
  2.551620e+01    9.726112e-01
  2.554795e+01    1.031633e+00
  2.557971e+01    1.073490e+00
  2.561146e+01    1.101807e+00
  2.564321e+01    1.182049e+00
  2.567496e+01    1.284927e+00
  2.570671e+01    1.437802e+00
  2.573846e+01    1.646465e+00
  2.577021e+01    1.914179e+00
  2.580196e+01    2.386901e+00
  2.583371e+01    2.965297e+00
  2.586547e+01    3.934255e+00
  2.589722e+01    5.199261e+00
  2.592897e+01    6.639826e+00
  2.596072e+01    7.977486e+00
  2.599247e+01    8.360744e+00
  2.602422e+01    7.683268e+00
  2.605597e+01    6.060903e+00
  2.608772e+01    4.413056e+00
  2.611948e+01    3.245644e+00
  2.615123e+01    2.533409e+00
  2.618298e+01    1.988258e+00
  2.621473e+01    1.701457e+00
  2.624648e+01    1.499665e+00
  2.627823e+01    1.330480e+00
  2.630998e+01    1.211912e+00
  2.634173e+01    1.134393e+00
  2.637348e+01    1.088952e+00
  2.640524e+01    1.033304e+00
  2.643699e+01    1.022791e+00
  2.646874e+01    9.787358e-01
  2.650049e+01    9.645525e-01
  2.653224e+01    9.553241e-01
  2.656399e+01    9.362915e-01
  2.659574e+01    9.332907e-01
  2.662749e+01    9.206433e-01
  2.665924e+01    9.273898e-01
  2.669100e+01    9.013810e-01
  2.672275e+01    9.108606e-01
  2.675450e+01    9.041632e-01
  2.678625e+01    9.024518e-01
  2.681800e+01    8.964001e-01
  2.684975e+01    9.270588e-01
  2.688150e+01    9.249240e-01
  2.691325e+01    9.116459e-01
  2.694501e+01    9.418306e-01
  2.697676e+01    9.606311e-01
  2.700851e+01    1.028542e+00
  2.704026e+01    1.082703e+00
  2.707201e+01    1.151867e+00
  2.710376e+01    1.287488e+00
  2.713551e+01    1.522022e+00
  2.716726e+01    1.792115e+00
  2.719901e+01    2.151672e+00
  2.723077e+01    2.400330e+00
  2.726252e+01    2.399409e+00
  2.729427e+01    2.185860e+00
  2.732602e+01    1.843503e+00
  2.735777e+01    1.542677e+00
  2.738952e+01    1.321188e+00
  2.742127e+01    1.148588e+00
  2.745302e+01    1.052822e+00
  2.748477e+01    9.916443e-01
  2.751653e+01    9.677390e-01
  2.754828e+01    9.169676e-01
  2.758003e+01    8.860766e-01
  2.761178e+01    8.623480e-01
  2.764353e+01    8.507403e-01
  2.767528e+01    8.553098e-01
  2.770703e+01    8.526140e-01
  2.773878e+01    8.357983e-01
  2.777054e+01    8.078848e-01
  2.780229e+01    8.329529e-01
  2.783404e+01    7.946110e-01
  2.786579e+01    8.112939e-01
  2.789754e+01    8.225407e-01
  2.792929e+01    8.192198e-01
  2.796104e+01    8.137102e-01
  2.799279e+01    7.952238e-01
  2.802454e+01    8.079182e-01
  2.805630e+01    7.945252e-01
  2.808805e+01    7.933397e-01
  2.811980e+01    7.847083e-01
  2.815155e+01    7.974889e-01
  2.818330e+01    7.888637e-01
  2.821505e+01    7.807906e-01
  2.824680e+01    7.768215e-01
  2.827855e+01    7.762375e-01
  2.831030e+01    7.927738e-01
  2.834206e+01    7.757762e-01
  2.837381e+01    7.488347e-01
  2.840556e+01    7.653008e-01
  2.843731e+01    7.568838e-01
  2.846906e+01    7.669230e-01
  2.850081e+01    7.638244e-01
  2.853256e+01    7.387867e-01
  2.856431e+01    7.580621e-01
  2.859606e+01    7.565963e-01
  2.862782e+01    7.534954e-01
  2.865957e+01    7.618831e-01
  2.869132e+01    7.611390e-01
  2.872307e+01    7.521968e-01
  2.875482e+01    7.604896e-01
  2.878657e+01    7.401782e-01
  2.881832e+01    7.368163e-01
  2.885007e+01    7.319713e-01
  2.888183e+01    7.585775e-01
  2.891358e+01    7.546207e-01
  2.894533e+01    7.299385e-01
  2.897708e+01    7.577136e-01
  2.900883e+01    7.518330e-01
  2.904058e+01    7.275184e-01
  2.907233e+01    7.312706e-01
  2.910408e+01    7.405155e-01
  2.913583e+01    7.578658e-01
  2.916759e+01    7.354676e-01
  2.919934e+01    7.164330e-01
  2.923109e+01    7.357515e-01
  2.926284e+01    7.245473e-01
  2.929459e+01    7.272266e-01
  2.932634e+01    7.205793e-01
  2.935809e+01    7.463966e-01
  2.938984e+01    7.528410e-01
  2.942159e+01    7.188045e-01
  2.945335e+01    7.148253e-01
  2.948510e+01    7.441951e-01
  2.951685e+01    7.151121e-01
  2.954860e+01    7.162441e-01
  2.958035e+01    7.108638e-01
  2.961210e+01    7.228464e-01
  2.964385e+01    7.108085e-01
  2.967560e+01    7.455189e-01
  2.970736e+01    7.414986e-01
  2.973911e+01    7.347800e-01
  2.977086e+01    7.108278e-01
  2.980261e+01    7.207268e-01
  2.983436e+01    6.959609e-01
  2.986611e+01    7.319657e-01
  2.989786e+01    7.191091e-01
  2.992961e+01    7.294160e-01
  2.996136e+01    7.288353e-01
  2.999312e+01    7.280483e-01
  3.002487e+01    7.284999e-01
  3.005662e+01    7.467300e-01
  3.008837e+01    7.446634e-01
  3.012012e+01    7.269748e-01
  3.015187e+01    7.101978e-01
  3.018362e+01    7.125192e-01
  3.021537e+01    7.227323e-01
  3.024712e+01    7.232467e-01
  3.027888e+01    7.314626e-01
  3.031063e+01    7.163211e-01
  3.034238e+01    7.061882e-01
  3.037413e+01    7.263347e-01
  3.040588e+01    7.260539e-01
  3.043763e+01    7.323031e-01
  3.046938e+01    7.219880e-01
  3.050113e+01    7.005193e-01
  3.053288e+01    7.129413e-01
  3.056464e+01    7.054028e-01
  3.059639e+01    7.251110e-01
  3.062814e+01    7.233453e-01
  3.065989e+01    7.084160e-01
  3.069164e+01    7.326027e-01
  3.072339e+01    7.182281e-01
  3.075514e+01    7.126193e-01
  3.078689e+01    7.217872e-01
  3.081865e+01    7.129301e-01
  3.085040e+01    6.967775e-01
  3.088215e+01    6.894579e-01
  3.091390e+01    7.306852e-01
  3.094565e+01    7.186946e-01
  3.097740e+01    7.274191e-01
  3.100915e+01    7.162222e-01
  3.104090e+01    7.409304e-01
  3.107265e+01    7.256811e-01
  3.110441e+01    7.186732e-01
  3.113616e+01    7.083055e-01
  3.116791e+01    7.301490e-01
  3.119966e+01    7.207312e-01
  3.123141e+01    7.236226e-01
  3.126316e+01    7.295712e-01
  3.129491e+01    7.308244e-01
  3.132666e+01    7.250180e-01
  3.135841e+01    7.351155e-01
  3.139017e+01    7.271935e-01
  3.142192e+01    7.636418e-01
  3.145367e+01    7.558624e-01
  3.148542e+01    7.573613e-01
  3.151717e+01    7.613479e-01
  3.154892e+01    7.856706e-01
  3.158067e+01    8.195919e-01
  3.161242e+01    8.039587e-01
  3.164418e+01    8.332450e-01
  3.167593e+01    8.549863e-01
  3.170768e+01    9.579260e-01
  3.173943e+01    9.881870e-01
  3.177118e+01    1.102943e+00
  3.180293e+01    1.234307e+00
  3.183468e+01    1.503530e+00
  3.186643e+01    1.835894e+00
  3.189818e+01    2.115070e+00
  3.192994e+01    2.420587e+00
  3.196169e+01    2.349097e+00
  3.199344e+01    2.117861e+00
  3.202519e+01    1.756238e+00
  3.205694e+01    1.429537e+00
  3.208869e+01    1.182373e+00
  3.212044e+01    1.077327e+00
  3.215219e+01    9.740669e-01
  3.218394e+01    8.944820e-01
  3.221570e+01    8.686153e-01
  3.224745e+01    8.068553e-01
  3.227920e+01    8.287957e-01
  3.231095e+01    7.702547e-01
  3.234270e+01    7.562328e-01
  3.237445e+01    7.729054e-01
  3.240620e+01    7.305076e-01
  3.243795e+01    7.416714e-01
  3.246970e+01    7.489774e-01
  3.250146e+01    7.661730e-01
  3.253321e+01    7.300619e-01
  3.254908e+01    7.302670e-01