File: XRD/Activation ramp/2024-07-27_002_Ru-CGO-ex_Activtation_ramp_000002_data_000167.dat
# == pyFAI calibration ==
# Distance Sample to Detector: 0.4 m
# PONI: 9.750e-02, 1.135e-01 m
# Rotations: -0.000175 0.000000 -0.000000 rad
#
# == Fit2d calibration ==
# Distance Sample-beamCenter: 400.000 mm
# Center: x=1514.000, y=1300.000 pix
# Tilt: 0.010 deg  TiltPlanRot: 0.010 deg
#
# Detector Detector	 Spline= None	 PixelSize= 7.500e-05, 7.500e-05 m
#    Detector has a mask: False
#    Detector has a dark current: False
#    detector has a flat field: False
#
# Wavelength: 6.888e-11 m
# Mask applied: user provided
# Dark current applied: False
# Flat field applied: False
# Polarization factor: 0.99
# Normalization factor: 1.0
# --> /home/myspot/data/2024_07_Rosario/Ru-CGO-ex/2024-07-27_002_Ru-CGO-ex_Activtation_ramp_000002_data_000167.dat
#       q_nm^-1             I
  2.003187e-02    0.000000e+00
  5.178302e-02    0.000000e+00
  8.353417e-02    3.908561e-02
  1.152853e-01    9.281170e-02
  1.470365e-01    6.477116e-03
  1.787876e-01    6.874933e-02
  2.105388e-01    3.106870e-02
  2.422899e-01    1.568441e-02
  2.740411e-01    2.018552e-02
  3.057922e-01    1.506924e-02
  3.375433e-01    5.394537e-02
  3.692945e-01    6.159781e-02
  4.010456e-01    2.296311e-02
  4.327968e-01    1.753611e-02
  4.645479e-01    3.036147e-02
  4.962991e-01    3.635675e-02
  5.280502e-01    5.766922e-02
  5.598014e-01    3.476455e-02
  5.915525e-01    2.742817e-02
  6.233037e-01    3.066902e-02
  6.550548e-01    3.649243e-02
  6.868060e-01    2.034306e-02
  7.185571e-01    6.247207e-02
  7.503083e-01    6.074763e-02
  7.820594e-01    1.208418e-01
  8.138106e-01    1.861067e-01
  8.455617e-01    3.302131e-01
  8.773129e-01    4.785891e-01
  9.090640e-01    5.231648e-01
  9.408152e-01    7.429861e-01
  9.725663e-01    9.704536e-01
  1.004317e+00    1.013690e+00
  1.036069e+00    1.202199e+00
  1.067820e+00    1.313842e+00
  1.099571e+00    1.327749e+00
  1.131322e+00    1.343599e+00
  1.163073e+00    1.505441e+00
  1.194824e+00    1.561221e+00
  1.226575e+00    2.203889e+00
  1.258327e+00    2.335376e+00
  1.290078e+00    2.300127e+00
  1.321829e+00    2.382249e+00
  1.353580e+00    2.515277e+00
  1.385331e+00    2.494171e+00
  1.417082e+00    2.576078e+00
  1.448834e+00    2.603796e+00
  1.480585e+00    2.889646e+00
  1.512336e+00    2.799078e+00
  1.544087e+00    2.944640e+00
  1.575838e+00    2.709797e+00
  1.607589e+00    2.800843e+00
  1.639340e+00    2.878301e+00
  1.671092e+00    2.736039e+00
  1.702843e+00    2.866807e+00
  1.734594e+00    2.662685e+00
  1.766345e+00    2.709173e+00
  1.798096e+00    2.661979e+00
  1.829847e+00    2.710409e+00
  1.861598e+00    2.621001e+00
  1.893350e+00    2.580067e+00
  1.925101e+00    2.656717e+00
  1.956852e+00    2.654951e+00
  1.988603e+00    2.689019e+00
  2.020354e+00    2.704634e+00
  2.052105e+00    2.621887e+00
  2.083856e+00    2.756122e+00
  2.115608e+00    2.703027e+00
  2.147359e+00    2.656431e+00
  2.179110e+00    2.691882e+00
  2.210861e+00    2.652798e+00
  2.242612e+00    2.720180e+00
  2.274363e+00    2.594662e+00
  2.306115e+00    2.803401e+00
  2.337866e+00    2.761511e+00
  2.369617e+00    2.831598e+00
  2.401368e+00    2.780501e+00
  2.433119e+00    2.755746e+00
  2.464870e+00    2.693240e+00
  2.496621e+00    2.726638e+00
  2.528373e+00    2.735701e+00
  2.560124e+00    2.802022e+00
  2.591875e+00    2.754993e+00
  2.623626e+00    2.733524e+00
  2.655377e+00    2.784298e+00
  2.687128e+00    2.764647e+00
  2.718879e+00    2.863621e+00
  2.750631e+00    2.818586e+00
  2.782382e+00    2.800293e+00
  2.814133e+00    2.872311e+00
  2.845884e+00    2.772123e+00
  2.877635e+00    2.985778e+00
  2.909386e+00    2.776950e+00
  2.941137e+00    2.905504e+00
  2.972889e+00    2.925913e+00
  3.004640e+00    2.823698e+00
  3.036391e+00    2.833592e+00
  3.068142e+00    2.835901e+00
  3.099893e+00    2.944007e+00
  3.131644e+00    2.970225e+00
  3.163395e+00    2.855125e+00
  3.195147e+00    2.940764e+00
  3.226898e+00    2.928779e+00
  3.258649e+00    2.841743e+00
  3.290400e+00    3.017442e+00
  3.322151e+00    2.810526e+00
  3.353902e+00    2.969534e+00
  3.385654e+00    3.085286e+00
  3.417405e+00    2.913889e+00
  3.449156e+00    2.951506e+00
  3.480907e+00    3.012042e+00
  3.512658e+00    2.919094e+00
  3.544409e+00    2.996988e+00
  3.576160e+00    2.997576e+00
  3.607912e+00    2.908050e+00
  3.639663e+00    2.937514e+00
  3.671414e+00    2.995860e+00
  3.703165e+00    2.973453e+00
  3.734916e+00    2.935640e+00
  3.766667e+00    2.970335e+00
  3.798418e+00    3.002729e+00
  3.830170e+00    3.026859e+00
  3.861921e+00    2.996595e+00
  3.893672e+00    3.039916e+00
  3.925423e+00    3.075947e+00
  3.957174e+00    3.056392e+00
  3.988925e+00    3.072228e+00
  4.020676e+00    2.997874e+00
  4.052428e+00    3.076216e+00
  4.084179e+00    3.066467e+00
  4.115930e+00    2.935766e+00
  4.147681e+00    3.040948e+00
  4.179432e+00    3.036565e+00
  4.211183e+00    3.026181e+00
  4.242935e+00    3.044459e+00
  4.274686e+00    3.061240e+00
  4.306437e+00    3.016365e+00
  4.338188e+00    2.995221e+00
  4.369939e+00    3.044168e+00
  4.401690e+00    3.114141e+00
  4.433441e+00    3.102275e+00
  4.465193e+00    3.119650e+00
  4.496944e+00    3.080163e+00
  4.528695e+00    3.152136e+00
  4.560446e+00    3.163467e+00
  4.592197e+00    2.982025e+00
  4.623948e+00    3.075849e+00
  4.655699e+00    3.132058e+00
  4.687451e+00    3.070345e+00
  4.719202e+00    3.195199e+00
  4.750953e+00    3.151997e+00
  4.782704e+00    3.142539e+00
  4.814455e+00    3.119715e+00
  4.846206e+00    3.048002e+00
  4.877957e+00    3.164922e+00
  4.909709e+00    3.040825e+00
  4.941460e+00    3.056282e+00
  4.973211e+00    3.190582e+00
  5.004962e+00    3.131598e+00
  5.036713e+00    3.149673e+00
  5.068464e+00    3.089541e+00
  5.100216e+00    3.038551e+00
  5.131967e+00    3.142493e+00
  5.163718e+00    3.175246e+00
  5.195469e+00    3.175884e+00
  5.227220e+00    3.144018e+00
  5.258971e+00    3.110888e+00
  5.290722e+00    3.167355e+00
  5.322474e+00    3.152335e+00
  5.354225e+00    3.094550e+00
  5.385976e+00    3.103772e+00
  5.417727e+00    3.106270e+00
  5.449478e+00    3.096821e+00
  5.481229e+00    3.106648e+00
  5.512980e+00    3.167808e+00
  5.544732e+00    3.019608e+00
  5.576483e+00    3.116890e+00
  5.608234e+00    3.096233e+00
  5.639985e+00    3.074600e+00
  5.671736e+00    3.007358e+00
  5.703487e+00    3.046173e+00
  5.735238e+00    2.985576e+00
  5.766990e+00    3.053849e+00
  5.798741e+00    3.059228e+00
  5.830492e+00    3.058880e+00
  5.862243e+00    3.096700e+00
  5.893994e+00    3.010505e+00
  5.925745e+00    3.039945e+00
  5.957497e+00    2.952623e+00
  5.989248e+00    3.005408e+00
  6.020999e+00    3.012431e+00
  6.052750e+00    2.979064e+00
  6.084501e+00    3.041455e+00
  6.116252e+00    3.077661e+00
  6.148003e+00    3.046182e+00
  6.179755e+00    3.029288e+00
  6.211506e+00    3.061155e+00
  6.243257e+00    3.021794e+00
  6.275008e+00    3.063245e+00
  6.306759e+00    3.041079e+00
  6.338510e+00    3.033270e+00
  6.370261e+00    3.153924e+00
  6.402013e+00    3.014497e+00
  6.433764e+00    3.089536e+00
  6.465515e+00    2.971739e+00
  6.497266e+00    3.040867e+00
  6.529017e+00    3.060551e+00
  6.560768e+00    3.049808e+00
  6.592519e+00    3.077055e+00
  6.624271e+00    3.087354e+00
  6.656022e+00    3.036895e+00
  6.687773e+00    2.995893e+00
  6.719524e+00    3.112527e+00
  6.751275e+00    3.011766e+00
  6.783026e+00    3.063539e+00
  6.814777e+00    3.022233e+00
  6.846529e+00    3.123511e+00
  6.878280e+00    3.000065e+00
  6.910031e+00    3.008505e+00
  6.941782e+00    2.963808e+00
  6.973533e+00    2.986883e+00
  7.005284e+00    3.050578e+00
  7.037036e+00    2.985840e+00
  7.068787e+00    3.073211e+00
  7.100538e+00    3.050758e+00
  7.132289e+00    2.994869e+00
  7.164040e+00    3.004262e+00
  7.195791e+00    2.981062e+00
  7.227542e+00    3.052554e+00
  7.259294e+00    3.015008e+00
  7.291045e+00    3.018266e+00
  7.322796e+00    2.971614e+00
  7.354547e+00    3.030879e+00
  7.386298e+00    3.032608e+00
  7.418049e+00    3.058187e+00
  7.449800e+00    2.967693e+00
  7.481552e+00    2.957274e+00
  7.513303e+00    2.944580e+00
  7.545054e+00    3.039565e+00
  7.576805e+00    2.962004e+00
  7.608556e+00    2.931154e+00
  7.640307e+00    2.943155e+00
  7.672058e+00    2.917842e+00
  7.703810e+00    2.938352e+00
  7.735561e+00    2.924674e+00
  7.767312e+00    2.935086e+00
  7.799063e+00    2.931657e+00
  7.830814e+00    2.934768e+00
  7.862565e+00    2.914469e+00
  7.894317e+00    2.900978e+00
  7.926068e+00    2.976943e+00
  7.957819e+00    2.943808e+00
  7.989570e+00    2.890533e+00
  8.021321e+00    3.006809e+00
  8.053072e+00    2.888028e+00
  8.084823e+00    2.944610e+00
  8.116575e+00    2.933613e+00
  8.148326e+00    2.968573e+00
  8.180077e+00    3.013487e+00
  8.211828e+00    2.974326e+00
  8.243579e+00    2.964471e+00
  8.275330e+00    2.922410e+00
  8.307081e+00    2.886815e+00
  8.338833e+00    2.968137e+00
  8.370584e+00    2.927595e+00
  8.402335e+00    2.932091e+00
  8.434086e+00    2.937771e+00
  8.465837e+00    2.940502e+00
  8.497588e+00    2.928607e+00
  8.529339e+00    2.921877e+00
  8.561091e+00    2.864847e+00
  8.592842e+00    2.927982e+00
  8.624593e+00    2.813982e+00
  8.656344e+00    2.892215e+00
  8.688095e+00    2.849497e+00
  8.719846e+00    2.843864e+00
  8.751598e+00    2.863277e+00
  8.783349e+00    2.824807e+00
  8.815100e+00    2.904337e+00
  8.846851e+00    2.859638e+00
  8.878602e+00    2.879869e+00
  8.910353e+00    2.893244e+00
  8.942104e+00    2.836248e+00
  8.973856e+00    2.793961e+00
  9.005607e+00    2.795519e+00
  9.037358e+00    2.839984e+00
  9.069109e+00    2.842288e+00
  9.100860e+00    2.816947e+00
  9.132611e+00    2.856372e+00
  9.164362e+00    2.831747e+00
  9.196114e+00    2.818682e+00
  9.227865e+00    2.761452e+00
  9.259616e+00    2.797745e+00
  9.291367e+00    2.771868e+00
  9.323118e+00    2.769821e+00
  9.354869e+00    2.786027e+00
  9.386620e+00    2.831116e+00
  9.418372e+00    2.780489e+00
  9.450123e+00    2.771146e+00
  9.481874e+00    2.748074e+00
  9.513625e+00    2.749660e+00
  9.545376e+00    2.807919e+00
  9.577127e+00    2.760240e+00
  9.608878e+00    2.812230e+00
  9.640630e+00    2.776809e+00
  9.672381e+00    2.751520e+00
  9.704132e+00    2.713594e+00
  9.735883e+00    2.724209e+00
  9.767634e+00    2.804846e+00
  9.799385e+00    2.747634e+00
  9.831137e+00    2.692996e+00
  9.862888e+00    2.767616e+00
  9.894639e+00    2.706169e+00
  9.926390e+00    2.684064e+00
  9.958141e+00    2.671363e+00
  9.989892e+00    2.702420e+00
  1.002164e+01    2.681373e+00
  1.005339e+01    2.660980e+00
  1.008515e+01    2.654586e+00
  1.011690e+01    2.653665e+00
  1.014865e+01    2.665300e+00
  1.018040e+01    2.682710e+00
  1.021215e+01    2.655823e+00
  1.024390e+01    2.664914e+00
  1.027565e+01    2.645787e+00
  1.030740e+01    2.603282e+00
  1.033915e+01    2.642959e+00
  1.037091e+01    2.621325e+00
  1.040266e+01    2.681329e+00
  1.043441e+01    2.608966e+00
  1.046616e+01    2.593765e+00
  1.049791e+01    2.559262e+00
  1.052966e+01    2.559803e+00
  1.056141e+01    2.593405e+00
  1.059316e+01    2.572252e+00
  1.062492e+01    2.594687e+00
  1.065667e+01    2.513793e+00
  1.068842e+01    2.537363e+00
  1.072017e+01    2.560232e+00
  1.075192e+01    2.549242e+00
  1.078367e+01    2.581576e+00
  1.081542e+01    2.551081e+00
  1.084717e+01    2.530254e+00
  1.087892e+01    2.493281e+00
  1.091068e+01    2.459044e+00
  1.094243e+01    2.516560e+00
  1.097418e+01    2.472258e+00
  1.100593e+01    2.490461e+00
  1.103768e+01    2.488853e+00
  1.106943e+01    2.447011e+00
  1.110118e+01    2.508070e+00
  1.113293e+01    2.432688e+00
  1.116468e+01    2.457140e+00
  1.119644e+01    2.454374e+00
  1.122819e+01    2.438046e+00
  1.125994e+01    2.432287e+00
  1.129169e+01    2.438494e+00
  1.132344e+01    2.421858e+00
  1.135519e+01    2.431077e+00
  1.138694e+01    2.478212e+00
  1.141869e+01    2.471093e+00
  1.145045e+01    2.422850e+00
  1.148220e+01    2.412532e+00
  1.151395e+01    2.457734e+00
  1.154570e+01    2.351613e+00
  1.157745e+01    2.362775e+00
  1.160920e+01    2.387661e+00
  1.164095e+01    2.398902e+00
  1.167270e+01    2.410899e+00
  1.170445e+01    2.357541e+00
  1.173621e+01    2.370466e+00
  1.176796e+01    2.414181e+00
  1.179971e+01    2.356598e+00
  1.183146e+01    2.384468e+00
  1.186321e+01    2.315453e+00
  1.189496e+01    2.335742e+00
  1.192671e+01    2.345036e+00
  1.195846e+01    2.342967e+00
  1.199021e+01    2.286747e+00
  1.202197e+01    2.347861e+00
  1.205372e+01    2.361871e+00
  1.208547e+01    2.292402e+00
  1.211722e+01    2.337090e+00
  1.214897e+01    2.375145e+00
  1.218072e+01    2.312164e+00
  1.221247e+01    2.378736e+00
  1.224422e+01    2.293179e+00
  1.227597e+01    2.384569e+00
  1.230773e+01    2.347040e+00
  1.233948e+01    2.322449e+00
  1.237123e+01    2.289100e+00
  1.240298e+01    2.317714e+00
  1.243473e+01    2.391762e+00
  1.246648e+01    2.367768e+00
  1.249823e+01    2.370621e+00
  1.252998e+01    2.346342e+00
  1.256174e+01    2.388776e+00
  1.259349e+01    2.416998e+00
  1.262524e+01    2.399102e+00
  1.265699e+01    2.464124e+00
  1.268874e+01    2.448064e+00
  1.272049e+01    2.527030e+00
  1.275224e+01    2.511840e+00
  1.278399e+01    2.622489e+00
  1.281574e+01    2.728712e+00
  1.284750e+01    2.863335e+00
  1.287925e+01    3.048383e+00
  1.291100e+01    3.289771e+00
  1.294275e+01    3.759822e+00
  1.297450e+01    4.439744e+00
  1.300625e+01    5.582120e+00
  1.303800e+01    7.287570e+00
  1.306975e+01    9.681604e+00
  1.310150e+01    1.220999e+01
  1.313326e+01    1.437582e+01
  1.316501e+01    1.605885e+01
  1.319676e+01    1.558076e+01
  1.322851e+01    1.235466e+01
  1.326026e+01    8.914851e+00
  1.329201e+01    6.467309e+00
  1.332376e+01    4.987767e+00
  1.335551e+01    4.097447e+00
  1.338727e+01    3.531846e+00
  1.341902e+01    3.133887e+00
  1.345077e+01    2.905365e+00
  1.348252e+01    2.703043e+00
  1.351427e+01    2.568286e+00
  1.354602e+01    2.491157e+00
  1.357777e+01    2.406906e+00
  1.360952e+01    2.391096e+00
  1.364127e+01    2.330409e+00
  1.367303e+01    2.254154e+00
  1.370478e+01    2.262109e+00
  1.373653e+01    2.264431e+00
  1.376828e+01    2.143930e+00
  1.380003e+01    2.153770e+00
  1.383178e+01    2.162677e+00
  1.386353e+01    2.112475e+00
  1.389528e+01    2.084735e+00
  1.392703e+01    2.078332e+00
  1.395879e+01    2.066588e+00
  1.399054e+01    2.076972e+00
  1.402229e+01    2.081808e+00
  1.405404e+01    2.034563e+00
  1.408579e+01    2.001044e+00
  1.411754e+01    1.952269e+00
  1.414929e+01    1.981654e+00
  1.418104e+01    1.981935e+00
  1.421279e+01    1.994487e+00
  1.424455e+01    1.918173e+00
  1.427630e+01    1.948779e+00
  1.430805e+01    1.955004e+00
  1.433980e+01    1.931883e+00
  1.437155e+01    1.914012e+00
  1.440330e+01    1.939270e+00
  1.443505e+01    1.958965e+00
  1.446680e+01    1.906315e+00
  1.449856e+01    1.937959e+00
  1.453031e+01    1.927575e+00
  1.456206e+01    1.952575e+00
  1.459381e+01    1.922560e+00
  1.462556e+01    1.941665e+00
  1.465731e+01    1.940439e+00
  1.468906e+01    1.945972e+00
  1.472081e+01    1.905076e+00
  1.475256e+01    1.900580e+00
  1.478432e+01    1.911274e+00
  1.481607e+01    1.906198e+00
  1.484782e+01    1.947509e+00
  1.487957e+01    1.964836e+00
  1.491132e+01    1.975337e+00
  1.494307e+01    2.029822e+00
  1.497482e+01    2.121455e+00
  1.500657e+01    2.186812e+00
  1.503832e+01    2.342437e+00
  1.507008e+01    2.542506e+00
  1.510183e+01    2.926545e+00
  1.513358e+01    3.535335e+00
  1.516533e+01    4.195144e+00
  1.519708e+01    4.879064e+00
  1.522883e+01    5.411386e+00
  1.526058e+01    5.556438e+00
  1.529233e+01    5.224644e+00
  1.532409e+01    4.459519e+00
  1.535584e+01    3.528758e+00
  1.538759e+01    2.837629e+00
  1.541934e+01    2.473702e+00
  1.545109e+01    2.267777e+00
  1.548284e+01    2.109761e+00
  1.551459e+01    1.971590e+00
  1.554634e+01    1.895921e+00
  1.557809e+01    1.857314e+00
  1.560985e+01    1.826340e+00
  1.564160e+01    1.745140e+00
  1.567335e+01    1.743531e+00
  1.570510e+01    1.726058e+00
  1.573685e+01    1.715541e+00
  1.576860e+01    1.742333e+00
  1.580035e+01    1.699403e+00
  1.583210e+01    1.662195e+00
  1.586385e+01    1.661132e+00
  1.589561e+01    1.637497e+00
  1.592736e+01    1.621002e+00
  1.595911e+01    1.595425e+00
  1.599086e+01    1.632403e+00
  1.602261e+01    1.628837e+00
  1.605436e+01    1.606594e+00
  1.608611e+01    1.607640e+00
  1.611786e+01    1.592958e+00
  1.614961e+01    1.564590e+00
  1.618137e+01    1.551174e+00
  1.621312e+01    1.570146e+00
  1.624487e+01    1.552825e+00
  1.627662e+01    1.573810e+00
  1.630837e+01    1.562654e+00
  1.634012e+01    1.527694e+00
  1.637187e+01    1.522621e+00
  1.640362e+01    1.554580e+00
  1.643538e+01    1.576562e+00
  1.646713e+01    1.504801e+00
  1.649888e+01    1.538842e+00
  1.653063e+01    1.494148e+00
  1.656238e+01    1.555635e+00
  1.659413e+01    1.529726e+00
  1.662588e+01    1.493704e+00
  1.665763e+01    1.481370e+00
  1.668938e+01    1.467963e+00
  1.672114e+01    1.450277e+00
  1.675289e+01    1.469247e+00
  1.678464e+01    1.454505e+00
  1.681639e+01    1.467478e+00
  1.684814e+01    1.433540e+00
  1.687989e+01    1.442276e+00
  1.691164e+01    1.486587e+00
  1.694339e+01    1.420908e+00
  1.697514e+01    1.442244e+00
  1.700690e+01    1.399019e+00
  1.703865e+01    1.434802e+00
  1.707040e+01    1.441232e+00
  1.710215e+01    1.404430e+00
  1.713390e+01    1.421927e+00
  1.716565e+01    1.410801e+00
  1.719740e+01    1.399527e+00
  1.722915e+01    1.408327e+00
  1.726091e+01    1.394740e+00
  1.729266e+01    1.385262e+00
  1.732441e+01    1.419351e+00
  1.735616e+01    1.382624e+00
  1.738791e+01    1.380848e+00
  1.741966e+01    1.342103e+00
  1.745141e+01    1.396523e+00
  1.748316e+01    1.342329e+00
  1.751491e+01    1.382989e+00
  1.754667e+01    1.385725e+00
  1.757842e+01    1.363754e+00
  1.761017e+01    1.354914e+00
  1.764192e+01    1.362099e+00
  1.767367e+01    1.345744e+00
  1.770542e+01    1.340129e+00
  1.773717e+01    1.359997e+00
  1.776892e+01    1.358154e+00
  1.780067e+01    1.313141e+00
  1.783243e+01    1.347471e+00
  1.786418e+01    1.312913e+00
  1.789593e+01    1.333919e+00
  1.792768e+01    1.333695e+00
  1.795943e+01    1.293950e+00
  1.799118e+01    1.316176e+00
  1.802293e+01    1.330462e+00
  1.805468e+01    1.287382e+00
  1.808643e+01    1.268953e+00
  1.811819e+01    1.305007e+00
  1.814994e+01    1.301150e+00
  1.818169e+01    1.285564e+00
  1.821344e+01    1.298201e+00
  1.824519e+01    1.263197e+00
  1.827694e+01    1.265960e+00
  1.830869e+01    1.292311e+00
  1.834044e+01    1.268008e+00
  1.837220e+01    1.242580e+00
  1.840395e+01    1.239274e+00
  1.843570e+01    1.271332e+00
  1.846745e+01    1.259807e+00
  1.849920e+01    1.266791e+00
  1.853095e+01    1.234356e+00
  1.856270e+01    1.229445e+00
  1.859445e+01    1.235126e+00
  1.862620e+01    1.239521e+00
  1.865796e+01    1.221013e+00
  1.868971e+01    1.238550e+00
  1.872146e+01    1.223639e+00
  1.875321e+01    1.194886e+00
  1.878496e+01    1.224127e+00
  1.881671e+01    1.223946e+00
  1.884846e+01    1.201844e+00
  1.888021e+01    1.238362e+00
  1.891196e+01    1.192247e+00
  1.894372e+01    1.223246e+00
  1.897547e+01    1.189925e+00
  1.900722e+01    1.210945e+00
  1.903897e+01    1.202552e+00
  1.907072e+01    1.193105e+00
  1.910247e+01    1.211747e+00
  1.913422e+01    1.206511e+00
  1.916597e+01    1.215234e+00
  1.919773e+01    1.191608e+00
  1.922948e+01    1.187963e+00
  1.926123e+01    1.194467e+00
  1.929298e+01    1.178495e+00
  1.932473e+01    1.177267e+00
  1.935648e+01    1.171241e+00
  1.938823e+01    1.181826e+00
  1.941998e+01    1.155005e+00
  1.945173e+01    1.173940e+00
  1.948349e+01    1.162965e+00
  1.951524e+01    1.181573e+00
  1.954699e+01    1.170081e+00
  1.957874e+01    1.154098e+00
  1.961049e+01    1.164156e+00
  1.964224e+01    1.169044e+00
  1.967399e+01    1.140205e+00
  1.970574e+01    1.144401e+00
  1.973749e+01    1.127166e+00
  1.976925e+01    1.153525e+00
  1.980100e+01    1.141678e+00
  1.983275e+01    1.163158e+00
  1.986450e+01    1.121551e+00
  1.989625e+01    1.144702e+00
  1.992800e+01    1.128150e+00
  1.995975e+01    1.140897e+00
  1.999150e+01    1.151182e+00
  2.002325e+01    1.129987e+00
  2.005501e+01    1.121578e+00
  2.008676e+01    1.088927e+00
  2.011851e+01    1.119360e+00
  2.015026e+01    1.112259e+00
  2.018201e+01    1.120027e+00
  2.021376e+01    1.127681e+00
  2.024551e+01    1.087367e+00
  2.027726e+01    1.118525e+00
  2.030902e+01    1.086493e+00
  2.034077e+01    1.111423e+00
  2.037252e+01    1.104076e+00
  2.040427e+01    1.092508e+00
  2.043602e+01    1.100855e+00
  2.046777e+01    1.094595e+00
  2.049952e+01    1.098391e+00
  2.053127e+01    1.072130e+00
  2.056302e+01    1.093566e+00
  2.059478e+01    1.067566e+00
  2.062653e+01    1.071681e+00
  2.065828e+01    1.082204e+00
  2.069003e+01    1.081739e+00
  2.072178e+01    1.091570e+00
  2.075353e+01    1.066818e+00
  2.078528e+01    1.088821e+00
  2.081703e+01    1.073227e+00
  2.084878e+01    1.048031e+00
  2.088054e+01    1.062435e+00
  2.091229e+01    1.079066e+00
  2.094404e+01    1.069007e+00
  2.097579e+01    1.067735e+00
  2.100754e+01    1.084053e+00
  2.103929e+01    1.089545e+00
  2.107104e+01    1.076123e+00
  2.110279e+01    1.089001e+00
  2.113455e+01    1.081419e+00
  2.116630e+01    1.094047e+00
  2.119805e+01    1.077517e+00
  2.122980e+01    1.106472e+00
  2.126155e+01    1.133266e+00
  2.129330e+01    1.094257e+00
  2.132505e+01    1.141384e+00
  2.135680e+01    1.153016e+00
  2.138855e+01    1.154713e+00
  2.142031e+01    1.176391e+00
  2.145206e+01    1.207290e+00
  2.148381e+01    1.275610e+00
  2.151556e+01    1.322979e+00
  2.154731e+01    1.370587e+00
  2.157906e+01    1.460811e+00
  2.161081e+01    1.623781e+00
  2.164256e+01    1.831889e+00
  2.167431e+01    2.201432e+00
  2.170607e+01    2.691135e+00
  2.173782e+01    3.365629e+00
  2.176957e+01    4.460643e+00
  2.180132e+01    5.723722e+00
  2.183307e+01    7.117094e+00
  2.186482e+01    8.301487e+00
  2.189657e+01    8.869048e+00
  2.192832e+01    8.172800e+00
  2.196007e+01    6.429740e+00
  2.199183e+01    4.611555e+00
  2.202358e+01    3.397123e+00
  2.205533e+01    2.660587e+00
  2.208708e+01    2.147937e+00
  2.211883e+01    1.838260e+00
  2.215058e+01    1.588397e+00
  2.218233e+01    1.412332e+00
  2.221408e+01    1.337740e+00
  2.224584e+01    1.274482e+00
  2.227759e+01    1.221004e+00
  2.230934e+01    1.155412e+00
  2.234109e+01    1.140200e+00
  2.237284e+01    1.091404e+00
  2.240459e+01    1.075713e+00
  2.243634e+01    1.054378e+00
  2.246809e+01    1.050539e+00
  2.249984e+01    1.023755e+00
  2.253160e+01    1.014967e+00
  2.256335e+01    9.850573e-01
  2.259510e+01    9.983501e-01
  2.262685e+01    9.644783e-01
  2.265860e+01    9.847410e-01
  2.269035e+01    9.758436e-01
  2.272210e+01    9.478622e-01
  2.275385e+01    9.476963e-01
  2.278560e+01    9.429085e-01
  2.281736e+01    9.363284e-01
  2.284911e+01    9.088596e-01
  2.288086e+01    9.304026e-01
  2.291261e+01    9.405570e-01
  2.294436e+01    9.005397e-01
  2.297611e+01    8.953820e-01
  2.300786e+01    9.133607e-01
  2.303961e+01    9.096824e-01
  2.307137e+01    8.934889e-01
  2.310312e+01    8.811459e-01
  2.313487e+01    8.693316e-01
  2.316662e+01    8.810675e-01
  2.319837e+01    8.866644e-01
  2.323012e+01    8.621623e-01
  2.326187e+01    8.646002e-01
  2.329362e+01    8.471377e-01
  2.332537e+01    8.758519e-01
  2.335713e+01    8.705757e-01
  2.338888e+01    8.566183e-01
  2.342063e+01    8.413708e-01
  2.345238e+01    8.394534e-01
  2.348413e+01    8.577733e-01
  2.351588e+01    8.483749e-01
  2.354763e+01    8.466274e-01
  2.357938e+01    8.499263e-01
  2.361113e+01    8.297731e-01
  2.364289e+01    8.365045e-01
  2.367464e+01    8.303900e-01
  2.370639e+01    8.281921e-01
  2.373814e+01    8.365304e-01
  2.376989e+01    8.236557e-01
  2.380164e+01    8.243316e-01
  2.383339e+01    7.952741e-01
  2.386514e+01    8.349781e-01
  2.389689e+01    8.147823e-01
  2.392865e+01    8.022197e-01
  2.396040e+01    7.874066e-01
  2.399215e+01    7.902728e-01
  2.402390e+01    7.929978e-01
  2.405565e+01    7.845275e-01
  2.408740e+01    7.893231e-01
  2.411915e+01    7.917933e-01
  2.415090e+01    7.795660e-01
  2.418266e+01    7.665318e-01
  2.421441e+01    7.610301e-01
  2.424616e+01    7.696667e-01
  2.427791e+01    8.060549e-01
  2.430966e+01    7.572842e-01
  2.434141e+01    7.679048e-01
  2.437316e+01    7.715473e-01
  2.440491e+01    7.951081e-01
  2.443666e+01    7.922453e-01
  2.446842e+01    7.724323e-01
  2.450017e+01    7.801008e-01
  2.453192e+01    8.029516e-01
  2.456367e+01    7.848893e-01
  2.459542e+01    7.861145e-01
  2.462717e+01    7.781974e-01
  2.465892e+01    7.782751e-01
  2.469067e+01    7.880552e-01
  2.472242e+01    7.954150e-01
  2.475418e+01    7.838301e-01
  2.478593e+01    8.088052e-01
  2.481768e+01    7.968432e-01
  2.484943e+01    7.722796e-01
  2.488118e+01    8.081824e-01
  2.491293e+01    7.779102e-01
  2.494468e+01    8.081697e-01
  2.497643e+01    8.016828e-01
  2.500819e+01    8.167464e-01
  2.503994e+01    7.906026e-01
  2.507169e+01    8.034479e-01
  2.510344e+01    8.031452e-01
  2.513519e+01    8.119798e-01
  2.516694e+01    8.257809e-01
  2.519869e+01    8.269506e-01
  2.523044e+01    8.488339e-01
  2.526219e+01    8.466958e-01
  2.529395e+01    8.504780e-01
  2.532570e+01    8.616368e-01
  2.535745e+01    8.901902e-01
  2.538920e+01    9.153178e-01
  2.542095e+01    9.018272e-01
  2.545270e+01    9.526859e-01
  2.548445e+01    9.447860e-01
  2.551620e+01    9.845676e-01
  2.554795e+01    1.005922e+00
  2.557971e+01    1.060955e+00
  2.561146e+01    1.138227e+00
  2.564321e+01    1.210604e+00
  2.567496e+01    1.332184e+00
  2.570671e+01    1.525672e+00
  2.573846e+01    1.781462e+00
  2.577021e+01    2.201364e+00
  2.580196e+01    2.756535e+00
  2.583371e+01    3.595285e+00
  2.586547e+01    4.691940e+00
  2.589722e+01    5.816608e+00
  2.592897e+01    6.898826e+00
  2.596072e+01    7.298561e+00
  2.599247e+01    6.639249e+00
  2.602422e+01    5.310950e+00
  2.605597e+01    3.867125e+00
  2.608772e+01    2.917809e+00
  2.611948e+01    2.246442e+00
  2.615123e+01    1.883459e+00
  2.618298e+01    1.599223e+00
  2.621473e+01    1.376843e+00
  2.624648e+01    1.266939e+00
  2.627823e+01    1.154205e+00
  2.630998e+01    1.090100e+00
  2.634173e+01    1.048141e+00
  2.637348e+01    9.931477e-01
  2.640524e+01    9.585226e-01
  2.643699e+01    9.422418e-01
  2.646874e+01    9.298305e-01
  2.650049e+01    9.256653e-01
  2.653224e+01    9.269981e-01
  2.656399e+01    9.064155e-01
  2.659574e+01    8.846878e-01
  2.662749e+01    8.853912e-01
  2.665924e+01    8.682122e-01
  2.669100e+01    9.046907e-01
  2.672275e+01    8.685984e-01
  2.675450e+01    8.835160e-01
  2.678625e+01    8.920456e-01
  2.681800e+01    8.963965e-01
  2.684975e+01    9.011444e-01
  2.688150e+01    8.985527e-01
  2.691325e+01    9.192407e-01
  2.694501e+01    9.465550e-01
  2.697676e+01    9.846398e-01
  2.700851e+01    1.026999e+00
  2.704026e+01    1.123036e+00
  2.707201e+01    1.258367e+00
  2.710376e+01    1.410884e+00
  2.713551e+01    1.654841e+00
  2.716726e+01    1.930598e+00
  2.719901e+01    2.137103e+00
  2.723077e+01    2.191223e+00
  2.726252e+01    1.935735e+00
  2.729427e+01    1.667530e+00
  2.732602e+01    1.373004e+00
  2.735777e+01    1.204718e+00
  2.738952e+01    1.080044e+00
  2.742127e+01    9.802340e-01
  2.745302e+01    9.608516e-01
  2.748477e+01    9.025822e-01
  2.751653e+01    8.891740e-01
  2.754828e+01    8.754748e-01
  2.758003e+01    8.387943e-01
  2.761178e+01    8.386346e-01
  2.764353e+01    8.293908e-01
  2.767528e+01    8.230041e-01
  2.770703e+01    8.063241e-01
  2.773878e+01    8.152032e-01
  2.777054e+01    8.055989e-01
  2.780229e+01    8.165323e-01
  2.783404e+01    7.884767e-01
  2.786579e+01    8.177149e-01
  2.789754e+01    7.835816e-01
  2.792929e+01    7.916624e-01
  2.796104e+01    7.918679e-01
  2.799279e+01    7.902753e-01
  2.802454e+01    7.624971e-01
  2.805630e+01    7.864024e-01
  2.808805e+01    7.621376e-01
  2.811980e+01    7.786623e-01
  2.815155e+01    7.639223e-01
  2.818330e+01    7.510511e-01
  2.821505e+01    7.507689e-01
  2.824680e+01    7.625847e-01
  2.827855e+01    7.500591e-01
  2.831030e+01    7.720754e-01
  2.834206e+01    7.819551e-01
  2.837381e+01    7.628291e-01
  2.840556e+01    7.529723e-01
  2.843731e+01    7.817701e-01
  2.846906e+01    7.431042e-01
  2.850081e+01    7.640755e-01
  2.853256e+01    7.437773e-01
  2.856431e+01    7.413524e-01
  2.859606e+01    7.663789e-01
  2.862782e+01    7.391856e-01
  2.865957e+01    7.517202e-01
  2.869132e+01    7.286476e-01
  2.872307e+01    7.313124e-01
  2.875482e+01    7.399271e-01
  2.878657e+01    7.601499e-01
  2.881832e+01    7.491587e-01
  2.885007e+01    7.338575e-01
  2.888183e+01    7.527963e-01
  2.891358e+01    7.286710e-01
  2.894533e+01    7.404449e-01
  2.897708e+01    7.484803e-01
  2.900883e+01    7.625396e-01
  2.904058e+01    7.280247e-01
  2.907233e+01    7.165419e-01
  2.910408e+01    7.220042e-01
  2.913583e+01    7.385775e-01
  2.916759e+01    7.286862e-01
  2.919934e+01    7.313580e-01
  2.923109e+01    7.104339e-01
  2.926284e+01    7.227228e-01
  2.929459e+01    7.245967e-01
  2.932634e+01    7.263205e-01
  2.935809e+01    7.202604e-01
  2.938984e+01    7.241849e-01
  2.942159e+01    7.188399e-01
  2.945335e+01    7.305075e-01
  2.948510e+01    7.131209e-01
  2.951685e+01    7.423927e-01
  2.954860e+01    6.992725e-01
  2.958035e+01    7.050858e-01
  2.961210e+01    7.315551e-01
  2.964385e+01    7.130525e-01
  2.967560e+01    7.171696e-01
  2.970736e+01    6.965790e-01
  2.973911e+01    7.403780e-01
  2.977086e+01    7.361863e-01
  2.980261e+01    7.222442e-01
  2.983436e+01    7.070414e-01
  2.986611e+01    6.996611e-01
  2.989786e+01    7.111423e-01
  2.992961e+01    7.268956e-01
  2.996136e+01    7.255797e-01
  2.999312e+01    7.137017e-01
  3.002487e+01    7.592208e-01
  3.005662e+01    7.365262e-01
  3.008837e+01    7.289132e-01
  3.012012e+01    7.426687e-01
  3.015187e+01    7.208297e-01
  3.018362e+01    7.063419e-01
  3.021537e+01    7.147508e-01
  3.024712e+01    7.037907e-01
  3.027888e+01    6.814324e-01
  3.031063e+01    7.260131e-01
  3.034238e+01    7.026441e-01
  3.037413e+01    7.138885e-01
  3.040588e+01    7.014483e-01
  3.043763e+01    6.985886e-01
  3.046938e+01    7.181643e-01
  3.050113e+01    7.237932e-01
  3.053288e+01    7.165835e-01
  3.056464e+01    7.233362e-01
  3.059639e+01    6.974158e-01
  3.062814e+01    6.966194e-01
  3.065989e+01    7.065783e-01
  3.069164e+01    7.024925e-01
  3.072339e+01    6.934510e-01
  3.075514e+01    6.934164e-01
  3.078689e+01    7.077980e-01
  3.081865e+01    7.004177e-01
  3.085040e+01    7.018194e-01
  3.088215e+01    7.075320e-01
  3.091390e+01    7.315126e-01
  3.094565e+01    7.059469e-01
  3.097740e+01    7.220715e-01
  3.100915e+01    7.232020e-01
  3.104090e+01    7.034140e-01
  3.107265e+01    7.090279e-01
  3.110441e+01    7.157002e-01
  3.113616e+01    7.029225e-01
  3.116791e+01    7.162586e-01
  3.119966e+01    7.471041e-01
  3.123141e+01    7.293221e-01
  3.126316e+01    7.257877e-01
  3.129491e+01    7.313334e-01
  3.132666e+01    7.241689e-01
  3.135841e+01    7.487456e-01
  3.139017e+01    7.373279e-01
  3.142192e+01    7.400326e-01
  3.145367e+01    7.366015e-01
  3.148542e+01    7.566943e-01
  3.151717e+01    7.634196e-01
  3.154892e+01    7.736161e-01
  3.158067e+01    8.031131e-01
  3.161242e+01    8.269873e-01
  3.164418e+01    8.422297e-01
  3.167593e+01    9.217442e-01
  3.170768e+01    9.814195e-01
  3.173943e+01    1.084719e+00
  3.177118e+01    1.250038e+00
  3.180293e+01    1.462707e+00
  3.183468e+01    1.720388e+00
  3.186643e+01    1.967590e+00
  3.189818e+01    2.125805e+00
  3.192994e+01    2.068565e+00
  3.196169e+01    1.789415e+00
  3.199344e+01    1.515991e+00
  3.202519e+01    1.285153e+00
  3.205694e+01    1.104801e+00
  3.208869e+01    9.613176e-01
  3.212044e+01    9.054698e-01
  3.215219e+01    8.241143e-01
  3.218394e+01    8.170699e-01
  3.221570e+01    7.972926e-01
  3.224745e+01    7.962204e-01
  3.227920e+01    7.671714e-01
  3.231095e+01    7.301749e-01
  3.234270e+01    7.239292e-01
  3.237445e+01    7.282295e-01
  3.240620e+01    7.192803e-01
  3.243795e+01    7.359958e-01
  3.246970e+01    7.290208e-01
  3.250146e+01    7.141248e-01
  3.253321e+01    7.172741e-01
  3.254908e+01    7.167393e-01