File: XRD/Activation ramp/2024-07-27_002_Ru-CGO-ex_Activtation_ramp_000002_data_000055.dat
# == pyFAI calibration ==
# Distance Sample to Detector: 0.4 m
# PONI: 9.750e-02, 1.135e-01 m
# Rotations: -0.000175 0.000000 -0.000000 rad
#
# == Fit2d calibration ==
# Distance Sample-beamCenter: 400.000 mm
# Center: x=1514.000, y=1300.000 pix
# Tilt: 0.010 deg  TiltPlanRot: 0.010 deg
#
# Detector Detector	 Spline= None	 PixelSize= 7.500e-05, 7.500e-05 m
#    Detector has a mask: False
#    Detector has a dark current: False
#    detector has a flat field: False
#
# Wavelength: 6.888e-11 m
# Mask applied: user provided
# Dark current applied: False
# Flat field applied: False
# Polarization factor: 0.99
# Normalization factor: 1.0
# --> /home/myspot/data/2024_07_Rosario/Ru-CGO-ex/2024-07-27_002_Ru-CGO-ex_Activtation_ramp_000002_data_000055.dat
#       q_nm^-1             I
  2.003187e-02    0.000000e+00
  5.178302e-02    4.981937e-02
  8.353417e-02    1.551817e-01
  1.152853e-01    4.338396e-02
  1.470365e-01    3.817253e-02
  1.787876e-01    2.469849e-04
  2.105388e-01    7.626974e-03
  2.422899e-01    2.536620e-02
  2.740411e-01    3.519700e-02
  3.057922e-01    4.927848e-02
  3.375433e-01    4.191621e-02
  3.692945e-01    2.968474e-03
  4.010456e-01    4.743779e-02
  4.327968e-01    6.258765e-02
  4.645479e-01    3.845576e-02
  4.962991e-01    2.831169e-02
  5.280502e-01    5.274732e-02
  5.598014e-01    2.346932e-02
  5.915525e-01    3.881803e-02
  6.233037e-01    4.685795e-02
  6.550548e-01    3.579784e-02
  6.868060e-01    5.061164e-02
  7.185571e-01    3.637947e-02
  7.503083e-01    3.638204e-02
  7.820594e-01    1.166289e-01
  8.138106e-01    1.726366e-01
  8.455617e-01    2.914619e-01
  8.773129e-01    5.026920e-01
  9.090640e-01    4.796326e-01
  9.408152e-01    7.442181e-01
  9.725663e-01    8.585500e-01
  1.004317e+00    1.000218e+00
  1.036069e+00    1.158279e+00
  1.067820e+00    1.179675e+00
  1.099571e+00    1.326007e+00
  1.131322e+00    1.383576e+00
  1.163073e+00    1.459133e+00
  1.194824e+00    1.671313e+00
  1.226575e+00    2.221948e+00
  1.258327e+00    2.421466e+00
  1.290078e+00    2.599783e+00
  1.321829e+00    2.614501e+00
  1.353580e+00    2.684745e+00
  1.385331e+00    2.640056e+00
  1.417082e+00    2.700571e+00
  1.448834e+00    2.734987e+00
  1.480585e+00    2.821965e+00
  1.512336e+00    2.887902e+00
  1.544087e+00    3.018952e+00
  1.575838e+00    3.036870e+00
  1.607589e+00    3.222124e+00
  1.639340e+00    2.957898e+00
  1.671092e+00    3.037617e+00
  1.702843e+00    2.995306e+00
  1.734594e+00    2.831774e+00
  1.766345e+00    2.855500e+00
  1.798096e+00    2.751677e+00
  1.829847e+00    2.714241e+00
  1.861598e+00    2.843212e+00
  1.893350e+00    2.916132e+00
  1.925101e+00    2.744267e+00
  1.956852e+00    2.789903e+00
  1.988603e+00    2.875922e+00
  2.020354e+00    2.790723e+00
  2.052105e+00    2.799751e+00
  2.083856e+00    2.733452e+00
  2.115608e+00    2.848359e+00
  2.147359e+00    2.703195e+00
  2.179110e+00    2.781490e+00
  2.210861e+00    2.784402e+00
  2.242612e+00    2.718086e+00
  2.274363e+00    2.794253e+00
  2.306115e+00    2.800033e+00
  2.337866e+00    2.692852e+00
  2.369617e+00    2.843409e+00
  2.401368e+00    2.656168e+00
  2.433119e+00    2.758483e+00
  2.464870e+00    2.830937e+00
  2.496621e+00    2.854524e+00
  2.528373e+00    2.768458e+00
  2.560124e+00    2.750583e+00
  2.591875e+00    2.796059e+00
  2.623626e+00    2.900698e+00
  2.655377e+00    2.886964e+00
  2.687128e+00    2.858766e+00
  2.718879e+00    2.863350e+00
  2.750631e+00    2.795232e+00
  2.782382e+00    2.781585e+00
  2.814133e+00    2.927232e+00
  2.845884e+00    2.884959e+00
  2.877635e+00    2.806566e+00
  2.909386e+00    2.867566e+00
  2.941137e+00    2.832127e+00
  2.972889e+00    2.914955e+00
  3.004640e+00    2.899408e+00
  3.036391e+00    3.003426e+00
  3.068142e+00    2.821181e+00
  3.099893e+00    2.852766e+00
  3.131644e+00    2.874765e+00
  3.163395e+00    2.934319e+00
  3.195147e+00    3.054071e+00
  3.226898e+00    2.967803e+00
  3.258649e+00    2.956388e+00
  3.290400e+00    2.910969e+00
  3.322151e+00    2.950410e+00
  3.353902e+00    2.945077e+00
  3.385654e+00    2.951108e+00
  3.417405e+00    3.022305e+00
  3.449156e+00    2.943101e+00
  3.480907e+00    2.914083e+00
  3.512658e+00    3.021749e+00
  3.544409e+00    2.963880e+00
  3.576160e+00    2.890976e+00
  3.607912e+00    3.000764e+00
  3.639663e+00    3.058962e+00
  3.671414e+00    3.063533e+00
  3.703165e+00    3.054865e+00
  3.734916e+00    2.954622e+00
  3.766667e+00    3.014936e+00
  3.798418e+00    2.989079e+00
  3.830170e+00    3.060001e+00
  3.861921e+00    3.037152e+00
  3.893672e+00    2.983104e+00
  3.925423e+00    2.956532e+00
  3.957174e+00    3.132583e+00
  3.988925e+00    3.036613e+00
  4.020676e+00    3.166650e+00
  4.052428e+00    3.015065e+00
  4.084179e+00    2.986678e+00
  4.115930e+00    3.101541e+00
  4.147681e+00    3.058149e+00
  4.179432e+00    3.057756e+00
  4.211183e+00    3.115993e+00
  4.242935e+00    3.054141e+00
  4.274686e+00    3.011227e+00
  4.306437e+00    3.047127e+00
  4.338188e+00    3.022349e+00
  4.369939e+00    2.991859e+00
  4.401690e+00    3.026089e+00
  4.433441e+00    3.080797e+00
  4.465193e+00    3.101856e+00
  4.496944e+00    3.002985e+00
  4.528695e+00    3.168635e+00
  4.560446e+00    3.094302e+00
  4.592197e+00    3.057016e+00
  4.623948e+00    3.101065e+00
  4.655699e+00    3.074316e+00
  4.687451e+00    3.052176e+00
  4.719202e+00    3.181837e+00
  4.750953e+00    3.093823e+00
  4.782704e+00    3.166780e+00
  4.814455e+00    3.088722e+00
  4.846206e+00    3.062263e+00
  4.877957e+00    3.193254e+00
  4.909709e+00    3.077048e+00
  4.941460e+00    3.171627e+00
  4.973211e+00    3.170363e+00
  5.004962e+00    3.129287e+00
  5.036713e+00    3.153685e+00
  5.068464e+00    3.141881e+00
  5.100216e+00    3.104262e+00
  5.131967e+00    3.166504e+00
  5.163718e+00    3.114161e+00
  5.195469e+00    3.208103e+00
  5.227220e+00    3.091402e+00
  5.258971e+00    3.108837e+00
  5.290722e+00    3.172169e+00
  5.322474e+00    3.114649e+00
  5.354225e+00    3.106127e+00
  5.385976e+00    3.075273e+00
  5.417727e+00    3.157116e+00
  5.449478e+00    3.106974e+00
  5.481229e+00    3.027904e+00
  5.512980e+00    3.043015e+00
  5.544732e+00    3.171695e+00
  5.576483e+00    3.120855e+00
  5.608234e+00    3.081918e+00
  5.639985e+00    3.066671e+00
  5.671736e+00    3.116880e+00
  5.703487e+00    3.045075e+00
  5.735238e+00    2.999006e+00
  5.766990e+00    3.023834e+00
  5.798741e+00    3.089435e+00
  5.830492e+00    2.965258e+00
  5.862243e+00    3.028120e+00
  5.893994e+00    3.076094e+00
  5.925745e+00    3.078918e+00
  5.957497e+00    3.005937e+00
  5.989248e+00    3.032940e+00
  6.020999e+00    3.019662e+00
  6.052750e+00    3.031985e+00
  6.084501e+00    3.045590e+00
  6.116252e+00    3.126735e+00
  6.148003e+00    3.054094e+00
  6.179755e+00    3.034869e+00
  6.211506e+00    3.202994e+00
  6.243257e+00    3.108584e+00
  6.275008e+00    3.077885e+00
  6.306759e+00    3.052099e+00
  6.338510e+00    3.031557e+00
  6.370261e+00    3.074008e+00
  6.402013e+00    2.972580e+00
  6.433764e+00    3.091207e+00
  6.465515e+00    3.102572e+00
  6.497266e+00    3.050002e+00
  6.529017e+00    3.040876e+00
  6.560768e+00    3.097724e+00
  6.592519e+00    3.042891e+00
  6.624271e+00    3.050003e+00
  6.656022e+00    3.020809e+00
  6.687773e+00    3.104406e+00
  6.719524e+00    3.030657e+00
  6.751275e+00    3.075249e+00
  6.783026e+00    3.019152e+00
  6.814777e+00    3.015775e+00
  6.846529e+00    3.062850e+00
  6.878280e+00    2.982201e+00
  6.910031e+00    3.057159e+00
  6.941782e+00    3.013580e+00
  6.973533e+00    2.953075e+00
  7.005284e+00    3.015115e+00
  7.037036e+00    2.967947e+00
  7.068787e+00    3.059832e+00
  7.100538e+00    3.020663e+00
  7.132289e+00    3.067663e+00
  7.164040e+00    3.039028e+00
  7.195791e+00    3.024605e+00
  7.227542e+00    3.063528e+00
  7.259294e+00    3.014547e+00
  7.291045e+00    2.990795e+00
  7.322796e+00    2.963010e+00
  7.354547e+00    2.980727e+00
  7.386298e+00    3.014421e+00
  7.418049e+00    3.008449e+00
  7.449800e+00    2.969517e+00
  7.481552e+00    2.976021e+00
  7.513303e+00    2.981520e+00
  7.545054e+00    3.000968e+00
  7.576805e+00    2.992182e+00
  7.608556e+00    2.984960e+00
  7.640307e+00    2.936180e+00
  7.672058e+00    3.037930e+00
  7.703810e+00    2.925049e+00
  7.735561e+00    2.932888e+00
  7.767312e+00    2.929011e+00
  7.799063e+00    2.981602e+00
  7.830814e+00    2.941816e+00
  7.862565e+00    2.935899e+00
  7.894317e+00    2.966194e+00
  7.926068e+00    2.906444e+00
  7.957819e+00    2.897387e+00
  7.989570e+00    2.961365e+00
  8.021321e+00    3.017312e+00
  8.053072e+00    2.983785e+00
  8.084823e+00    2.920908e+00
  8.116575e+00    2.938044e+00
  8.148326e+00    2.931835e+00
  8.180077e+00    2.992101e+00
  8.211828e+00    2.909593e+00
  8.243579e+00    2.974409e+00
  8.275330e+00    2.965031e+00
  8.307081e+00    2.930250e+00
  8.338833e+00    2.899568e+00
  8.370584e+00    2.909283e+00
  8.402335e+00    2.858167e+00
  8.434086e+00    2.891626e+00
  8.465837e+00    2.946376e+00
  8.497588e+00    2.909884e+00
  8.529339e+00    2.864197e+00
  8.561091e+00    2.884413e+00
  8.592842e+00    2.922521e+00
  8.624593e+00    2.867746e+00
  8.656344e+00    2.847449e+00
  8.688095e+00    2.869872e+00
  8.719846e+00    2.855136e+00
  8.751598e+00    2.857322e+00
  8.783349e+00    2.892835e+00
  8.815100e+00    2.860537e+00
  8.846851e+00    2.832702e+00
  8.878602e+00    2.862245e+00
  8.910353e+00    2.841232e+00
  8.942104e+00    2.843372e+00
  8.973856e+00    2.809020e+00
  9.005607e+00    2.858889e+00
  9.037358e+00    2.764307e+00
  9.069109e+00    2.807323e+00
  9.100860e+00    2.741640e+00
  9.132611e+00    2.786077e+00
  9.164362e+00    2.790484e+00
  9.196114e+00    2.794793e+00
  9.227865e+00    2.805312e+00
  9.259616e+00    2.766401e+00
  9.291367e+00    2.834550e+00
  9.323118e+00    2.751334e+00
  9.354869e+00    2.767763e+00
  9.386620e+00    2.807926e+00
  9.418372e+00    2.754591e+00
  9.450123e+00    2.827346e+00
  9.481874e+00    2.721098e+00
  9.513625e+00    2.777006e+00
  9.545376e+00    2.731870e+00
  9.577127e+00    2.745290e+00
  9.608878e+00    2.795045e+00
  9.640630e+00    2.773411e+00
  9.672381e+00    2.754640e+00
  9.704132e+00    2.762914e+00
  9.735883e+00    2.790138e+00
  9.767634e+00    2.695339e+00
  9.799385e+00    2.655713e+00
  9.831137e+00    2.698911e+00
  9.862888e+00    2.711437e+00
  9.894639e+00    2.659475e+00
  9.926390e+00    2.674752e+00
  9.958141e+00    2.585726e+00
  9.989892e+00    2.715886e+00
  1.002164e+01    2.632944e+00
  1.005339e+01    2.663194e+00
  1.008515e+01    2.683975e+00
  1.011690e+01    2.692430e+00
  1.014865e+01    2.672901e+00
  1.018040e+01    2.650747e+00
  1.021215e+01    2.659298e+00
  1.024390e+01    2.665114e+00
  1.027565e+01    2.665210e+00
  1.030740e+01    2.695176e+00
  1.033915e+01    2.617804e+00
  1.037091e+01    2.649373e+00
  1.040266e+01    2.590506e+00
  1.043441e+01    2.626840e+00
  1.046616e+01    2.576250e+00
  1.049791e+01    2.629344e+00
  1.052966e+01    2.624899e+00
  1.056141e+01    2.569420e+00
  1.059316e+01    2.628681e+00
  1.062492e+01    2.575125e+00
  1.065667e+01    2.601239e+00
  1.068842e+01    2.531071e+00
  1.072017e+01    2.559751e+00
  1.075192e+01    2.606560e+00
  1.078367e+01    2.595336e+00
  1.081542e+01    2.549564e+00
  1.084717e+01    2.560922e+00
  1.087892e+01    2.537381e+00
  1.091068e+01    2.499260e+00
  1.094243e+01    2.542129e+00
  1.097418e+01    2.515384e+00
  1.100593e+01    2.496920e+00
  1.103768e+01    2.493918e+00
  1.106943e+01    2.475829e+00
  1.110118e+01    2.490825e+00
  1.113293e+01    2.483370e+00
  1.116468e+01    2.491982e+00
  1.119644e+01    2.487978e+00
  1.122819e+01    2.429328e+00
  1.125994e+01    2.459965e+00
  1.129169e+01    2.425387e+00
  1.132344e+01    2.501699e+00
  1.135519e+01    2.409139e+00
  1.138694e+01    2.410929e+00
  1.141869e+01    2.468102e+00
  1.145045e+01    2.425129e+00
  1.148220e+01    2.421284e+00
  1.151395e+01    2.430453e+00
  1.154570e+01    2.428621e+00
  1.157745e+01    2.387582e+00
  1.160920e+01    2.420604e+00
  1.164095e+01    2.397627e+00
  1.167270e+01    2.390363e+00
  1.170445e+01    2.389461e+00
  1.173621e+01    2.352736e+00
  1.176796e+01    2.391213e+00
  1.179971e+01    2.407770e+00
  1.183146e+01    2.359530e+00
  1.186321e+01    2.373271e+00
  1.189496e+01    2.329444e+00
  1.192671e+01    2.335958e+00
  1.195846e+01    2.292134e+00
  1.199021e+01    2.376167e+00
  1.202197e+01    2.402864e+00
  1.205372e+01    2.324138e+00
  1.208547e+01    2.330944e+00
  1.211722e+01    2.304936e+00
  1.214897e+01    2.302140e+00
  1.218072e+01    2.311149e+00
  1.221247e+01    2.263750e+00
  1.224422e+01    2.317693e+00
  1.227597e+01    2.357099e+00
  1.230773e+01    2.318042e+00
  1.233948e+01    2.362914e+00
  1.237123e+01    2.381880e+00
  1.240298e+01    2.332257e+00
  1.243473e+01    2.358583e+00
  1.246648e+01    2.341721e+00
  1.249823e+01    2.343273e+00
  1.252998e+01    2.355469e+00
  1.256174e+01    2.360983e+00
  1.259349e+01    2.415285e+00
  1.262524e+01    2.389857e+00
  1.265699e+01    2.432173e+00
  1.268874e+01    2.481760e+00
  1.272049e+01    2.530834e+00
  1.275224e+01    2.555169e+00
  1.278399e+01    2.618017e+00
  1.281574e+01    2.725004e+00
  1.284750e+01    2.854135e+00
  1.287925e+01    3.056914e+00
  1.291100e+01    3.299505e+00
  1.294275e+01    3.654638e+00
  1.297450e+01    4.269561e+00
  1.300625e+01    5.214177e+00
  1.303800e+01    6.838449e+00
  1.306975e+01    9.218499e+00
  1.310150e+01    1.210845e+01
  1.313326e+01    1.506370e+01
  1.316501e+01    1.776277e+01
  1.319676e+01    1.904208e+01
  1.322851e+01    1.706251e+01
  1.326026e+01    1.259160e+01
  1.329201e+01    8.939983e+00
  1.332376e+01    6.530516e+00
  1.335551e+01    5.036810e+00
  1.338727e+01    4.236178e+00
  1.341902e+01    3.593797e+00
  1.345077e+01    3.212006e+00
  1.348252e+01    2.975100e+00
  1.351427e+01    2.775865e+00
  1.354602e+01    2.645535e+00
  1.357777e+01    2.618098e+00
  1.360952e+01    2.458474e+00
  1.364127e+01    2.419302e+00
  1.367303e+01    2.290847e+00
  1.370478e+01    2.255067e+00
  1.373653e+01    2.301066e+00
  1.376828e+01    2.207318e+00
  1.380003e+01    2.180836e+00
  1.383178e+01    2.168164e+00
  1.386353e+01    2.156973e+00
  1.389528e+01    2.177367e+00
  1.392703e+01    2.124042e+00
  1.395879e+01    2.086841e+00
  1.399054e+01    2.033020e+00
  1.402229e+01    2.057652e+00
  1.405404e+01    2.046823e+00
  1.408579e+01    2.039275e+00
  1.411754e+01    2.025122e+00
  1.414929e+01    2.005583e+00
  1.418104e+01    2.028700e+00
  1.421279e+01    2.000409e+00
  1.424455e+01    1.976757e+00
  1.427630e+01    1.961385e+00
  1.430805e+01    1.985298e+00
  1.433980e+01    1.887909e+00
  1.437155e+01    1.921768e+00
  1.440330e+01    1.992455e+00
  1.443505e+01    1.986965e+00
  1.446680e+01    1.947273e+00
  1.449856e+01    1.917002e+00
  1.453031e+01    1.951054e+00
  1.456206e+01    1.927953e+00
  1.459381e+01    1.952971e+00
  1.462556e+01    1.928257e+00
  1.465731e+01    1.937138e+00
  1.468906e+01    1.942724e+00
  1.472081e+01    1.899776e+00
  1.475256e+01    1.896394e+00
  1.478432e+01    1.932960e+00
  1.481607e+01    1.930514e+00
  1.484782e+01    1.937119e+00
  1.487957e+01    1.957929e+00
  1.491132e+01    1.973085e+00
  1.494307e+01    1.982069e+00
  1.497482e+01    2.042704e+00
  1.500657e+01    2.101748e+00
  1.503832e+01    2.282057e+00
  1.507008e+01    2.435430e+00
  1.510183e+01    2.824666e+00
  1.513358e+01    3.277376e+00
  1.516533e+01    4.088733e+00
  1.519708e+01    4.963127e+00
  1.522883e+01    5.612242e+00
  1.526058e+01    6.250749e+00
  1.529233e+01    6.357330e+00
  1.532409e+01    5.831898e+00
  1.535584e+01    4.643461e+00
  1.538759e+01    3.605464e+00
  1.541934e+01    2.913543e+00
  1.545109e+01    2.537280e+00
  1.548284e+01    2.284710e+00
  1.551459e+01    2.156922e+00
  1.554634e+01    2.013987e+00
  1.557809e+01    1.916571e+00
  1.560985e+01    1.859389e+00
  1.564160e+01    1.831826e+00
  1.567335e+01    1.803028e+00
  1.570510e+01    1.756423e+00
  1.573685e+01    1.762818e+00
  1.576860e+01    1.716170e+00
  1.580035e+01    1.699175e+00
  1.583210e+01    1.680327e+00
  1.586385e+01    1.686169e+00
  1.589561e+01    1.676465e+00
  1.592736e+01    1.673964e+00
  1.595911e+01    1.635383e+00
  1.599086e+01    1.648305e+00
  1.602261e+01    1.639423e+00
  1.605436e+01    1.639898e+00
  1.608611e+01    1.611892e+00
  1.611786e+01    1.605689e+00
  1.614961e+01    1.603988e+00
  1.618137e+01    1.563892e+00
  1.621312e+01    1.555451e+00
  1.624487e+01    1.591641e+00
  1.627662e+01    1.537886e+00
  1.630837e+01    1.544357e+00
  1.634012e+01    1.533855e+00
  1.637187e+01    1.545344e+00
  1.640362e+01    1.546130e+00
  1.643538e+01    1.546811e+00
  1.646713e+01    1.546943e+00
  1.649888e+01    1.548582e+00
  1.653063e+01    1.502673e+00
  1.656238e+01    1.542578e+00
  1.659413e+01    1.494128e+00
  1.662588e+01    1.517118e+00
  1.665763e+01    1.498826e+00
  1.668938e+01    1.466797e+00
  1.672114e+01    1.492616e+00
  1.675289e+01    1.470105e+00
  1.678464e+01    1.467945e+00
  1.681639e+01    1.464885e+00
  1.684814e+01    1.491627e+00
  1.687989e+01    1.427761e+00
  1.691164e+01    1.451068e+00
  1.694339e+01    1.469321e+00
  1.697514e+01    1.467666e+00
  1.700690e+01    1.459946e+00
  1.703865e+01    1.460975e+00
  1.707040e+01    1.441123e+00
  1.710215e+01    1.411778e+00
  1.713390e+01    1.399274e+00
  1.716565e+01    1.410757e+00
  1.719740e+01    1.438698e+00
  1.722915e+01    1.421744e+00
  1.726091e+01    1.400858e+00
  1.729266e+01    1.408707e+00
  1.732441e+01    1.377489e+00
  1.735616e+01    1.381290e+00
  1.738791e+01    1.366454e+00
  1.741966e+01    1.366266e+00
  1.745141e+01    1.376156e+00
  1.748316e+01    1.351447e+00
  1.751491e+01    1.339758e+00
  1.754667e+01    1.374282e+00
  1.757842e+01    1.356389e+00
  1.761017e+01    1.353614e+00
  1.764192e+01    1.331504e+00
  1.767367e+01    1.341130e+00
  1.770542e+01    1.330647e+00
  1.773717e+01    1.331171e+00
  1.776892e+01    1.323048e+00
  1.780067e+01    1.353030e+00
  1.783243e+01    1.309375e+00
  1.786418e+01    1.299695e+00
  1.789593e+01    1.313341e+00
  1.792768e+01    1.330442e+00
  1.795943e+01    1.314614e+00
  1.799118e+01    1.297216e+00
  1.802293e+01    1.302307e+00
  1.805468e+01    1.314503e+00
  1.808643e+01    1.283605e+00
  1.811819e+01    1.305181e+00
  1.814994e+01    1.268817e+00
  1.818169e+01    1.277037e+00
  1.821344e+01    1.270059e+00
  1.824519e+01    1.292143e+00
  1.827694e+01    1.285788e+00
  1.830869e+01    1.307405e+00
  1.834044e+01    1.262444e+00
  1.837220e+01    1.275081e+00
  1.840395e+01    1.282748e+00
  1.843570e+01    1.256176e+00
  1.846745e+01    1.235542e+00
  1.849920e+01    1.242349e+00
  1.853095e+01    1.282524e+00
  1.856270e+01    1.273327e+00
  1.859445e+01    1.245527e+00
  1.862620e+01    1.238736e+00
  1.865796e+01    1.259786e+00
  1.868971e+01    1.215016e+00
  1.872146e+01    1.250744e+00
  1.875321e+01    1.217975e+00
  1.878496e+01    1.216740e+00
  1.881671e+01    1.221605e+00
  1.884846e+01    1.227111e+00
  1.888021e+01    1.226140e+00
  1.891196e+01    1.210461e+00
  1.894372e+01    1.189824e+00
  1.897547e+01    1.191543e+00
  1.900722e+01    1.178677e+00
  1.903897e+01    1.226360e+00
  1.907072e+01    1.201972e+00
  1.910247e+01    1.185440e+00
  1.913422e+01    1.184777e+00
  1.916597e+01    1.200283e+00
  1.919773e+01    1.204292e+00
  1.922948e+01    1.180140e+00
  1.926123e+01    1.171722e+00
  1.929298e+01    1.168167e+00
  1.932473e+01    1.176105e+00
  1.935648e+01    1.175649e+00
  1.938823e+01    1.223875e+00
  1.941998e+01    1.170199e+00
  1.945173e+01    1.174919e+00
  1.948349e+01    1.157962e+00
  1.951524e+01    1.154129e+00
  1.954699e+01    1.164573e+00
  1.957874e+01    1.158127e+00
  1.961049e+01    1.156512e+00
  1.964224e+01    1.138889e+00
  1.967399e+01    1.154673e+00
  1.970574e+01    1.157871e+00
  1.973749e+01    1.149626e+00
  1.976925e+01    1.146420e+00
  1.980100e+01    1.132800e+00
  1.983275e+01    1.138856e+00
  1.986450e+01    1.132343e+00
  1.989625e+01    1.136787e+00
  1.992800e+01    1.152535e+00
  1.995975e+01    1.145345e+00
  1.999150e+01    1.123948e+00
  2.002325e+01    1.143339e+00
  2.005501e+01    1.127540e+00
  2.008676e+01    1.140092e+00
  2.011851e+01    1.138320e+00
  2.015026e+01    1.115247e+00
  2.018201e+01    1.131702e+00
  2.021376e+01    1.088266e+00
  2.024551e+01    1.126183e+00
  2.027726e+01    1.108922e+00
  2.030902e+01    1.126996e+00
  2.034077e+01    1.072064e+00
  2.037252e+01    1.118753e+00
  2.040427e+01    1.095637e+00
  2.043602e+01    1.097560e+00
  2.046777e+01    1.084613e+00
  2.049952e+01    1.100799e+00
  2.053127e+01    1.096696e+00
  2.056302e+01    1.096336e+00
  2.059478e+01    1.088971e+00
  2.062653e+01    1.092224e+00
  2.065828e+01    1.101440e+00
  2.069003e+01    1.068941e+00
  2.072178e+01    1.085090e+00
  2.075353e+01    1.093469e+00
  2.078528e+01    1.078679e+00
  2.081703e+01    1.093710e+00
  2.084878e+01    1.100945e+00
  2.088054e+01    1.099707e+00
  2.091229e+01    1.086169e+00
  2.094404e+01    1.103003e+00
  2.097579e+01    1.094386e+00
  2.100754e+01    1.088635e+00
  2.103929e+01    1.097828e+00
  2.107104e+01    1.099229e+00
  2.110279e+01    1.106234e+00
  2.113455e+01    1.103608e+00
  2.116630e+01    1.091913e+00
  2.119805e+01    1.104539e+00
  2.122980e+01    1.126556e+00
  2.126155e+01    1.126873e+00
  2.129330e+01    1.141708e+00
  2.132505e+01    1.147182e+00
  2.135680e+01    1.138488e+00
  2.138855e+01    1.164716e+00
  2.142031e+01    1.193026e+00
  2.145206e+01    1.244596e+00
  2.148381e+01    1.281275e+00
  2.151556e+01    1.331372e+00
  2.154731e+01    1.358975e+00
  2.157906e+01    1.460858e+00
  2.161081e+01    1.549136e+00
  2.164256e+01    1.709764e+00
  2.167431e+01    2.008837e+00
  2.170607e+01    2.371522e+00
  2.173782e+01    2.955737e+00
  2.176957e+01    3.884365e+00
  2.180132e+01    5.136803e+00
  2.183307e+01    6.510613e+00
  2.186482e+01    8.196575e+00
  2.189657e+01    9.846926e+00
  2.192832e+01    1.060020e+01
  2.196007e+01    9.586734e+00
  2.199183e+01    7.434868e+00
  2.202358e+01    5.293339e+00
  2.205533e+01    3.902111e+00
  2.208708e+01    2.969764e+00
  2.211883e+01    2.379215e+00
  2.215058e+01    1.976376e+00
  2.218233e+01    1.716046e+00
  2.221408e+01    1.543947e+00
  2.224584e+01    1.437850e+00
  2.227759e+01    1.329308e+00
  2.230934e+01    1.248073e+00
  2.234109e+01    1.178603e+00
  2.237284e+01    1.151998e+00
  2.240459e+01    1.116199e+00
  2.243634e+01    1.100496e+00
  2.246809e+01    1.062682e+00
  2.249984e+01    1.062487e+00
  2.253160e+01    1.032287e+00
  2.256335e+01    1.011875e+00
  2.259510e+01    1.005315e+00
  2.262685e+01    9.784862e-01
  2.265860e+01    9.933065e-01
  2.269035e+01    9.922587e-01
  2.272210e+01    9.543221e-01
  2.275385e+01    9.753726e-01
  2.278560e+01    9.581420e-01
  2.281736e+01    9.506124e-01
  2.284911e+01    9.328102e-01
  2.288086e+01    9.190080e-01
  2.291261e+01    9.242529e-01
  2.294436e+01    9.429714e-01
  2.297611e+01    9.043983e-01
  2.300786e+01    9.159880e-01
  2.303961e+01    9.056624e-01
  2.307137e+01    9.056684e-01
  2.310312e+01    9.030028e-01
  2.313487e+01    9.197228e-01
  2.316662e+01    8.861908e-01
  2.319837e+01    9.121290e-01
  2.323012e+01    8.878246e-01
  2.326187e+01    8.653745e-01
  2.329362e+01    8.780736e-01
  2.332537e+01    8.683372e-01
  2.335713e+01    9.043893e-01
  2.338888e+01    8.840917e-01
  2.342063e+01    8.530146e-01
  2.345238e+01    8.804526e-01
  2.348413e+01    8.515804e-01
  2.351588e+01    8.630771e-01
  2.354763e+01    8.540345e-01
  2.357938e+01    8.449888e-01
  2.361113e+01    8.527907e-01
  2.364289e+01    8.532368e-01
  2.367464e+01    8.399944e-01
  2.370639e+01    8.457983e-01
  2.373814e+01    8.357643e-01
  2.376989e+01    8.157950e-01
  2.380164e+01    8.362677e-01
  2.383339e+01    8.190525e-01
  2.386514e+01    8.034594e-01
  2.389689e+01    8.215690e-01
  2.392865e+01    8.080796e-01
  2.396040e+01    8.302852e-01
  2.399215e+01    8.075022e-01
  2.402390e+01    8.065960e-01
  2.405565e+01    8.184293e-01
  2.408740e+01    7.837105e-01
  2.411915e+01    8.029192e-01
  2.415090e+01    7.904589e-01
  2.418266e+01    7.915974e-01
  2.421441e+01    7.927039e-01
  2.424616e+01    7.897093e-01
  2.427791e+01    8.074981e-01
  2.430966e+01    7.890748e-01
  2.434141e+01    8.094440e-01
  2.437316e+01    8.045843e-01
  2.440491e+01    7.881042e-01
  2.443666e+01    8.172673e-01
  2.446842e+01    7.997615e-01
  2.450017e+01    7.900901e-01
  2.453192e+01    8.098166e-01
  2.456367e+01    7.995805e-01
  2.459542e+01    8.036428e-01
  2.462717e+01    7.867809e-01
  2.465892e+01    8.018637e-01
  2.469067e+01    8.054714e-01
  2.472242e+01    7.983491e-01
  2.475418e+01    7.903033e-01
  2.478593e+01    7.964261e-01
  2.481768e+01    8.022570e-01
  2.484943e+01    8.170863e-01
  2.488118e+01    7.812746e-01
  2.491293e+01    7.991844e-01
  2.494468e+01    8.019201e-01
  2.497643e+01    8.131476e-01
  2.500819e+01    8.090134e-01
  2.503994e+01    8.283319e-01
  2.507169e+01    8.238416e-01
  2.510344e+01    8.202236e-01
  2.513519e+01    8.418715e-01
  2.516694e+01    8.323826e-01
  2.519869e+01    8.422214e-01
  2.523044e+01    8.361022e-01
  2.526219e+01    8.693811e-01
  2.529395e+01    8.547784e-01
  2.532570e+01    8.858407e-01
  2.535745e+01    8.955619e-01
  2.538920e+01    8.942533e-01
  2.542095e+01    9.220009e-01
  2.545270e+01    9.216182e-01
  2.548445e+01    9.617315e-01
  2.551620e+01    1.006140e+00
  2.554795e+01    1.032068e+00
  2.557971e+01    1.064101e+00
  2.561146e+01    1.091889e+00
  2.564321e+01    1.210657e+00
  2.567496e+01    1.289626e+00
  2.570671e+01    1.435316e+00
  2.573846e+01    1.625812e+00
  2.577021e+01    1.897415e+00
  2.580196e+01    2.272884e+00
  2.583371e+01    2.956496e+00
  2.586547e+01    3.880608e+00
  2.589722e+01    5.117252e+00
  2.592897e+01    6.603938e+00
  2.596072e+01    8.071176e+00
  2.599247e+01    8.729865e+00
  2.602422e+01    8.240134e+00
  2.605597e+01    6.560915e+00
  2.608772e+01    4.887153e+00
  2.611948e+01    3.564837e+00
  2.615123e+01    2.754904e+00
  2.618298e+01    2.163338e+00
  2.621473e+01    1.828687e+00
  2.624648e+01    1.568466e+00
  2.627823e+01    1.408322e+00
  2.630998e+01    1.294879e+00
  2.634173e+01    1.166536e+00
  2.637348e+01    1.103428e+00
  2.640524e+01    1.047625e+00
  2.643699e+01    1.028376e+00
  2.646874e+01    1.004913e+00
  2.650049e+01    9.670030e-01
  2.653224e+01    9.617487e-01
  2.656399e+01    9.430295e-01
  2.659574e+01    9.334089e-01
  2.662749e+01    9.286908e-01
  2.665924e+01    9.245328e-01
  2.669100e+01    9.196162e-01
  2.672275e+01    9.244579e-01
  2.675450e+01    9.175450e-01
  2.678625e+01    9.033168e-01
  2.681800e+01    9.009049e-01
  2.684975e+01    9.330541e-01
  2.688150e+01    9.215726e-01
  2.691325e+01    9.437065e-01
  2.694501e+01    9.470261e-01
  2.697676e+01    9.718491e-01
  2.700851e+01    1.035648e+00
  2.704026e+01    1.081632e+00
  2.707201e+01    1.174249e+00
  2.710376e+01    1.282531e+00
  2.713551e+01    1.499250e+00
  2.716726e+01    1.750898e+00
  2.719901e+01    2.131787e+00
  2.723077e+01    2.422627e+00
  2.726252e+01    2.501017e+00
  2.729427e+01    2.347491e+00
  2.732602e+01    1.951801e+00
  2.735777e+01    1.594982e+00
  2.738952e+01    1.390226e+00
  2.742127e+01    1.217560e+00
  2.745302e+01    1.082832e+00
  2.748477e+01    1.007205e+00
  2.751653e+01    9.939542e-01
  2.754828e+01    9.277774e-01
  2.758003e+01    8.945615e-01
  2.761178e+01    8.837734e-01
  2.764353e+01    8.674223e-01
  2.767528e+01    8.649639e-01
  2.770703e+01    8.635181e-01
  2.773878e+01    8.557020e-01
  2.777054e+01    8.360880e-01
  2.780229e+01    8.292786e-01
  2.783404e+01    8.328789e-01
  2.786579e+01    8.291874e-01
  2.789754e+01    8.305690e-01
  2.792929e+01    8.104065e-01
  2.796104e+01    8.048281e-01
  2.799279e+01    7.629971e-01
  2.802454e+01    7.910401e-01
  2.805630e+01    7.845843e-01
  2.808805e+01    7.835508e-01
  2.811980e+01    7.990218e-01
  2.815155e+01    7.657834e-01
  2.818330e+01    7.775328e-01
  2.821505e+01    8.005604e-01
  2.824680e+01    7.854346e-01
  2.827855e+01    7.992923e-01
  2.831030e+01    7.650539e-01
  2.834206e+01    7.741346e-01
  2.837381e+01    7.543736e-01
  2.840556e+01    7.914230e-01
  2.843731e+01    7.855408e-01
  2.846906e+01    7.853595e-01
  2.850081e+01    7.700810e-01
  2.853256e+01    7.679316e-01
  2.856431e+01    7.889529e-01
  2.859606e+01    7.871220e-01
  2.862782e+01    7.551794e-01
  2.865957e+01    7.701070e-01
  2.869132e+01    7.579046e-01
  2.872307e+01    7.530633e-01
  2.875482e+01    7.516374e-01
  2.878657e+01    7.612743e-01
  2.881832e+01    7.598119e-01
  2.885007e+01    7.584817e-01
  2.888183e+01    7.673109e-01
  2.891358e+01    7.569159e-01
  2.894533e+01    7.609621e-01
  2.897708e+01    7.552159e-01
  2.900883e+01    7.493901e-01
  2.904058e+01    7.551799e-01
  2.907233e+01    7.467565e-01
  2.910408e+01    7.578993e-01
  2.913583e+01    7.454494e-01
  2.916759e+01    7.358133e-01
  2.919934e+01    7.611880e-01
  2.923109e+01    7.472339e-01
  2.926284e+01    7.415653e-01
  2.929459e+01    7.531598e-01
  2.932634e+01    7.495976e-01
  2.935809e+01    7.556049e-01
  2.938984e+01    7.203358e-01
  2.942159e+01    7.341888e-01
  2.945335e+01    7.151524e-01
  2.948510e+01    7.325584e-01
  2.951685e+01    7.416772e-01
  2.954860e+01    7.355406e-01
  2.958035e+01    7.387747e-01
  2.961210e+01    7.500239e-01
  2.964385e+01    7.164557e-01
  2.967560e+01    7.249045e-01
  2.970736e+01    7.341114e-01
  2.973911e+01    7.235066e-01
  2.977086e+01    7.486640e-01
  2.980261e+01    7.260367e-01
  2.983436e+01    7.331613e-01
  2.986611e+01    7.279967e-01
  2.989786e+01    7.200497e-01
  2.992961e+01    7.196252e-01
  2.996136e+01    7.251755e-01
  2.999312e+01    7.232348e-01
  3.002487e+01    7.430947e-01
  3.005662e+01    7.385730e-01
  3.008837e+01    7.340151e-01
  3.012012e+01    7.383597e-01
  3.015187e+01    7.166412e-01
  3.018362e+01    7.472473e-01
  3.021537e+01    7.206241e-01
  3.024712e+01    7.165043e-01
  3.027888e+01    7.165655e-01
  3.031063e+01    7.234428e-01
  3.034238e+01    7.318010e-01
  3.037413e+01    7.328550e-01
  3.040588e+01    7.193672e-01
  3.043763e+01    7.225509e-01
  3.046938e+01    7.071702e-01
  3.050113e+01    7.339252e-01
  3.053288e+01    7.138093e-01
  3.056464e+01    7.312062e-01
  3.059639e+01    7.257850e-01
  3.062814e+01    7.240407e-01
  3.065989e+01    7.293629e-01
  3.069164e+01    7.077535e-01
  3.072339e+01    7.291052e-01
  3.075514e+01    7.269709e-01
  3.078689e+01    7.054983e-01
  3.081865e+01    7.216609e-01
  3.085040e+01    7.369922e-01
  3.088215e+01    7.060823e-01
  3.091390e+01    7.387602e-01
  3.094565e+01    7.189633e-01
  3.097740e+01    7.121338e-01
  3.100915e+01    7.096342e-01
  3.104090e+01    7.175800e-01
  3.107265e+01    7.253963e-01
  3.110441e+01    7.211242e-01
  3.113616e+01    7.328832e-01
  3.116791e+01    7.297284e-01
  3.119966e+01    7.264895e-01
  3.123141e+01    7.568828e-01
  3.126316e+01    7.571289e-01
  3.129491e+01    7.388054e-01
  3.132666e+01    7.660583e-01
  3.135841e+01    7.626502e-01
  3.139017e+01    7.362471e-01
  3.142192e+01    7.730718e-01
  3.145367e+01    7.468383e-01
  3.148542e+01    7.709666e-01
  3.151717e+01    7.616355e-01
  3.154892e+01    7.902512e-01
  3.158067e+01    8.278944e-01
  3.161242e+01    8.078191e-01
  3.164418e+01    8.226828e-01
  3.167593e+01    8.615789e-01
  3.170768e+01    9.310732e-01
  3.173943e+01    9.953157e-01
  3.177118e+01    1.094893e+00
  3.180293e+01    1.236350e+00
  3.183468e+01    1.446619e+00
  3.186643e+01    1.818417e+00
  3.189818e+01    2.100172e+00
  3.192994e+01    2.429582e+00
  3.196169e+01    2.493140e+00
  3.199344e+01    2.241204e+00
  3.202519e+01    1.868761e+00
  3.205694e+01    1.568450e+00
  3.208869e+01    1.265876e+00
  3.212044e+01    1.101832e+00
  3.215219e+01    1.001332e+00
  3.218394e+01    9.422274e-01
  3.221570e+01    8.703173e-01
  3.224745e+01    8.589760e-01
  3.227920e+01    8.258851e-01
  3.231095e+01    7.851573e-01
  3.234270e+01    7.871513e-01
  3.237445e+01    7.564458e-01
  3.240620e+01    7.435004e-01
  3.243795e+01    7.589126e-01
  3.246970e+01    7.241030e-01
  3.250146e+01    7.159433e-01
  3.253321e+01    7.454371e-01
  3.254908e+01    7.550710e-01