File: XRD/Activation ramp/2024-07-27_002_Ru-CGO-ex_Activtation_ramp_000002_data_000170.dat
# == pyFAI calibration ==
# Distance Sample to Detector: 0.4 m
# PONI: 9.750e-02, 1.135e-01 m
# Rotations: -0.000175 0.000000 -0.000000 rad
#
# == Fit2d calibration ==
# Distance Sample-beamCenter: 400.000 mm
# Center: x=1514.000, y=1300.000 pix
# Tilt: 0.010 deg  TiltPlanRot: 0.010 deg
#
# Detector Detector	 Spline= None	 PixelSize= 7.500e-05, 7.500e-05 m
#    Detector has a mask: False
#    Detector has a dark current: False
#    detector has a flat field: False
#
# Wavelength: 6.888e-11 m
# Mask applied: user provided
# Dark current applied: False
# Flat field applied: False
# Polarization factor: 0.99
# Normalization factor: 1.0
# --> /home/myspot/data/2024_07_Rosario/Ru-CGO-ex/2024-07-27_002_Ru-CGO-ex_Activtation_ramp_000002_data_000170.dat
#       q_nm^-1             I
  2.003187e-02    0.000000e+00
  5.178302e-02    1.219932e-01
  8.353417e-02    1.076191e-01
  1.152853e-01    0.000000e+00
  1.470365e-01    1.033874e-01
  1.787876e-01    2.446977e-02
  2.105388e-01    5.686775e-02
  2.422899e-01    0.000000e+00
  2.740411e-01    3.725430e-02
  3.057922e-01    8.233227e-02
  3.375433e-01    3.173376e-02
  3.692945e-01    4.671648e-02
  4.010456e-01    2.759822e-02
  4.327968e-01    4.819218e-02
  4.645479e-01    4.927341e-02
  4.962991e-01    4.188808e-02
  5.280502e-01    2.231345e-02
  5.598014e-01    2.699684e-02
  5.915525e-01    1.626329e-02
  6.233037e-01    5.780315e-02
  6.550548e-01    2.013770e-02
  6.868060e-01    4.047596e-02
  7.185571e-01    4.560653e-02
  7.503083e-01    5.338704e-02
  7.820594e-01    1.289221e-01
  8.138106e-01    1.584792e-01
  8.455617e-01    3.661298e-01
  8.773129e-01    3.959455e-01
  9.090640e-01    5.854999e-01
  9.408152e-01    6.958564e-01
  9.725663e-01    8.742396e-01
  1.004317e+00    1.012874e+00
  1.036069e+00    1.171193e+00
  1.067820e+00    1.252589e+00
  1.099571e+00    1.436867e+00
  1.131322e+00    1.440755e+00
  1.163073e+00    1.412554e+00
  1.194824e+00    1.702529e+00
  1.226575e+00    2.069862e+00
  1.258327e+00    2.246469e+00
  1.290078e+00    2.457603e+00
  1.321829e+00    2.618211e+00
  1.353580e+00    2.560402e+00
  1.385331e+00    2.441868e+00
  1.417082e+00    2.614721e+00
  1.448834e+00    2.591824e+00
  1.480585e+00    2.779364e+00
  1.512336e+00    2.897968e+00
  1.544087e+00    2.885635e+00
  1.575838e+00    2.961761e+00
  1.607589e+00    2.887048e+00
  1.639340e+00    2.734294e+00
  1.671092e+00    2.679205e+00
  1.702843e+00    2.668288e+00
  1.734594e+00    2.780251e+00
  1.766345e+00    2.817269e+00
  1.798096e+00    2.700369e+00
  1.829847e+00    2.846770e+00
  1.861598e+00    2.682627e+00
  1.893350e+00    2.748415e+00
  1.925101e+00    2.745986e+00
  1.956852e+00    2.679167e+00
  1.988603e+00    2.743677e+00
  2.020354e+00    2.794358e+00
  2.052105e+00    2.821981e+00
  2.083856e+00    2.734159e+00
  2.115608e+00    2.753710e+00
  2.147359e+00    2.662842e+00
  2.179110e+00    2.748991e+00
  2.210861e+00    2.805510e+00
  2.242612e+00    2.672669e+00
  2.274363e+00    2.861447e+00
  2.306115e+00    2.792490e+00
  2.337866e+00    2.699691e+00
  2.369617e+00    2.755922e+00
  2.401368e+00    2.875329e+00
  2.433119e+00    2.736338e+00
  2.464870e+00    2.840564e+00
  2.496621e+00    2.806697e+00
  2.528373e+00    2.803529e+00
  2.560124e+00    2.886785e+00
  2.591875e+00    2.848370e+00
  2.623626e+00    2.846572e+00
  2.655377e+00    2.876725e+00
  2.687128e+00    2.796696e+00
  2.718879e+00    2.753978e+00
  2.750631e+00    2.877346e+00
  2.782382e+00    2.819905e+00
  2.814133e+00    2.789323e+00
  2.845884e+00    2.852332e+00
  2.877635e+00    2.771842e+00
  2.909386e+00    2.917996e+00
  2.941137e+00    2.869347e+00
  2.972889e+00    2.923958e+00
  3.004640e+00    2.868501e+00
  3.036391e+00    2.901579e+00
  3.068142e+00    2.867254e+00
  3.099893e+00    2.921023e+00
  3.131644e+00    2.849427e+00
  3.163395e+00    2.944808e+00
  3.195147e+00    2.892198e+00
  3.226898e+00    2.979624e+00
  3.258649e+00    3.009567e+00
  3.290400e+00    2.841067e+00
  3.322151e+00    2.951909e+00
  3.353902e+00    2.904375e+00
  3.385654e+00    2.932530e+00
  3.417405e+00    2.911955e+00
  3.449156e+00    3.005232e+00
  3.480907e+00    2.972424e+00
  3.512658e+00    2.953027e+00
  3.544409e+00    2.913263e+00
  3.576160e+00    2.986672e+00
  3.607912e+00    3.022123e+00
  3.639663e+00    3.075896e+00
  3.671414e+00    2.977237e+00
  3.703165e+00    2.932273e+00
  3.734916e+00    2.895707e+00
  3.766667e+00    2.950796e+00
  3.798418e+00    2.987250e+00
  3.830170e+00    3.069958e+00
  3.861921e+00    3.010645e+00
  3.893672e+00    3.067041e+00
  3.925423e+00    3.045088e+00
  3.957174e+00    3.030794e+00
  3.988925e+00    3.056187e+00
  4.020676e+00    3.055483e+00
  4.052428e+00    3.036381e+00
  4.084179e+00    3.062986e+00
  4.115930e+00    3.025183e+00
  4.147681e+00    3.020294e+00
  4.179432e+00    3.030558e+00
  4.211183e+00    3.069858e+00
  4.242935e+00    3.153006e+00
  4.274686e+00    3.021805e+00
  4.306437e+00    3.059245e+00
  4.338188e+00    3.075820e+00
  4.369939e+00    3.082101e+00
  4.401690e+00    3.078175e+00
  4.433441e+00    3.048814e+00
  4.465193e+00    3.111396e+00
  4.496944e+00    3.096477e+00
  4.528695e+00    3.090850e+00
  4.560446e+00    3.159445e+00
  4.592197e+00    3.050597e+00
  4.623948e+00    3.147478e+00
  4.655699e+00    3.034851e+00
  4.687451e+00    3.057262e+00
  4.719202e+00    3.132071e+00
  4.750953e+00    3.027558e+00
  4.782704e+00    3.101513e+00
  4.814455e+00    3.072454e+00
  4.846206e+00    3.156152e+00
  4.877957e+00    3.121125e+00
  4.909709e+00    3.120221e+00
  4.941460e+00    3.158799e+00
  4.973211e+00    3.191037e+00
  5.004962e+00    3.024314e+00
  5.036713e+00    3.125976e+00
  5.068464e+00    3.119271e+00
  5.100216e+00    3.131169e+00
  5.131967e+00    3.110061e+00
  5.163718e+00    3.099209e+00
  5.195469e+00    3.178840e+00
  5.227220e+00    3.156589e+00
  5.258971e+00    3.185555e+00
  5.290722e+00    3.107509e+00
  5.322474e+00    3.218144e+00
  5.354225e+00    3.154763e+00
  5.385976e+00    3.174336e+00
  5.417727e+00    3.119109e+00
  5.449478e+00    3.108983e+00
  5.481229e+00    3.065474e+00
  5.512980e+00    3.146462e+00
  5.544732e+00    3.050487e+00
  5.576483e+00    3.162066e+00
  5.608234e+00    3.078868e+00
  5.639985e+00    3.049942e+00
  5.671736e+00    3.082976e+00
  5.703487e+00    3.084409e+00
  5.735238e+00    3.061964e+00
  5.766990e+00    3.028317e+00
  5.798741e+00    3.069518e+00
  5.830492e+00    3.028008e+00
  5.862243e+00    3.063895e+00
  5.893994e+00    3.028269e+00
  5.925745e+00    3.055060e+00
  5.957497e+00    2.970444e+00
  5.989248e+00    3.016152e+00
  6.020999e+00    3.046309e+00
  6.052750e+00    3.024999e+00
  6.084501e+00    3.021528e+00
  6.116252e+00    3.062901e+00
  6.148003e+00    3.072543e+00
  6.179755e+00    3.025567e+00
  6.211506e+00    3.031274e+00
  6.243257e+00    3.008686e+00
  6.275008e+00    3.066772e+00
  6.306759e+00    3.063880e+00
  6.338510e+00    3.094360e+00
  6.370261e+00    3.071042e+00
  6.402013e+00    3.065496e+00
  6.433764e+00    3.020016e+00
  6.465515e+00    2.986010e+00
  6.497266e+00    3.059368e+00
  6.529017e+00    3.067134e+00
  6.560768e+00    3.022116e+00
  6.592519e+00    3.046327e+00
  6.624271e+00    3.106180e+00
  6.656022e+00    3.080932e+00
  6.687773e+00    3.138402e+00
  6.719524e+00    2.984484e+00
  6.751275e+00    3.043783e+00
  6.783026e+00    3.056824e+00
  6.814777e+00    3.104663e+00
  6.846529e+00    3.022538e+00
  6.878280e+00    3.068128e+00
  6.910031e+00    3.023336e+00
  6.941782e+00    3.014645e+00
  6.973533e+00    3.022728e+00
  7.005284e+00    3.049712e+00
  7.037036e+00    3.085155e+00
  7.068787e+00    3.059291e+00
  7.100538e+00    2.974803e+00
  7.132289e+00    3.024209e+00
  7.164040e+00    3.024820e+00
  7.195791e+00    2.973880e+00
  7.227542e+00    3.011830e+00
  7.259294e+00    3.068270e+00
  7.291045e+00    3.045307e+00
  7.322796e+00    3.001979e+00
  7.354547e+00    3.057863e+00
  7.386298e+00    2.940566e+00
  7.418049e+00    3.015301e+00
  7.449800e+00    2.975843e+00
  7.481552e+00    2.971779e+00
  7.513303e+00    2.986512e+00
  7.545054e+00    3.011756e+00
  7.576805e+00    3.011369e+00
  7.608556e+00    2.996236e+00
  7.640307e+00    3.005105e+00
  7.672058e+00    3.023454e+00
  7.703810e+00    3.052408e+00
  7.735561e+00    2.977632e+00
  7.767312e+00    2.930233e+00
  7.799063e+00    2.950781e+00
  7.830814e+00    3.017644e+00
  7.862565e+00    2.967790e+00
  7.894317e+00    2.963582e+00
  7.926068e+00    2.946781e+00
  7.957819e+00    2.915951e+00
  7.989570e+00    3.005684e+00
  8.021321e+00    2.956627e+00
  8.053072e+00    2.955559e+00
  8.084823e+00    2.899882e+00
  8.116575e+00    2.977919e+00
  8.148326e+00    3.004458e+00
  8.180077e+00    3.002895e+00
  8.211828e+00    2.978733e+00
  8.243579e+00    2.915573e+00
  8.275330e+00    2.913440e+00
  8.307081e+00    3.017601e+00
  8.338833e+00    2.847100e+00
  8.370584e+00    2.896965e+00
  8.402335e+00    2.863230e+00
  8.434086e+00    2.919230e+00
  8.465837e+00    2.913000e+00
  8.497588e+00    2.958302e+00
  8.529339e+00    2.867632e+00
  8.561091e+00    2.939161e+00
  8.592842e+00    2.893809e+00
  8.624593e+00    2.875164e+00
  8.656344e+00    2.892143e+00
  8.688095e+00    2.858547e+00
  8.719846e+00    2.894929e+00
  8.751598e+00    2.867362e+00
  8.783349e+00    2.870623e+00
  8.815100e+00    2.815274e+00
  8.846851e+00    2.869529e+00
  8.878602e+00    2.878206e+00
  8.910353e+00    2.845540e+00
  8.942104e+00    2.838711e+00
  8.973856e+00    2.826287e+00
  9.005607e+00    2.849884e+00
  9.037358e+00    2.820164e+00
  9.069109e+00    2.804202e+00
  9.100860e+00    2.775099e+00
  9.132611e+00    2.790500e+00
  9.164362e+00    2.843712e+00
  9.196114e+00    2.795007e+00
  9.227865e+00    2.823075e+00
  9.259616e+00    2.865197e+00
  9.291367e+00    2.799435e+00
  9.323118e+00    2.742953e+00
  9.354869e+00    2.800509e+00
  9.386620e+00    2.813423e+00
  9.418372e+00    2.730079e+00
  9.450123e+00    2.772121e+00
  9.481874e+00    2.809770e+00
  9.513625e+00    2.763309e+00
  9.545376e+00    2.756274e+00
  9.577127e+00    2.841920e+00
  9.608878e+00    2.803786e+00
  9.640630e+00    2.807735e+00
  9.672381e+00    2.717106e+00
  9.704132e+00    2.735806e+00
  9.735883e+00    2.662379e+00
  9.767634e+00    2.712045e+00
  9.799385e+00    2.743952e+00
  9.831137e+00    2.661187e+00
  9.862888e+00    2.687780e+00
  9.894639e+00    2.696700e+00
  9.926390e+00    2.700577e+00
  9.958141e+00    2.615237e+00
  9.989892e+00    2.670363e+00
  1.002164e+01    2.694438e+00
  1.005339e+01    2.660131e+00
  1.008515e+01    2.667449e+00
  1.011690e+01    2.642789e+00
  1.014865e+01    2.698591e+00
  1.018040e+01    2.710166e+00
  1.021215e+01    2.665467e+00
  1.024390e+01    2.664814e+00
  1.027565e+01    2.637259e+00
  1.030740e+01    2.572557e+00
  1.033915e+01    2.607514e+00
  1.037091e+01    2.585879e+00
  1.040266e+01    2.606005e+00
  1.043441e+01    2.587442e+00
  1.046616e+01    2.632797e+00
  1.049791e+01    2.574172e+00
  1.052966e+01    2.564708e+00
  1.056141e+01    2.600677e+00
  1.059316e+01    2.600210e+00
  1.062492e+01    2.562174e+00
  1.065667e+01    2.587795e+00
  1.068842e+01    2.550464e+00
  1.072017e+01    2.605805e+00
  1.075192e+01    2.539255e+00
  1.078367e+01    2.608099e+00
  1.081542e+01    2.472682e+00
  1.084717e+01    2.576342e+00
  1.087892e+01    2.527668e+00
  1.091068e+01    2.585716e+00
  1.094243e+01    2.503025e+00
  1.097418e+01    2.538614e+00
  1.100593e+01    2.546587e+00
  1.103768e+01    2.517202e+00
  1.106943e+01    2.498418e+00
  1.110118e+01    2.481698e+00
  1.113293e+01    2.488188e+00
  1.116468e+01    2.474378e+00
  1.119644e+01    2.473871e+00
  1.122819e+01    2.442415e+00
  1.125994e+01    2.491717e+00
  1.129169e+01    2.461155e+00
  1.132344e+01    2.419085e+00
  1.135519e+01    2.431642e+00
  1.138694e+01    2.431725e+00
  1.141869e+01    2.425280e+00
  1.145045e+01    2.382135e+00
  1.148220e+01    2.435844e+00
  1.151395e+01    2.402062e+00
  1.154570e+01    2.415361e+00
  1.157745e+01    2.395007e+00
  1.160920e+01    2.400830e+00
  1.164095e+01    2.337814e+00
  1.167270e+01    2.388377e+00
  1.170445e+01    2.382530e+00
  1.173621e+01    2.389856e+00
  1.176796e+01    2.370982e+00
  1.179971e+01    2.380785e+00
  1.183146e+01    2.379425e+00
  1.186321e+01    2.321310e+00
  1.189496e+01    2.328357e+00
  1.192671e+01    2.372367e+00
  1.195846e+01    2.375493e+00
  1.199021e+01    2.351421e+00
  1.202197e+01    2.335380e+00
  1.205372e+01    2.350173e+00
  1.208547e+01    2.332117e+00
  1.211722e+01    2.337052e+00
  1.214897e+01    2.298890e+00
  1.218072e+01    2.319226e+00
  1.221247e+01    2.340988e+00
  1.224422e+01    2.358043e+00
  1.227597e+01    2.330262e+00
  1.230773e+01    2.286024e+00
  1.233948e+01    2.352559e+00
  1.237123e+01    2.331857e+00
  1.240298e+01    2.318025e+00
  1.243473e+01    2.299189e+00
  1.246648e+01    2.335399e+00
  1.249823e+01    2.343415e+00
  1.252998e+01    2.370377e+00
  1.256174e+01    2.354805e+00
  1.259349e+01    2.356321e+00
  1.262524e+01    2.439975e+00
  1.265699e+01    2.413425e+00
  1.268874e+01    2.459590e+00
  1.272049e+01    2.545636e+00
  1.275224e+01    2.575558e+00
  1.278399e+01    2.628218e+00
  1.281574e+01    2.723596e+00
  1.284750e+01    2.807748e+00
  1.287925e+01    2.999552e+00
  1.291100e+01    3.309793e+00
  1.294275e+01    3.847092e+00
  1.297450e+01    4.402282e+00
  1.300625e+01    5.569725e+00
  1.303800e+01    7.331662e+00
  1.306975e+01    9.709800e+00
  1.310150e+01    1.209326e+01
  1.313326e+01    1.433684e+01
  1.316501e+01    1.594646e+01
  1.319676e+01    1.550615e+01
  1.322851e+01    1.223728e+01
  1.326026e+01    8.678219e+00
  1.329201e+01    6.386410e+00
  1.332376e+01    4.985912e+00
  1.335551e+01    4.092379e+00
  1.338727e+01    3.518240e+00
  1.341902e+01    3.095536e+00
  1.345077e+01    2.829142e+00
  1.348252e+01    2.724178e+00
  1.351427e+01    2.632017e+00
  1.354602e+01    2.497248e+00
  1.357777e+01    2.450754e+00
  1.360952e+01    2.370595e+00
  1.364127e+01    2.274056e+00
  1.367303e+01    2.235318e+00
  1.370478e+01    2.239941e+00
  1.373653e+01    2.145113e+00
  1.376828e+01    2.168895e+00
  1.380003e+01    2.174731e+00
  1.383178e+01    2.117871e+00
  1.386353e+01    2.139792e+00
  1.389528e+01    2.118493e+00
  1.392703e+01    2.068015e+00
  1.395879e+01    2.032832e+00
  1.399054e+01    2.068118e+00
  1.402229e+01    2.058266e+00
  1.405404e+01    2.043208e+00
  1.408579e+01    2.041190e+00
  1.411754e+01    2.042245e+00
  1.414929e+01    1.978112e+00
  1.418104e+01    1.986347e+00
  1.421279e+01    1.973304e+00
  1.424455e+01    1.968414e+00
  1.427630e+01    1.980609e+00
  1.430805e+01    1.962648e+00
  1.433980e+01    1.960378e+00
  1.437155e+01    1.970417e+00
  1.440330e+01    1.956253e+00
  1.443505e+01    1.938466e+00
  1.446680e+01    1.930340e+00
  1.449856e+01    1.949048e+00
  1.453031e+01    1.948646e+00
  1.456206e+01    1.923552e+00
  1.459381e+01    1.945818e+00
  1.462556e+01    1.917854e+00
  1.465731e+01    1.929417e+00
  1.468906e+01    1.955695e+00
  1.472081e+01    1.938057e+00
  1.475256e+01    1.908904e+00
  1.478432e+01    1.904905e+00
  1.481607e+01    1.894614e+00
  1.484782e+01    1.958230e+00
  1.487957e+01    2.006407e+00
  1.491132e+01    1.973269e+00
  1.494307e+01    1.973117e+00
  1.497482e+01    2.087447e+00
  1.500657e+01    2.201645e+00
  1.503832e+01    2.316260e+00
  1.507008e+01    2.528404e+00
  1.510183e+01    2.949553e+00
  1.513358e+01    3.515457e+00
  1.516533e+01    4.148494e+00
  1.519708e+01    4.862155e+00
  1.522883e+01    5.372549e+00
  1.526058e+01    5.567591e+00
  1.529233e+01    5.242468e+00
  1.532409e+01    4.418223e+00
  1.535584e+01    3.490419e+00
  1.538759e+01    2.838552e+00
  1.541934e+01    2.483148e+00
  1.545109e+01    2.220006e+00
  1.548284e+01    2.057446e+00
  1.551459e+01    1.977975e+00
  1.554634e+01    1.880917e+00
  1.557809e+01    1.822665e+00
  1.560985e+01    1.837126e+00
  1.564160e+01    1.765738e+00
  1.567335e+01    1.753442e+00
  1.570510e+01    1.721333e+00
  1.573685e+01    1.667158e+00
  1.576860e+01    1.700811e+00
  1.580035e+01    1.676834e+00
  1.583210e+01    1.645398e+00
  1.586385e+01    1.660324e+00
  1.589561e+01    1.646016e+00
  1.592736e+01    1.640638e+00
  1.595911e+01    1.612871e+00
  1.599086e+01    1.605497e+00
  1.602261e+01    1.624182e+00
  1.605436e+01    1.629157e+00
  1.608611e+01    1.575707e+00
  1.611786e+01    1.566466e+00
  1.614961e+01    1.568033e+00
  1.618137e+01    1.595254e+00
  1.621312e+01    1.568409e+00
  1.624487e+01    1.561005e+00
  1.627662e+01    1.577512e+00
  1.630837e+01    1.542390e+00
  1.634012e+01    1.541348e+00
  1.637187e+01    1.540153e+00
  1.640362e+01    1.549114e+00
  1.643538e+01    1.542844e+00
  1.646713e+01    1.508501e+00
  1.649888e+01    1.547072e+00
  1.653063e+01    1.502979e+00
  1.656238e+01    1.504945e+00
  1.659413e+01    1.544841e+00
  1.662588e+01    1.504429e+00
  1.665763e+01    1.486958e+00
  1.668938e+01    1.499842e+00
  1.672114e+01    1.506366e+00
  1.675289e+01    1.509234e+00
  1.678464e+01    1.457893e+00
  1.681639e+01    1.446657e+00
  1.684814e+01    1.487713e+00
  1.687989e+01    1.453627e+00
  1.691164e+01    1.435033e+00
  1.694339e+01    1.446587e+00
  1.697514e+01    1.434106e+00
  1.700690e+01    1.455230e+00
  1.703865e+01    1.462815e+00
  1.707040e+01    1.407655e+00
  1.710215e+01    1.420613e+00
  1.713390e+01    1.403728e+00
  1.716565e+01    1.418777e+00
  1.719740e+01    1.429586e+00
  1.722915e+01    1.405488e+00
  1.726091e+01    1.378019e+00
  1.729266e+01    1.391012e+00
  1.732441e+01    1.384637e+00
  1.735616e+01    1.390366e+00
  1.738791e+01    1.379066e+00
  1.741966e+01    1.386034e+00
  1.745141e+01    1.354639e+00
  1.748316e+01    1.360240e+00
  1.751491e+01    1.335561e+00
  1.754667e+01    1.386821e+00
  1.757842e+01    1.364055e+00
  1.761017e+01    1.378262e+00
  1.764192e+01    1.348273e+00
  1.767367e+01    1.379506e+00
  1.770542e+01    1.376696e+00
  1.773717e+01    1.348024e+00
  1.776892e+01    1.318447e+00
  1.780067e+01    1.329201e+00
  1.783243e+01    1.327806e+00
  1.786418e+01    1.335995e+00
  1.789593e+01    1.345987e+00
  1.792768e+01    1.329153e+00
  1.795943e+01    1.321692e+00
  1.799118e+01    1.297024e+00
  1.802293e+01    1.300795e+00
  1.805468e+01    1.318076e+00
  1.808643e+01    1.293628e+00
  1.811819e+01    1.284806e+00
  1.814994e+01    1.321714e+00
  1.818169e+01    1.269651e+00
  1.821344e+01    1.281495e+00
  1.824519e+01    1.261487e+00
  1.827694e+01    1.271835e+00
  1.830869e+01    1.278652e+00
  1.834044e+01    1.275551e+00
  1.837220e+01    1.302384e+00
  1.840395e+01    1.268465e+00
  1.843570e+01    1.261327e+00
  1.846745e+01    1.277827e+00
  1.849920e+01    1.270878e+00
  1.853095e+01    1.264909e+00
  1.856270e+01    1.225011e+00
  1.859445e+01    1.262776e+00
  1.862620e+01    1.274258e+00
  1.865796e+01    1.236542e+00
  1.868971e+01    1.241692e+00
  1.872146e+01    1.214922e+00
  1.875321e+01    1.218172e+00
  1.878496e+01    1.248895e+00
  1.881671e+01    1.244997e+00
  1.884846e+01    1.210344e+00
  1.888021e+01    1.196469e+00
  1.891196e+01    1.204972e+00
  1.894372e+01    1.179054e+00
  1.897547e+01    1.212690e+00
  1.900722e+01    1.216995e+00
  1.903897e+01    1.174435e+00
  1.907072e+01    1.199600e+00
  1.910247e+01    1.179225e+00
  1.913422e+01    1.169811e+00
  1.916597e+01    1.174718e+00
  1.919773e+01    1.175736e+00
  1.922948e+01    1.170637e+00
  1.926123e+01    1.198614e+00
  1.929298e+01    1.164027e+00
  1.932473e+01    1.162792e+00
  1.935648e+01    1.140866e+00
  1.938823e+01    1.165601e+00
  1.941998e+01    1.173198e+00
  1.945173e+01    1.185596e+00
  1.948349e+01    1.164495e+00
  1.951524e+01    1.175241e+00
  1.954699e+01    1.147650e+00
  1.957874e+01    1.146226e+00
  1.961049e+01    1.151998e+00
  1.964224e+01    1.148454e+00
  1.967399e+01    1.147659e+00
  1.970574e+01    1.152530e+00
  1.973749e+01    1.150049e+00
  1.976925e+01    1.128670e+00
  1.980100e+01    1.130286e+00
  1.983275e+01    1.112573e+00
  1.986450e+01    1.120135e+00
  1.989625e+01    1.121559e+00
  1.992800e+01    1.127848e+00
  1.995975e+01    1.132114e+00
  1.999150e+01    1.113722e+00
  2.002325e+01    1.119648e+00
  2.005501e+01    1.105278e+00
  2.008676e+01    1.086763e+00
  2.011851e+01    1.109752e+00
  2.015026e+01    1.139127e+00
  2.018201e+01    1.141280e+00
  2.021376e+01    1.114019e+00
  2.024551e+01    1.112756e+00
  2.027726e+01    1.081978e+00
  2.030902e+01    1.121654e+00
  2.034077e+01    1.078406e+00
  2.037252e+01    1.097125e+00
  2.040427e+01    1.069475e+00
  2.043602e+01    1.086157e+00
  2.046777e+01    1.087652e+00
  2.049952e+01    1.089020e+00
  2.053127e+01    1.084850e+00
  2.056302e+01    1.072998e+00
  2.059478e+01    1.092510e+00
  2.062653e+01    1.064435e+00
  2.065828e+01    1.089547e+00
  2.069003e+01    1.052353e+00
  2.072178e+01    1.105310e+00
  2.075353e+01    1.045570e+00
  2.078528e+01    1.075654e+00
  2.081703e+01    1.075935e+00
  2.084878e+01    1.085838e+00
  2.088054e+01    1.097371e+00
  2.091229e+01    1.097367e+00
  2.094404e+01    1.071164e+00
  2.097579e+01    1.095508e+00
  2.100754e+01    1.069809e+00
  2.103929e+01    1.086224e+00
  2.107104e+01    1.056590e+00
  2.110279e+01    1.111395e+00
  2.113455e+01    1.056756e+00
  2.116630e+01    1.075169e+00
  2.119805e+01    1.108795e+00
  2.122980e+01    1.106265e+00
  2.126155e+01    1.086902e+00
  2.129330e+01    1.122137e+00
  2.132505e+01    1.133726e+00
  2.135680e+01    1.147766e+00
  2.138855e+01    1.150706e+00
  2.142031e+01    1.186547e+00
  2.145206e+01    1.238856e+00
  2.148381e+01    1.233209e+00
  2.151556e+01    1.304351e+00
  2.154731e+01    1.375080e+00
  2.157906e+01    1.479661e+00
  2.161081e+01    1.627604e+00
  2.164256e+01    1.821432e+00
  2.167431e+01    2.166210e+00
  2.170607e+01    2.684644e+00
  2.173782e+01    3.389559e+00
  2.176957e+01    4.468626e+00
  2.180132e+01    5.684611e+00
  2.183307e+01    7.051708e+00
  2.186482e+01    8.354331e+00
  2.189657e+01    8.810221e+00
  2.192832e+01    8.138935e+00
  2.196007e+01    6.352437e+00
  2.199183e+01    4.551857e+00
  2.202358e+01    3.393600e+00
  2.205533e+01    2.621237e+00
  2.208708e+01    2.117927e+00
  2.211883e+01    1.833383e+00
  2.215058e+01    1.592553e+00
  2.218233e+01    1.483631e+00
  2.221408e+01    1.356483e+00
  2.224584e+01    1.265610e+00
  2.227759e+01    1.177912e+00
  2.230934e+01    1.167263e+00
  2.234109e+01    1.133475e+00
  2.237284e+01    1.089804e+00
  2.240459e+01    1.077344e+00
  2.243634e+01    1.049888e+00
  2.246809e+01    1.014212e+00
  2.249984e+01    1.004811e+00
  2.253160e+01    1.024749e+00
  2.256335e+01    9.814982e-01
  2.259510e+01    9.637285e-01
  2.262685e+01    9.763130e-01
  2.265860e+01    9.498962e-01
  2.269035e+01    9.708046e-01
  2.272210e+01    9.630944e-01
  2.275385e+01    9.281844e-01
  2.278560e+01    9.278286e-01
  2.281736e+01    9.205248e-01
  2.284911e+01    8.943623e-01
  2.288086e+01    9.274111e-01
  2.291261e+01    9.096694e-01
  2.294436e+01    9.138713e-01
  2.297611e+01    9.031115e-01
  2.300786e+01    8.947461e-01
  2.303961e+01    8.993457e-01
  2.307137e+01    8.719126e-01
  2.310312e+01    8.866667e-01
  2.313487e+01    8.763000e-01
  2.316662e+01    9.081548e-01
  2.319837e+01    8.930925e-01
  2.323012e+01    8.649866e-01
  2.326187e+01    8.752759e-01
  2.329362e+01    8.685099e-01
  2.332537e+01    8.721668e-01
  2.335713e+01    8.566072e-01
  2.338888e+01    8.626798e-01
  2.342063e+01    8.326978e-01
  2.345238e+01    8.502043e-01
  2.348413e+01    8.332567e-01
  2.351588e+01    8.327127e-01
  2.354763e+01    8.477079e-01
  2.357938e+01    8.412074e-01
  2.361113e+01    8.440403e-01
  2.364289e+01    8.364760e-01
  2.367464e+01    8.449549e-01
  2.370639e+01    8.081694e-01
  2.373814e+01    8.267877e-01
  2.376989e+01    7.935179e-01
  2.380164e+01    7.977247e-01
  2.383339e+01    8.118033e-01
  2.386514e+01    8.164541e-01
  2.389689e+01    7.948249e-01
  2.392865e+01    7.947360e-01
  2.396040e+01    7.751353e-01
  2.399215e+01    8.113661e-01
  2.402390e+01    7.983781e-01
  2.405565e+01    7.961009e-01
  2.408740e+01    7.710026e-01
  2.411915e+01    7.630916e-01
  2.415090e+01    7.915857e-01
  2.418266e+01    7.840006e-01
  2.421441e+01    7.847300e-01
  2.424616e+01    7.710205e-01
  2.427791e+01    7.788419e-01
  2.430966e+01    7.999814e-01
  2.434141e+01    7.993690e-01
  2.437316e+01    7.845381e-01
  2.440491e+01    8.029194e-01
  2.443666e+01    8.090949e-01
  2.446842e+01    7.866438e-01
  2.450017e+01    7.890957e-01
  2.453192e+01    7.918659e-01
  2.456367e+01    8.020015e-01
  2.459542e+01    7.914261e-01
  2.462717e+01    8.049461e-01
  2.465892e+01    7.849562e-01
  2.469067e+01    7.754348e-01
  2.472242e+01    8.022363e-01
  2.475418e+01    8.178611e-01
  2.478593e+01    7.887576e-01
  2.481768e+01    7.839095e-01
  2.484943e+01    7.858621e-01
  2.488118e+01    7.837744e-01
  2.491293e+01    7.859607e-01
  2.494468e+01    7.839426e-01
  2.497643e+01    7.964953e-01
  2.500819e+01    7.946757e-01
  2.503994e+01    8.002343e-01
  2.507169e+01    8.205766e-01
  2.510344e+01    8.209305e-01
  2.513519e+01    7.894631e-01
  2.516694e+01    8.024668e-01
  2.519869e+01    8.503737e-01
  2.523044e+01    8.344939e-01
  2.526219e+01    8.399103e-01
  2.529395e+01    8.635175e-01
  2.532570e+01    8.594002e-01
  2.535745e+01    9.006952e-01
  2.538920e+01    9.011998e-01
  2.542095e+01    9.072898e-01
  2.545270e+01    9.546338e-01
  2.548445e+01    9.486704e-01
  2.551620e+01    9.984799e-01
  2.554795e+01    1.018300e+00
  2.557971e+01    1.074361e+00
  2.561146e+01    1.133579e+00
  2.564321e+01    1.239130e+00
  2.567496e+01    1.362663e+00
  2.570671e+01    1.529122e+00
  2.573846e+01    1.804621e+00
  2.577021e+01    2.181620e+00
  2.580196e+01    2.738906e+00
  2.583371e+01    3.584172e+00
  2.586547e+01    4.641936e+00
  2.589722e+01    5.849520e+00
  2.592897e+01    6.882407e+00
  2.596072e+01    7.184822e+00
  2.599247e+01    6.581986e+00
  2.602422e+01    5.195243e+00
  2.605597e+01    3.803748e+00
  2.608772e+01    2.815457e+00
  2.611948e+01    2.212154e+00
  2.615123e+01    1.824954e+00
  2.618298e+01    1.577742e+00
  2.621473e+01    1.371565e+00
  2.624648e+01    1.249056e+00
  2.627823e+01    1.123719e+00
  2.630998e+01    1.109323e+00
  2.634173e+01    1.029296e+00
  2.637348e+01    1.001114e+00
  2.640524e+01    9.734912e-01
  2.643699e+01    9.229733e-01
  2.646874e+01    9.311057e-01
  2.650049e+01    9.326022e-01
  2.653224e+01    9.235368e-01
  2.656399e+01    8.925541e-01
  2.659574e+01    8.833782e-01
  2.662749e+01    8.989809e-01
  2.665924e+01    8.669944e-01
  2.669100e+01    9.165922e-01
  2.672275e+01    8.943259e-01
  2.675450e+01    8.837581e-01
  2.678625e+01    8.681963e-01
  2.681800e+01    8.835745e-01
  2.684975e+01    8.905749e-01
  2.688150e+01    8.871875e-01
  2.691325e+01    9.156436e-01
  2.694501e+01    9.694118e-01
  2.697676e+01    9.477733e-01
  2.700851e+01    1.040507e+00
  2.704026e+01    1.131624e+00
  2.707201e+01    1.226320e+00
  2.710376e+01    1.427234e+00
  2.713551e+01    1.694564e+00
  2.716726e+01    1.934599e+00
  2.719901e+01    2.129467e+00
  2.723077e+01    2.188694e+00
  2.726252e+01    1.944151e+00
  2.729427e+01    1.623255e+00
  2.732602e+01    1.379292e+00
  2.735777e+01    1.183583e+00
  2.738952e+01    1.082112e+00
  2.742127e+01    1.007139e+00
  2.745302e+01    9.494789e-01
  2.748477e+01    9.044449e-01
  2.751653e+01    8.866763e-01
  2.754828e+01    8.636086e-01
  2.758003e+01    8.694270e-01
  2.761178e+01    8.584789e-01
  2.764353e+01    8.377531e-01
  2.767528e+01    8.206286e-01
  2.770703e+01    8.274595e-01
  2.773878e+01    8.092660e-01
  2.777054e+01    7.865364e-01
  2.780229e+01    8.102837e-01
  2.783404e+01    8.027071e-01
  2.786579e+01    7.881563e-01
  2.789754e+01    7.774254e-01
  2.792929e+01    7.827001e-01
  2.796104e+01    7.658620e-01
  2.799279e+01    7.636870e-01
  2.802454e+01    7.742068e-01
  2.805630e+01    7.790341e-01
  2.808805e+01    7.745137e-01
  2.811980e+01    7.948290e-01
  2.815155e+01    7.680446e-01
  2.818330e+01    7.718000e-01
  2.821505e+01    7.742889e-01
  2.824680e+01    7.635225e-01
  2.827855e+01    7.739723e-01
  2.831030e+01    7.424023e-01
  2.834206e+01    7.624774e-01
  2.837381e+01    7.560595e-01
  2.840556e+01    7.486554e-01
  2.843731e+01    7.682362e-01
  2.846906e+01    7.712541e-01
  2.850081e+01    7.704946e-01
  2.853256e+01    7.642248e-01
  2.856431e+01    7.454852e-01
  2.859606e+01    7.543578e-01
  2.862782e+01    7.462641e-01
  2.865957e+01    7.644991e-01
  2.869132e+01    7.516263e-01
  2.872307e+01    7.478569e-01
  2.875482e+01    7.346284e-01
  2.878657e+01    7.505917e-01
  2.881832e+01    7.313519e-01
  2.885007e+01    7.604255e-01
  2.888183e+01    7.331713e-01
  2.891358e+01    7.187868e-01
  2.894533e+01    7.349850e-01
  2.897708e+01    7.330475e-01
  2.900883e+01    7.407174e-01
  2.904058e+01    7.477902e-01
  2.907233e+01    7.422473e-01
  2.910408e+01    7.575211e-01
  2.913583e+01    7.326627e-01
  2.916759e+01    7.217869e-01
  2.919934e+01    7.411378e-01
  2.923109e+01    7.429267e-01
  2.926284e+01    7.269710e-01
  2.929459e+01    7.392186e-01
  2.932634e+01    7.280875e-01
  2.935809e+01    7.219654e-01
  2.938984e+01    7.230301e-01
  2.942159e+01    7.221712e-01
  2.945335e+01    7.063197e-01
  2.948510e+01    7.411057e-01
  2.951685e+01    7.303725e-01
  2.954860e+01    7.200392e-01
  2.958035e+01    7.143401e-01
  2.961210e+01    7.111126e-01
  2.964385e+01    7.291153e-01
  2.967560e+01    7.037579e-01
  2.970736e+01    7.188070e-01
  2.973911e+01    7.149683e-01
  2.977086e+01    7.206442e-01
  2.980261e+01    6.996551e-01
  2.983436e+01    7.165359e-01
  2.986611e+01    6.896703e-01
  2.989786e+01    7.303464e-01
  2.992961e+01    7.105407e-01
  2.996136e+01    7.144551e-01
  2.999312e+01    7.303885e-01
  3.002487e+01    7.289320e-01
  3.005662e+01    7.295449e-01
  3.008837e+01    7.058576e-01
  3.012012e+01    7.108502e-01
  3.015187e+01    7.127528e-01
  3.018362e+01    6.840992e-01
  3.021537e+01    7.148774e-01
  3.024712e+01    7.319281e-01
  3.027888e+01    7.155733e-01
  3.031063e+01    7.054697e-01
  3.034238e+01    7.060738e-01
  3.037413e+01    6.907574e-01
  3.040588e+01    7.164007e-01
  3.043763e+01    7.015972e-01
  3.046938e+01    7.046784e-01
  3.050113e+01    7.219764e-01
  3.053288e+01    6.993087e-01
  3.056464e+01    7.031188e-01
  3.059639e+01    7.031845e-01
  3.062814e+01    7.212619e-01
  3.065989e+01    6.931306e-01
  3.069164e+01    7.167329e-01
  3.072339e+01    7.074146e-01
  3.075514e+01    6.970627e-01
  3.078689e+01    6.970563e-01
  3.081865e+01    7.056633e-01
  3.085040e+01    6.948677e-01
  3.088215e+01    7.118095e-01
  3.091390e+01    7.109931e-01
  3.094565e+01    7.115733e-01
  3.097740e+01    7.142181e-01
  3.100915e+01    7.466853e-01
  3.104090e+01    7.153636e-01
  3.107265e+01    7.076479e-01
  3.110441e+01    7.139262e-01
  3.113616e+01    7.295952e-01
  3.116791e+01    7.126316e-01
  3.119966e+01    7.215323e-01
  3.123141e+01    7.067226e-01
  3.126316e+01    7.166439e-01
  3.129491e+01    7.190234e-01
  3.132666e+01    7.212415e-01
  3.135841e+01    7.399918e-01
  3.139017e+01    7.399089e-01
  3.142192e+01    7.305118e-01
  3.145367e+01    7.446308e-01
  3.148542e+01    7.683082e-01
  3.151717e+01    7.555006e-01
  3.154892e+01    7.783795e-01
  3.158067e+01    8.058829e-01
  3.161242e+01    8.277032e-01
  3.164418e+01    8.708837e-01
  3.167593e+01    9.110855e-01
  3.170768e+01    9.872292e-01
  3.173943e+01    1.073902e+00
  3.177118e+01    1.213589e+00
  3.180293e+01    1.433187e+00
  3.183468e+01    1.685001e+00
  3.186643e+01    2.013899e+00
  3.189818e+01    2.091596e+00
  3.192994e+01    2.054670e+00
  3.196169e+01    1.784960e+00
  3.199344e+01    1.502365e+00
  3.202519e+01    1.255486e+00
  3.205694e+01    1.085296e+00
  3.208869e+01    9.783861e-01
  3.212044e+01    8.783777e-01
  3.215219e+01    8.407456e-01
  3.218394e+01    8.059666e-01
  3.221570e+01    7.960557e-01
  3.224745e+01    7.593589e-01
  3.227920e+01    7.690006e-01
  3.231095e+01    7.263395e-01
  3.234270e+01    7.497075e-01
  3.237445e+01    7.405127e-01
  3.240620e+01    7.415364e-01
  3.243795e+01    7.192625e-01
  3.246970e+01    7.242317e-01
  3.250146e+01    7.134906e-01
  3.253321e+01    7.103955e-01
  3.254908e+01    7.176316e-01