File: XRD/Activation ramp/2024-07-27_002_Ru-CGO-ex_Activtation_ramp_000002_data_000035.dat
# == pyFAI calibration ==
# Distance Sample to Detector: 0.4 m
# PONI: 9.750e-02, 1.135e-01 m
# Rotations: -0.000175 0.000000 -0.000000 rad
#
# == Fit2d calibration ==
# Distance Sample-beamCenter: 400.000 mm
# Center: x=1514.000, y=1300.000 pix
# Tilt: 0.010 deg  TiltPlanRot: 0.010 deg
#
# Detector Detector	 Spline= None	 PixelSize= 7.500e-05, 7.500e-05 m
#    Detector has a mask: False
#    Detector has a dark current: False
#    detector has a flat field: False
#
# Wavelength: 6.888e-11 m
# Mask applied: user provided
# Dark current applied: False
# Flat field applied: False
# Polarization factor: 0.99
# Normalization factor: 1.0
# --> /home/myspot/data/2024_07_Rosario/Ru-CGO-ex/2024-07-27_002_Ru-CGO-ex_Activtation_ramp_000002_data_000035.dat
#       q_nm^-1             I
  2.003187e-02    0.000000e+00
  5.178302e-02    0.000000e+00
  8.353417e-02    4.769114e-02
  1.152853e-01    6.630480e-02
  1.470365e-01    9.804101e-02
  1.787876e-01    7.950236e-02
  2.105388e-01    4.719185e-02
  2.422899e-01    3.212946e-02
  2.740411e-01    3.894551e-02
  3.057922e-01    4.737050e-02
  3.375433e-01    6.055192e-02
  3.692945e-01    4.259357e-02
  4.010456e-01    5.180774e-02
  4.327968e-01    4.255154e-02
  4.645479e-01    7.006526e-02
  4.962991e-01    5.607212e-02
  5.280502e-01    3.706170e-02
  5.598014e-01    5.341200e-02
  5.915525e-01    1.748745e-02
  6.233037e-01    3.912668e-02
  6.550548e-01    5.878630e-02
  6.868060e-01    3.597782e-02
  7.185571e-01    2.844628e-02
  7.503083e-01    8.209626e-02
  7.820594e-01    8.487341e-02
  8.138106e-01    2.099808e-01
  8.455617e-01    2.351100e-01
  8.773129e-01    4.063225e-01
  9.090640e-01    5.558158e-01
  9.408152e-01    6.894577e-01
  9.725663e-01    9.137931e-01
  1.004317e+00    1.085430e+00
  1.036069e+00    1.154451e+00
  1.067820e+00    1.313685e+00
  1.099571e+00    1.456715e+00
  1.131322e+00    1.492923e+00
  1.163073e+00    1.532658e+00
  1.194824e+00    1.637714e+00
  1.226575e+00    2.234320e+00
  1.258327e+00    2.484203e+00
  1.290078e+00    2.477899e+00
  1.321829e+00    2.633090e+00
  1.353580e+00    2.539403e+00
  1.385331e+00    2.710243e+00
  1.417082e+00    2.719346e+00
  1.448834e+00    3.006815e+00
  1.480585e+00    2.959723e+00
  1.512336e+00    2.788646e+00
  1.544087e+00    3.013403e+00
  1.575838e+00    3.038427e+00
  1.607589e+00    3.063240e+00
  1.639340e+00    2.997123e+00
  1.671092e+00    2.913588e+00
  1.702843e+00    2.817775e+00
  1.734594e+00    2.850913e+00
  1.766345e+00    3.005971e+00
  1.798096e+00    2.902511e+00
  1.829847e+00    2.882409e+00
  1.861598e+00    2.758697e+00
  1.893350e+00    2.913422e+00
  1.925101e+00    2.759384e+00
  1.956852e+00    2.780113e+00
  1.988603e+00    2.717246e+00
  2.020354e+00    2.745857e+00
  2.052105e+00    2.962104e+00
  2.083856e+00    2.820887e+00
  2.115608e+00    2.753447e+00
  2.147359e+00    2.738242e+00
  2.179110e+00    2.902905e+00
  2.210861e+00    2.757252e+00
  2.242612e+00    2.892637e+00
  2.274363e+00    2.721255e+00
  2.306115e+00    2.806558e+00
  2.337866e+00    2.805052e+00
  2.369617e+00    2.769831e+00
  2.401368e+00    2.917062e+00
  2.433119e+00    2.804243e+00
  2.464870e+00    2.885278e+00
  2.496621e+00    2.816370e+00
  2.528373e+00    2.852690e+00
  2.560124e+00    2.776180e+00
  2.591875e+00    2.768011e+00
  2.623626e+00    2.785696e+00
  2.655377e+00    2.851178e+00
  2.687128e+00    2.824802e+00
  2.718879e+00    2.880313e+00
  2.750631e+00    2.813500e+00
  2.782382e+00    2.904403e+00
  2.814133e+00    2.857693e+00
  2.845884e+00    2.870367e+00
  2.877635e+00    2.841297e+00
  2.909386e+00    2.856380e+00
  2.941137e+00    2.927999e+00
  2.972889e+00    2.922015e+00
  3.004640e+00    2.905067e+00
  3.036391e+00    2.905452e+00
  3.068142e+00    2.860473e+00
  3.099893e+00    2.894954e+00
  3.131644e+00    2.916798e+00
  3.163395e+00    2.875142e+00
  3.195147e+00    2.929212e+00
  3.226898e+00    2.877311e+00
  3.258649e+00    2.859815e+00
  3.290400e+00    2.989819e+00
  3.322151e+00    2.934855e+00
  3.353902e+00    2.958536e+00
  3.385654e+00    2.950561e+00
  3.417405e+00    2.990533e+00
  3.449156e+00    2.972853e+00
  3.480907e+00    2.934464e+00
  3.512658e+00    2.976229e+00
  3.544409e+00    2.988330e+00
  3.576160e+00    3.047422e+00
  3.607912e+00    2.947533e+00
  3.639663e+00    2.966773e+00
  3.671414e+00    2.994218e+00
  3.703165e+00    2.946127e+00
  3.734916e+00    3.014143e+00
  3.766667e+00    2.924828e+00
  3.798418e+00    3.008549e+00
  3.830170e+00    2.979128e+00
  3.861921e+00    3.107400e+00
  3.893672e+00    3.027273e+00
  3.925423e+00    2.947267e+00
  3.957174e+00    2.941174e+00
  3.988925e+00    3.001509e+00
  4.020676e+00    3.030251e+00
  4.052428e+00    2.987448e+00
  4.084179e+00    3.097450e+00
  4.115930e+00    3.089681e+00
  4.147681e+00    3.078384e+00
  4.179432e+00    3.045433e+00
  4.211183e+00    3.128292e+00
  4.242935e+00    3.073657e+00
  4.274686e+00    3.006444e+00
  4.306437e+00    3.076144e+00
  4.338188e+00    3.126297e+00
  4.369939e+00    3.123451e+00
  4.401690e+00    3.116895e+00
  4.433441e+00    3.038433e+00
  4.465193e+00    3.072536e+00
  4.496944e+00    3.110776e+00
  4.528695e+00    2.956093e+00
  4.560446e+00    3.015671e+00
  4.592197e+00    3.043474e+00
  4.623948e+00    3.031359e+00
  4.655699e+00    3.175282e+00
  4.687451e+00    3.117615e+00
  4.719202e+00    3.096164e+00
  4.750953e+00    3.116608e+00
  4.782704e+00    3.125652e+00
  4.814455e+00    3.145373e+00
  4.846206e+00    3.207762e+00
  4.877957e+00    3.139018e+00
  4.909709e+00    3.208279e+00
  4.941460e+00    3.071432e+00
  4.973211e+00    3.109920e+00
  5.004962e+00    3.168710e+00
  5.036713e+00    3.139385e+00
  5.068464e+00    3.154785e+00
  5.100216e+00    3.121534e+00
  5.131967e+00    3.041515e+00
  5.163718e+00    3.038845e+00
  5.195469e+00    3.077513e+00
  5.227220e+00    3.116936e+00
  5.258971e+00    3.088315e+00
  5.290722e+00    3.122474e+00
  5.322474e+00    3.184452e+00
  5.354225e+00    3.091887e+00
  5.385976e+00    3.167043e+00
  5.417727e+00    3.063840e+00
  5.449478e+00    2.995832e+00
  5.481229e+00    3.108537e+00
  5.512980e+00    3.070590e+00
  5.544732e+00    3.065029e+00
  5.576483e+00    3.069323e+00
  5.608234e+00    2.985808e+00
  5.639985e+00    3.108191e+00
  5.671736e+00    3.017913e+00
  5.703487e+00    3.127986e+00
  5.735238e+00    2.992492e+00
  5.766990e+00    3.042307e+00
  5.798741e+00    3.053796e+00
  5.830492e+00    3.028038e+00
  5.862243e+00    3.037329e+00
  5.893994e+00    3.036018e+00
  5.925745e+00    3.041564e+00
  5.957497e+00    3.130352e+00
  5.989248e+00    2.961513e+00
  6.020999e+00    2.992450e+00
  6.052750e+00    3.000669e+00
  6.084501e+00    3.045327e+00
  6.116252e+00    3.076523e+00
  6.148003e+00    3.037216e+00
  6.179755e+00    3.032804e+00
  6.211506e+00    3.031270e+00
  6.243257e+00    3.104415e+00
  6.275008e+00    3.030684e+00
  6.306759e+00    3.088314e+00
  6.338510e+00    2.993906e+00
  6.370261e+00    3.098331e+00
  6.402013e+00    3.084229e+00
  6.433764e+00    3.041773e+00
  6.465515e+00    3.055049e+00
  6.497266e+00    3.086365e+00
  6.529017e+00    3.060529e+00
  6.560768e+00    3.079021e+00
  6.592519e+00    3.063838e+00
  6.624271e+00    3.047289e+00
  6.656022e+00    3.021063e+00
  6.687773e+00    3.016032e+00
  6.719524e+00    3.149351e+00
  6.751275e+00    3.052590e+00
  6.783026e+00    3.043921e+00
  6.814777e+00    3.025173e+00
  6.846529e+00    3.007592e+00
  6.878280e+00    3.083265e+00
  6.910031e+00    2.973258e+00
  6.941782e+00    3.048724e+00
  6.973533e+00    2.999921e+00
  7.005284e+00    3.035310e+00
  7.037036e+00    3.034050e+00
  7.068787e+00    3.028078e+00
  7.100538e+00    3.089645e+00
  7.132289e+00    3.043004e+00
  7.164040e+00    3.008573e+00
  7.195791e+00    3.076363e+00
  7.227542e+00    2.988728e+00
  7.259294e+00    3.031203e+00
  7.291045e+00    2.991940e+00
  7.322796e+00    2.969671e+00
  7.354547e+00    3.049326e+00
  7.386298e+00    2.957142e+00
  7.418049e+00    3.104363e+00
  7.449800e+00    2.925093e+00
  7.481552e+00    2.938309e+00
  7.513303e+00    3.047924e+00
  7.545054e+00    2.993389e+00
  7.576805e+00    2.952825e+00
  7.608556e+00    2.947617e+00
  7.640307e+00    2.898572e+00
  7.672058e+00    2.912424e+00
  7.703810e+00    2.880534e+00
  7.735561e+00    2.957880e+00
  7.767312e+00    2.905868e+00
  7.799063e+00    2.937385e+00
  7.830814e+00    2.974735e+00
  7.862565e+00    2.985171e+00
  7.894317e+00    2.932395e+00
  7.926068e+00    2.918583e+00
  7.957819e+00    2.831776e+00
  7.989570e+00    2.967618e+00
  8.021321e+00    2.887012e+00
  8.053072e+00    2.968574e+00
  8.084823e+00    2.931808e+00
  8.116575e+00    2.978851e+00
  8.148326e+00    2.937199e+00
  8.180077e+00    2.895743e+00
  8.211828e+00    2.925405e+00
  8.243579e+00    3.000093e+00
  8.275330e+00    2.870331e+00
  8.307081e+00    2.877224e+00
  8.338833e+00    2.856947e+00
  8.370584e+00    2.976651e+00
  8.402335e+00    2.889276e+00
  8.434086e+00    2.936997e+00
  8.465837e+00    2.891619e+00
  8.497588e+00    2.922335e+00
  8.529339e+00    2.841123e+00
  8.561091e+00    2.857621e+00
  8.592842e+00    2.855673e+00
  8.624593e+00    2.828120e+00
  8.656344e+00    2.858669e+00
  8.688095e+00    2.932146e+00
  8.719846e+00    2.874404e+00
  8.751598e+00    2.824765e+00
  8.783349e+00    2.846375e+00
  8.815100e+00    2.856336e+00
  8.846851e+00    2.843730e+00
  8.878602e+00    2.817537e+00
  8.910353e+00    2.856729e+00
  8.942104e+00    2.787249e+00
  8.973856e+00    2.814408e+00
  9.005607e+00    2.782643e+00
  9.037358e+00    2.865595e+00
  9.069109e+00    2.783229e+00
  9.100860e+00    2.812779e+00
  9.132611e+00    2.812250e+00
  9.164362e+00    2.829810e+00
  9.196114e+00    2.792445e+00
  9.227865e+00    2.833998e+00
  9.259616e+00    2.834978e+00
  9.291367e+00    2.837252e+00
  9.323118e+00    2.788377e+00
  9.354869e+00    2.859765e+00
  9.386620e+00    2.733064e+00
  9.418372e+00    2.806504e+00
  9.450123e+00    2.733849e+00
  9.481874e+00    2.783472e+00
  9.513625e+00    2.828379e+00
  9.545376e+00    2.717702e+00
  9.577127e+00    2.785829e+00
  9.608878e+00    2.774840e+00
  9.640630e+00    2.721163e+00
  9.672381e+00    2.772628e+00
  9.704132e+00    2.744884e+00
  9.735883e+00    2.745004e+00
  9.767634e+00    2.796546e+00
  9.799385e+00    2.727245e+00
  9.831137e+00    2.732017e+00
  9.862888e+00    2.673550e+00
  9.894639e+00    2.734918e+00
  9.926390e+00    2.705899e+00
  9.958141e+00    2.704321e+00
  9.989892e+00    2.727761e+00
  1.002164e+01    2.645166e+00
  1.005339e+01    2.668405e+00
  1.008515e+01    2.667035e+00
  1.011690e+01    2.674649e+00
  1.014865e+01    2.679748e+00
  1.018040e+01    2.647807e+00
  1.021215e+01    2.641162e+00
  1.024390e+01    2.659757e+00
  1.027565e+01    2.660142e+00
  1.030740e+01    2.653241e+00
  1.033915e+01    2.650707e+00
  1.037091e+01    2.643203e+00
  1.040266e+01    2.646003e+00
  1.043441e+01    2.625732e+00
  1.046616e+01    2.621733e+00
  1.049791e+01    2.642475e+00
  1.052966e+01    2.609379e+00
  1.056141e+01    2.545595e+00
  1.059316e+01    2.582153e+00
  1.062492e+01    2.583831e+00
  1.065667e+01    2.621351e+00
  1.068842e+01    2.592910e+00
  1.072017e+01    2.579265e+00
  1.075192e+01    2.560812e+00
  1.078367e+01    2.568718e+00
  1.081542e+01    2.476424e+00
  1.084717e+01    2.533180e+00
  1.087892e+01    2.523746e+00
  1.091068e+01    2.497221e+00
  1.094243e+01    2.481308e+00
  1.097418e+01    2.518218e+00
  1.100593e+01    2.477897e+00
  1.103768e+01    2.508768e+00
  1.106943e+01    2.494181e+00
  1.110118e+01    2.461716e+00
  1.113293e+01    2.484061e+00
  1.116468e+01    2.469446e+00
  1.119644e+01    2.507086e+00
  1.122819e+01    2.452182e+00
  1.125994e+01    2.458158e+00
  1.129169e+01    2.500103e+00
  1.132344e+01    2.416770e+00
  1.135519e+01    2.450642e+00
  1.138694e+01    2.433540e+00
  1.141869e+01    2.444765e+00
  1.145045e+01    2.469117e+00
  1.148220e+01    2.430506e+00
  1.151395e+01    2.392704e+00
  1.154570e+01    2.404446e+00
  1.157745e+01    2.372946e+00
  1.160920e+01    2.418318e+00
  1.164095e+01    2.382974e+00
  1.167270e+01    2.368837e+00
  1.170445e+01    2.379669e+00
  1.173621e+01    2.373834e+00
  1.176796e+01    2.366286e+00
  1.179971e+01    2.356398e+00
  1.183146e+01    2.373014e+00
  1.186321e+01    2.336714e+00
  1.189496e+01    2.386289e+00
  1.192671e+01    2.333810e+00
  1.195846e+01    2.310947e+00
  1.199021e+01    2.325327e+00
  1.202197e+01    2.366542e+00
  1.205372e+01    2.338140e+00
  1.208547e+01    2.320785e+00
  1.211722e+01    2.306550e+00
  1.214897e+01    2.356553e+00
  1.218072e+01    2.362439e+00
  1.221247e+01    2.370105e+00
  1.224422e+01    2.280201e+00
  1.227597e+01    2.356600e+00
  1.230773e+01    2.332957e+00
  1.233948e+01    2.404517e+00
  1.237123e+01    2.302531e+00
  1.240298e+01    2.316510e+00
  1.243473e+01    2.346537e+00
  1.246648e+01    2.361592e+00
  1.249823e+01    2.370466e+00
  1.252998e+01    2.381248e+00
  1.256174e+01    2.359748e+00
  1.259349e+01    2.397093e+00
  1.262524e+01    2.457044e+00
  1.265699e+01    2.435355e+00
  1.268874e+01    2.523078e+00
  1.272049e+01    2.508070e+00
  1.275224e+01    2.563429e+00
  1.278399e+01    2.657438e+00
  1.281574e+01    2.740311e+00
  1.284750e+01    2.874580e+00
  1.287925e+01    3.056604e+00
  1.291100e+01    3.308223e+00
  1.294275e+01    3.723661e+00
  1.297450e+01    4.304965e+00
  1.300625e+01    5.221480e+00
  1.303800e+01    6.756633e+00
  1.306975e+01    9.067089e+00
  1.310150e+01    1.213926e+01
  1.313326e+01    1.515590e+01
  1.316501e+01    1.785469e+01
  1.319676e+01    1.961330e+01
  1.322851e+01    1.788227e+01
  1.326026e+01    1.335439e+01
  1.329201e+01    9.398113e+00
  1.332376e+01    6.854925e+00
  1.335551e+01    5.297230e+00
  1.338727e+01    4.373072e+00
  1.341902e+01    3.691358e+00
  1.345077e+01    3.286756e+00
  1.348252e+01    3.039506e+00
  1.351427e+01    2.833071e+00
  1.354602e+01    2.650578e+00
  1.357777e+01    2.589133e+00
  1.360952e+01    2.427217e+00
  1.364127e+01    2.413077e+00
  1.367303e+01    2.356371e+00
  1.370478e+01    2.333303e+00
  1.373653e+01    2.289979e+00
  1.376828e+01    2.246874e+00
  1.380003e+01    2.166067e+00
  1.383178e+01    2.222132e+00
  1.386353e+01    2.148687e+00
  1.389528e+01    2.155798e+00
  1.392703e+01    2.088661e+00
  1.395879e+01    2.079042e+00
  1.399054e+01    2.084204e+00
  1.402229e+01    2.069306e+00
  1.405404e+01    2.042691e+00
  1.408579e+01    2.036138e+00
  1.411754e+01    2.024509e+00
  1.414929e+01    2.012998e+00
  1.418104e+01    2.017811e+00
  1.421279e+01    2.016112e+00
  1.424455e+01    2.032720e+00
  1.427630e+01    2.002644e+00
  1.430805e+01    2.007328e+00
  1.433980e+01    1.996297e+00
  1.437155e+01    1.984091e+00
  1.440330e+01    1.925895e+00
  1.443505e+01    1.945403e+00
  1.446680e+01    1.941790e+00
  1.449856e+01    1.954918e+00
  1.453031e+01    1.914070e+00
  1.456206e+01    1.943581e+00
  1.459381e+01    1.943071e+00
  1.462556e+01    1.921130e+00
  1.465731e+01    1.964009e+00
  1.468906e+01    1.952470e+00
  1.472081e+01    1.921769e+00
  1.475256e+01    1.936926e+00
  1.478432e+01    1.945488e+00
  1.481607e+01    1.918183e+00
  1.484782e+01    2.005863e+00
  1.487957e+01    1.956469e+00
  1.491132e+01    1.970495e+00
  1.494307e+01    2.018248e+00
  1.497482e+01    2.044844e+00
  1.500657e+01    2.134143e+00
  1.503832e+01    2.242666e+00
  1.507008e+01    2.490343e+00
  1.510183e+01    2.792486e+00
  1.513358e+01    3.280996e+00
  1.516533e+01    4.025542e+00
  1.519708e+01    4.913348e+00
  1.522883e+01    5.700469e+00
  1.526058e+01    6.233874e+00
  1.529233e+01    6.523586e+00
  1.532409e+01    6.011813e+00
  1.535584e+01    4.820622e+00
  1.538759e+01    3.857986e+00
  1.541934e+01    3.006232e+00
  1.545109e+01    2.612625e+00
  1.548284e+01    2.336697e+00
  1.551459e+01    2.156950e+00
  1.554634e+01    2.079860e+00
  1.557809e+01    1.983892e+00
  1.560985e+01    1.895338e+00
  1.564160e+01    1.834269e+00
  1.567335e+01    1.806169e+00
  1.570510e+01    1.772054e+00
  1.573685e+01    1.754093e+00
  1.576860e+01    1.713623e+00
  1.580035e+01    1.725514e+00
  1.583210e+01    1.711666e+00
  1.586385e+01    1.637529e+00
  1.589561e+01    1.707898e+00
  1.592736e+01    1.606683e+00
  1.595911e+01    1.652638e+00
  1.599086e+01    1.606262e+00
  1.602261e+01    1.658404e+00
  1.605436e+01    1.649875e+00
  1.608611e+01    1.604499e+00
  1.611786e+01    1.603789e+00
  1.614961e+01    1.593623e+00
  1.618137e+01    1.568566e+00
  1.621312e+01    1.601633e+00
  1.624487e+01    1.574751e+00
  1.627662e+01    1.542492e+00
  1.630837e+01    1.542577e+00
  1.634012e+01    1.555188e+00
  1.637187e+01    1.551480e+00
  1.640362e+01    1.571939e+00
  1.643538e+01    1.562848e+00
  1.646713e+01    1.567143e+00
  1.649888e+01    1.486248e+00
  1.653063e+01    1.520439e+00
  1.656238e+01    1.556776e+00
  1.659413e+01    1.519235e+00
  1.662588e+01    1.514030e+00
  1.665763e+01    1.530783e+00
  1.668938e+01    1.492330e+00
  1.672114e+01    1.513176e+00
  1.675289e+01    1.481082e+00
  1.678464e+01    1.492751e+00
  1.681639e+01    1.472588e+00
  1.684814e+01    1.467986e+00
  1.687989e+01    1.477052e+00
  1.691164e+01    1.439526e+00
  1.694339e+01    1.463061e+00
  1.697514e+01    1.454869e+00
  1.700690e+01    1.438720e+00
  1.703865e+01    1.437740e+00
  1.707040e+01    1.440745e+00
  1.710215e+01    1.427287e+00
  1.713390e+01    1.421004e+00
  1.716565e+01    1.414845e+00
  1.719740e+01    1.439811e+00
  1.722915e+01    1.399703e+00
  1.726091e+01    1.420063e+00
  1.729266e+01    1.406308e+00
  1.732441e+01    1.423759e+00
  1.735616e+01    1.400709e+00
  1.738791e+01    1.400606e+00
  1.741966e+01    1.384073e+00
  1.745141e+01    1.376567e+00
  1.748316e+01    1.411017e+00
  1.751491e+01    1.362113e+00
  1.754667e+01    1.382563e+00
  1.757842e+01    1.360597e+00
  1.761017e+01    1.366799e+00
  1.764192e+01    1.385997e+00
  1.767367e+01    1.369788e+00
  1.770542e+01    1.341854e+00
  1.773717e+01    1.356741e+00
  1.776892e+01    1.347200e+00
  1.780067e+01    1.331805e+00
  1.783243e+01    1.315469e+00
  1.786418e+01    1.349249e+00
  1.789593e+01    1.346237e+00
  1.792768e+01    1.316231e+00
  1.795943e+01    1.302330e+00
  1.799118e+01    1.292221e+00
  1.802293e+01    1.322071e+00
  1.805468e+01    1.316824e+00
  1.808643e+01    1.322599e+00
  1.811819e+01    1.306783e+00
  1.814994e+01    1.320832e+00
  1.818169e+01    1.296093e+00
  1.821344e+01    1.285475e+00
  1.824519e+01    1.287158e+00
  1.827694e+01    1.328096e+00
  1.830869e+01    1.274344e+00
  1.834044e+01    1.272551e+00
  1.837220e+01    1.273536e+00
  1.840395e+01    1.244732e+00
  1.843570e+01    1.269874e+00
  1.846745e+01    1.253076e+00
  1.849920e+01    1.262110e+00
  1.853095e+01    1.232427e+00
  1.856270e+01    1.239463e+00
  1.859445e+01    1.233564e+00
  1.862620e+01    1.233832e+00
  1.865796e+01    1.250133e+00
  1.868971e+01    1.217101e+00
  1.872146e+01    1.246442e+00
  1.875321e+01    1.215176e+00
  1.878496e+01    1.245710e+00
  1.881671e+01    1.232572e+00
  1.884846e+01    1.247840e+00
  1.888021e+01    1.215404e+00
  1.891196e+01    1.247223e+00
  1.894372e+01    1.227062e+00
  1.897547e+01    1.223520e+00
  1.900722e+01    1.205058e+00
  1.903897e+01    1.207719e+00
  1.907072e+01    1.161330e+00
  1.910247e+01    1.189821e+00
  1.913422e+01    1.225511e+00
  1.916597e+01    1.167452e+00
  1.919773e+01    1.185996e+00
  1.922948e+01    1.183813e+00
  1.926123e+01    1.198489e+00
  1.929298e+01    1.195177e+00
  1.932473e+01    1.188816e+00
  1.935648e+01    1.184647e+00
  1.938823e+01    1.193725e+00
  1.941998e+01    1.208479e+00
  1.945173e+01    1.187100e+00
  1.948349e+01    1.186528e+00
  1.951524e+01    1.184987e+00
  1.954699e+01    1.211425e+00
  1.957874e+01    1.149097e+00
  1.961049e+01    1.178895e+00
  1.964224e+01    1.151581e+00
  1.967399e+01    1.188720e+00
  1.970574e+01    1.164713e+00
  1.973749e+01    1.174107e+00
  1.976925e+01    1.178814e+00
  1.980100e+01    1.153537e+00
  1.983275e+01    1.159297e+00
  1.986450e+01    1.145836e+00
  1.989625e+01    1.182605e+00
  1.992800e+01    1.142360e+00
  1.995975e+01    1.150738e+00
  1.999150e+01    1.130158e+00
  2.002325e+01    1.121964e+00
  2.005501e+01    1.145854e+00
  2.008676e+01    1.116471e+00
  2.011851e+01    1.131757e+00
  2.015026e+01    1.146591e+00
  2.018201e+01    1.154193e+00
  2.021376e+01    1.133535e+00
  2.024551e+01    1.110011e+00
  2.027726e+01    1.129559e+00
  2.030902e+01    1.136729e+00
  2.034077e+01    1.119531e+00
  2.037252e+01    1.102891e+00
  2.040427e+01    1.103467e+00
  2.043602e+01    1.101204e+00
  2.046777e+01    1.115250e+00
  2.049952e+01    1.093191e+00
  2.053127e+01    1.128971e+00
  2.056302e+01    1.095538e+00
  2.059478e+01    1.080816e+00
  2.062653e+01    1.130644e+00
  2.065828e+01    1.089186e+00
  2.069003e+01    1.089995e+00
  2.072178e+01    1.120825e+00
  2.075353e+01    1.095134e+00
  2.078528e+01    1.094402e+00
  2.081703e+01    1.090072e+00
  2.084878e+01    1.110206e+00
  2.088054e+01    1.107012e+00
  2.091229e+01    1.089257e+00
  2.094404e+01    1.098755e+00
  2.097579e+01    1.077507e+00
  2.100754e+01    1.114886e+00
  2.103929e+01    1.094631e+00
  2.107104e+01    1.078188e+00
  2.110279e+01    1.088711e+00
  2.113455e+01    1.114497e+00
  2.116630e+01    1.095572e+00
  2.119805e+01    1.117292e+00
  2.122980e+01    1.105805e+00
  2.126155e+01    1.110642e+00
  2.129330e+01    1.147645e+00
  2.132505e+01    1.140927e+00
  2.135680e+01    1.158623e+00
  2.138855e+01    1.175408e+00
  2.142031e+01    1.207263e+00
  2.145206e+01    1.221471e+00
  2.148381e+01    1.273170e+00
  2.151556e+01    1.318833e+00
  2.154731e+01    1.369753e+00
  2.157906e+01    1.442994e+00
  2.161081e+01    1.587421e+00
  2.164256e+01    1.765831e+00
  2.167431e+01    1.987637e+00
  2.170607e+01    2.368162e+00
  2.173782e+01    2.921279e+00
  2.176957e+01    3.764883e+00
  2.180132e+01    4.974942e+00
  2.183307e+01    6.483408e+00
  2.186482e+01    8.149960e+00
  2.189657e+01    9.869076e+00
  2.192832e+01    1.082375e+01
  2.196007e+01    1.001035e+01
  2.199183e+01    7.956433e+00
  2.202358e+01    5.725834e+00
  2.205533e+01    4.106907e+00
  2.208708e+01    3.132912e+00
  2.211883e+01    2.489068e+00
  2.215058e+01    2.072104e+00
  2.218233e+01    1.789978e+00
  2.221408e+01    1.607959e+00
  2.224584e+01    1.473271e+00
  2.227759e+01    1.377033e+00
  2.230934e+01    1.276821e+00
  2.234109e+01    1.191807e+00
  2.237284e+01    1.200438e+00
  2.240459e+01    1.130450e+00
  2.243634e+01    1.100299e+00
  2.246809e+01    1.079516e+00
  2.249984e+01    1.060060e+00
  2.253160e+01    1.051637e+00
  2.256335e+01    1.033076e+00
  2.259510e+01    1.001865e+00
  2.262685e+01    1.001085e+00
  2.265860e+01    9.713058e-01
  2.269035e+01    9.838610e-01
  2.272210e+01    9.917963e-01
  2.275385e+01    9.675236e-01
  2.278560e+01    9.827637e-01
  2.281736e+01    9.414330e-01
  2.284911e+01    9.653688e-01
  2.288086e+01    9.260498e-01
  2.291261e+01    9.331145e-01
  2.294436e+01    9.316168e-01
  2.297611e+01    9.210377e-01
  2.300786e+01    9.134700e-01
  2.303961e+01    9.107786e-01
  2.307137e+01    8.887050e-01
  2.310312e+01    8.929527e-01
  2.313487e+01    9.019563e-01
  2.316662e+01    8.937817e-01
  2.319837e+01    9.106417e-01
  2.323012e+01    8.768610e-01
  2.326187e+01    8.991596e-01
  2.329362e+01    8.708171e-01
  2.332537e+01    8.776581e-01
  2.335713e+01    8.793783e-01
  2.338888e+01    8.939320e-01
  2.342063e+01    8.680876e-01
  2.345238e+01    8.586096e-01
  2.348413e+01    8.587270e-01
  2.351588e+01    8.629609e-01
  2.354763e+01    8.596201e-01
  2.357938e+01    8.618458e-01
  2.361113e+01    8.513907e-01
  2.364289e+01    8.526925e-01
  2.367464e+01    8.381287e-01
  2.370639e+01    8.550589e-01
  2.373814e+01    8.365008e-01
  2.376989e+01    8.451676e-01
  2.380164e+01    8.174013e-01
  2.383339e+01    8.297022e-01
  2.386514e+01    7.980892e-01
  2.389689e+01    8.222297e-01
  2.392865e+01    8.373894e-01
  2.396040e+01    8.226403e-01
  2.399215e+01    8.239510e-01
  2.402390e+01    8.160164e-01
  2.405565e+01    7.974984e-01
  2.408740e+01    7.882111e-01
  2.411915e+01    8.042860e-01
  2.415090e+01    8.066385e-01
  2.418266e+01    7.884921e-01
  2.421441e+01    8.015557e-01
  2.424616e+01    8.066149e-01
  2.427791e+01    8.047954e-01
  2.430966e+01    7.975447e-01
  2.434141e+01    7.847843e-01
  2.437316e+01    7.966694e-01
  2.440491e+01    8.130146e-01
  2.443666e+01    8.065272e-01
  2.446842e+01    8.076547e-01
  2.450017e+01    8.101801e-01
  2.453192e+01    8.017381e-01
  2.456367e+01    8.052648e-01
  2.459542e+01    8.019065e-01
  2.462717e+01    8.169705e-01
  2.465892e+01    8.147412e-01
  2.469067e+01    7.879047e-01
  2.472242e+01    7.912754e-01
  2.475418e+01    8.130226e-01
  2.478593e+01    8.011604e-01
  2.481768e+01    7.947515e-01
  2.484943e+01    8.131271e-01
  2.488118e+01    8.032817e-01
  2.491293e+01    8.026627e-01
  2.494468e+01    8.035984e-01
  2.497643e+01    8.307952e-01
  2.500819e+01    8.108295e-01
  2.503994e+01    8.234601e-01
  2.507169e+01    8.241664e-01
  2.510344e+01    8.370445e-01
  2.513519e+01    8.421202e-01
  2.516694e+01    8.551487e-01
  2.519869e+01    8.587951e-01
  2.523044e+01    8.478567e-01
  2.526219e+01    8.819095e-01
  2.529395e+01    8.784247e-01
  2.532570e+01    8.641415e-01
  2.535745e+01    8.804908e-01
  2.538920e+01    9.224868e-01
  2.542095e+01    9.207948e-01
  2.545270e+01    9.466422e-01
  2.548445e+01    9.648637e-01
  2.551620e+01    9.883221e-01
  2.554795e+01    1.025875e+00
  2.557971e+01    1.062173e+00
  2.561146e+01    1.104764e+00
  2.564321e+01    1.166968e+00
  2.567496e+01    1.276727e+00
  2.570671e+01    1.436830e+00
  2.573846e+01    1.604017e+00
  2.577021e+01    1.861691e+00
  2.580196e+01    2.281842e+00
  2.583371e+01    2.869512e+00
  2.586547e+01    3.767095e+00
  2.589722e+01    5.013786e+00
  2.592897e+01    6.489994e+00
  2.596072e+01    8.025408e+00
  2.599247e+01    8.952119e+00
  2.602422e+01    8.661695e+00
  2.605597e+01    7.214879e+00
  2.608772e+01    5.316590e+00
  2.611948e+01    3.915303e+00
  2.615123e+01    2.928239e+00
  2.618298e+01    2.339268e+00
  2.621473e+01    1.892189e+00
  2.624648e+01    1.649716e+00
  2.627823e+01    1.436714e+00
  2.630998e+01    1.308563e+00
  2.634173e+01    1.221179e+00
  2.637348e+01    1.125846e+00
  2.640524e+01    1.090781e+00
  2.643699e+01    1.018350e+00
  2.646874e+01    1.053418e+00
  2.650049e+01    9.929019e-01
  2.653224e+01    9.768074e-01
  2.656399e+01    9.838935e-01
  2.659574e+01    9.429980e-01
  2.662749e+01    9.408171e-01
  2.665924e+01    9.357842e-01
  2.669100e+01    9.276230e-01
  2.672275e+01    9.276651e-01
  2.675450e+01    9.094506e-01
  2.678625e+01    9.302030e-01
  2.681800e+01    9.083403e-01
  2.684975e+01    9.414572e-01
  2.688150e+01    9.369645e-01
  2.691325e+01    9.369804e-01
  2.694501e+01    9.354346e-01
  2.697676e+01    9.752238e-01
  2.700851e+01    9.999255e-01
  2.704026e+01    1.084817e+00
  2.707201e+01    1.150357e+00
  2.710376e+01    1.280789e+00
  2.713551e+01    1.484064e+00
  2.716726e+01    1.753113e+00
  2.719901e+01    2.096251e+00
  2.723077e+01    2.446610e+00
  2.726252e+01    2.625185e+00
  2.729427e+01    2.430239e+00
  2.732602e+01    2.072567e+00
  2.735777e+01    1.704849e+00
  2.738952e+01    1.458133e+00
  2.742127e+01    1.274453e+00
  2.745302e+01    1.142064e+00
  2.748477e+01    1.071200e+00
  2.751653e+01    1.003483e+00
  2.754828e+01    9.341962e-01
  2.758003e+01    9.383536e-01
  2.761178e+01    8.917986e-01
  2.764353e+01    8.761808e-01
  2.767528e+01    8.891696e-01
  2.770703e+01    8.609160e-01
  2.773878e+01    8.384511e-01
  2.777054e+01    8.411685e-01
  2.780229e+01    8.297062e-01
  2.783404e+01    8.494337e-01
  2.786579e+01    7.931824e-01
  2.789754e+01    8.367456e-01
  2.792929e+01    8.186147e-01
  2.796104e+01    8.062378e-01
  2.799279e+01    8.059514e-01
  2.802454e+01    8.036500e-01
  2.805630e+01    7.923483e-01
  2.808805e+01    8.004692e-01
  2.811980e+01    7.990170e-01
  2.815155e+01    7.922573e-01
  2.818330e+01    8.201940e-01
  2.821505e+01    7.772087e-01
  2.824680e+01    7.941139e-01
  2.827855e+01    7.951953e-01
  2.831030e+01    8.008061e-01
  2.834206e+01    7.934336e-01
  2.837381e+01    7.502506e-01
  2.840556e+01    8.055502e-01
  2.843731e+01    7.897915e-01
  2.846906e+01    7.666194e-01
  2.850081e+01    7.792267e-01
  2.853256e+01    7.794157e-01
  2.856431e+01    7.606701e-01
  2.859606e+01    7.520231e-01
  2.862782e+01    7.714822e-01
  2.865957e+01    7.508736e-01
  2.869132e+01    7.792216e-01
  2.872307e+01    7.723534e-01
  2.875482e+01    7.750071e-01
  2.878657e+01    7.670158e-01
  2.881832e+01    7.756959e-01
  2.885007e+01    7.580683e-01
  2.888183e+01    7.576160e-01
  2.891358e+01    7.497733e-01
  2.894533e+01    7.721760e-01
  2.897708e+01    7.398085e-01
  2.900883e+01    7.588071e-01
  2.904058e+01    7.684506e-01
  2.907233e+01    7.454884e-01
  2.910408e+01    7.423486e-01
  2.913583e+01    7.369006e-01
  2.916759e+01    7.499789e-01
  2.919934e+01    7.315415e-01
  2.923109e+01    7.642350e-01
  2.926284e+01    7.273521e-01
  2.929459e+01    7.534390e-01
  2.932634e+01    7.421016e-01
  2.935809e+01    7.322440e-01
  2.938984e+01    7.458123e-01
  2.942159e+01    7.699478e-01
  2.945335e+01    7.516162e-01
  2.948510e+01    7.262968e-01
  2.951685e+01    7.438121e-01
  2.954860e+01    7.408466e-01
  2.958035e+01    7.394724e-01
  2.961210e+01    7.170886e-01
  2.964385e+01    7.384801e-01
  2.967560e+01    7.364975e-01
  2.970736e+01    7.502621e-01
  2.973911e+01    7.373040e-01
  2.977086e+01    7.550305e-01
  2.980261e+01    7.388077e-01
  2.983436e+01    7.226882e-01
  2.986611e+01    7.264748e-01
  2.989786e+01    7.432910e-01
  2.992961e+01    7.535602e-01
  2.996136e+01    7.335871e-01
  2.999312e+01    7.147451e-01
  3.002487e+01    7.469418e-01
  3.005662e+01    7.706801e-01
  3.008837e+01    7.483109e-01
  3.012012e+01    7.357585e-01
  3.015187e+01    7.372020e-01
  3.018362e+01    7.363272e-01
  3.021537e+01    7.247813e-01
  3.024712e+01    7.335063e-01
  3.027888e+01    7.145327e-01
  3.031063e+01    7.259640e-01
  3.034238e+01    7.182577e-01
  3.037413e+01    7.287557e-01
  3.040588e+01    7.313837e-01
  3.043763e+01    7.180483e-01
  3.046938e+01    7.315788e-01
  3.050113e+01    7.045342e-01
  3.053288e+01    7.339854e-01
  3.056464e+01    6.975896e-01
  3.059639e+01    7.128043e-01
  3.062814e+01    7.301984e-01
  3.065989e+01    7.200690e-01
  3.069164e+01    7.286147e-01
  3.072339e+01    7.311811e-01
  3.075514e+01    7.395340e-01
  3.078689e+01    7.373935e-01
  3.081865e+01    7.288011e-01
  3.085040e+01    7.187243e-01
  3.088215e+01    7.362378e-01
  3.091390e+01    7.301707e-01
  3.094565e+01    7.286748e-01
  3.097740e+01    7.308413e-01
  3.100915e+01    7.120775e-01
  3.104090e+01    7.134622e-01
  3.107265e+01    7.483227e-01
  3.110441e+01    7.072561e-01
  3.113616e+01    7.154089e-01
  3.116791e+01    7.445523e-01
  3.119966e+01    7.452945e-01
  3.123141e+01    7.415079e-01
  3.126316e+01    7.264294e-01
  3.129491e+01    7.534211e-01
  3.132666e+01    7.565196e-01
  3.135841e+01    7.503999e-01
  3.139017e+01    7.398788e-01
  3.142192e+01    7.911983e-01
  3.145367e+01    7.939447e-01
  3.148542e+01    7.822643e-01
  3.151717e+01    7.871178e-01
  3.154892e+01    8.004717e-01
  3.158067e+01    8.241113e-01
  3.161242e+01    8.256091e-01
  3.164418e+01    8.628241e-01
  3.167593e+01    8.802579e-01
  3.170768e+01    9.587136e-01
  3.173943e+01    9.812571e-01
  3.177118e+01    1.095831e+00
  3.180293e+01    1.210208e+00
  3.183468e+01    1.422493e+00
  3.186643e+01    1.689328e+00
  3.189818e+01    2.073196e+00
  3.192994e+01    2.401698e+00
  3.196169e+01    2.559761e+00
  3.199344e+01    2.410224e+00
  3.202519e+01    2.046529e+00
  3.205694e+01    1.668937e+00
  3.208869e+01    1.341831e+00
  3.212044e+01    1.163145e+00
  3.215219e+01    1.037879e+00
  3.218394e+01    9.332606e-01
  3.221570e+01    8.957790e-01
  3.224745e+01    8.154538e-01
  3.227920e+01    8.348031e-01
  3.231095e+01    8.352466e-01
  3.234270e+01    7.811922e-01
  3.237445e+01    7.559655e-01
  3.240620e+01    7.679306e-01
  3.243795e+01    7.531474e-01
  3.246970e+01    7.470041e-01
  3.250146e+01    7.655348e-01
  3.253321e+01    7.697584e-01
  3.254908e+01    7.565798e-01