File: XRD/Activation ramp/2024-07-27_002_Ru-CGO-ex_Activtation_ramp_000002_data_000077.dat
# == pyFAI calibration ==
# Distance Sample to Detector: 0.4 m
# PONI: 9.750e-02, 1.135e-01 m
# Rotations: -0.000175 0.000000 -0.000000 rad
#
# == Fit2d calibration ==
# Distance Sample-beamCenter: 400.000 mm
# Center: x=1514.000, y=1300.000 pix
# Tilt: 0.010 deg  TiltPlanRot: 0.010 deg
#
# Detector Detector	 Spline= None	 PixelSize= 7.500e-05, 7.500e-05 m
#    Detector has a mask: False
#    Detector has a dark current: False
#    detector has a flat field: False
#
# Wavelength: 6.888e-11 m
# Mask applied: user provided
# Dark current applied: False
# Flat field applied: False
# Polarization factor: 0.99
# Normalization factor: 1.0
# --> /home/myspot/data/2024_07_Rosario/Ru-CGO-ex/2024-07-27_002_Ru-CGO-ex_Activtation_ramp_000002_data_000077.dat
#       q_nm^-1             I
  2.003187e-02    9.939597e-02
  5.178302e-02    8.768237e-02
  8.353417e-02    1.551787e-01
  1.152853e-01    4.760569e-02
  1.470365e-01    1.992341e-02
  1.787876e-01    5.423602e-02
  2.105388e-01    5.003535e-03
  2.422899e-01    2.877790e-02
  2.740411e-01    2.887345e-02
  3.057922e-01    3.774247e-02
  3.375433e-01    4.581008e-02
  3.692945e-01    4.168282e-02
  4.010456e-01    2.218371e-02
  4.327968e-01    2.504769e-02
  4.645479e-01    3.421214e-02
  4.962991e-01    1.809765e-02
  5.280502e-01    4.487640e-02
  5.598014e-01    2.809487e-02
  5.915525e-01    3.792830e-02
  6.233037e-01    3.726305e-02
  6.550548e-01    3.491158e-02
  6.868060e-01    4.044485e-02
  7.185571e-01    4.370681e-02
  7.503083e-01    2.925807e-02
  7.820594e-01    1.162966e-01
  8.138106e-01    2.026586e-01
  8.455617e-01    3.289427e-01
  8.773129e-01    4.156717e-01
  9.090640e-01    5.140274e-01
  9.408152e-01    6.820447e-01
  9.725663e-01    9.182127e-01
  1.004317e+00    1.046659e+00
  1.036069e+00    1.169660e+00
  1.067820e+00    1.289312e+00
  1.099571e+00    1.343347e+00
  1.131322e+00    1.473910e+00
  1.163073e+00    1.527781e+00
  1.194824e+00    1.600109e+00
  1.226575e+00    2.012768e+00
  1.258327e+00    2.359145e+00
  1.290078e+00    2.460900e+00
  1.321829e+00    2.630858e+00
  1.353580e+00    2.529165e+00
  1.385331e+00    2.665246e+00
  1.417082e+00    2.584755e+00
  1.448834e+00    2.810394e+00
  1.480585e+00    2.861956e+00
  1.512336e+00    2.822290e+00
  1.544087e+00    2.993104e+00
  1.575838e+00    2.944562e+00
  1.607589e+00    3.002652e+00
  1.639340e+00    3.049297e+00
  1.671092e+00    2.743896e+00
  1.702843e+00    2.918482e+00
  1.734594e+00    2.830660e+00
  1.766345e+00    2.681130e+00
  1.798096e+00    2.793262e+00
  1.829847e+00    2.872971e+00
  1.861598e+00    2.761498e+00
  1.893350e+00    2.739809e+00
  1.925101e+00    2.865254e+00
  1.956852e+00    2.825795e+00
  1.988603e+00    2.744790e+00
  2.020354e+00    2.713389e+00
  2.052105e+00    2.705364e+00
  2.083856e+00    2.753084e+00
  2.115608e+00    2.764233e+00
  2.147359e+00    2.852382e+00
  2.179110e+00    2.791142e+00
  2.210861e+00    2.795074e+00
  2.242612e+00    2.790279e+00
  2.274363e+00    2.746441e+00
  2.306115e+00    2.833033e+00
  2.337866e+00    2.675828e+00
  2.369617e+00    2.691858e+00
  2.401368e+00    2.689143e+00
  2.433119e+00    2.858741e+00
  2.464870e+00    2.969017e+00
  2.496621e+00    2.783945e+00
  2.528373e+00    2.779317e+00
  2.560124e+00    2.771015e+00
  2.591875e+00    2.791160e+00
  2.623626e+00    2.808630e+00
  2.655377e+00    2.809071e+00
  2.687128e+00    2.820187e+00
  2.718879e+00    2.826505e+00
  2.750631e+00    2.836419e+00
  2.782382e+00    2.895952e+00
  2.814133e+00    2.891364e+00
  2.845884e+00    2.882220e+00
  2.877635e+00    2.849953e+00
  2.909386e+00    2.822450e+00
  2.941137e+00    2.858950e+00
  2.972889e+00    2.905891e+00
  3.004640e+00    2.845294e+00
  3.036391e+00    2.893228e+00
  3.068142e+00    2.963166e+00
  3.099893e+00    2.808030e+00
  3.131644e+00    2.863674e+00
  3.163395e+00    2.897481e+00
  3.195147e+00    2.994091e+00
  3.226898e+00    2.872676e+00
  3.258649e+00    2.906540e+00
  3.290400e+00    2.897859e+00
  3.322151e+00    2.910203e+00
  3.353902e+00    2.809893e+00
  3.385654e+00    2.883929e+00
  3.417405e+00    2.912112e+00
  3.449156e+00    2.965627e+00
  3.480907e+00    2.909229e+00
  3.512658e+00    2.893789e+00
  3.544409e+00    2.951098e+00
  3.576160e+00    2.880725e+00
  3.607912e+00    2.974048e+00
  3.639663e+00    2.998659e+00
  3.671414e+00    2.922150e+00
  3.703165e+00    2.895289e+00
  3.734916e+00    3.007994e+00
  3.766667e+00    3.038425e+00
  3.798418e+00    2.890794e+00
  3.830170e+00    2.929676e+00
  3.861921e+00    3.002177e+00
  3.893672e+00    3.069496e+00
  3.925423e+00    2.930068e+00
  3.957174e+00    2.964215e+00
  3.988925e+00    3.032286e+00
  4.020676e+00    3.077600e+00
  4.052428e+00    3.041007e+00
  4.084179e+00    2.939526e+00
  4.115930e+00    3.053252e+00
  4.147681e+00    3.015016e+00
  4.179432e+00    3.063916e+00
  4.211183e+00    3.136767e+00
  4.242935e+00    2.968006e+00
  4.274686e+00    3.094638e+00
  4.306437e+00    3.002084e+00
  4.338188e+00    3.108177e+00
  4.369939e+00    3.005766e+00
  4.401690e+00    3.083048e+00
  4.433441e+00    3.047298e+00
  4.465193e+00    3.063688e+00
  4.496944e+00    2.969220e+00
  4.528695e+00    2.996409e+00
  4.560446e+00    3.083124e+00
  4.592197e+00    3.001197e+00
  4.623948e+00    3.055731e+00
  4.655699e+00    3.071877e+00
  4.687451e+00    3.109147e+00
  4.719202e+00    3.031673e+00
  4.750953e+00    3.225784e+00
  4.782704e+00    3.093947e+00
  4.814455e+00    3.054255e+00
  4.846206e+00    3.079408e+00
  4.877957e+00    3.140389e+00
  4.909709e+00    3.109963e+00
  4.941460e+00    3.118362e+00
  4.973211e+00    3.119470e+00
  5.004962e+00    3.134551e+00
  5.036713e+00    3.105245e+00
  5.068464e+00    3.064910e+00
  5.100216e+00    3.003036e+00
  5.131967e+00    3.020396e+00
  5.163718e+00    3.339221e+00
  5.195469e+00    3.101896e+00
  5.227220e+00    3.145594e+00
  5.258971e+00    3.106078e+00
  5.290722e+00    3.127084e+00
  5.322474e+00    3.020699e+00
  5.354225e+00    3.143713e+00
  5.385976e+00    3.106085e+00
  5.417727e+00    3.144313e+00
  5.449478e+00    3.092033e+00
  5.481229e+00    3.080176e+00
  5.512980e+00    3.086510e+00
  5.544732e+00    3.043012e+00
  5.576483e+00    3.030283e+00
  5.608234e+00    3.134363e+00
  5.639985e+00    3.081227e+00
  5.671736e+00    3.077380e+00
  5.703487e+00    3.039578e+00
  5.735238e+00    3.070540e+00
  5.766990e+00    3.097257e+00
  5.798741e+00    3.134440e+00
  5.830492e+00    2.961446e+00
  5.862243e+00    3.080299e+00
  5.893994e+00    3.104759e+00
  5.925745e+00    3.062546e+00
  5.957497e+00    2.958659e+00
  5.989248e+00    2.985837e+00
  6.020999e+00    3.011791e+00
  6.052750e+00    3.025143e+00
  6.084501e+00    3.116463e+00
  6.116252e+00    3.092323e+00
  6.148003e+00    3.059276e+00
  6.179755e+00    3.177697e+00
  6.211506e+00    3.031963e+00
  6.243257e+00    3.035176e+00
  6.275008e+00    2.994742e+00
  6.306759e+00    3.018007e+00
  6.338510e+00    3.011180e+00
  6.370261e+00    3.097483e+00
  6.402013e+00    3.103592e+00
  6.433764e+00    2.890799e+00
  6.465515e+00    2.957830e+00
  6.497266e+00    3.025776e+00
  6.529017e+00    3.005958e+00
  6.560768e+00    3.039046e+00
  6.592519e+00    3.009198e+00
  6.624271e+00    3.051028e+00
  6.656022e+00    2.998212e+00
  6.687773e+00    3.003552e+00
  6.719524e+00    3.031593e+00
  6.751275e+00    3.044905e+00
  6.783026e+00    3.016367e+00
  6.814777e+00    3.056525e+00
  6.846529e+00    2.995202e+00
  6.878280e+00    3.061452e+00
  6.910031e+00    2.967989e+00
  6.941782e+00    3.033017e+00
  6.973533e+00    3.014896e+00
  7.005284e+00    3.045909e+00
  7.037036e+00    2.937821e+00
  7.068787e+00    2.976641e+00
  7.100538e+00    3.003196e+00
  7.132289e+00    3.022943e+00
  7.164040e+00    2.998559e+00
  7.195791e+00    3.003322e+00
  7.227542e+00    2.945604e+00
  7.259294e+00    2.985368e+00
  7.291045e+00    2.966084e+00
  7.322796e+00    3.002987e+00
  7.354547e+00    2.958730e+00
  7.386298e+00    3.028994e+00
  7.418049e+00    3.022372e+00
  7.449800e+00    2.978068e+00
  7.481552e+00    2.938449e+00
  7.513303e+00    2.969929e+00
  7.545054e+00    2.966329e+00
  7.576805e+00    3.007681e+00
  7.608556e+00    2.952745e+00
  7.640307e+00    2.953522e+00
  7.672058e+00    2.988627e+00
  7.703810e+00    2.951810e+00
  7.735561e+00    2.951873e+00
  7.767312e+00    2.918459e+00
  7.799063e+00    2.934666e+00
  7.830814e+00    2.929993e+00
  7.862565e+00    2.858118e+00
  7.894317e+00    2.917454e+00
  7.926068e+00    2.941312e+00
  7.957819e+00    2.994157e+00
  7.989570e+00    2.955750e+00
  8.021321e+00    2.867431e+00
  8.053072e+00    2.953393e+00
  8.084823e+00    2.887987e+00
  8.116575e+00    2.959352e+00
  8.148326e+00    2.905931e+00
  8.180077e+00    2.914037e+00
  8.211828e+00    2.970243e+00
  8.243579e+00    2.936142e+00
  8.275330e+00    2.926062e+00
  8.307081e+00    2.880844e+00
  8.338833e+00    2.952225e+00
  8.370584e+00    2.909939e+00
  8.402335e+00    2.865023e+00
  8.434086e+00    2.919732e+00
  8.465837e+00    2.930183e+00
  8.497588e+00    2.889552e+00
  8.529339e+00    2.897005e+00
  8.561091e+00    2.835090e+00
  8.592842e+00    2.824499e+00
  8.624593e+00    2.845436e+00
  8.656344e+00    2.880452e+00
  8.688095e+00    2.854539e+00
  8.719846e+00    2.810799e+00
  8.751598e+00    2.809756e+00
  8.783349e+00    2.791201e+00
  8.815100e+00    2.833471e+00
  8.846851e+00    2.835556e+00
  8.878602e+00    2.835111e+00
  8.910353e+00    2.846967e+00
  8.942104e+00    2.836692e+00
  8.973856e+00    2.759460e+00
  9.005607e+00    2.773625e+00
  9.037358e+00    2.773678e+00
  9.069109e+00    2.792928e+00
  9.100860e+00    2.740881e+00
  9.132611e+00    2.731549e+00
  9.164362e+00    2.814898e+00
  9.196114e+00    2.757499e+00
  9.227865e+00    2.752842e+00
  9.259616e+00    2.749631e+00
  9.291367e+00    2.800433e+00
  9.323118e+00    2.770377e+00
  9.354869e+00    2.715689e+00
  9.386620e+00    2.753280e+00
  9.418372e+00    2.747312e+00
  9.450123e+00    2.700536e+00
  9.481874e+00    2.745511e+00
  9.513625e+00    2.691192e+00
  9.545376e+00    2.806179e+00
  9.577127e+00    2.761698e+00
  9.608878e+00    2.728487e+00
  9.640630e+00    2.723453e+00
  9.672381e+00    2.697392e+00
  9.704132e+00    2.760952e+00
  9.735883e+00    2.689816e+00
  9.767634e+00    2.699450e+00
  9.799385e+00    2.716944e+00
  9.831137e+00    2.693685e+00
  9.862888e+00    2.681298e+00
  9.894639e+00    2.684302e+00
  9.926390e+00    2.603752e+00
  9.958141e+00    2.678343e+00
  9.989892e+00    2.695193e+00
  1.002164e+01    2.656976e+00
  1.005339e+01    2.637746e+00
  1.008515e+01    2.626598e+00
  1.011690e+01    2.654085e+00
  1.014865e+01    2.617560e+00
  1.018040e+01    2.634835e+00
  1.021215e+01    2.666843e+00
  1.024390e+01    2.648697e+00
  1.027565e+01    2.650999e+00
  1.030740e+01    2.616935e+00
  1.033915e+01    2.657601e+00
  1.037091e+01    2.593612e+00
  1.040266e+01    2.618106e+00
  1.043441e+01    2.567921e+00
  1.046616e+01    2.623717e+00
  1.049791e+01    2.584569e+00
  1.052966e+01    2.613527e+00
  1.056141e+01    2.565432e+00
  1.059316e+01    2.589120e+00
  1.062492e+01    2.559512e+00
  1.065667e+01    2.521969e+00
  1.068842e+01    2.541767e+00
  1.072017e+01    2.533881e+00
  1.075192e+01    2.488762e+00
  1.078367e+01    2.557199e+00
  1.081542e+01    2.513770e+00
  1.084717e+01    2.509887e+00
  1.087892e+01    2.516301e+00
  1.091068e+01    2.542574e+00
  1.094243e+01    2.508689e+00
  1.097418e+01    2.490511e+00
  1.100593e+01    2.481981e+00
  1.103768e+01    2.472849e+00
  1.106943e+01    2.414523e+00
  1.110118e+01    2.480357e+00
  1.113293e+01    2.466723e+00
  1.116468e+01    2.414360e+00
  1.119644e+01    2.453458e+00
  1.122819e+01    2.426063e+00
  1.125994e+01    2.419425e+00
  1.129169e+01    2.363739e+00
  1.132344e+01    2.410369e+00
  1.135519e+01    2.446704e+00
  1.138694e+01    2.458305e+00
  1.141869e+01    2.386142e+00
  1.145045e+01    2.425102e+00
  1.148220e+01    2.371294e+00
  1.151395e+01    2.325335e+00
  1.154570e+01    2.353149e+00
  1.157745e+01    2.358746e+00
  1.160920e+01    2.377101e+00
  1.164095e+01    2.377747e+00
  1.167270e+01    2.384204e+00
  1.170445e+01    2.380309e+00
  1.173621e+01    2.327639e+00
  1.176796e+01    2.349398e+00
  1.179971e+01    2.345989e+00
  1.183146e+01    2.333525e+00
  1.186321e+01    2.326267e+00
  1.189496e+01    2.338939e+00
  1.192671e+01    2.294271e+00
  1.195846e+01    2.305804e+00
  1.199021e+01    2.295927e+00
  1.202197e+01    2.345591e+00
  1.205372e+01    2.342588e+00
  1.208547e+01    2.338615e+00
  1.211722e+01    2.311351e+00
  1.214897e+01    2.257734e+00
  1.218072e+01    2.362227e+00
  1.221247e+01    2.316486e+00
  1.224422e+01    2.296848e+00
  1.227597e+01    2.294979e+00
  1.230773e+01    2.313773e+00
  1.233948e+01    2.355997e+00
  1.237123e+01    2.358811e+00
  1.240298e+01    2.327464e+00
  1.243473e+01    2.345400e+00
  1.246648e+01    2.381735e+00
  1.249823e+01    2.320081e+00
  1.252998e+01    2.327447e+00
  1.256174e+01    2.325435e+00
  1.259349e+01    2.433586e+00
  1.262524e+01    2.406704e+00
  1.265699e+01    2.409817e+00
  1.268874e+01    2.509076e+00
  1.272049e+01    2.469471e+00
  1.275224e+01    2.528312e+00
  1.278399e+01    2.628178e+00
  1.281574e+01    2.715432e+00
  1.284750e+01    2.823997e+00
  1.287925e+01    3.024969e+00
  1.291100e+01    3.270546e+00
  1.294275e+01    3.660411e+00
  1.297450e+01    4.247523e+00
  1.300625e+01    5.248404e+00
  1.303800e+01    6.787586e+00
  1.306975e+01    9.281007e+00
  1.310150e+01    1.210251e+01
  1.313326e+01    1.487004e+01
  1.316501e+01    1.744842e+01
  1.319676e+01    1.839729e+01
  1.322851e+01    1.605329e+01
  1.326026e+01    1.175561e+01
  1.329201e+01    8.304483e+00
  1.332376e+01    6.162421e+00
  1.335551e+01    4.903901e+00
  1.338727e+01    4.047812e+00
  1.341902e+01    3.563951e+00
  1.345077e+01    3.126679e+00
  1.348252e+01    2.869372e+00
  1.351427e+01    2.752373e+00
  1.354602e+01    2.599860e+00
  1.357777e+01    2.493771e+00
  1.360952e+01    2.443717e+00
  1.364127e+01    2.382366e+00
  1.367303e+01    2.306437e+00
  1.370478e+01    2.260314e+00
  1.373653e+01    2.262431e+00
  1.376828e+01    2.152929e+00
  1.380003e+01    2.164092e+00
  1.383178e+01    2.155891e+00
  1.386353e+01    2.116095e+00
  1.389528e+01    2.107514e+00
  1.392703e+01    2.063471e+00
  1.395879e+01    2.067977e+00
  1.399054e+01    2.067907e+00
  1.402229e+01    2.070570e+00
  1.405404e+01    2.070371e+00
  1.408579e+01    2.013296e+00
  1.411754e+01    2.001364e+00
  1.414929e+01    2.003770e+00
  1.418104e+01    2.019663e+00
  1.421279e+01    2.042748e+00
  1.424455e+01    2.002665e+00
  1.427630e+01    1.980572e+00
  1.430805e+01    1.962964e+00
  1.433980e+01    1.958021e+00
  1.437155e+01    1.966228e+00
  1.440330e+01    1.939823e+00
  1.443505e+01    1.925843e+00
  1.446680e+01    1.922001e+00
  1.449856e+01    1.887439e+00
  1.453031e+01    1.916359e+00
  1.456206e+01    1.871974e+00
  1.459381e+01    1.903012e+00
  1.462556e+01    1.902426e+00
  1.465731e+01    1.909611e+00
  1.468906e+01    1.939833e+00
  1.472081e+01    1.928159e+00
  1.475256e+01    1.915151e+00
  1.478432e+01    1.888204e+00
  1.481607e+01    1.944134e+00
  1.484782e+01    1.933424e+00
  1.487957e+01    1.903582e+00
  1.491132e+01    1.960635e+00
  1.494307e+01    1.992035e+00
  1.497482e+01    2.068679e+00
  1.500657e+01    2.195192e+00
  1.503832e+01    2.251074e+00
  1.507008e+01    2.476331e+00
  1.510183e+01    2.872770e+00
  1.513358e+01    3.312461e+00
  1.516533e+01    4.113199e+00
  1.519708e+01    4.847445e+00
  1.522883e+01    5.565982e+00
  1.526058e+01    6.065915e+00
  1.529233e+01    6.174317e+00
  1.532409e+01    5.542122e+00
  1.535584e+01    4.343721e+00
  1.538759e+01    3.412524e+00
  1.541934e+01    2.853469e+00
  1.545109e+01    2.448500e+00
  1.548284e+01    2.237382e+00
  1.551459e+01    2.053234e+00
  1.554634e+01    1.983443e+00
  1.557809e+01    1.904655e+00
  1.560985e+01    1.853842e+00
  1.564160e+01    1.836550e+00
  1.567335e+01    1.803616e+00
  1.570510e+01    1.785067e+00
  1.573685e+01    1.720576e+00
  1.576860e+01    1.739564e+00
  1.580035e+01    1.699274e+00
  1.583210e+01    1.691694e+00
  1.586385e+01    1.661053e+00
  1.589561e+01    1.669453e+00
  1.592736e+01    1.663092e+00
  1.595911e+01    1.623854e+00
  1.599086e+01    1.636351e+00
  1.602261e+01    1.625318e+00
  1.605436e+01    1.602345e+00
  1.608611e+01    1.602982e+00
  1.611786e+01    1.581529e+00
  1.614961e+01    1.600353e+00
  1.618137e+01    1.576363e+00
  1.621312e+01    1.588655e+00
  1.624487e+01    1.558159e+00
  1.627662e+01    1.539399e+00
  1.630837e+01    1.564238e+00
  1.634012e+01    1.568755e+00
  1.637187e+01    1.529256e+00
  1.640362e+01    1.542085e+00
  1.643538e+01    1.509236e+00
  1.646713e+01    1.519032e+00
  1.649888e+01    1.491271e+00
  1.653063e+01    1.469280e+00
  1.656238e+01    1.492620e+00
  1.659413e+01    1.495273e+00
  1.662588e+01    1.506244e+00
  1.665763e+01    1.498374e+00
  1.668938e+01    1.452787e+00
  1.672114e+01    1.504087e+00
  1.675289e+01    1.489416e+00
  1.678464e+01    1.457533e+00
  1.681639e+01    1.493321e+00
  1.684814e+01    1.459740e+00
  1.687989e+01    1.442774e+00
  1.691164e+01    1.429720e+00
  1.694339e+01    1.427832e+00
  1.697514e+01    1.424857e+00
  1.700690e+01    1.450905e+00
  1.703865e+01    1.417716e+00
  1.707040e+01    1.444452e+00
  1.710215e+01    1.452101e+00
  1.713390e+01    1.439730e+00
  1.716565e+01    1.422214e+00
  1.719740e+01    1.420454e+00
  1.722915e+01    1.426231e+00
  1.726091e+01    1.402733e+00
  1.729266e+01    1.371675e+00
  1.732441e+01    1.389270e+00
  1.735616e+01    1.381117e+00
  1.738791e+01    1.373276e+00
  1.741966e+01    1.414611e+00
  1.745141e+01    1.367014e+00
  1.748316e+01    1.377099e+00
  1.751491e+01    1.356389e+00
  1.754667e+01    1.374265e+00
  1.757842e+01    1.327876e+00
  1.761017e+01    1.351284e+00
  1.764192e+01    1.334222e+00
  1.767367e+01    1.348181e+00
  1.770542e+01    1.313692e+00
  1.773717e+01    1.310221e+00
  1.776892e+01    1.298547e+00
  1.780067e+01    1.347406e+00
  1.783243e+01    1.316037e+00
  1.786418e+01    1.311668e+00
  1.789593e+01    1.321128e+00
  1.792768e+01    1.331151e+00
  1.795943e+01    1.327321e+00
  1.799118e+01    1.302055e+00
  1.802293e+01    1.279837e+00
  1.805468e+01    1.316921e+00
  1.808643e+01    1.298254e+00
  1.811819e+01    1.303998e+00
  1.814994e+01    1.287069e+00
  1.818169e+01    1.250578e+00
  1.821344e+01    1.308640e+00
  1.824519e+01    1.273893e+00
  1.827694e+01    1.265196e+00
  1.830869e+01    1.242187e+00
  1.834044e+01    1.256723e+00
  1.837220e+01    1.248011e+00
  1.840395e+01    1.250096e+00
  1.843570e+01    1.238920e+00
  1.846745e+01    1.243222e+00
  1.849920e+01    1.235955e+00
  1.853095e+01    1.253903e+00
  1.856270e+01    1.252085e+00
  1.859445e+01    1.253428e+00
  1.862620e+01    1.215513e+00
  1.865796e+01    1.207831e+00
  1.868971e+01    1.238365e+00
  1.872146e+01    1.243075e+00
  1.875321e+01    1.241286e+00
  1.878496e+01    1.224828e+00
  1.881671e+01    1.219033e+00
  1.884846e+01    1.201815e+00
  1.888021e+01    1.201233e+00
  1.891196e+01    1.199983e+00
  1.894372e+01    1.226725e+00
  1.897547e+01    1.215779e+00
  1.900722e+01    1.188861e+00
  1.903897e+01    1.194483e+00
  1.907072e+01    1.192002e+00
  1.910247e+01    1.197911e+00
  1.913422e+01    1.184412e+00
  1.916597e+01    1.195734e+00
  1.919773e+01    1.172248e+00
  1.922948e+01    1.176099e+00
  1.926123e+01    1.199163e+00
  1.929298e+01    1.193931e+00
  1.932473e+01    1.171576e+00
  1.935648e+01    1.183582e+00
  1.938823e+01    1.164410e+00
  1.941998e+01    1.155274e+00
  1.945173e+01    1.184896e+00
  1.948349e+01    1.159088e+00
  1.951524e+01    1.169229e+00
  1.954699e+01    1.147561e+00
  1.957874e+01    1.136533e+00
  1.961049e+01    1.174001e+00
  1.964224e+01    1.131585e+00
  1.967399e+01    1.150536e+00
  1.970574e+01    1.156375e+00
  1.973749e+01    1.139876e+00
  1.976925e+01    1.118111e+00
  1.980100e+01    1.138690e+00
  1.983275e+01    1.120329e+00
  1.986450e+01    1.144068e+00
  1.989625e+01    1.134531e+00
  1.992800e+01    1.103018e+00
  1.995975e+01    1.117105e+00
  1.999150e+01    1.105912e+00
  2.002325e+01    1.124543e+00
  2.005501e+01    1.125961e+00
  2.008676e+01    1.101845e+00
  2.011851e+01    1.101905e+00
  2.015026e+01    1.131847e+00
  2.018201e+01    1.100809e+00
  2.021376e+01    1.099956e+00
  2.024551e+01    1.089554e+00
  2.027726e+01    1.122679e+00
  2.030902e+01    1.101084e+00
  2.034077e+01    1.109035e+00
  2.037252e+01    1.084092e+00
  2.040427e+01    1.093935e+00
  2.043602e+01    1.091101e+00
  2.046777e+01    1.110592e+00
  2.049952e+01    1.082318e+00
  2.053127e+01    1.094229e+00
  2.056302e+01    1.099125e+00
  2.059478e+01    1.097848e+00
  2.062653e+01    1.086443e+00
  2.065828e+01    1.086252e+00
  2.069003e+01    1.088978e+00
  2.072178e+01    1.080638e+00
  2.075353e+01    1.084709e+00
  2.078528e+01    1.086094e+00
  2.081703e+01    1.074919e+00
  2.084878e+01    1.077809e+00
  2.088054e+01    1.087019e+00
  2.091229e+01    1.098710e+00
  2.094404e+01    1.081099e+00
  2.097579e+01    1.098811e+00
  2.100754e+01    1.087682e+00
  2.103929e+01    1.097742e+00
  2.107104e+01    1.095930e+00
  2.110279e+01    1.082705e+00
  2.113455e+01    1.087136e+00
  2.116630e+01    1.102387e+00
  2.119805e+01    1.110245e+00
  2.122980e+01    1.115471e+00
  2.126155e+01    1.142388e+00
  2.129330e+01    1.115089e+00
  2.132505e+01    1.162450e+00
  2.135680e+01    1.134127e+00
  2.138855e+01    1.157373e+00
  2.142031e+01    1.163107e+00
  2.145206e+01    1.225127e+00
  2.148381e+01    1.259136e+00
  2.151556e+01    1.290547e+00
  2.154731e+01    1.376128e+00
  2.157906e+01    1.421759e+00
  2.161081e+01    1.616047e+00
  2.164256e+01    1.763129e+00
  2.167431e+01    2.022818e+00
  2.170607e+01    2.439894e+00
  2.173782e+01    2.996182e+00
  2.176957e+01    3.919621e+00
  2.180132e+01    5.186769e+00
  2.183307e+01    6.674726e+00
  2.186482e+01    8.241606e+00
  2.189657e+01    9.650343e+00
  2.192832e+01    1.016818e+01
  2.196007e+01    8.944116e+00
  2.199183e+01    6.850532e+00
  2.202358e+01    4.845542e+00
  2.205533e+01    3.519173e+00
  2.208708e+01    2.750702e+00
  2.211883e+01    2.199522e+00
  2.215058e+01    1.878734e+00
  2.218233e+01    1.648864e+00
  2.221408e+01    1.512826e+00
  2.224584e+01    1.386836e+00
  2.227759e+01    1.313019e+00
  2.230934e+01    1.223013e+00
  2.234109e+01    1.207114e+00
  2.237284e+01    1.144627e+00
  2.240459e+01    1.117025e+00
  2.243634e+01    1.104344e+00
  2.246809e+01    1.049827e+00
  2.249984e+01    1.045437e+00
  2.253160e+01    1.034857e+00
  2.256335e+01    1.015543e+00
  2.259510e+01    1.009956e+00
  2.262685e+01    1.011682e+00
  2.265860e+01    9.698739e-01
  2.269035e+01    9.766154e-01
  2.272210e+01    9.459932e-01
  2.275385e+01    9.485666e-01
  2.278560e+01    9.403105e-01
  2.281736e+01    9.277909e-01
  2.284911e+01    9.428362e-01
  2.288086e+01    9.102749e-01
  2.291261e+01    9.191447e-01
  2.294436e+01    9.298772e-01
  2.297611e+01    9.019782e-01
  2.300786e+01    9.118116e-01
  2.303961e+01    8.973581e-01
  2.307137e+01    9.153511e-01
  2.310312e+01    9.080139e-01
  2.313487e+01    8.932818e-01
  2.316662e+01    8.880760e-01
  2.319837e+01    8.589851e-01
  2.323012e+01    8.721223e-01
  2.326187e+01    8.560326e-01
  2.329362e+01    8.766468e-01
  2.332537e+01    8.665145e-01
  2.335713e+01    8.691870e-01
  2.338888e+01    8.454988e-01
  2.342063e+01    8.594730e-01
  2.345238e+01    8.545637e-01
  2.348413e+01    8.558226e-01
  2.351588e+01    8.516184e-01
  2.354763e+01    8.662161e-01
  2.357938e+01    8.479549e-01
  2.361113e+01    8.534973e-01
  2.364289e+01    8.436636e-01
  2.367464e+01    8.184912e-01
  2.370639e+01    8.350728e-01
  2.373814e+01    8.147357e-01
  2.376989e+01    8.304673e-01
  2.380164e+01    8.133838e-01
  2.383339e+01    8.146417e-01
  2.386514e+01    8.184916e-01
  2.389689e+01    7.866377e-01
  2.392865e+01    8.135901e-01
  2.396040e+01    8.122863e-01
  2.399215e+01    7.863890e-01
  2.402390e+01    7.850803e-01
  2.405565e+01    7.816393e-01
  2.408740e+01    7.932486e-01
  2.411915e+01    7.910303e-01
  2.415090e+01    7.869172e-01
  2.418266e+01    7.774733e-01
  2.421441e+01    7.543343e-01
  2.424616e+01    7.814232e-01
  2.427791e+01    7.844337e-01
  2.430966e+01    7.942791e-01
  2.434141e+01    7.916269e-01
  2.437316e+01    8.109566e-01
  2.440491e+01    7.943980e-01
  2.443666e+01    7.756723e-01
  2.446842e+01    7.809356e-01
  2.450017e+01    7.767786e-01
  2.453192e+01    7.823458e-01
  2.456367e+01    8.137203e-01
  2.459542e+01    7.934620e-01
  2.462717e+01    8.003115e-01
  2.465892e+01    7.875794e-01
  2.469067e+01    7.879968e-01
  2.472242e+01    7.970092e-01
  2.475418e+01    8.041307e-01
  2.478593e+01    8.044195e-01
  2.481768e+01    7.913529e-01
  2.484943e+01    8.132257e-01
  2.488118e+01    7.964113e-01
  2.491293e+01    7.969093e-01
  2.494468e+01    7.803109e-01
  2.497643e+01    8.112096e-01
  2.500819e+01    7.966187e-01
  2.503994e+01    8.336509e-01
  2.507169e+01    8.043678e-01
  2.510344e+01    8.229436e-01
  2.513519e+01    8.275165e-01
  2.516694e+01    8.237016e-01
  2.519869e+01    8.310246e-01
  2.523044e+01    8.525263e-01
  2.526219e+01    8.481976e-01
  2.529395e+01    8.786774e-01
  2.532570e+01    8.803299e-01
  2.535745e+01    8.679578e-01
  2.538920e+01    9.086571e-01
  2.542095e+01    9.122936e-01
  2.545270e+01    9.440936e-01
  2.548445e+01    9.843183e-01
  2.551620e+01    9.973071e-01
  2.554795e+01    1.017421e+00
  2.557971e+01    1.064004e+00
  2.561146e+01    1.112904e+00
  2.564321e+01    1.208071e+00
  2.567496e+01    1.275646e+00
  2.570671e+01    1.414854e+00
  2.573846e+01    1.657825e+00
  2.577021e+01    1.909908e+00
  2.580196e+01    2.394566e+00
  2.583371e+01    3.034401e+00
  2.586547e+01    4.003875e+00
  2.589722e+01    5.249483e+00
  2.592897e+01    6.700572e+00
  2.596072e+01    7.912126e+00
  2.599247e+01    8.412390e+00
  2.602422e+01    7.670483e+00
  2.605597e+01    5.970325e+00
  2.608772e+01    4.458652e+00
  2.611948e+01    3.237636e+00
  2.615123e+01    2.503967e+00
  2.618298e+01    2.016304e+00
  2.621473e+01    1.731972e+00
  2.624648e+01    1.492528e+00
  2.627823e+01    1.332648e+00
  2.630998e+01    1.242208e+00
  2.634173e+01    1.123613e+00
  2.637348e+01    1.089558e+00
  2.640524e+01    1.049344e+00
  2.643699e+01    9.997363e-01
  2.646874e+01    9.845989e-01
  2.650049e+01    9.800467e-01
  2.653224e+01    9.536972e-01
  2.656399e+01    9.560695e-01
  2.659574e+01    9.236951e-01
  2.662749e+01    9.386188e-01
  2.665924e+01    9.277635e-01
  2.669100e+01    9.158495e-01
  2.672275e+01    8.938901e-01
  2.675450e+01    9.047307e-01
  2.678625e+01    9.264453e-01
  2.681800e+01    8.848183e-01
  2.684975e+01    9.310708e-01
  2.688150e+01    8.923045e-01
  2.691325e+01    9.501776e-01
  2.694501e+01    9.530091e-01
  2.697676e+01    9.958651e-01
  2.700851e+01    1.009105e+00
  2.704026e+01    1.078972e+00
  2.707201e+01    1.178796e+00
  2.710376e+01    1.319124e+00
  2.713551e+01    1.516043e+00
  2.716726e+01    1.826119e+00
  2.719901e+01    2.112236e+00
  2.723077e+01    2.404056e+00
  2.726252e+01    2.412690e+00
  2.729427e+01    2.180620e+00
  2.732602e+01    1.858170e+00
  2.735777e+01    1.498410e+00
  2.738952e+01    1.272431e+00
  2.742127e+01    1.139709e+00
  2.745302e+01    1.037610e+00
  2.748477e+01    1.010231e+00
  2.751653e+01    9.570965e-01
  2.754828e+01    9.422718e-01
  2.758003e+01    8.943744e-01
  2.761178e+01    8.657284e-01
  2.764353e+01    8.518959e-01
  2.767528e+01    8.805934e-01
  2.770703e+01    8.619812e-01
  2.773878e+01    8.347854e-01
  2.777054e+01    8.052686e-01
  2.780229e+01    7.901173e-01
  2.783404e+01    7.943396e-01
  2.786579e+01    8.196574e-01
  2.789754e+01    7.784045e-01
  2.792929e+01    8.002098e-01
  2.796104e+01    7.909274e-01
  2.799279e+01    8.100026e-01
  2.802454e+01    7.955400e-01
  2.805630e+01    7.791566e-01
  2.808805e+01    7.999874e-01
  2.811980e+01    8.068319e-01
  2.815155e+01    7.952445e-01
  2.818330e+01    7.728332e-01
  2.821505e+01    7.771758e-01
  2.824680e+01    7.916809e-01
  2.827855e+01    7.817249e-01
  2.831030e+01    7.684243e-01
  2.834206e+01    7.775311e-01
  2.837381e+01    7.852955e-01
  2.840556e+01    7.839606e-01
  2.843731e+01    7.545888e-01
  2.846906e+01    7.552387e-01
  2.850081e+01    7.726702e-01
  2.853256e+01    7.617491e-01
  2.856431e+01    7.568418e-01
  2.859606e+01    7.757419e-01
  2.862782e+01    7.526564e-01
  2.865957e+01    7.474428e-01
  2.869132e+01    7.587816e-01
  2.872307e+01    7.549409e-01
  2.875482e+01    7.601367e-01
  2.878657e+01    7.553620e-01
  2.881832e+01    7.597904e-01
  2.885007e+01    7.607396e-01
  2.888183e+01    7.491720e-01
  2.891358e+01    7.434410e-01
  2.894533e+01    7.475860e-01
  2.897708e+01    7.382628e-01
  2.900883e+01    7.416864e-01
  2.904058e+01    7.490247e-01
  2.907233e+01    7.463447e-01
  2.910408e+01    7.440467e-01
  2.913583e+01    7.496698e-01
  2.916759e+01    7.589688e-01
  2.919934e+01    7.464924e-01
  2.923109e+01    7.181688e-01
  2.926284e+01    7.232205e-01
  2.929459e+01    7.326413e-01
  2.932634e+01    7.474384e-01
  2.935809e+01    7.462201e-01
  2.938984e+01    7.430622e-01
  2.942159e+01    7.392575e-01
  2.945335e+01    7.366101e-01
  2.948510e+01    7.488090e-01
  2.951685e+01    7.133863e-01
  2.954860e+01    7.460124e-01
  2.958035e+01    6.978737e-01
  2.961210e+01    7.584038e-01
  2.964385e+01    7.308413e-01
  2.967560e+01    7.156493e-01
  2.970736e+01    7.066912e-01
  2.973911e+01    7.023052e-01
  2.977086e+01    7.022247e-01
  2.980261e+01    7.262635e-01
  2.983436e+01    7.377537e-01
  2.986611e+01    7.277778e-01
  2.989786e+01    7.166916e-01
  2.992961e+01    7.196499e-01
  2.996136e+01    7.451264e-01
  2.999312e+01    7.423629e-01
  3.002487e+01    7.282780e-01
  3.005662e+01    7.407444e-01
  3.008837e+01    7.249984e-01
  3.012012e+01    7.328633e-01
  3.015187e+01    7.277482e-01
  3.018362e+01    7.058984e-01
  3.021537e+01    7.180042e-01
  3.024712e+01    7.185498e-01
  3.027888e+01    7.287033e-01
  3.031063e+01    7.115269e-01
  3.034238e+01    7.096731e-01
  3.037413e+01    7.251924e-01
  3.040588e+01    6.997002e-01
  3.043763e+01    6.986883e-01
  3.046938e+01    7.085069e-01
  3.050113e+01    7.097384e-01
  3.053288e+01    6.995373e-01
  3.056464e+01    7.114706e-01
  3.059639e+01    7.227086e-01
  3.062814e+01    7.151060e-01
  3.065989e+01    7.249480e-01
  3.069164e+01    7.147608e-01
  3.072339e+01    7.049581e-01
  3.075514e+01    7.135287e-01
  3.078689e+01    7.239742e-01
  3.081865e+01    6.967468e-01
  3.085040e+01    7.392151e-01
  3.088215e+01    7.129745e-01
  3.091390e+01    7.069262e-01
  3.094565e+01    7.073832e-01
  3.097740e+01    7.342086e-01
  3.100915e+01    7.266156e-01
  3.104090e+01    7.377347e-01
  3.107265e+01    7.064360e-01
  3.110441e+01    7.213723e-01
  3.113616e+01    7.080702e-01
  3.116791e+01    7.309758e-01
  3.119966e+01    7.227164e-01
  3.123141e+01    7.251855e-01
  3.126316e+01    7.460510e-01
  3.129491e+01    7.327113e-01
  3.132666e+01    7.308304e-01
  3.135841e+01    7.414141e-01
  3.139017e+01    7.574194e-01
  3.142192e+01    7.535654e-01
  3.145367e+01    7.631377e-01
  3.148542e+01    7.510816e-01
  3.151717e+01    7.827656e-01
  3.154892e+01    7.755188e-01
  3.158067e+01    7.835813e-01
  3.161242e+01    8.147743e-01
  3.164418e+01    8.646041e-01
  3.167593e+01    8.777232e-01
  3.170768e+01    9.510235e-01
  3.173943e+01    9.989829e-01
  3.177118e+01    1.092491e+00
  3.180293e+01    1.296607e+00
  3.183468e+01    1.541679e+00
  3.186643e+01    1.843483e+00
  3.189818e+01    2.170825e+00
  3.192994e+01    2.412129e+00
  3.196169e+01    2.391791e+00
  3.199344e+01    2.104130e+00
  3.202519e+01    1.759781e+00
  3.205694e+01    1.427529e+00
  3.208869e+01    1.187338e+00
  3.212044e+01    1.068692e+00
  3.215219e+01    9.656977e-01
  3.218394e+01    9.093324e-01
  3.221570e+01    8.604895e-01
  3.224745e+01    8.491328e-01
  3.227920e+01    7.783207e-01
  3.231095e+01    7.811474e-01
  3.234270e+01    7.457910e-01
  3.237445e+01    7.432830e-01
  3.240620e+01    7.339468e-01
  3.243795e+01    7.387656e-01
  3.246970e+01    7.366121e-01
  3.250146e+01    7.209439e-01
  3.253321e+01    7.363303e-01
  3.254908e+01    7.418655e-01