File: XRD/Activation ramp/2024-07-27_002_Ru-CGO-ex_Activtation_ramp_000002_data_000161.dat
# == pyFAI calibration ==
# Distance Sample to Detector: 0.4 m
# PONI: 9.750e-02, 1.135e-01 m
# Rotations: -0.000175 0.000000 -0.000000 rad
#
# == Fit2d calibration ==
# Distance Sample-beamCenter: 400.000 mm
# Center: x=1514.000, y=1300.000 pix
# Tilt: 0.010 deg  TiltPlanRot: 0.010 deg
#
# Detector Detector	 Spline= None	 PixelSize= 7.500e-05, 7.500e-05 m
#    Detector has a mask: False
#    Detector has a dark current: False
#    detector has a flat field: False
#
# Wavelength: 6.888e-11 m
# Mask applied: user provided
# Dark current applied: False
# Flat field applied: False
# Polarization factor: 0.99
# Normalization factor: 1.0
# --> /home/myspot/data/2024_07_Rosario/Ru-CGO-ex/2024-07-27_002_Ru-CGO-ex_Activtation_ramp_000002_data_000161.dat
#       q_nm^-1             I
  2.003187e-02    0.000000e+00
  5.178302e-02    4.781393e-02
  8.353417e-02    5.559203e-02
  1.152853e-01    7.966437e-02
  1.470365e-01    3.447823e-03
  1.787876e-01    7.177264e-03
  2.105388e-01    9.027494e-03
  2.422899e-01    1.553605e-02
  2.740411e-01    3.945730e-02
  3.057922e-01    6.361239e-02
  3.375433e-01    1.364650e-02
  3.692945e-01    4.736599e-02
  4.010456e-01    4.715175e-02
  4.327968e-01    2.330017e-03
  4.645479e-01    3.754911e-02
  4.962991e-01    5.663805e-02
  5.280502e-01    2.885365e-02
  5.598014e-01    2.384408e-02
  5.915525e-01    4.560027e-02
  6.233037e-01    5.376009e-02
  6.550548e-01    4.086132e-02
  6.868060e-01    3.605521e-02
  7.185571e-01    1.834999e-02
  7.503083e-01    5.607066e-02
  7.820594e-01    1.009568e-01
  8.138106e-01    1.991283e-01
  8.455617e-01    2.967261e-01
  8.773129e-01    3.961635e-01
  9.090640e-01    5.615217e-01
  9.408152e-01    7.814373e-01
  9.725663e-01    9.347606e-01
  1.004317e+00    1.108665e+00
  1.036069e+00    1.250837e+00
  1.067820e+00    1.327769e+00
  1.099571e+00    1.387048e+00
  1.131322e+00    1.430072e+00
  1.163073e+00    1.422344e+00
  1.194824e+00    1.615433e+00
  1.226575e+00    2.174074e+00
  1.258327e+00    2.367696e+00
  1.290078e+00    2.304774e+00
  1.321829e+00    2.494485e+00
  1.353580e+00    2.421964e+00
  1.385331e+00    2.680384e+00
  1.417082e+00    2.639489e+00
  1.448834e+00    2.705312e+00
  1.480585e+00    2.820682e+00
  1.512336e+00    2.917049e+00
  1.544087e+00    3.052941e+00
  1.575838e+00    2.766576e+00
  1.607589e+00    2.789787e+00
  1.639340e+00    2.776797e+00
  1.671092e+00    2.887804e+00
  1.702843e+00    2.755916e+00
  1.734594e+00    2.840048e+00
  1.766345e+00    2.724021e+00
  1.798096e+00    2.573290e+00
  1.829847e+00    2.697980e+00
  1.861598e+00    2.737630e+00
  1.893350e+00    2.736902e+00
  1.925101e+00    2.718327e+00
  1.956852e+00    2.835330e+00
  1.988603e+00    2.660752e+00
  2.020354e+00    2.622058e+00
  2.052105e+00    2.746829e+00
  2.083856e+00    2.694529e+00
  2.115608e+00    2.702048e+00
  2.147359e+00    2.847596e+00
  2.179110e+00    2.673748e+00
  2.210861e+00    2.766350e+00
  2.242612e+00    2.729861e+00
  2.274363e+00    2.741258e+00
  2.306115e+00    2.789456e+00
  2.337866e+00    2.765160e+00
  2.369617e+00    2.790861e+00
  2.401368e+00    2.760279e+00
  2.433119e+00    2.727747e+00
  2.464870e+00    2.724740e+00
  2.496621e+00    2.689925e+00
  2.528373e+00    2.742492e+00
  2.560124e+00    2.742377e+00
  2.591875e+00    2.796259e+00
  2.623626e+00    2.873548e+00
  2.655377e+00    2.800587e+00
  2.687128e+00    2.808738e+00
  2.718879e+00    2.810002e+00
  2.750631e+00    2.740988e+00
  2.782382e+00    2.749822e+00
  2.814133e+00    2.849571e+00
  2.845884e+00    2.828155e+00
  2.877635e+00    2.833516e+00
  2.909386e+00    2.812067e+00
  2.941137e+00    2.848175e+00
  2.972889e+00    2.890657e+00
  3.004640e+00    2.847199e+00
  3.036391e+00    2.905671e+00
  3.068142e+00    2.831697e+00
  3.099893e+00    2.875721e+00
  3.131644e+00    2.828014e+00
  3.163395e+00    2.889871e+00
  3.195147e+00    2.961257e+00
  3.226898e+00    2.915105e+00
  3.258649e+00    2.952893e+00
  3.290400e+00    2.900577e+00
  3.322151e+00    2.990247e+00
  3.353902e+00    2.990477e+00
  3.385654e+00    3.001092e+00
  3.417405e+00    2.832843e+00
  3.449156e+00    2.987585e+00
  3.480907e+00    2.989742e+00
  3.512658e+00    3.038172e+00
  3.544409e+00    2.960458e+00
  3.576160e+00    2.963771e+00
  3.607912e+00    3.019290e+00
  3.639663e+00    2.992377e+00
  3.671414e+00    2.996041e+00
  3.703165e+00    3.103405e+00
  3.734916e+00    3.032200e+00
  3.766667e+00    2.930702e+00
  3.798418e+00    2.919684e+00
  3.830170e+00    3.091288e+00
  3.861921e+00    2.932153e+00
  3.893672e+00    3.050041e+00
  3.925423e+00    3.021583e+00
  3.957174e+00    3.085766e+00
  3.988925e+00    3.120824e+00
  4.020676e+00    3.030984e+00
  4.052428e+00    3.066509e+00
  4.084179e+00    3.035542e+00
  4.115930e+00    3.089343e+00
  4.147681e+00    3.059855e+00
  4.179432e+00    3.068091e+00
  4.211183e+00    3.131917e+00
  4.242935e+00    3.065188e+00
  4.274686e+00    3.048769e+00
  4.306437e+00    3.121879e+00
  4.338188e+00    3.028683e+00
  4.369939e+00    3.089203e+00
  4.401690e+00    3.134618e+00
  4.433441e+00    3.113017e+00
  4.465193e+00    3.033109e+00
  4.496944e+00    3.166860e+00
  4.528695e+00    3.094600e+00
  4.560446e+00    3.134611e+00
  4.592197e+00    3.125621e+00
  4.623948e+00    3.172049e+00
  4.655699e+00    3.085113e+00
  4.687451e+00    3.092033e+00
  4.719202e+00    3.129509e+00
  4.750953e+00    3.148163e+00
  4.782704e+00    3.165945e+00
  4.814455e+00    3.064019e+00
  4.846206e+00    3.080211e+00
  4.877957e+00    3.043196e+00
  4.909709e+00    3.172228e+00
  4.941460e+00    3.111908e+00
  4.973211e+00    3.185161e+00
  5.004962e+00    3.110378e+00
  5.036713e+00    3.173090e+00
  5.068464e+00    3.123054e+00
  5.100216e+00    3.117091e+00
  5.131967e+00    3.151667e+00
  5.163718e+00    3.122531e+00
  5.195469e+00    3.190066e+00
  5.227220e+00    3.116358e+00
  5.258971e+00    3.145741e+00
  5.290722e+00    3.113507e+00
  5.322474e+00    3.147981e+00
  5.354225e+00    3.172518e+00
  5.385976e+00    3.136032e+00
  5.417727e+00    3.065453e+00
  5.449478e+00    3.133053e+00
  5.481229e+00    3.117363e+00
  5.512980e+00    3.131745e+00
  5.544732e+00    3.089472e+00
  5.576483e+00    2.966202e+00
  5.608234e+00    3.059004e+00
  5.639985e+00    3.077541e+00
  5.671736e+00    3.130197e+00
  5.703487e+00    3.070123e+00
  5.735238e+00    3.042983e+00
  5.766990e+00    3.070814e+00
  5.798741e+00    3.164711e+00
  5.830492e+00    3.017787e+00
  5.862243e+00    2.983778e+00
  5.893994e+00    3.081491e+00
  5.925745e+00    3.082612e+00
  5.957497e+00    3.038949e+00
  5.989248e+00    3.059926e+00
  6.020999e+00    3.047907e+00
  6.052750e+00    3.012891e+00
  6.084501e+00    3.080306e+00
  6.116252e+00    3.181939e+00
  6.148003e+00    3.056892e+00
  6.179755e+00    3.055591e+00
  6.211506e+00    3.108645e+00
  6.243257e+00    3.089690e+00
  6.275008e+00    3.082133e+00
  6.306759e+00    3.138695e+00
  6.338510e+00    3.052265e+00
  6.370261e+00    3.043359e+00
  6.402013e+00    3.048220e+00
  6.433764e+00    2.991113e+00
  6.465515e+00    3.076569e+00
  6.497266e+00    3.083762e+00
  6.529017e+00    3.097641e+00
  6.560768e+00    3.078662e+00
  6.592519e+00    3.032072e+00
  6.624271e+00    3.075347e+00
  6.656022e+00    3.025294e+00
  6.687773e+00    3.053676e+00
  6.719524e+00    3.087377e+00
  6.751275e+00    3.014679e+00
  6.783026e+00    2.958484e+00
  6.814777e+00    3.009666e+00
  6.846529e+00    3.084117e+00
  6.878280e+00    2.963662e+00
  6.910031e+00    3.034609e+00
  6.941782e+00    2.995066e+00
  6.973533e+00    3.011235e+00
  7.005284e+00    3.022480e+00
  7.037036e+00    3.051593e+00
  7.068787e+00    2.938669e+00
  7.100538e+00    3.016327e+00
  7.132289e+00    3.017130e+00
  7.164040e+00    2.992547e+00
  7.195791e+00    3.041815e+00
  7.227542e+00    3.002183e+00
  7.259294e+00    3.038553e+00
  7.291045e+00    2.995057e+00
  7.322796e+00    3.009706e+00
  7.354547e+00    3.024290e+00
  7.386298e+00    2.973856e+00
  7.418049e+00    3.060728e+00
  7.449800e+00    3.015842e+00
  7.481552e+00    2.992147e+00
  7.513303e+00    3.043338e+00
  7.545054e+00    2.955938e+00
  7.576805e+00    3.007014e+00
  7.608556e+00    2.976600e+00
  7.640307e+00    3.023527e+00
  7.672058e+00    2.982194e+00
  7.703810e+00    2.993947e+00
  7.735561e+00    2.930889e+00
  7.767312e+00    2.953751e+00
  7.799063e+00    2.951175e+00
  7.830814e+00    3.024546e+00
  7.862565e+00    2.957731e+00
  7.894317e+00    2.921776e+00
  7.926068e+00    2.971668e+00
  7.957819e+00    2.906328e+00
  7.989570e+00    2.896171e+00
  8.021321e+00    2.927192e+00
  8.053072e+00    2.978035e+00
  8.084823e+00    3.005278e+00
  8.116575e+00    2.961815e+00
  8.148326e+00    2.992582e+00
  8.180077e+00    2.909709e+00
  8.211828e+00    2.985140e+00
  8.243579e+00    2.915090e+00
  8.275330e+00    2.923843e+00
  8.307081e+00    2.930485e+00
  8.338833e+00    2.886111e+00
  8.370584e+00    2.934617e+00
  8.402335e+00    2.952452e+00
  8.434086e+00    2.859608e+00
  8.465837e+00    2.854073e+00
  8.497588e+00    2.844523e+00
  8.529339e+00    2.848965e+00
  8.561091e+00    2.899130e+00
  8.592842e+00    2.878201e+00
  8.624593e+00    2.877141e+00
  8.656344e+00    2.876659e+00
  8.688095e+00    2.919358e+00
  8.719846e+00    2.878300e+00
  8.751598e+00    2.855140e+00
  8.783349e+00    2.890838e+00
  8.815100e+00    2.922365e+00
  8.846851e+00    2.828202e+00
  8.878602e+00    2.868623e+00
  8.910353e+00    2.877382e+00
  8.942104e+00    2.821535e+00
  8.973856e+00    2.849864e+00
  9.005607e+00    2.876626e+00
  9.037358e+00    2.827895e+00
  9.069109e+00    2.786474e+00
  9.100860e+00    2.832205e+00
  9.132611e+00    2.791340e+00
  9.164362e+00    2.824184e+00
  9.196114e+00    2.829751e+00
  9.227865e+00    2.801165e+00
  9.259616e+00    2.790105e+00
  9.291367e+00    2.843904e+00
  9.323118e+00    2.807950e+00
  9.354869e+00    2.842434e+00
  9.386620e+00    2.795211e+00
  9.418372e+00    2.789037e+00
  9.450123e+00    2.732189e+00
  9.481874e+00    2.796415e+00
  9.513625e+00    2.712048e+00
  9.545376e+00    2.774761e+00
  9.577127e+00    2.855623e+00
  9.608878e+00    2.803792e+00
  9.640630e+00    2.753005e+00
  9.672381e+00    2.767096e+00
  9.704132e+00    2.764296e+00
  9.735883e+00    2.713494e+00
  9.767634e+00    2.626316e+00
  9.799385e+00    2.754009e+00
  9.831137e+00    2.687802e+00
  9.862888e+00    2.739317e+00
  9.894639e+00    2.686124e+00
  9.926390e+00    2.646437e+00
  9.958141e+00    2.730664e+00
  9.989892e+00    2.751123e+00
  1.002164e+01    2.653158e+00
  1.005339e+01    2.689197e+00
  1.008515e+01    2.682626e+00
  1.011690e+01    2.685470e+00
  1.014865e+01    2.676740e+00
  1.018040e+01    2.719530e+00
  1.021215e+01    2.625624e+00
  1.024390e+01    2.648828e+00
  1.027565e+01    2.595926e+00
  1.030740e+01    2.667313e+00
  1.033915e+01    2.572473e+00
  1.037091e+01    2.551468e+00
  1.040266e+01    2.581656e+00
  1.043441e+01    2.621403e+00
  1.046616e+01    2.621941e+00
  1.049791e+01    2.653806e+00
  1.052966e+01    2.615617e+00
  1.056141e+01    2.566034e+00
  1.059316e+01    2.556946e+00
  1.062492e+01    2.580403e+00
  1.065667e+01    2.602193e+00
  1.068842e+01    2.505782e+00
  1.072017e+01    2.554373e+00
  1.075192e+01    2.552874e+00
  1.078367e+01    2.547161e+00
  1.081542e+01    2.572649e+00
  1.084717e+01    2.510943e+00
  1.087892e+01    2.496948e+00
  1.091068e+01    2.528117e+00
  1.094243e+01    2.489371e+00
  1.097418e+01    2.572578e+00
  1.100593e+01    2.531462e+00
  1.103768e+01    2.515173e+00
  1.106943e+01    2.505808e+00
  1.110118e+01    2.462636e+00
  1.113293e+01    2.502904e+00
  1.116468e+01    2.468294e+00
  1.119644e+01    2.461257e+00
  1.122819e+01    2.454384e+00
  1.125994e+01    2.460449e+00
  1.129169e+01    2.478174e+00
  1.132344e+01    2.468042e+00
  1.135519e+01    2.431744e+00
  1.138694e+01    2.424787e+00
  1.141869e+01    2.382053e+00
  1.145045e+01    2.384319e+00
  1.148220e+01    2.407200e+00
  1.151395e+01    2.458483e+00
  1.154570e+01    2.419710e+00
  1.157745e+01    2.411894e+00
  1.160920e+01    2.440816e+00
  1.164095e+01    2.385171e+00
  1.167270e+01    2.395414e+00
  1.170445e+01    2.359381e+00
  1.173621e+01    2.356343e+00
  1.176796e+01    2.361604e+00
  1.179971e+01    2.375544e+00
  1.183146e+01    2.385170e+00
  1.186321e+01    2.352715e+00
  1.189496e+01    2.400663e+00
  1.192671e+01    2.329193e+00
  1.195846e+01    2.318718e+00
  1.199021e+01    2.332153e+00
  1.202197e+01    2.316423e+00
  1.205372e+01    2.336631e+00
  1.208547e+01    2.356679e+00
  1.211722e+01    2.275134e+00
  1.214897e+01    2.342134e+00
  1.218072e+01    2.357630e+00
  1.221247e+01    2.361923e+00
  1.224422e+01    2.319844e+00
  1.227597e+01    2.313942e+00
  1.230773e+01    2.336534e+00
  1.233948e+01    2.360464e+00
  1.237123e+01    2.355212e+00
  1.240298e+01    2.310570e+00
  1.243473e+01    2.358707e+00
  1.246648e+01    2.324460e+00
  1.249823e+01    2.337606e+00
  1.252998e+01    2.390317e+00
  1.256174e+01    2.405905e+00
  1.259349e+01    2.392111e+00
  1.262524e+01    2.400470e+00
  1.265699e+01    2.458566e+00
  1.268874e+01    2.479666e+00
  1.272049e+01    2.501028e+00
  1.275224e+01    2.546433e+00
  1.278399e+01    2.646380e+00
  1.281574e+01    2.683496e+00
  1.284750e+01    2.853232e+00
  1.287925e+01    3.001612e+00
  1.291100e+01    3.296283e+00
  1.294275e+01    3.706782e+00
  1.297450e+01    4.445529e+00
  1.300625e+01    5.533369e+00
  1.303800e+01    7.224298e+00
  1.306975e+01    9.579890e+00
  1.310150e+01    1.218747e+01
  1.313326e+01    1.439024e+01
  1.316501e+01    1.610608e+01
  1.319676e+01    1.577007e+01
  1.322851e+01    1.271891e+01
  1.326026e+01    9.187002e+00
  1.329201e+01    6.531495e+00
  1.332376e+01    5.165753e+00
  1.335551e+01    4.197220e+00
  1.338727e+01    3.604477e+00
  1.341902e+01    3.160174e+00
  1.345077e+01    2.932054e+00
  1.348252e+01    2.735442e+00
  1.351427e+01    2.603395e+00
  1.354602e+01    2.494758e+00
  1.357777e+01    2.397131e+00
  1.360952e+01    2.370531e+00
  1.364127e+01    2.293899e+00
  1.367303e+01    2.278981e+00
  1.370478e+01    2.255466e+00
  1.373653e+01    2.212053e+00
  1.376828e+01    2.175653e+00
  1.380003e+01    2.139287e+00
  1.383178e+01    2.093843e+00
  1.386353e+01    2.145006e+00
  1.389528e+01    2.110229e+00
  1.392703e+01    2.122846e+00
  1.395879e+01    2.063265e+00
  1.399054e+01    2.064580e+00
  1.402229e+01    2.065804e+00
  1.405404e+01    2.060477e+00
  1.408579e+01    2.023873e+00
  1.411754e+01    2.016200e+00
  1.414929e+01    2.000314e+00
  1.418104e+01    1.981066e+00
  1.421279e+01    1.993381e+00
  1.424455e+01    1.948652e+00
  1.427630e+01    1.976804e+00
  1.430805e+01    1.953231e+00
  1.433980e+01    2.008327e+00
  1.437155e+01    1.961595e+00
  1.440330e+01    1.930993e+00
  1.443505e+01    1.939487e+00
  1.446680e+01    1.917871e+00
  1.449856e+01    1.982388e+00
  1.453031e+01    1.942354e+00
  1.456206e+01    1.935799e+00
  1.459381e+01    1.951789e+00
  1.462556e+01    1.920569e+00
  1.465731e+01    1.939362e+00
  1.468906e+01    1.863557e+00
  1.472081e+01    1.882780e+00
  1.475256e+01    1.917555e+00
  1.478432e+01    1.937393e+00
  1.481607e+01    1.951502e+00
  1.484782e+01    1.973853e+00
  1.487957e+01    1.947399e+00
  1.491132e+01    1.938977e+00
  1.494307e+01    1.996467e+00
  1.497482e+01    2.080251e+00
  1.500657e+01    2.237150e+00
  1.503832e+01    2.283022e+00
  1.507008e+01    2.596474e+00
  1.510183e+01    2.942423e+00
  1.513358e+01    3.433605e+00
  1.516533e+01    4.206996e+00
  1.519708e+01    4.830387e+00
  1.522883e+01    5.393782e+00
  1.526058e+01    5.681114e+00
  1.529233e+01    5.350080e+00
  1.532409e+01    4.566231e+00
  1.535584e+01    3.569154e+00
  1.538759e+01    2.929298e+00
  1.541934e+01    2.507418e+00
  1.545109e+01    2.262678e+00
  1.548284e+01    2.163026e+00
  1.551459e+01    2.013281e+00
  1.554634e+01    1.895147e+00
  1.557809e+01    1.891755e+00
  1.560985e+01    1.797519e+00
  1.564160e+01    1.776834e+00
  1.567335e+01    1.736304e+00
  1.570510e+01    1.746321e+00
  1.573685e+01    1.722878e+00
  1.576860e+01    1.705146e+00
  1.580035e+01    1.638043e+00
  1.583210e+01    1.684330e+00
  1.586385e+01    1.675372e+00
  1.589561e+01    1.653060e+00
  1.592736e+01    1.631323e+00
  1.595911e+01    1.647785e+00
  1.599086e+01    1.640618e+00
  1.602261e+01    1.608583e+00
  1.605436e+01    1.611484e+00
  1.608611e+01    1.585022e+00
  1.611786e+01    1.621257e+00
  1.614961e+01    1.604148e+00
  1.618137e+01    1.616116e+00
  1.621312e+01    1.536706e+00
  1.624487e+01    1.532365e+00
  1.627662e+01    1.586005e+00
  1.630837e+01    1.577120e+00
  1.634012e+01    1.562413e+00
  1.637187e+01    1.600159e+00
  1.640362e+01    1.519354e+00
  1.643538e+01    1.510059e+00
  1.646713e+01    1.541940e+00
  1.649888e+01    1.534425e+00
  1.653063e+01    1.552930e+00
  1.656238e+01    1.499509e+00
  1.659413e+01    1.508136e+00
  1.662588e+01    1.494172e+00
  1.665763e+01    1.485896e+00
  1.668938e+01    1.495566e+00
  1.672114e+01    1.466616e+00
  1.675289e+01    1.501158e+00
  1.678464e+01    1.467116e+00
  1.681639e+01    1.455997e+00
  1.684814e+01    1.447348e+00
  1.687989e+01    1.483257e+00
  1.691164e+01    1.454900e+00
  1.694339e+01    1.459363e+00
  1.697514e+01    1.449114e+00
  1.700690e+01    1.444567e+00
  1.703865e+01    1.420392e+00
  1.707040e+01    1.430042e+00
  1.710215e+01    1.394783e+00
  1.713390e+01    1.409075e+00
  1.716565e+01    1.428391e+00
  1.719740e+01    1.441767e+00
  1.722915e+01    1.415686e+00
  1.726091e+01    1.401804e+00
  1.729266e+01    1.410760e+00
  1.732441e+01    1.388955e+00
  1.735616e+01    1.359212e+00
  1.738791e+01    1.373738e+00
  1.741966e+01    1.364517e+00
  1.745141e+01    1.366013e+00
  1.748316e+01    1.346737e+00
  1.751491e+01    1.329205e+00
  1.754667e+01    1.340886e+00
  1.757842e+01    1.354739e+00
  1.761017e+01    1.313537e+00
  1.764192e+01    1.359329e+00
  1.767367e+01    1.354673e+00
  1.770542e+01    1.324617e+00
  1.773717e+01    1.347946e+00
  1.776892e+01    1.334400e+00
  1.780067e+01    1.335990e+00
  1.783243e+01    1.350466e+00
  1.786418e+01    1.316494e+00
  1.789593e+01    1.315735e+00
  1.792768e+01    1.311637e+00
  1.795943e+01    1.311367e+00
  1.799118e+01    1.291997e+00
  1.802293e+01    1.308894e+00
  1.805468e+01    1.299648e+00
  1.808643e+01    1.304841e+00
  1.811819e+01    1.305017e+00
  1.814994e+01    1.312112e+00
  1.818169e+01    1.304477e+00
  1.821344e+01    1.295072e+00
  1.824519e+01    1.306036e+00
  1.827694e+01    1.281406e+00
  1.830869e+01    1.282501e+00
  1.834044e+01    1.266221e+00
  1.837220e+01    1.268951e+00
  1.840395e+01    1.276214e+00
  1.843570e+01    1.247537e+00
  1.846745e+01    1.278102e+00
  1.849920e+01    1.234463e+00
  1.853095e+01    1.257264e+00
  1.856270e+01    1.263848e+00
  1.859445e+01    1.257296e+00
  1.862620e+01    1.254917e+00
  1.865796e+01    1.249980e+00
  1.868971e+01    1.260888e+00
  1.872146e+01    1.247777e+00
  1.875321e+01    1.227529e+00
  1.878496e+01    1.241749e+00
  1.881671e+01    1.221755e+00
  1.884846e+01    1.194740e+00
  1.888021e+01    1.226033e+00
  1.891196e+01    1.194234e+00
  1.894372e+01    1.212112e+00
  1.897547e+01    1.194743e+00
  1.900722e+01    1.225982e+00
  1.903897e+01    1.175015e+00
  1.907072e+01    1.183521e+00
  1.910247e+01    1.179982e+00
  1.913422e+01    1.201245e+00
  1.916597e+01    1.180297e+00
  1.919773e+01    1.193264e+00
  1.922948e+01    1.184208e+00
  1.926123e+01    1.196910e+00
  1.929298e+01    1.174965e+00
  1.932473e+01    1.209929e+00
  1.935648e+01    1.173204e+00
  1.938823e+01    1.173075e+00
  1.941998e+01    1.178920e+00
  1.945173e+01    1.188303e+00
  1.948349e+01    1.168414e+00
  1.951524e+01    1.184520e+00
  1.954699e+01    1.154089e+00
  1.957874e+01    1.196385e+00
  1.961049e+01    1.166588e+00
  1.964224e+01    1.164763e+00
  1.967399e+01    1.158855e+00
  1.970574e+01    1.142141e+00
  1.973749e+01    1.150453e+00
  1.976925e+01    1.150818e+00
  1.980100e+01    1.124929e+00
  1.983275e+01    1.161628e+00
  1.986450e+01    1.131403e+00
  1.989625e+01    1.135121e+00
  1.992800e+01    1.110713e+00
  1.995975e+01    1.144499e+00
  1.999150e+01    1.130253e+00
  2.002325e+01    1.081213e+00
  2.005501e+01    1.143702e+00
  2.008676e+01    1.111291e+00
  2.011851e+01    1.133554e+00
  2.015026e+01    1.119176e+00
  2.018201e+01    1.120701e+00
  2.021376e+01    1.087298e+00
  2.024551e+01    1.108283e+00
  2.027726e+01    1.080421e+00
  2.030902e+01    1.086142e+00
  2.034077e+01    1.119640e+00
  2.037252e+01    1.103633e+00
  2.040427e+01    1.065908e+00
  2.043602e+01    1.093260e+00
  2.046777e+01    1.058365e+00
  2.049952e+01    1.106871e+00
  2.053127e+01    1.086371e+00
  2.056302e+01    1.086524e+00
  2.059478e+01    1.081888e+00
  2.062653e+01    1.102927e+00
  2.065828e+01    1.078621e+00
  2.069003e+01    1.086385e+00
  2.072178e+01    1.077945e+00
  2.075353e+01    1.098435e+00
  2.078528e+01    1.086214e+00
  2.081703e+01    1.079981e+00
  2.084878e+01    1.074999e+00
  2.088054e+01    1.074906e+00
  2.091229e+01    1.076202e+00
  2.094404e+01    1.073056e+00
  2.097579e+01    1.112332e+00
  2.100754e+01    1.078978e+00
  2.103929e+01    1.098084e+00
  2.107104e+01    1.081606e+00
  2.110279e+01    1.094269e+00
  2.113455e+01    1.069293e+00
  2.116630e+01    1.115391e+00
  2.119805e+01    1.101982e+00
  2.122980e+01    1.119526e+00
  2.126155e+01    1.129015e+00
  2.129330e+01    1.119277e+00
  2.132505e+01    1.132421e+00
  2.135680e+01    1.169379e+00
  2.138855e+01    1.157175e+00
  2.142031e+01    1.182382e+00
  2.145206e+01    1.218865e+00
  2.148381e+01    1.259792e+00
  2.151556e+01    1.324198e+00
  2.154731e+01    1.395944e+00
  2.157906e+01    1.480599e+00
  2.161081e+01    1.623937e+00
  2.164256e+01    1.828755e+00
  2.167431e+01    2.153052e+00
  2.170607e+01    2.654596e+00
  2.173782e+01    3.384159e+00
  2.176957e+01    4.402422e+00
  2.180132e+01    5.642091e+00
  2.183307e+01    6.904681e+00
  2.186482e+01    8.259134e+00
  2.189657e+01    9.083323e+00
  2.192832e+01    8.442327e+00
  2.196007e+01    6.666487e+00
  2.199183e+01    4.862226e+00
  2.202358e+01    3.478322e+00
  2.205533e+01    2.737381e+00
  2.208708e+01    2.191402e+00
  2.211883e+01    1.870394e+00
  2.215058e+01    1.624978e+00
  2.218233e+01    1.461098e+00
  2.221408e+01    1.344539e+00
  2.224584e+01    1.313203e+00
  2.227759e+01    1.225862e+00
  2.230934e+01    1.154509e+00
  2.234109e+01    1.148246e+00
  2.237284e+01    1.103376e+00
  2.240459e+01    1.070184e+00
  2.243634e+01    1.087574e+00
  2.246809e+01    1.022535e+00
  2.249984e+01    1.035212e+00
  2.253160e+01    9.968022e-01
  2.256335e+01    1.003378e+00
  2.259510e+01    9.695117e-01
  2.262685e+01    9.747054e-01
  2.265860e+01    9.581896e-01
  2.269035e+01    9.631498e-01
  2.272210e+01    9.531471e-01
  2.275385e+01    9.265056e-01
  2.278560e+01    9.417549e-01
  2.281736e+01    9.210856e-01
  2.284911e+01    9.113854e-01
  2.288086e+01    9.281868e-01
  2.291261e+01    8.925444e-01
  2.294436e+01    9.071547e-01
  2.297611e+01    8.639439e-01
  2.300786e+01    9.152488e-01
  2.303961e+01    8.870495e-01
  2.307137e+01    8.978659e-01
  2.310312e+01    8.835236e-01
  2.313487e+01    9.002902e-01
  2.316662e+01    8.740368e-01
  2.319837e+01    8.748201e-01
  2.323012e+01    8.612917e-01
  2.326187e+01    8.724437e-01
  2.329362e+01    8.847295e-01
  2.332537e+01    8.512331e-01
  2.335713e+01    8.438097e-01
  2.338888e+01    8.492764e-01
  2.342063e+01    8.628805e-01
  2.345238e+01    8.378030e-01
  2.348413e+01    8.572652e-01
  2.351588e+01    8.560225e-01
  2.354763e+01    8.537443e-01
  2.357938e+01    8.467370e-01
  2.361113e+01    8.310878e-01
  2.364289e+01    8.374698e-01
  2.367464e+01    8.385929e-01
  2.370639e+01    8.269244e-01
  2.373814e+01    8.461535e-01
  2.376989e+01    8.179179e-01
  2.380164e+01    7.953434e-01
  2.383339e+01    8.156721e-01
  2.386514e+01    8.096874e-01
  2.389689e+01    8.068710e-01
  2.392865e+01    7.972860e-01
  2.396040e+01    7.906094e-01
  2.399215e+01    7.928687e-01
  2.402390e+01    7.955955e-01
  2.405565e+01    7.780486e-01
  2.408740e+01    7.908090e-01
  2.411915e+01    7.840366e-01
  2.415090e+01    7.533077e-01
  2.418266e+01    7.923357e-01
  2.421441e+01    7.686451e-01
  2.424616e+01    7.796020e-01
  2.427791e+01    7.841118e-01
  2.430966e+01    7.811064e-01
  2.434141e+01    8.094182e-01
  2.437316e+01    7.805641e-01
  2.440491e+01    7.985087e-01
  2.443666e+01    7.815025e-01
  2.446842e+01    7.976393e-01
  2.450017e+01    7.945008e-01
  2.453192e+01    7.964000e-01
  2.456367e+01    7.750055e-01
  2.459542e+01    7.836877e-01
  2.462717e+01    7.919089e-01
  2.465892e+01    7.881722e-01
  2.469067e+01    7.981172e-01
  2.472242e+01    8.123280e-01
  2.475418e+01    8.021195e-01
  2.478593e+01    8.033296e-01
  2.481768e+01    8.017488e-01
  2.484943e+01    7.902536e-01
  2.488118e+01    7.626997e-01
  2.491293e+01    7.997142e-01
  2.494468e+01    7.984859e-01
  2.497643e+01    8.122225e-01
  2.500819e+01    8.104630e-01
  2.503994e+01    7.924699e-01
  2.507169e+01    8.135756e-01
  2.510344e+01    8.102555e-01
  2.513519e+01    8.197199e-01
  2.516694e+01    8.233368e-01
  2.519869e+01    8.456235e-01
  2.523044e+01    8.538886e-01
  2.526219e+01    8.690851e-01
  2.529395e+01    8.797656e-01
  2.532570e+01    8.766404e-01
  2.535745e+01    8.644680e-01
  2.538920e+01    8.957375e-01
  2.542095e+01    9.081349e-01
  2.545270e+01    9.336071e-01
  2.548445e+01    9.560259e-01
  2.551620e+01    9.904087e-01
  2.554795e+01    1.027167e+00
  2.557971e+01    1.050409e+00
  2.561146e+01    1.148209e+00
  2.564321e+01    1.230463e+00
  2.567496e+01    1.341948e+00
  2.570671e+01    1.496478e+00
  2.573846e+01    1.776160e+00
  2.577021e+01    2.146995e+00
  2.580196e+01    2.711491e+00
  2.583371e+01    3.538877e+00
  2.586547e+01    4.567682e+00
  2.589722e+01    5.753597e+00
  2.592897e+01    6.865111e+00
  2.596072e+01    7.305883e+00
  2.599247e+01    6.814652e+00
  2.602422e+01    5.495844e+00
  2.605597e+01    4.103670e+00
  2.608772e+01    3.047076e+00
  2.611948e+01    2.329256e+00
  2.615123e+01    1.918386e+00
  2.618298e+01    1.598619e+00
  2.621473e+01    1.416598e+00
  2.624648e+01    1.258187e+00
  2.627823e+01    1.177682e+00
  2.630998e+01    1.124400e+00
  2.634173e+01    1.049747e+00
  2.637348e+01    9.914849e-01
  2.640524e+01    9.552045e-01
  2.643699e+01    9.500969e-01
  2.646874e+01    9.198669e-01
  2.650049e+01    9.111326e-01
  2.653224e+01    9.268547e-01
  2.656399e+01    9.004924e-01
  2.659574e+01    8.828067e-01
  2.662749e+01    9.026971e-01
  2.665924e+01    8.834250e-01
  2.669100e+01    8.574408e-01
  2.672275e+01    8.922259e-01
  2.675450e+01    8.884200e-01
  2.678625e+01    8.808258e-01
  2.681800e+01    9.052774e-01
  2.684975e+01    8.976529e-01
  2.688150e+01    8.899808e-01
  2.691325e+01    9.240363e-01
  2.694501e+01    9.248475e-01
  2.697676e+01    9.704666e-01
  2.700851e+01    1.046818e+00
  2.704026e+01    1.125617e+00
  2.707201e+01    1.228131e+00
  2.710376e+01    1.406314e+00
  2.713551e+01    1.653844e+00
  2.716726e+01    1.946214e+00
  2.719901e+01    2.179023e+00
  2.723077e+01    2.213469e+00
  2.726252e+01    1.978201e+00
  2.729427e+01    1.688140e+00
  2.732602e+01    1.435148e+00
  2.735777e+01    1.217094e+00
  2.738952e+01    1.099149e+00
  2.742127e+01    1.031775e+00
  2.745302e+01    9.668156e-01
  2.748477e+01    9.023931e-01
  2.751653e+01    8.913631e-01
  2.754828e+01    8.760333e-01
  2.758003e+01    8.564526e-01
  2.761178e+01    8.353774e-01
  2.764353e+01    8.313818e-01
  2.767528e+01    8.329884e-01
  2.770703e+01    8.025497e-01
  2.773878e+01    8.162932e-01
  2.777054e+01    8.192877e-01
  2.780229e+01    8.017587e-01
  2.783404e+01    8.050798e-01
  2.786579e+01    8.109168e-01
  2.789754e+01    7.962220e-01
  2.792929e+01    7.908570e-01
  2.796104e+01    7.979550e-01
  2.799279e+01    7.906023e-01
  2.802454e+01    7.848291e-01
  2.805630e+01    7.921569e-01
  2.808805e+01    7.827232e-01
  2.811980e+01    7.743680e-01
  2.815155e+01    7.610357e-01
  2.818330e+01    7.682309e-01
  2.821505e+01    7.862576e-01
  2.824680e+01    7.691981e-01
  2.827855e+01    7.762516e-01
  2.831030e+01    7.521913e-01
  2.834206e+01    7.413141e-01
  2.837381e+01    7.706367e-01
  2.840556e+01    7.546530e-01
  2.843731e+01    7.698996e-01
  2.846906e+01    7.578233e-01
  2.850081e+01    7.449502e-01
  2.853256e+01    7.709734e-01
  2.856431e+01    7.573790e-01
  2.859606e+01    7.410812e-01
  2.862782e+01    7.353856e-01
  2.865957e+01    7.569877e-01
  2.869132e+01    7.439367e-01
  2.872307e+01    7.403424e-01
  2.875482e+01    7.503223e-01
  2.878657e+01    7.450899e-01
  2.881832e+01    7.409992e-01
  2.885007e+01    7.473982e-01
  2.888183e+01    7.330917e-01
  2.891358e+01    7.566648e-01
  2.894533e+01    7.510673e-01
  2.897708e+01    7.565718e-01
  2.900883e+01    7.377446e-01
  2.904058e+01    7.162633e-01
  2.907233e+01    7.301843e-01
  2.910408e+01    7.185020e-01
  2.913583e+01    7.235603e-01
  2.916759e+01    7.443573e-01
  2.919934e+01    7.422199e-01
  2.923109e+01    7.129903e-01
  2.926284e+01    7.307069e-01
  2.929459e+01    7.483277e-01
  2.932634e+01    7.600870e-01
  2.935809e+01    7.225696e-01
  2.938984e+01    7.494322e-01
  2.942159e+01    7.095351e-01
  2.945335e+01    7.281587e-01
  2.948510e+01    7.219887e-01
  2.951685e+01    7.406637e-01
  2.954860e+01    7.097959e-01
  2.958035e+01    7.116914e-01
  2.961210e+01    7.061438e-01
  2.964385e+01    7.543951e-01
  2.967560e+01    7.212737e-01
  2.970736e+01    7.343767e-01
  2.973911e+01    7.065786e-01
  2.977086e+01    6.970070e-01
  2.980261e+01    7.205090e-01
  2.983436e+01    7.154161e-01
  2.986611e+01    7.121330e-01
  2.989786e+01    7.250599e-01
  2.992961e+01    7.243162e-01
  2.996136e+01    7.169119e-01
  2.999312e+01    7.408752e-01
  3.002487e+01    7.508216e-01
  3.005662e+01    7.407023e-01
  3.008837e+01    7.278084e-01
  3.012012e+01    7.247152e-01
  3.015187e+01    7.350924e-01
  3.018362e+01    7.427399e-01
  3.021537e+01    7.120005e-01
  3.024712e+01    7.258989e-01
  3.027888e+01    7.240112e-01
  3.031063e+01    6.911359e-01
  3.034238e+01    7.296386e-01
  3.037413e+01    6.850875e-01
  3.040588e+01    6.973407e-01
  3.043763e+01    7.226645e-01
  3.046938e+01    7.132821e-01
  3.050113e+01    6.968310e-01
  3.053288e+01    7.193801e-01
  3.056464e+01    7.036377e-01
  3.059639e+01    7.238720e-01
  3.062814e+01    7.069724e-01
  3.065989e+01    7.086669e-01
  3.069164e+01    7.032014e-01
  3.072339e+01    6.949962e-01
  3.075514e+01    7.094410e-01
  3.078689e+01    7.174485e-01
  3.081865e+01    7.249968e-01
  3.085040e+01    7.191070e-01
  3.088215e+01    7.038167e-01
  3.091390e+01    7.024456e-01
  3.094565e+01    7.013963e-01
  3.097740e+01    7.155350e-01
  3.100915e+01    7.104643e-01
  3.104090e+01    7.283425e-01
  3.107265e+01    7.135096e-01
  3.110441e+01    6.957654e-01
  3.113616e+01    7.065639e-01
  3.116791e+01    7.201260e-01
  3.119966e+01    7.153796e-01
  3.123141e+01    7.174966e-01
  3.126316e+01    7.259006e-01
  3.129491e+01    7.137558e-01
  3.132666e+01    7.447991e-01
  3.135841e+01    7.530638e-01
  3.139017e+01    7.530861e-01
  3.142192e+01    7.576129e-01
  3.145367e+01    7.296398e-01
  3.148542e+01    7.493306e-01
  3.151717e+01    7.684360e-01
  3.154892e+01    7.799911e-01
  3.158067e+01    7.982991e-01
  3.161242e+01    8.119895e-01
  3.164418e+01    8.624398e-01
  3.167593e+01    9.124126e-01
  3.170768e+01    9.704622e-01
  3.173943e+01    1.082146e+00
  3.177118e+01    1.212907e+00
  3.180293e+01    1.419363e+00
  3.183468e+01    1.678552e+00
  3.186643e+01    1.987160e+00
  3.189818e+01    2.175205e+00
  3.192994e+01    2.123333e+00
  3.196169e+01    1.888073e+00
  3.199344e+01    1.568860e+00
  3.202519e+01    1.325030e+00
  3.205694e+01    1.136378e+00
  3.208869e+01    1.006980e+00
  3.212044e+01    9.073243e-01
  3.215219e+01    8.580077e-01
  3.218394e+01    8.156117e-01
  3.221570e+01    7.881637e-01
  3.224745e+01    7.700732e-01
  3.227920e+01    7.570124e-01
  3.231095e+01    7.609670e-01
  3.234270e+01    7.495658e-01
  3.237445e+01    7.502038e-01
  3.240620e+01    7.212170e-01
  3.243795e+01    7.111400e-01
  3.246970e+01    7.294052e-01
  3.250146e+01    7.288234e-01
  3.253321e+01    6.897398e-01
  3.254908e+01    6.965877e-01