File: XRD/Activation ramp/2024-07-27_002_Ru-CGO-ex_Activtation_ramp_000002_data_000178.dat
# == pyFAI calibration ==
# Distance Sample to Detector: 0.4 m
# PONI: 9.750e-02, 1.135e-01 m
# Rotations: -0.000175 0.000000 -0.000000 rad
#
# == Fit2d calibration ==
# Distance Sample-beamCenter: 400.000 mm
# Center: x=1514.000, y=1300.000 pix
# Tilt: 0.010 deg  TiltPlanRot: 0.010 deg
#
# Detector Detector	 Spline= None	 PixelSize= 7.500e-05, 7.500e-05 m
#    Detector has a mask: False
#    Detector has a dark current: False
#    detector has a flat field: False
#
# Wavelength: 6.888e-11 m
# Mask applied: user provided
# Dark current applied: False
# Flat field applied: False
# Polarization factor: 0.99
# Normalization factor: 1.0
# --> /home/myspot/data/2024_07_Rosario/Ru-CGO-ex/2024-07-27_002_Ru-CGO-ex_Activtation_ramp_000002_data_000178.dat
#       q_nm^-1             I
  2.003187e-02    0.000000e+00
  5.178302e-02    2.430718e-01
  8.353417e-02    2.440660e-01
  1.152853e-01    3.654584e-02
  1.470365e-01    0.000000e+00
  1.787876e-01    4.946055e-02
  2.105388e-01    2.845726e-02
  2.422899e-01    1.772034e-02
  2.740411e-01    3.164070e-02
  3.057922e-01    2.251959e-02
  3.375433e-01    5.284563e-02
  3.692945e-01    4.298978e-02
  4.010456e-01    3.399588e-02
  4.327968e-01    4.506191e-02
  4.645479e-01    3.084466e-02
  4.962991e-01    3.493635e-02
  5.280502e-01    1.922296e-02
  5.598014e-01    5.900678e-02
  5.915525e-01    3.080368e-02
  6.233037e-01    4.682229e-02
  6.550548e-01    6.108490e-02
  6.868060e-01    2.622410e-02
  7.185571e-01    4.445769e-02
  7.503083e-01    5.922377e-02
  7.820594e-01    6.333918e-02
  8.138106e-01    1.937621e-01
  8.455617e-01    3.167991e-01
  8.773129e-01    4.071635e-01
  9.090640e-01    5.451181e-01
  9.408152e-01    6.454536e-01
  9.725663e-01    8.722275e-01
  1.004317e+00    1.080464e+00
  1.036069e+00    1.188489e+00
  1.067820e+00    1.308518e+00
  1.099571e+00    1.359089e+00
  1.131322e+00    1.392946e+00
  1.163073e+00    1.383846e+00
  1.194824e+00    1.610089e+00
  1.226575e+00    2.034538e+00
  1.258327e+00    2.243302e+00
  1.290078e+00    2.277091e+00
  1.321829e+00    2.513138e+00
  1.353580e+00    2.477346e+00
  1.385331e+00    2.507972e+00
  1.417082e+00    2.516441e+00
  1.448834e+00    2.661247e+00
  1.480585e+00    2.713866e+00
  1.512336e+00    2.787329e+00
  1.544087e+00    2.843707e+00
  1.575838e+00    2.997681e+00
  1.607589e+00    2.660000e+00
  1.639340e+00    2.930022e+00
  1.671092e+00    2.864485e+00
  1.702843e+00    2.840175e+00
  1.734594e+00    2.847274e+00
  1.766345e+00    2.771399e+00
  1.798096e+00    2.740686e+00
  1.829847e+00    2.711715e+00
  1.861598e+00    2.773928e+00
  1.893350e+00    2.662852e+00
  1.925101e+00    2.706065e+00
  1.956852e+00    2.797961e+00
  1.988603e+00    2.763018e+00
  2.020354e+00    2.815312e+00
  2.052105e+00    2.659343e+00
  2.083856e+00    2.622504e+00
  2.115608e+00    2.766838e+00
  2.147359e+00    2.665025e+00
  2.179110e+00    2.636770e+00
  2.210861e+00    2.649121e+00
  2.242612e+00    2.778652e+00
  2.274363e+00    2.704650e+00
  2.306115e+00    2.770889e+00
  2.337866e+00    2.784277e+00
  2.369617e+00    2.788026e+00
  2.401368e+00    2.708006e+00
  2.433119e+00    2.795563e+00
  2.464870e+00    2.759862e+00
  2.496621e+00    2.689094e+00
  2.528373e+00    2.690945e+00
  2.560124e+00    2.721021e+00
  2.591875e+00    2.831793e+00
  2.623626e+00    2.798076e+00
  2.655377e+00    2.847720e+00
  2.687128e+00    2.868592e+00
  2.718879e+00    2.751348e+00
  2.750631e+00    2.826644e+00
  2.782382e+00    2.904707e+00
  2.814133e+00    2.922332e+00
  2.845884e+00    2.793192e+00
  2.877635e+00    2.837859e+00
  2.909386e+00    2.882287e+00
  2.941137e+00    2.938345e+00
  2.972889e+00    2.805799e+00
  3.004640e+00    2.948539e+00
  3.036391e+00    2.854547e+00
  3.068142e+00    2.880267e+00
  3.099893e+00    2.899093e+00
  3.131644e+00    2.901730e+00
  3.163395e+00    2.826368e+00
  3.195147e+00    2.891097e+00
  3.226898e+00    2.941087e+00
  3.258649e+00    2.895049e+00
  3.290400e+00    2.930545e+00
  3.322151e+00    3.051159e+00
  3.353902e+00    3.025003e+00
  3.385654e+00    2.909164e+00
  3.417405e+00    2.982284e+00
  3.449156e+00    2.992713e+00
  3.480907e+00    3.027066e+00
  3.512658e+00    3.053445e+00
  3.544409e+00    2.941705e+00
  3.576160e+00    2.916045e+00
  3.607912e+00    2.986077e+00
  3.639663e+00    2.925754e+00
  3.671414e+00    3.013004e+00
  3.703165e+00    2.914181e+00
  3.734916e+00    3.022243e+00
  3.766667e+00    3.017282e+00
  3.798418e+00    3.012725e+00
  3.830170e+00    2.985992e+00
  3.861921e+00    2.931250e+00
  3.893672e+00    2.977013e+00
  3.925423e+00    3.058191e+00
  3.957174e+00    3.090692e+00
  3.988925e+00    3.004869e+00
  4.020676e+00    2.985253e+00
  4.052428e+00    3.015821e+00
  4.084179e+00    3.138933e+00
  4.115930e+00    3.054518e+00
  4.147681e+00    3.086779e+00
  4.179432e+00    3.034806e+00
  4.211183e+00    2.961887e+00
  4.242935e+00    3.005373e+00
  4.274686e+00    2.989752e+00
  4.306437e+00    2.998693e+00
  4.338188e+00    3.067616e+00
  4.369939e+00    3.112936e+00
  4.401690e+00    3.085684e+00
  4.433441e+00    3.164101e+00
  4.465193e+00    3.058125e+00
  4.496944e+00    3.149034e+00
  4.528695e+00    3.090495e+00
  4.560446e+00    3.125319e+00
  4.592197e+00    3.233739e+00
  4.623948e+00    3.109015e+00
  4.655699e+00    3.063499e+00
  4.687451e+00    3.058544e+00
  4.719202e+00    3.190416e+00
  4.750953e+00    3.110099e+00
  4.782704e+00    3.124181e+00
  4.814455e+00    3.154676e+00
  4.846206e+00    3.223828e+00
  4.877957e+00    3.139983e+00
  4.909709e+00    3.157767e+00
  4.941460e+00    3.170091e+00
  4.973211e+00    3.159972e+00
  5.004962e+00    3.193183e+00
  5.036713e+00    3.191860e+00
  5.068464e+00    3.185361e+00
  5.100216e+00    3.040883e+00
  5.131967e+00    3.079854e+00
  5.163718e+00    3.131357e+00
  5.195469e+00    3.147031e+00
  5.227220e+00    3.123335e+00
  5.258971e+00    3.028961e+00
  5.290722e+00    3.182297e+00
  5.322474e+00    3.098488e+00
  5.354225e+00    3.180414e+00
  5.385976e+00    3.162983e+00
  5.417727e+00    3.124066e+00
  5.449478e+00    3.135885e+00
  5.481229e+00    3.099625e+00
  5.512980e+00    3.136111e+00
  5.544732e+00    3.082286e+00
  5.576483e+00    3.084298e+00
  5.608234e+00    3.008412e+00
  5.639985e+00    3.075540e+00
  5.671736e+00    3.062644e+00
  5.703487e+00    3.132531e+00
  5.735238e+00    3.044811e+00
  5.766990e+00    3.136768e+00
  5.798741e+00    3.125365e+00
  5.830492e+00    3.025979e+00
  5.862243e+00    3.144418e+00
  5.893994e+00    3.083944e+00
  5.925745e+00    3.074243e+00
  5.957497e+00    3.067981e+00
  5.989248e+00    2.957948e+00
  6.020999e+00    3.062178e+00
  6.052750e+00    3.047413e+00
  6.084501e+00    3.091319e+00
  6.116252e+00    3.120663e+00
  6.148003e+00    3.072820e+00
  6.179755e+00    3.048836e+00
  6.211506e+00    3.097011e+00
  6.243257e+00    3.042162e+00
  6.275008e+00    3.164673e+00
  6.306759e+00    3.029484e+00
  6.338510e+00    3.095965e+00
  6.370261e+00    3.007563e+00
  6.402013e+00    2.961381e+00
  6.433764e+00    3.108899e+00
  6.465515e+00    2.973578e+00
  6.497266e+00    3.077709e+00
  6.529017e+00    3.045848e+00
  6.560768e+00    2.974125e+00
  6.592519e+00    3.040331e+00
  6.624271e+00    3.034714e+00
  6.656022e+00    3.069621e+00
  6.687773e+00    3.062224e+00
  6.719524e+00    3.074678e+00
  6.751275e+00    3.074628e+00
  6.783026e+00    3.050467e+00
  6.814777e+00    3.014044e+00
  6.846529e+00    3.071761e+00
  6.878280e+00    3.106149e+00
  6.910031e+00    3.047392e+00
  6.941782e+00    3.126316e+00
  6.973533e+00    3.041017e+00
  7.005284e+00    3.051999e+00
  7.037036e+00    3.038943e+00
  7.068787e+00    2.952884e+00
  7.100538e+00    3.043500e+00
  7.132289e+00    3.078465e+00
  7.164040e+00    2.989065e+00
  7.195791e+00    3.006051e+00
  7.227542e+00    2.960363e+00
  7.259294e+00    3.039772e+00
  7.291045e+00    3.044609e+00
  7.322796e+00    3.016483e+00
  7.354547e+00    3.113464e+00
  7.386298e+00    3.056793e+00
  7.418049e+00    3.019158e+00
  7.449800e+00    2.975156e+00
  7.481552e+00    2.944389e+00
  7.513303e+00    2.983770e+00
  7.545054e+00    2.999641e+00
  7.576805e+00    3.009597e+00
  7.608556e+00    2.991070e+00
  7.640307e+00    2.960547e+00
  7.672058e+00    3.024533e+00
  7.703810e+00    3.068260e+00
  7.735561e+00    3.031299e+00
  7.767312e+00    2.951093e+00
  7.799063e+00    2.898665e+00
  7.830814e+00    2.976119e+00
  7.862565e+00    2.974205e+00
  7.894317e+00    2.893474e+00
  7.926068e+00    2.973749e+00
  7.957819e+00    2.963198e+00
  7.989570e+00    2.906549e+00
  8.021321e+00    2.989011e+00
  8.053072e+00    2.977393e+00
  8.084823e+00    2.963400e+00
  8.116575e+00    2.970643e+00
  8.148326e+00    2.940593e+00
  8.180077e+00    2.966125e+00
  8.211828e+00    3.032200e+00
  8.243579e+00    2.961367e+00
  8.275330e+00    2.953148e+00
  8.307081e+00    2.982879e+00
  8.338833e+00    2.908488e+00
  8.370584e+00    2.964153e+00
  8.402335e+00    2.926638e+00
  8.434086e+00    2.867379e+00
  8.465837e+00    2.856575e+00
  8.497588e+00    2.919206e+00
  8.529339e+00    2.860529e+00
  8.561091e+00    2.878196e+00
  8.592842e+00    2.882522e+00
  8.624593e+00    2.906113e+00
  8.656344e+00    2.876852e+00
  8.688095e+00    2.937892e+00
  8.719846e+00    2.806357e+00
  8.751598e+00    2.891204e+00
  8.783349e+00    2.880862e+00
  8.815100e+00    2.835563e+00
  8.846851e+00    2.859811e+00
  8.878602e+00    2.882491e+00
  8.910353e+00    2.840607e+00
  8.942104e+00    2.829971e+00
  8.973856e+00    2.793836e+00
  9.005607e+00    2.886899e+00
  9.037358e+00    2.808534e+00
  9.069109e+00    2.838499e+00
  9.100860e+00    2.849960e+00
  9.132611e+00    2.822743e+00
  9.164362e+00    2.859955e+00
  9.196114e+00    2.801739e+00
  9.227865e+00    2.777476e+00
  9.259616e+00    2.833891e+00
  9.291367e+00    2.803794e+00
  9.323118e+00    2.848051e+00
  9.354869e+00    2.811113e+00
  9.386620e+00    2.739261e+00
  9.418372e+00    2.756745e+00
  9.450123e+00    2.791574e+00
  9.481874e+00    2.801651e+00
  9.513625e+00    2.804665e+00
  9.545376e+00    2.793200e+00
  9.577127e+00    2.724262e+00
  9.608878e+00    2.809674e+00
  9.640630e+00    2.737829e+00
  9.672381e+00    2.784053e+00
  9.704132e+00    2.767121e+00
  9.735883e+00    2.750165e+00
  9.767634e+00    2.717749e+00
  9.799385e+00    2.717554e+00
  9.831137e+00    2.770557e+00
  9.862888e+00    2.689094e+00
  9.894639e+00    2.717130e+00
  9.926390e+00    2.705632e+00
  9.958141e+00    2.718067e+00
  9.989892e+00    2.702556e+00
  1.002164e+01    2.678806e+00
  1.005339e+01    2.709626e+00
  1.008515e+01    2.682809e+00
  1.011690e+01    2.685267e+00
  1.014865e+01    2.718155e+00
  1.018040e+01    2.590611e+00
  1.021215e+01    2.618426e+00
  1.024390e+01    2.600706e+00
  1.027565e+01    2.586545e+00
  1.030740e+01    2.659480e+00
  1.033915e+01    2.616244e+00
  1.037091e+01    2.646810e+00
  1.040266e+01    2.601959e+00
  1.043441e+01    2.654425e+00
  1.046616e+01    2.622886e+00
  1.049791e+01    2.585843e+00
  1.052966e+01    2.598209e+00
  1.056141e+01    2.587009e+00
  1.059316e+01    2.609160e+00
  1.062492e+01    2.574219e+00
  1.065667e+01    2.584212e+00
  1.068842e+01    2.559341e+00
  1.072017e+01    2.538911e+00
  1.075192e+01    2.564499e+00
  1.078367e+01    2.532861e+00
  1.081542e+01    2.543153e+00
  1.084717e+01    2.551976e+00
  1.087892e+01    2.498663e+00
  1.091068e+01    2.516698e+00
  1.094243e+01    2.562077e+00
  1.097418e+01    2.551129e+00
  1.100593e+01    2.553094e+00
  1.103768e+01    2.517814e+00
  1.106943e+01    2.483316e+00
  1.110118e+01    2.512074e+00
  1.113293e+01    2.483759e+00
  1.116468e+01    2.466579e+00
  1.119644e+01    2.460772e+00
  1.122819e+01    2.453910e+00
  1.125994e+01    2.459461e+00
  1.129169e+01    2.457106e+00
  1.132344e+01    2.477639e+00
  1.135519e+01    2.407367e+00
  1.138694e+01    2.386430e+00
  1.141869e+01    2.458594e+00
  1.145045e+01    2.445867e+00
  1.148220e+01    2.386972e+00
  1.151395e+01    2.355991e+00
  1.154570e+01    2.375290e+00
  1.157745e+01    2.409290e+00
  1.160920e+01    2.377165e+00
  1.164095e+01    2.356099e+00
  1.167270e+01    2.415839e+00
  1.170445e+01    2.377708e+00
  1.173621e+01    2.323683e+00
  1.176796e+01    2.354373e+00
  1.179971e+01    2.373515e+00
  1.183146e+01    2.363647e+00
  1.186321e+01    2.381306e+00
  1.189496e+01    2.312333e+00
  1.192671e+01    2.341740e+00
  1.195846e+01    2.420408e+00
  1.199021e+01    2.365257e+00
  1.202197e+01    2.359890e+00
  1.205372e+01    2.332536e+00
  1.208547e+01    2.310087e+00
  1.211722e+01    2.332544e+00
  1.214897e+01    2.335510e+00
  1.218072e+01    2.310624e+00
  1.221247e+01    2.341610e+00
  1.224422e+01    2.336427e+00
  1.227597e+01    2.337792e+00
  1.230773e+01    2.337410e+00
  1.233948e+01    2.342128e+00
  1.237123e+01    2.335536e+00
  1.240298e+01    2.291456e+00
  1.243473e+01    2.332664e+00
  1.246648e+01    2.336844e+00
  1.249823e+01    2.337420e+00
  1.252998e+01    2.351178e+00
  1.256174e+01    2.433156e+00
  1.259349e+01    2.405986e+00
  1.262524e+01    2.381917e+00
  1.265699e+01    2.421535e+00
  1.268874e+01    2.474970e+00
  1.272049e+01    2.491861e+00
  1.275224e+01    2.506976e+00
  1.278399e+01    2.628422e+00
  1.281574e+01    2.712349e+00
  1.284750e+01    2.860658e+00
  1.287925e+01    3.019426e+00
  1.291100e+01    3.271310e+00
  1.294275e+01    3.735288e+00
  1.297450e+01    4.332387e+00
  1.300625e+01    5.446685e+00
  1.303800e+01    7.085063e+00
  1.306975e+01    9.392699e+00
  1.310150e+01    1.195905e+01
  1.313326e+01    1.408173e+01
  1.316501e+01    1.579859e+01
  1.319676e+01    1.540786e+01
  1.322851e+01    1.232929e+01
  1.326026e+01    8.804800e+00
  1.329201e+01    6.423512e+00
  1.332376e+01    4.964923e+00
  1.335551e+01    4.086906e+00
  1.338727e+01    3.519826e+00
  1.341902e+01    3.125752e+00
  1.345077e+01    2.883128e+00
  1.348252e+01    2.705976e+00
  1.351427e+01    2.538222e+00
  1.354602e+01    2.466076e+00
  1.357777e+01    2.377061e+00
  1.360952e+01    2.345059e+00
  1.364127e+01    2.319644e+00
  1.367303e+01    2.224901e+00
  1.370478e+01    2.242082e+00
  1.373653e+01    2.217203e+00
  1.376828e+01    2.162745e+00
  1.380003e+01    2.146285e+00
  1.383178e+01    2.139627e+00
  1.386353e+01    2.162469e+00
  1.389528e+01    2.107905e+00
  1.392703e+01    2.096727e+00
  1.395879e+01    2.092998e+00
  1.399054e+01    2.115735e+00
  1.402229e+01    2.055083e+00
  1.405404e+01    2.021598e+00
  1.408579e+01    2.010274e+00
  1.411754e+01    2.022103e+00
  1.414929e+01    2.033946e+00
  1.418104e+01    2.013475e+00
  1.421279e+01    1.997079e+00
  1.424455e+01    1.965854e+00
  1.427630e+01    1.961649e+00
  1.430805e+01    1.975227e+00
  1.433980e+01    1.950952e+00
  1.437155e+01    1.949930e+00
  1.440330e+01    1.941609e+00
  1.443505e+01    1.951298e+00
  1.446680e+01    1.926315e+00
  1.449856e+01    1.940225e+00
  1.453031e+01    1.914434e+00
  1.456206e+01    1.923526e+00
  1.459381e+01    1.897059e+00
  1.462556e+01    1.948329e+00
  1.465731e+01    1.912658e+00
  1.468906e+01    1.915013e+00
  1.472081e+01    1.902785e+00
  1.475256e+01    1.905835e+00
  1.478432e+01    1.945338e+00
  1.481607e+01    1.887984e+00
  1.484782e+01    1.918053e+00
  1.487957e+01    1.917246e+00
  1.491132e+01    1.948362e+00
  1.494307e+01    2.051154e+00
  1.497482e+01    2.128609e+00
  1.500657e+01    2.179323e+00
  1.503832e+01    2.278496e+00
  1.507008e+01    2.533343e+00
  1.510183e+01    2.889534e+00
  1.513358e+01    3.501967e+00
  1.516533e+01    4.173183e+00
  1.519708e+01    4.865401e+00
  1.522883e+01    5.295972e+00
  1.526058e+01    5.517217e+00
  1.529233e+01    5.177934e+00
  1.532409e+01    4.458028e+00
  1.535584e+01    3.521385e+00
  1.538759e+01    2.853723e+00
  1.541934e+01    2.468140e+00
  1.545109e+01    2.211775e+00
  1.548284e+01    2.074427e+00
  1.551459e+01    1.987155e+00
  1.554634e+01    1.939096e+00
  1.557809e+01    1.838289e+00
  1.560985e+01    1.802573e+00
  1.564160e+01    1.774336e+00
  1.567335e+01    1.715510e+00
  1.570510e+01    1.743661e+00
  1.573685e+01    1.697918e+00
  1.576860e+01    1.685961e+00
  1.580035e+01    1.709020e+00
  1.583210e+01    1.669893e+00
  1.586385e+01    1.652274e+00
  1.589561e+01    1.662644e+00
  1.592736e+01    1.643108e+00
  1.595911e+01    1.635983e+00
  1.599086e+01    1.645922e+00
  1.602261e+01    1.637633e+00
  1.605436e+01    1.604258e+00
  1.608611e+01    1.620171e+00
  1.611786e+01    1.576821e+00
  1.614961e+01    1.599951e+00
  1.618137e+01    1.533532e+00
  1.621312e+01    1.561706e+00
  1.624487e+01    1.603485e+00
  1.627662e+01    1.553072e+00
  1.630837e+01    1.563792e+00
  1.634012e+01    1.563665e+00
  1.637187e+01    1.531244e+00
  1.640362e+01    1.553144e+00
  1.643538e+01    1.538502e+00
  1.646713e+01    1.529090e+00
  1.649888e+01    1.504835e+00
  1.653063e+01    1.498828e+00
  1.656238e+01    1.494568e+00
  1.659413e+01    1.522233e+00
  1.662588e+01    1.509535e+00
  1.665763e+01    1.487420e+00
  1.668938e+01    1.484884e+00
  1.672114e+01    1.496206e+00
  1.675289e+01    1.469555e+00
  1.678464e+01    1.457236e+00
  1.681639e+01    1.503652e+00
  1.684814e+01    1.458052e+00
  1.687989e+01    1.442403e+00
  1.691164e+01    1.480881e+00
  1.694339e+01    1.482319e+00
  1.697514e+01    1.450517e+00
  1.700690e+01    1.438510e+00
  1.703865e+01    1.425783e+00
  1.707040e+01    1.462569e+00
  1.710215e+01    1.433412e+00
  1.713390e+01    1.444706e+00
  1.716565e+01    1.446575e+00
  1.719740e+01    1.427471e+00
  1.722915e+01    1.432779e+00
  1.726091e+01    1.423219e+00
  1.729266e+01    1.401601e+00
  1.732441e+01    1.393551e+00
  1.735616e+01    1.368192e+00
  1.738791e+01    1.381410e+00
  1.741966e+01    1.383755e+00
  1.745141e+01    1.400639e+00
  1.748316e+01    1.372785e+00
  1.751491e+01    1.395259e+00
  1.754667e+01    1.389175e+00
  1.757842e+01    1.357639e+00
  1.761017e+01    1.347008e+00
  1.764192e+01    1.362200e+00
  1.767367e+01    1.315298e+00
  1.770542e+01    1.311326e+00
  1.773717e+01    1.358196e+00
  1.776892e+01    1.341459e+00
  1.780067e+01    1.302387e+00
  1.783243e+01    1.347807e+00
  1.786418e+01    1.302373e+00
  1.789593e+01    1.321721e+00
  1.792768e+01    1.309989e+00
  1.795943e+01    1.338405e+00
  1.799118e+01    1.307669e+00
  1.802293e+01    1.297189e+00
  1.805468e+01    1.313065e+00
  1.808643e+01    1.284098e+00
  1.811819e+01    1.277090e+00
  1.814994e+01    1.283842e+00
  1.818169e+01    1.274344e+00
  1.821344e+01    1.265393e+00
  1.824519e+01    1.272036e+00
  1.827694e+01    1.294126e+00
  1.830869e+01    1.273907e+00
  1.834044e+01    1.251086e+00
  1.837220e+01    1.262379e+00
  1.840395e+01    1.255928e+00
  1.843570e+01    1.239917e+00
  1.846745e+01    1.253637e+00
  1.849920e+01    1.231732e+00
  1.853095e+01    1.244692e+00
  1.856270e+01    1.257200e+00
  1.859445e+01    1.269480e+00
  1.862620e+01    1.241268e+00
  1.865796e+01    1.207988e+00
  1.868971e+01    1.262514e+00
  1.872146e+01    1.245283e+00
  1.875321e+01    1.234859e+00
  1.878496e+01    1.229271e+00
  1.881671e+01    1.236388e+00
  1.884846e+01    1.206053e+00
  1.888021e+01    1.255331e+00
  1.891196e+01    1.215446e+00
  1.894372e+01    1.200049e+00
  1.897547e+01    1.198313e+00
  1.900722e+01    1.204803e+00
  1.903897e+01    1.221576e+00
  1.907072e+01    1.177327e+00
  1.910247e+01    1.179354e+00
  1.913422e+01    1.162101e+00
  1.916597e+01    1.192135e+00
  1.919773e+01    1.197532e+00
  1.922948e+01    1.192923e+00
  1.926123e+01    1.208417e+00
  1.929298e+01    1.184285e+00
  1.932473e+01    1.205896e+00
  1.935648e+01    1.179426e+00
  1.938823e+01    1.157011e+00
  1.941998e+01    1.184708e+00
  1.945173e+01    1.174556e+00
  1.948349e+01    1.189388e+00
  1.951524e+01    1.171554e+00
  1.954699e+01    1.176676e+00
  1.957874e+01    1.135866e+00
  1.961049e+01    1.144507e+00
  1.964224e+01    1.138954e+00
  1.967399e+01    1.172131e+00
  1.970574e+01    1.177944e+00
  1.973749e+01    1.119387e+00
  1.976925e+01    1.158565e+00
  1.980100e+01    1.150256e+00
  1.983275e+01    1.148581e+00
  1.986450e+01    1.143137e+00
  1.989625e+01    1.122057e+00
  1.992800e+01    1.133049e+00
  1.995975e+01    1.133619e+00
  1.999150e+01    1.119983e+00
  2.002325e+01    1.125045e+00
  2.005501e+01    1.118175e+00
  2.008676e+01    1.101098e+00
  2.011851e+01    1.114693e+00
  2.015026e+01    1.119096e+00
  2.018201e+01    1.107671e+00
  2.021376e+01    1.088956e+00
  2.024551e+01    1.103224e+00
  2.027726e+01    1.109326e+00
  2.030902e+01    1.072543e+00
  2.034077e+01    1.115996e+00
  2.037252e+01    1.086949e+00
  2.040427e+01    1.106914e+00
  2.043602e+01    1.096890e+00
  2.046777e+01    1.098261e+00
  2.049952e+01    1.087134e+00
  2.053127e+01    1.090874e+00
  2.056302e+01    1.084711e+00
  2.059478e+01    1.074981e+00
  2.062653e+01    1.090919e+00
  2.065828e+01    1.070989e+00
  2.069003e+01    1.086931e+00
  2.072178e+01    1.077804e+00
  2.075353e+01    1.074491e+00
  2.078528e+01    1.078655e+00
  2.081703e+01    1.078481e+00
  2.084878e+01    1.074996e+00
  2.088054e+01    1.080414e+00
  2.091229e+01    1.076808e+00
  2.094404e+01    1.092667e+00
  2.097579e+01    1.091734e+00
  2.100754e+01    1.055732e+00
  2.103929e+01    1.102150e+00
  2.107104e+01    1.078950e+00
  2.110279e+01    1.087332e+00
  2.113455e+01    1.072614e+00
  2.116630e+01    1.115047e+00
  2.119805e+01    1.099296e+00
  2.122980e+01    1.084718e+00
  2.126155e+01    1.105952e+00
  2.129330e+01    1.115399e+00
  2.132505e+01    1.128433e+00
  2.135680e+01    1.153844e+00
  2.138855e+01    1.164816e+00
  2.142031e+01    1.194877e+00
  2.145206e+01    1.206012e+00
  2.148381e+01    1.267705e+00
  2.151556e+01    1.308960e+00
  2.154731e+01    1.365646e+00
  2.157906e+01    1.469491e+00
  2.161081e+01    1.590660e+00
  2.164256e+01    1.790228e+00
  2.167431e+01    2.103606e+00
  2.170607e+01    2.559514e+00
  2.173782e+01    3.337716e+00
  2.176957e+01    4.306791e+00
  2.180132e+01    5.538888e+00
  2.183307e+01    6.854542e+00
  2.186482e+01    8.184612e+00
  2.189657e+01    8.849898e+00
  2.192832e+01    8.133893e+00
  2.196007e+01    6.524645e+00
  2.199183e+01    4.736469e+00
  2.202358e+01    3.449121e+00
  2.205533e+01    2.708587e+00
  2.208708e+01    2.184194e+00
  2.211883e+01    1.863574e+00
  2.215058e+01    1.607573e+00
  2.218233e+01    1.439028e+00
  2.221408e+01    1.356251e+00
  2.224584e+01    1.246643e+00
  2.227759e+01    1.205461e+00
  2.230934e+01    1.190745e+00
  2.234109e+01    1.109915e+00
  2.237284e+01    1.100878e+00
  2.240459e+01    1.080426e+00
  2.243634e+01    1.053436e+00
  2.246809e+01    1.004574e+00
  2.249984e+01    9.996184e-01
  2.253160e+01    1.018120e+00
  2.256335e+01    9.752014e-01
  2.259510e+01    9.884681e-01
  2.262685e+01    9.684190e-01
  2.265860e+01    9.545775e-01
  2.269035e+01    9.277226e-01
  2.272210e+01    9.291739e-01
  2.275385e+01    9.416410e-01
  2.278560e+01    9.369504e-01
  2.281736e+01    9.185713e-01
  2.284911e+01    9.278516e-01
  2.288086e+01    9.178321e-01
  2.291261e+01    9.122842e-01
  2.294436e+01    9.112057e-01
  2.297611e+01    9.054158e-01
  2.300786e+01    8.917804e-01
  2.303961e+01    8.958629e-01
  2.307137e+01    8.815753e-01
  2.310312e+01    9.008784e-01
  2.313487e+01    8.914241e-01
  2.316662e+01    8.750342e-01
  2.319837e+01    8.738454e-01
  2.323012e+01    8.656403e-01
  2.326187e+01    8.578002e-01
  2.329362e+01    8.521993e-01
  2.332537e+01    8.616940e-01
  2.335713e+01    8.755465e-01
  2.338888e+01    8.615847e-01
  2.342063e+01    8.601915e-01
  2.345238e+01    8.484187e-01
  2.348413e+01    8.447543e-01
  2.351588e+01    8.676654e-01
  2.354763e+01    8.506217e-01
  2.357938e+01    8.488186e-01
  2.361113e+01    8.344908e-01
  2.364289e+01    8.543034e-01
  2.367464e+01    8.620048e-01
  2.370639e+01    8.318115e-01
  2.373814e+01    8.138347e-01
  2.376989e+01    8.348105e-01
  2.380164e+01    8.018535e-01
  2.383339e+01    7.953981e-01
  2.386514e+01    8.056287e-01
  2.389689e+01    8.130330e-01
  2.392865e+01    8.143242e-01
  2.396040e+01    8.098789e-01
  2.399215e+01    7.926902e-01
  2.402390e+01    7.799047e-01
  2.405565e+01    7.955404e-01
  2.408740e+01    7.846759e-01
  2.411915e+01    7.896518e-01
  2.415090e+01    7.894925e-01
  2.418266e+01    7.999958e-01
  2.421441e+01    7.736080e-01
  2.424616e+01    7.695487e-01
  2.427791e+01    7.665162e-01
  2.430966e+01    7.777402e-01
  2.434141e+01    7.919887e-01
  2.437316e+01    7.797398e-01
  2.440491e+01    7.750947e-01
  2.443666e+01    7.837927e-01
  2.446842e+01    7.936099e-01
  2.450017e+01    8.124375e-01
  2.453192e+01    7.766238e-01
  2.456367e+01    7.942949e-01
  2.459542e+01    7.813160e-01
  2.462717e+01    7.874061e-01
  2.465892e+01    7.848421e-01
  2.469067e+01    8.078649e-01
  2.472242e+01    7.984735e-01
  2.475418e+01    7.905564e-01
  2.478593e+01    7.849328e-01
  2.481768e+01    7.808923e-01
  2.484943e+01    7.871028e-01
  2.488118e+01    7.995848e-01
  2.491293e+01    7.957356e-01
  2.494468e+01    8.074595e-01
  2.497643e+01    7.912600e-01
  2.500819e+01    7.961998e-01
  2.503994e+01    8.032377e-01
  2.507169e+01    8.163485e-01
  2.510344e+01    8.259479e-01
  2.513519e+01    8.032061e-01
  2.516694e+01    8.227105e-01
  2.519869e+01    8.472256e-01
  2.523044e+01    8.369149e-01
  2.526219e+01    8.365059e-01
  2.529395e+01    8.511552e-01
  2.532570e+01    8.502058e-01
  2.535745e+01    8.694580e-01
  2.538920e+01    8.773540e-01
  2.542095e+01    9.244314e-01
  2.545270e+01    9.278584e-01
  2.548445e+01    9.544793e-01
  2.551620e+01    9.812858e-01
  2.554795e+01    1.029093e+00
  2.557971e+01    1.044014e+00
  2.561146e+01    1.147857e+00
  2.564321e+01    1.200769e+00
  2.567496e+01    1.327714e+00
  2.570671e+01    1.482940e+00
  2.573846e+01    1.747397e+00
  2.577021e+01    2.138296e+00
  2.580196e+01    2.661595e+00
  2.583371e+01    3.449760e+00
  2.586547e+01    4.479891e+00
  2.589722e+01    5.654943e+00
  2.592897e+01    6.657969e+00
  2.596072e+01    7.142106e+00
  2.599247e+01    6.616224e+00
  2.602422e+01    5.278468e+00
  2.605597e+01    3.919744e+00
  2.608772e+01    2.941238e+00
  2.611948e+01    2.273497e+00
  2.615123e+01    1.849323e+00
  2.618298e+01    1.592222e+00
  2.621473e+01    1.389716e+00
  2.624648e+01    1.258959e+00
  2.627823e+01    1.148687e+00
  2.630998e+01    1.122442e+00
  2.634173e+01    1.031123e+00
  2.637348e+01    9.855624e-01
  2.640524e+01    9.579269e-01
  2.643699e+01    9.593498e-01
  2.646874e+01    9.211470e-01
  2.650049e+01    9.046550e-01
  2.653224e+01    9.131076e-01
  2.656399e+01    9.001402e-01
  2.659574e+01    9.157090e-01
  2.662749e+01    8.838996e-01
  2.665924e+01    8.772554e-01
  2.669100e+01    8.852789e-01
  2.672275e+01    8.699707e-01
  2.675450e+01    8.877521e-01
  2.678625e+01    8.921273e-01
  2.681800e+01    8.774438e-01
  2.684975e+01    8.917900e-01
  2.688150e+01    9.147536e-01
  2.691325e+01    9.066441e-01
  2.694501e+01    9.345157e-01
  2.697676e+01    9.838302e-01
  2.700851e+01    1.012514e+00
  2.704026e+01    1.114822e+00
  2.707201e+01    1.224589e+00
  2.710376e+01    1.389805e+00
  2.713551e+01    1.640672e+00
  2.716726e+01    1.879360e+00
  2.719901e+01    2.127937e+00
  2.723077e+01    2.148461e+00
  2.726252e+01    1.913972e+00
  2.729427e+01    1.656403e+00
  2.732602e+01    1.410257e+00
  2.735777e+01    1.214172e+00
  2.738952e+01    1.055221e+00
  2.742127e+01    1.017163e+00
  2.745302e+01    9.417968e-01
  2.748477e+01    9.334466e-01
  2.751653e+01    9.033427e-01
  2.754828e+01    8.784513e-01
  2.758003e+01    8.623079e-01
  2.761178e+01    8.471254e-01
  2.764353e+01    8.141225e-01
  2.767528e+01    8.411471e-01
  2.770703e+01    7.956638e-01
  2.773878e+01    8.044791e-01
  2.777054e+01    7.891411e-01
  2.780229e+01    8.059859e-01
  2.783404e+01    7.892697e-01
  2.786579e+01    7.924275e-01
  2.789754e+01    7.933997e-01
  2.792929e+01    7.809896e-01
  2.796104e+01    7.551374e-01
  2.799279e+01    7.813497e-01
  2.802454e+01    8.021837e-01
  2.805630e+01    7.650097e-01
  2.808805e+01    7.695084e-01
  2.811980e+01    7.558528e-01
  2.815155e+01    7.718511e-01
  2.818330e+01    7.513556e-01
  2.821505e+01    7.536188e-01
  2.824680e+01    7.658110e-01
  2.827855e+01    7.507017e-01
  2.831030e+01    7.567686e-01
  2.834206e+01    7.659303e-01
  2.837381e+01    7.516977e-01
  2.840556e+01    7.629552e-01
  2.843731e+01    7.553962e-01
  2.846906e+01    7.346432e-01
  2.850081e+01    7.688282e-01
  2.853256e+01    7.484547e-01
  2.856431e+01    7.294983e-01
  2.859606e+01    7.401521e-01
  2.862782e+01    7.598364e-01
  2.865957e+01    7.629715e-01
  2.869132e+01    7.376115e-01
  2.872307e+01    7.471253e-01
  2.875482e+01    7.292086e-01
  2.878657e+01    7.383332e-01
  2.881832e+01    7.412457e-01
  2.885007e+01    7.496743e-01
  2.888183e+01    7.321745e-01
  2.891358e+01    7.404941e-01
  2.894533e+01    7.323759e-01
  2.897708e+01    7.412337e-01
  2.900883e+01    7.430716e-01
  2.904058e+01    7.435210e-01
  2.907233e+01    7.213961e-01
  2.910408e+01    7.330782e-01
  2.913583e+01    7.215896e-01
  2.916759e+01    7.496060e-01
  2.919934e+01    7.193662e-01
  2.923109e+01    7.230050e-01
  2.926284e+01    7.187713e-01
  2.929459e+01    7.273448e-01
  2.932634e+01    7.213246e-01
  2.935809e+01    7.267083e-01
  2.938984e+01    7.104355e-01
  2.942159e+01    7.298526e-01
  2.945335e+01    7.161608e-01
  2.948510e+01    7.245627e-01
  2.951685e+01    6.907768e-01
  2.954860e+01    7.101644e-01
  2.958035e+01    7.298689e-01
  2.961210e+01    7.231494e-01
  2.964385e+01    7.317143e-01
  2.967560e+01    7.179793e-01
  2.970736e+01    7.157924e-01
  2.973911e+01    7.159876e-01
  2.977086e+01    7.166449e-01
  2.980261e+01    7.391034e-01
  2.983436e+01    7.003714e-01
  2.986611e+01    7.226403e-01
  2.989786e+01    7.250136e-01
  2.992961e+01    7.457849e-01
  2.996136e+01    7.173737e-01
  2.999312e+01    7.122434e-01
  3.002487e+01    7.258260e-01
  3.005662e+01    7.312217e-01
  3.008837e+01    7.157086e-01
  3.012012e+01    7.339196e-01
  3.015187e+01    7.193965e-01
  3.018362e+01    7.068985e-01
  3.021537e+01    7.282267e-01
  3.024712e+01    7.178650e-01
  3.027888e+01    7.123241e-01
  3.031063e+01    7.163118e-01
  3.034238e+01    6.907180e-01
  3.037413e+01    7.190824e-01
  3.040588e+01    7.074782e-01
  3.043763e+01    7.188870e-01
  3.046938e+01    7.190367e-01
  3.050113e+01    6.869864e-01
  3.053288e+01    7.061294e-01
  3.056464e+01    6.982366e-01
  3.059639e+01    7.095876e-01
  3.062814e+01    6.994730e-01
  3.065989e+01    7.220138e-01
  3.069164e+01    6.927181e-01
  3.072339e+01    7.122850e-01
  3.075514e+01    7.161517e-01
  3.078689e+01    7.064860e-01
  3.081865e+01    7.127317e-01
  3.085040e+01    7.047997e-01
  3.088215e+01    7.035642e-01
  3.091390e+01    7.372255e-01
  3.094565e+01    7.107376e-01
  3.097740e+01    6.930339e-01
  3.100915e+01    7.084051e-01
  3.104090e+01    7.156082e-01
  3.107265e+01    6.872698e-01
  3.110441e+01    7.092169e-01
  3.113616e+01    7.398532e-01
  3.116791e+01    7.105477e-01
  3.119966e+01    7.134756e-01
  3.123141e+01    7.221064e-01
  3.126316e+01    7.239060e-01
  3.129491e+01    7.153345e-01
  3.132666e+01    7.194049e-01
  3.135841e+01    7.373300e-01
  3.139017e+01    7.474824e-01
  3.142192e+01    7.135558e-01
  3.145367e+01    7.437753e-01
  3.148542e+01    7.448529e-01
  3.151717e+01    7.508160e-01
  3.154892e+01    7.854168e-01
  3.158067e+01    8.095608e-01
  3.161242e+01    8.004559e-01
  3.164418e+01    8.618389e-01
  3.167593e+01    9.032092e-01
  3.170768e+01    9.799289e-01
  3.173943e+01    1.068874e+00
  3.177118e+01    1.220992e+00
  3.180293e+01    1.413170e+00
  3.183468e+01    1.664746e+00
  3.186643e+01    1.967909e+00
  3.189818e+01    2.088743e+00
  3.192994e+01    2.066338e+00
  3.196169e+01    1.826900e+00
  3.199344e+01    1.541803e+00
  3.202519e+01    1.257305e+00
  3.205694e+01    1.098674e+00
  3.208869e+01    9.535790e-01
  3.212044e+01    8.869601e-01
  3.215219e+01    8.592060e-01
  3.218394e+01    8.245122e-01
  3.221570e+01    8.157424e-01
  3.224745e+01    7.681664e-01
  3.227920e+01    7.626755e-01
  3.231095e+01    7.650424e-01
  3.234270e+01    7.474452e-01
  3.237445e+01    7.337466e-01
  3.240620e+01    7.160333e-01
  3.243795e+01    7.186396e-01
  3.246970e+01    7.055511e-01
  3.250146e+01    7.033314e-01
  3.253321e+01    7.354434e-01
  3.254908e+01    7.306435e-01