File: XRD/Activation ramp/2024-07-27_002_Ru-CGO-ex_Activtation_ramp_000002_data_000127.dat
# == pyFAI calibration ==
# Distance Sample to Detector: 0.4 m
# PONI: 9.750e-02, 1.135e-01 m
# Rotations: -0.000175 0.000000 -0.000000 rad
#
# == Fit2d calibration ==
# Distance Sample-beamCenter: 400.000 mm
# Center: x=1514.000, y=1300.000 pix
# Tilt: 0.010 deg  TiltPlanRot: 0.010 deg
#
# Detector Detector	 Spline= None	 PixelSize= 7.500e-05, 7.500e-05 m
#    Detector has a mask: False
#    Detector has a dark current: False
#    detector has a flat field: False
#
# Wavelength: 6.888e-11 m
# Mask applied: user provided
# Dark current applied: False
# Flat field applied: False
# Polarization factor: 0.99
# Normalization factor: 1.0
# --> /home/myspot/data/2024_07_Rosario/Ru-CGO-ex/2024-07-27_002_Ru-CGO-ex_Activtation_ramp_000002_data_000127.dat
#       q_nm^-1             I
  2.003187e-02    1.424646e-01
  5.178302e-02    0.000000e+00
  8.353417e-02    3.919263e-02
  1.152853e-01    0.000000e+00
  1.470365e-01    2.541772e-02
  1.787876e-01    2.204060e-02
  2.105388e-01    1.796762e-02
  2.422899e-01    1.553455e-02
  2.740411e-01    2.693423e-02
  3.057922e-01    7.236338e-02
  3.375433e-01    5.386626e-02
  3.692945e-01    4.021358e-02
  4.010456e-01    3.189136e-02
  4.327968e-01    1.820216e-02
  4.645479e-01    3.642936e-02
  4.962991e-01    1.947291e-02
  5.280502e-01    3.042446e-02
  5.598014e-01    3.103014e-02
  5.915525e-01    2.421003e-02
  6.233037e-01    3.395427e-02
  6.550548e-01    2.318824e-02
  6.868060e-01    2.702894e-02
  7.185571e-01    3.720621e-02
  7.503083e-01    4.753150e-02
  7.820594e-01    1.098148e-01
  8.138106e-01    1.936733e-01
  8.455617e-01    3.033370e-01
  8.773129e-01    4.133992e-01
  9.090640e-01    5.017515e-01
  9.408152e-01    7.628327e-01
  9.725663e-01    9.039589e-01
  1.004317e+00    1.022342e+00
  1.036069e+00    1.159605e+00
  1.067820e+00    1.176801e+00
  1.099571e+00    1.482057e+00
  1.131322e+00    1.400683e+00
  1.163073e+00    1.413775e+00
  1.194824e+00    1.561201e+00
  1.226575e+00    2.044722e+00
  1.258327e+00    2.240525e+00
  1.290078e+00    2.357141e+00
  1.321829e+00    2.386469e+00
  1.353580e+00    2.325328e+00
  1.385331e+00    2.610715e+00
  1.417082e+00    2.745760e+00
  1.448834e+00    2.598892e+00
  1.480585e+00    2.612944e+00
  1.512336e+00    2.754061e+00
  1.544087e+00    2.990500e+00
  1.575838e+00    2.808268e+00
  1.607589e+00    2.789008e+00
  1.639340e+00    2.921191e+00
  1.671092e+00    2.702114e+00
  1.702843e+00    2.859451e+00
  1.734594e+00    2.714926e+00
  1.766345e+00    2.760496e+00
  1.798096e+00    2.864786e+00
  1.829847e+00    2.576328e+00
  1.861598e+00    2.828954e+00
  1.893350e+00    2.833783e+00
  1.925101e+00    2.767305e+00
  1.956852e+00    2.587320e+00
  1.988603e+00    2.713305e+00
  2.020354e+00    2.850833e+00
  2.052105e+00    2.771744e+00
  2.083856e+00    2.846049e+00
  2.115608e+00    2.679508e+00
  2.147359e+00    2.796344e+00
  2.179110e+00    2.717518e+00
  2.210861e+00    2.810727e+00
  2.242612e+00    2.725652e+00
  2.274363e+00    2.654464e+00
  2.306115e+00    2.802445e+00
  2.337866e+00    2.695241e+00
  2.369617e+00    2.762138e+00
  2.401368e+00    2.727735e+00
  2.433119e+00    2.713912e+00
  2.464870e+00    2.735163e+00
  2.496621e+00    2.692279e+00
  2.528373e+00    2.755120e+00
  2.560124e+00    2.710868e+00
  2.591875e+00    2.787347e+00
  2.623626e+00    2.781812e+00
  2.655377e+00    2.853759e+00
  2.687128e+00    2.637795e+00
  2.718879e+00    2.806474e+00
  2.750631e+00    2.730670e+00
  2.782382e+00    2.835075e+00
  2.814133e+00    2.823646e+00
  2.845884e+00    2.861478e+00
  2.877635e+00    2.803647e+00
  2.909386e+00    2.841283e+00
  2.941137e+00    2.888187e+00
  2.972889e+00    2.813091e+00
  3.004640e+00    2.852683e+00
  3.036391e+00    2.899527e+00
  3.068142e+00    2.771851e+00
  3.099893e+00    2.853806e+00
  3.131644e+00    2.904634e+00
  3.163395e+00    2.984166e+00
  3.195147e+00    2.862292e+00
  3.226898e+00    2.933395e+00
  3.258649e+00    2.901328e+00
  3.290400e+00    2.840284e+00
  3.322151e+00    2.928972e+00
  3.353902e+00    2.902497e+00
  3.385654e+00    2.875152e+00
  3.417405e+00    2.901548e+00
  3.449156e+00    2.864717e+00
  3.480907e+00    2.923903e+00
  3.512658e+00    3.027585e+00
  3.544409e+00    3.005479e+00
  3.576160e+00    2.850621e+00
  3.607912e+00    2.997265e+00
  3.639663e+00    3.008013e+00
  3.671414e+00    2.941216e+00
  3.703165e+00    2.940258e+00
  3.734916e+00    2.949499e+00
  3.766667e+00    2.910442e+00
  3.798418e+00    2.897987e+00
  3.830170e+00    3.010947e+00
  3.861921e+00    3.000750e+00
  3.893672e+00    2.995982e+00
  3.925423e+00    2.988564e+00
  3.957174e+00    2.999930e+00
  3.988925e+00    3.052529e+00
  4.020676e+00    2.951212e+00
  4.052428e+00    3.010053e+00
  4.084179e+00    2.975261e+00
  4.115930e+00    2.959372e+00
  4.147681e+00    2.958559e+00
  4.179432e+00    2.958581e+00
  4.211183e+00    3.062508e+00
  4.242935e+00    3.043296e+00
  4.274686e+00    3.020743e+00
  4.306437e+00    2.980227e+00
  4.338188e+00    3.075274e+00
  4.369939e+00    3.021649e+00
  4.401690e+00    3.037441e+00
  4.433441e+00    3.000248e+00
  4.465193e+00    3.144679e+00
  4.496944e+00    3.050456e+00
  4.528695e+00    2.999413e+00
  4.560446e+00    3.035550e+00
  4.592197e+00    2.985901e+00
  4.623948e+00    3.044761e+00
  4.655699e+00    3.065490e+00
  4.687451e+00    3.088139e+00
  4.719202e+00    3.055120e+00
  4.750953e+00    3.141229e+00
  4.782704e+00    3.093220e+00
  4.814455e+00    3.104441e+00
  4.846206e+00    3.060988e+00
  4.877957e+00    3.127831e+00
  4.909709e+00    3.048696e+00
  4.941460e+00    3.148475e+00
  4.973211e+00    3.027150e+00
  5.004962e+00    3.055090e+00
  5.036713e+00    3.021984e+00
  5.068464e+00    2.988149e+00
  5.100216e+00    3.133472e+00
  5.131967e+00    3.153493e+00
  5.163718e+00    3.038226e+00
  5.195469e+00    3.072164e+00
  5.227220e+00    3.073531e+00
  5.258971e+00    3.154228e+00
  5.290722e+00    3.092642e+00
  5.322474e+00    3.122216e+00
  5.354225e+00    3.116541e+00
  5.385976e+00    3.087964e+00
  5.417727e+00    3.105474e+00
  5.449478e+00    3.051240e+00
  5.481229e+00    2.995696e+00
  5.512980e+00    3.038740e+00
  5.544732e+00    2.998064e+00
  5.576483e+00    3.060188e+00
  5.608234e+00    3.014999e+00
  5.639985e+00    3.042679e+00
  5.671736e+00    3.091137e+00
  5.703487e+00    3.039701e+00
  5.735238e+00    2.999903e+00
  5.766990e+00    2.992056e+00
  5.798741e+00    2.973884e+00
  5.830492e+00    3.088681e+00
  5.862243e+00    2.999414e+00
  5.893994e+00    2.947271e+00
  5.925745e+00    2.955977e+00
  5.957497e+00    2.966255e+00
  5.989248e+00    2.982734e+00
  6.020999e+00    3.092373e+00
  6.052750e+00    3.032625e+00
  6.084501e+00    3.025184e+00
  6.116252e+00    3.061472e+00
  6.148003e+00    3.074156e+00
  6.179755e+00    3.037961e+00
  6.211506e+00    3.011137e+00
  6.243257e+00    3.047703e+00
  6.275008e+00    3.049202e+00
  6.306759e+00    3.048914e+00
  6.338510e+00    2.981643e+00
  6.370261e+00    3.061038e+00
  6.402013e+00    3.052279e+00
  6.433764e+00    2.976282e+00
  6.465515e+00    3.049164e+00
  6.497266e+00    3.096810e+00
  6.529017e+00    3.023916e+00
  6.560768e+00    2.946916e+00
  6.592519e+00    2.985084e+00
  6.624271e+00    2.966153e+00
  6.656022e+00    2.999847e+00
  6.687773e+00    3.061539e+00
  6.719524e+00    3.018783e+00
  6.751275e+00    3.021679e+00
  6.783026e+00    2.948563e+00
  6.814777e+00    2.951050e+00
  6.846529e+00    2.976306e+00
  6.878280e+00    2.989663e+00
  6.910031e+00    2.976392e+00
  6.941782e+00    2.957412e+00
  6.973533e+00    2.965939e+00
  7.005284e+00    2.973622e+00
  7.037036e+00    3.019722e+00
  7.068787e+00    2.969899e+00
  7.100538e+00    2.969726e+00
  7.132289e+00    2.941396e+00
  7.164040e+00    2.953186e+00
  7.195791e+00    2.870704e+00
  7.227542e+00    2.921657e+00
  7.259294e+00    3.025645e+00
  7.291045e+00    2.978918e+00
  7.322796e+00    2.999515e+00
  7.354547e+00    2.988364e+00
  7.386298e+00    3.055089e+00
  7.418049e+00    3.017830e+00
  7.449800e+00    3.048668e+00
  7.481552e+00    3.024736e+00
  7.513303e+00    2.950378e+00
  7.545054e+00    2.949265e+00
  7.576805e+00    2.903472e+00
  7.608556e+00    2.937393e+00
  7.640307e+00    2.932313e+00
  7.672058e+00    2.902341e+00
  7.703810e+00    2.980113e+00
  7.735561e+00    2.931421e+00
  7.767312e+00    2.921539e+00
  7.799063e+00    2.950862e+00
  7.830814e+00    2.961432e+00
  7.862565e+00    2.879054e+00
  7.894317e+00    2.946324e+00
  7.926068e+00    2.934387e+00
  7.957819e+00    2.869890e+00
  7.989570e+00    2.894083e+00
  8.021321e+00    2.876306e+00
  8.053072e+00    2.874712e+00
  8.084823e+00    2.915751e+00
  8.116575e+00    2.925993e+00
  8.148326e+00    2.939860e+00
  8.180077e+00    2.909010e+00
  8.211828e+00    2.912293e+00
  8.243579e+00    2.947935e+00
  8.275330e+00    2.866227e+00
  8.307081e+00    2.915816e+00
  8.338833e+00    2.903901e+00
  8.370584e+00    2.879315e+00
  8.402335e+00    2.898695e+00
  8.434086e+00    2.870774e+00
  8.465837e+00    2.885110e+00
  8.497588e+00    2.856528e+00
  8.529339e+00    2.862850e+00
  8.561091e+00    2.905498e+00
  8.592842e+00    2.755717e+00
  8.624593e+00    2.846117e+00
  8.656344e+00    2.764368e+00
  8.688095e+00    2.816634e+00
  8.719846e+00    2.856113e+00
  8.751598e+00    2.807231e+00
  8.783349e+00    2.753255e+00
  8.815100e+00    2.810104e+00
  8.846851e+00    2.756699e+00
  8.878602e+00    2.858315e+00
  8.910353e+00    2.853957e+00
  8.942104e+00    2.773553e+00
  8.973856e+00    2.795872e+00
  9.005607e+00    2.794384e+00
  9.037358e+00    2.820080e+00
  9.069109e+00    2.748048e+00
  9.100860e+00    2.793056e+00
  9.132611e+00    2.779165e+00
  9.164362e+00    2.729710e+00
  9.196114e+00    2.739376e+00
  9.227865e+00    2.730411e+00
  9.259616e+00    2.722866e+00
  9.291367e+00    2.783046e+00
  9.323118e+00    2.736350e+00
  9.354869e+00    2.708903e+00
  9.386620e+00    2.743310e+00
  9.418372e+00    2.752176e+00
  9.450123e+00    2.764542e+00
  9.481874e+00    2.713017e+00
  9.513625e+00    2.697282e+00
  9.545376e+00    2.748699e+00
  9.577127e+00    2.709501e+00
  9.608878e+00    2.786420e+00
  9.640630e+00    2.717845e+00
  9.672381e+00    2.743416e+00
  9.704132e+00    2.671970e+00
  9.735883e+00    2.698367e+00
  9.767634e+00    2.676648e+00
  9.799385e+00    2.694183e+00
  9.831137e+00    2.608966e+00
  9.862888e+00    2.651600e+00
  9.894639e+00    2.634887e+00
  9.926390e+00    2.648729e+00
  9.958141e+00    2.648895e+00
  9.989892e+00    2.667043e+00
  1.002164e+01    2.673656e+00
  1.005339e+01    2.714407e+00
  1.008515e+01    2.598964e+00
  1.011690e+01    2.665967e+00
  1.014865e+01    2.671285e+00
  1.018040e+01    2.652824e+00
  1.021215e+01    2.646926e+00
  1.024390e+01    2.593704e+00
  1.027565e+01    2.588933e+00
  1.030740e+01    2.665595e+00
  1.033915e+01    2.548505e+00
  1.037091e+01    2.646306e+00
  1.040266e+01    2.585042e+00
  1.043441e+01    2.544217e+00
  1.046616e+01    2.536979e+00
  1.049791e+01    2.572594e+00
  1.052966e+01    2.545864e+00
  1.056141e+01    2.577344e+00
  1.059316e+01    2.555506e+00
  1.062492e+01    2.527935e+00
  1.065667e+01    2.529730e+00
  1.068842e+01    2.509789e+00
  1.072017e+01    2.500645e+00
  1.075192e+01    2.514307e+00
  1.078367e+01    2.562512e+00
  1.081542e+01    2.507174e+00
  1.084717e+01    2.522778e+00
  1.087892e+01    2.555751e+00
  1.091068e+01    2.506055e+00
  1.094243e+01    2.504360e+00
  1.097418e+01    2.458782e+00
  1.100593e+01    2.457510e+00
  1.103768e+01    2.470715e+00
  1.106943e+01    2.470490e+00
  1.110118e+01    2.457556e+00
  1.113293e+01    2.463349e+00
  1.116468e+01    2.453765e+00
  1.119644e+01    2.414126e+00
  1.122819e+01    2.445889e+00
  1.125994e+01    2.456114e+00
  1.129169e+01    2.427731e+00
  1.132344e+01    2.383401e+00
  1.135519e+01    2.367215e+00
  1.138694e+01    2.397053e+00
  1.141869e+01    2.404598e+00
  1.145045e+01    2.406607e+00
  1.148220e+01    2.388784e+00
  1.151395e+01    2.397160e+00
  1.154570e+01    2.365635e+00
  1.157745e+01    2.386775e+00
  1.160920e+01    2.338272e+00
  1.164095e+01    2.326504e+00
  1.167270e+01    2.348465e+00
  1.170445e+01    2.312108e+00
  1.173621e+01    2.339828e+00
  1.176796e+01    2.352682e+00
  1.179971e+01    2.283982e+00
  1.183146e+01    2.274558e+00
  1.186321e+01    2.343015e+00
  1.189496e+01    2.330549e+00
  1.192671e+01    2.285517e+00
  1.195846e+01    2.325614e+00
  1.199021e+01    2.275869e+00
  1.202197e+01    2.333898e+00
  1.205372e+01    2.316933e+00
  1.208547e+01    2.269938e+00
  1.211722e+01    2.305994e+00
  1.214897e+01    2.320856e+00
  1.218072e+01    2.285748e+00
  1.221247e+01    2.309057e+00
  1.224422e+01    2.338541e+00
  1.227597e+01    2.333656e+00
  1.230773e+01    2.336963e+00
  1.233948e+01    2.316664e+00
  1.237123e+01    2.329865e+00
  1.240298e+01    2.280604e+00
  1.243473e+01    2.324222e+00
  1.246648e+01    2.307752e+00
  1.249823e+01    2.309175e+00
  1.252998e+01    2.343723e+00
  1.256174e+01    2.319570e+00
  1.259349e+01    2.353189e+00
  1.262524e+01    2.356816e+00
  1.265699e+01    2.421847e+00
  1.268874e+01    2.445044e+00
  1.272049e+01    2.473482e+00
  1.275224e+01    2.520218e+00
  1.278399e+01    2.593856e+00
  1.281574e+01    2.680144e+00
  1.284750e+01    2.788724e+00
  1.287925e+01    3.033435e+00
  1.291100e+01    3.282253e+00
  1.294275e+01    3.671634e+00
  1.297450e+01    4.319705e+00
  1.300625e+01    5.358949e+00
  1.303800e+01    7.027148e+00
  1.306975e+01    9.436484e+00
  1.310150e+01    1.213088e+01
  1.313326e+01    1.449272e+01
  1.316501e+01    1.672180e+01
  1.319676e+01    1.688986e+01
  1.322851e+01    1.410495e+01
  1.326026e+01    1.023464e+01
  1.329201e+01    7.303727e+00
  1.332376e+01    5.494628e+00
  1.335551e+01    4.444610e+00
  1.338727e+01    3.768111e+00
  1.341902e+01    3.291006e+00
  1.345077e+01    2.958780e+00
  1.348252e+01    2.759150e+00
  1.351427e+01    2.607752e+00
  1.354602e+01    2.505567e+00
  1.357777e+01    2.450842e+00
  1.360952e+01    2.367527e+00
  1.364127e+01    2.343265e+00
  1.367303e+01    2.246413e+00
  1.370478e+01    2.223781e+00
  1.373653e+01    2.171350e+00
  1.376828e+01    2.145993e+00
  1.380003e+01    2.128259e+00
  1.383178e+01    2.123394e+00
  1.386353e+01    2.058804e+00
  1.389528e+01    2.081218e+00
  1.392703e+01    2.067124e+00
  1.395879e+01    2.072689e+00
  1.399054e+01    2.022577e+00
  1.402229e+01    2.044064e+00
  1.405404e+01    2.046125e+00
  1.408579e+01    2.028630e+00
  1.411754e+01    1.981428e+00
  1.414929e+01    1.947913e+00
  1.418104e+01    2.016620e+00
  1.421279e+01    2.002563e+00
  1.424455e+01    1.932050e+00
  1.427630e+01    1.958166e+00
  1.430805e+01    1.928976e+00
  1.433980e+01    1.943903e+00
  1.437155e+01    1.950011e+00
  1.440330e+01    1.902651e+00
  1.443505e+01    1.886941e+00
  1.446680e+01    1.943580e+00
  1.449856e+01    1.889991e+00
  1.453031e+01    1.939254e+00
  1.456206e+01    1.934734e+00
  1.459381e+01    1.921552e+00
  1.462556e+01    1.923607e+00
  1.465731e+01    1.899452e+00
  1.468906e+01    1.886031e+00
  1.472081e+01    1.943147e+00
  1.475256e+01    1.909914e+00
  1.478432e+01    1.916903e+00
  1.481607e+01    1.860437e+00
  1.484782e+01    1.929986e+00
  1.487957e+01    1.935897e+00
  1.491132e+01    1.989178e+00
  1.494307e+01    1.971251e+00
  1.497482e+01    2.040254e+00
  1.500657e+01    2.165239e+00
  1.503832e+01    2.279600e+00
  1.507008e+01    2.530261e+00
  1.510183e+01    2.793216e+00
  1.513358e+01    3.377637e+00
  1.516533e+01    4.054450e+00
  1.519708e+01    4.868442e+00
  1.522883e+01    5.500928e+00
  1.526058e+01    5.856458e+00
  1.529233e+01    5.631459e+00
  1.532409e+01    4.995974e+00
  1.535584e+01    3.919737e+00
  1.538759e+01    3.109547e+00
  1.541934e+01    2.644882e+00
  1.545109e+01    2.309698e+00
  1.548284e+01    2.178847e+00
  1.551459e+01    2.009552e+00
  1.554634e+01    1.963357e+00
  1.557809e+01    1.867425e+00
  1.560985e+01    1.852187e+00
  1.564160e+01    1.792957e+00
  1.567335e+01    1.771483e+00
  1.570510e+01    1.716927e+00
  1.573685e+01    1.709195e+00
  1.576860e+01    1.669001e+00
  1.580035e+01    1.649237e+00
  1.583210e+01    1.630082e+00
  1.586385e+01    1.650840e+00
  1.589561e+01    1.637445e+00
  1.592736e+01    1.585472e+00
  1.595911e+01    1.585370e+00
  1.599086e+01    1.615818e+00
  1.602261e+01    1.617770e+00
  1.605436e+01    1.579025e+00
  1.608611e+01    1.551430e+00
  1.611786e+01    1.591004e+00
  1.614961e+01    1.571131e+00
  1.618137e+01    1.578131e+00
  1.621312e+01    1.540207e+00
  1.624487e+01    1.549346e+00
  1.627662e+01    1.520866e+00
  1.630837e+01    1.537361e+00
  1.634012e+01    1.549515e+00
  1.637187e+01    1.522803e+00
  1.640362e+01    1.522317e+00
  1.643538e+01    1.519408e+00
  1.646713e+01    1.521897e+00
  1.649888e+01    1.482211e+00
  1.653063e+01    1.491019e+00
  1.656238e+01    1.494394e+00
  1.659413e+01    1.504928e+00
  1.662588e+01    1.487058e+00
  1.665763e+01    1.493357e+00
  1.668938e+01    1.474163e+00
  1.672114e+01    1.464900e+00
  1.675289e+01    1.453629e+00
  1.678464e+01    1.439931e+00
  1.681639e+01    1.464561e+00
  1.684814e+01    1.473050e+00
  1.687989e+01    1.446223e+00
  1.691164e+01    1.430757e+00
  1.694339e+01    1.420505e+00
  1.697514e+01    1.453234e+00
  1.700690e+01    1.431644e+00
  1.703865e+01    1.410908e+00
  1.707040e+01    1.410213e+00
  1.710215e+01    1.412223e+00
  1.713390e+01    1.394252e+00
  1.716565e+01    1.418658e+00
  1.719740e+01    1.425286e+00
  1.722915e+01    1.377259e+00
  1.726091e+01    1.381597e+00
  1.729266e+01    1.397175e+00
  1.732441e+01    1.381838e+00
  1.735616e+01    1.369141e+00
  1.738791e+01    1.365780e+00
  1.741966e+01    1.363643e+00
  1.745141e+01    1.364686e+00
  1.748316e+01    1.365865e+00
  1.751491e+01    1.344219e+00
  1.754667e+01    1.351289e+00
  1.757842e+01    1.359047e+00
  1.761017e+01    1.340382e+00
  1.764192e+01    1.322651e+00
  1.767367e+01    1.335493e+00
  1.770542e+01    1.351336e+00
  1.773717e+01    1.314905e+00
  1.776892e+01    1.304191e+00
  1.780067e+01    1.328624e+00
  1.783243e+01    1.321729e+00
  1.786418e+01    1.333120e+00
  1.789593e+01    1.333532e+00
  1.792768e+01    1.309781e+00
  1.795943e+01    1.312153e+00
  1.799118e+01    1.304403e+00
  1.802293e+01    1.291726e+00
  1.805468e+01    1.281931e+00
  1.808643e+01    1.263805e+00
  1.811819e+01    1.301213e+00
  1.814994e+01    1.255183e+00
  1.818169e+01    1.268470e+00
  1.821344e+01    1.271815e+00
  1.824519e+01    1.284453e+00
  1.827694e+01    1.263486e+00
  1.830869e+01    1.284234e+00
  1.834044e+01    1.258765e+00
  1.837220e+01    1.272512e+00
  1.840395e+01    1.264366e+00
  1.843570e+01    1.267127e+00
  1.846745e+01    1.240548e+00
  1.849920e+01    1.253598e+00
  1.853095e+01    1.236451e+00
  1.856270e+01    1.253595e+00
  1.859445e+01    1.232941e+00
  1.862620e+01    1.252286e+00
  1.865796e+01    1.207231e+00
  1.868971e+01    1.238010e+00
  1.872146e+01    1.223849e+00
  1.875321e+01    1.227410e+00
  1.878496e+01    1.195002e+00
  1.881671e+01    1.205503e+00
  1.884846e+01    1.205657e+00
  1.888021e+01    1.226234e+00
  1.891196e+01    1.183673e+00
  1.894372e+01    1.214391e+00
  1.897547e+01    1.174457e+00
  1.900722e+01    1.195445e+00
  1.903897e+01    1.166048e+00
  1.907072e+01    1.177848e+00
  1.910247e+01    1.175612e+00
  1.913422e+01    1.191316e+00
  1.916597e+01    1.166067e+00
  1.919773e+01    1.145203e+00
  1.922948e+01    1.167176e+00
  1.926123e+01    1.159685e+00
  1.929298e+01    1.164187e+00
  1.932473e+01    1.156727e+00
  1.935648e+01    1.154931e+00
  1.938823e+01    1.163609e+00
  1.941998e+01    1.153813e+00
  1.945173e+01    1.149675e+00
  1.948349e+01    1.148940e+00
  1.951524e+01    1.139366e+00
  1.954699e+01    1.149240e+00
  1.957874e+01    1.153643e+00
  1.961049e+01    1.166427e+00
  1.964224e+01    1.167156e+00
  1.967399e+01    1.126052e+00
  1.970574e+01    1.120253e+00
  1.973749e+01    1.099504e+00
  1.976925e+01    1.124116e+00
  1.980100e+01    1.112915e+00
  1.983275e+01    1.119173e+00
  1.986450e+01    1.122488e+00
  1.989625e+01    1.104492e+00
  1.992800e+01    1.131991e+00
  1.995975e+01    1.117700e+00
  1.999150e+01    1.093131e+00
  2.002325e+01    1.104415e+00
  2.005501e+01    1.121606e+00
  2.008676e+01    1.095717e+00
  2.011851e+01    1.125628e+00
  2.015026e+01    1.101025e+00
  2.018201e+01    1.114315e+00
  2.021376e+01    1.110913e+00
  2.024551e+01    1.098919e+00
  2.027726e+01    1.122570e+00
  2.030902e+01    1.100611e+00
  2.034077e+01    1.098675e+00
  2.037252e+01    1.067946e+00
  2.040427e+01    1.082619e+00
  2.043602e+01    1.088640e+00
  2.046777e+01    1.084812e+00
  2.049952e+01    1.081009e+00
  2.053127e+01    1.067745e+00
  2.056302e+01    1.096724e+00
  2.059478e+01    1.076270e+00
  2.062653e+01    1.086218e+00
  2.065828e+01    1.096982e+00
  2.069003e+01    1.047999e+00
  2.072178e+01    1.053775e+00
  2.075353e+01    1.073824e+00
  2.078528e+01    1.074691e+00
  2.081703e+01    1.106273e+00
  2.084878e+01    1.081191e+00
  2.088054e+01    1.074379e+00
  2.091229e+01    1.047936e+00
  2.094404e+01    1.063517e+00
  2.097579e+01    1.055709e+00
  2.100754e+01    1.085411e+00
  2.103929e+01    1.064621e+00
  2.107104e+01    1.072254e+00
  2.110279e+01    1.060143e+00
  2.113455e+01    1.043430e+00
  2.116630e+01    1.103898e+00
  2.119805e+01    1.082731e+00
  2.122980e+01    1.105855e+00
  2.126155e+01    1.098948e+00
  2.129330e+01    1.117410e+00
  2.132505e+01    1.152919e+00
  2.135680e+01    1.155160e+00
  2.138855e+01    1.179623e+00
  2.142031e+01    1.162392e+00
  2.145206e+01    1.198045e+00
  2.148381e+01    1.268208e+00
  2.151556e+01    1.280139e+00
  2.154731e+01    1.377162e+00
  2.157906e+01    1.432665e+00
  2.161081e+01    1.594660e+00
  2.164256e+01    1.801228e+00
  2.167431e+01    2.069471e+00
  2.170607e+01    2.552850e+00
  2.173782e+01    3.196498e+00
  2.176957e+01    4.182967e+00
  2.180132e+01    5.406885e+00
  2.183307e+01    6.840670e+00
  2.186482e+01    8.211325e+00
  2.189657e+01    9.344582e+00
  2.192832e+01    9.187694e+00
  2.196007e+01    7.553687e+00
  2.199183e+01    5.552937e+00
  2.202358e+01    4.031065e+00
  2.205533e+01    3.060070e+00
  2.208708e+01    2.412082e+00
  2.211883e+01    2.019117e+00
  2.215058e+01    1.732854e+00
  2.218233e+01    1.529009e+00
  2.221408e+01    1.395885e+00
  2.224584e+01    1.303643e+00
  2.227759e+01    1.237512e+00
  2.230934e+01    1.184178e+00
  2.234109e+01    1.112560e+00
  2.237284e+01    1.111097e+00
  2.240459e+01    1.079503e+00
  2.243634e+01    1.050364e+00
  2.246809e+01    1.042957e+00
  2.249984e+01    1.002228e+00
  2.253160e+01    1.023290e+00
  2.256335e+01    9.855264e-01
  2.259510e+01    9.835813e-01
  2.262685e+01    9.629630e-01
  2.265860e+01    9.654454e-01
  2.269035e+01    9.360536e-01
  2.272210e+01    9.452595e-01
  2.275385e+01    9.343989e-01
  2.278560e+01    9.203584e-01
  2.281736e+01    9.297241e-01
  2.284911e+01    9.084598e-01
  2.288086e+01    9.167266e-01
  2.291261e+01    9.340296e-01
  2.294436e+01    9.037589e-01
  2.297611e+01    9.062213e-01
  2.300786e+01    8.960070e-01
  2.303961e+01    9.038650e-01
  2.307137e+01    8.778794e-01
  2.310312e+01    8.653964e-01
  2.313487e+01    8.526856e-01
  2.316662e+01    8.690385e-01
  2.319837e+01    8.750763e-01
  2.323012e+01    8.665475e-01
  2.326187e+01    8.671297e-01
  2.329362e+01    8.397601e-01
  2.332537e+01    8.529931e-01
  2.335713e+01    8.548039e-01
  2.338888e+01    8.348975e-01
  2.342063e+01    8.255072e-01
  2.345238e+01    8.406274e-01
  2.348413e+01    8.469086e-01
  2.351588e+01    8.552176e-01
  2.354763e+01    8.358464e-01
  2.357938e+01    8.361012e-01
  2.361113e+01    8.367949e-01
  2.364289e+01    8.362340e-01
  2.367464e+01    8.541444e-01
  2.370639e+01    8.315785e-01
  2.373814e+01    8.174462e-01
  2.376989e+01    7.883153e-01
  2.380164e+01    8.172305e-01
  2.383339e+01    7.988889e-01
  2.386514e+01    8.119656e-01
  2.389689e+01    7.893260e-01
  2.392865e+01    8.108525e-01
  2.396040e+01    7.828606e-01
  2.399215e+01    7.755854e-01
  2.402390e+01    7.708646e-01
  2.405565e+01    7.793996e-01
  2.408740e+01    7.768890e-01
  2.411915e+01    7.684872e-01
  2.415090e+01    7.590640e-01
  2.418266e+01    7.997376e-01
  2.421441e+01    7.811029e-01
  2.424616e+01    7.793552e-01
  2.427791e+01    7.794266e-01
  2.430966e+01    7.712138e-01
  2.434141e+01    7.798585e-01
  2.437316e+01    8.064992e-01
  2.440491e+01    8.002623e-01
  2.443666e+01    7.876000e-01
  2.446842e+01    7.836537e-01
  2.450017e+01    7.988043e-01
  2.453192e+01    7.900246e-01
  2.456367e+01    7.695178e-01
  2.459542e+01    7.886969e-01
  2.462717e+01    7.994763e-01
  2.465892e+01    7.886310e-01
  2.469067e+01    8.071429e-01
  2.472242e+01    7.862903e-01
  2.475418e+01    7.748754e-01
  2.478593e+01    7.953303e-01
  2.481768e+01    7.937019e-01
  2.484943e+01    7.842304e-01
  2.488118e+01    8.002387e-01
  2.491293e+01    7.787443e-01
  2.494468e+01    7.919434e-01
  2.497643e+01    7.890697e-01
  2.500819e+01    7.957399e-01
  2.503994e+01    8.066314e-01
  2.507169e+01    7.971005e-01
  2.510344e+01    8.138545e-01
  2.513519e+01    8.082013e-01
  2.516694e+01    8.047147e-01
  2.519869e+01    8.259640e-01
  2.523044e+01    8.388225e-01
  2.526219e+01    8.611094e-01
  2.529395e+01    8.579358e-01
  2.532570e+01    8.614579e-01
  2.535745e+01    8.950441e-01
  2.538920e+01    8.981999e-01
  2.542095e+01    9.037318e-01
  2.545270e+01    9.308169e-01
  2.548445e+01    9.319382e-01
  2.551620e+01    9.900305e-01
  2.554795e+01    1.023858e+00
  2.557971e+01    1.048772e+00
  2.561146e+01    1.139038e+00
  2.564321e+01    1.200958e+00
  2.567496e+01    1.297621e+00
  2.570671e+01    1.478464e+00
  2.573846e+01    1.698025e+00
  2.577021e+01    2.037699e+00
  2.580196e+01    2.474712e+00
  2.583371e+01    3.263669e+00
  2.586547e+01    4.276913e+00
  2.589722e+01    5.600422e+00
  2.592897e+01    6.875120e+00
  2.596072e+01    7.674284e+00
  2.599247e+01    7.595883e+00
  2.602422e+01    6.390191e+00
  2.605597e+01    4.826825e+00
  2.608772e+01    3.534571e+00
  2.611948e+01    2.664340e+00
  2.615123e+01    2.104929e+00
  2.618298e+01    1.739261e+00
  2.621473e+01    1.513171e+00
  2.624648e+01    1.323405e+00
  2.627823e+01    1.222380e+00
  2.630998e+01    1.156579e+00
  2.634173e+01    1.083170e+00
  2.637348e+01    1.046148e+00
  2.640524e+01    9.865020e-01
  2.643699e+01    9.842780e-01
  2.646874e+01    9.433891e-01
  2.650049e+01    9.341761e-01
  2.653224e+01    9.184880e-01
  2.656399e+01    9.304019e-01
  2.659574e+01    9.022779e-01
  2.662749e+01    9.021835e-01
  2.665924e+01    9.163520e-01
  2.669100e+01    8.922737e-01
  2.672275e+01    8.759162e-01
  2.675450e+01    8.846021e-01
  2.678625e+01    8.902858e-01
  2.681800e+01    8.956875e-01
  2.684975e+01    9.023515e-01
  2.688150e+01    9.029751e-01
  2.691325e+01    8.998023e-01
  2.694501e+01    9.560621e-01
  2.697676e+01    9.716694e-01
  2.700851e+01    1.031160e+00
  2.704026e+01    1.102886e+00
  2.707201e+01    1.192374e+00
  2.710376e+01    1.360508e+00
  2.713551e+01    1.632453e+00
  2.716726e+01    1.877061e+00
  2.719901e+01    2.154145e+00
  2.723077e+01    2.323551e+00
  2.726252e+01    2.156306e+00
  2.729427e+01    1.906077e+00
  2.732602e+01    1.578752e+00
  2.735777e+01    1.367751e+00
  2.738952e+01    1.168614e+00
  2.742127e+01    1.043260e+00
  2.745302e+01    9.865292e-01
  2.748477e+01    9.267234e-01
  2.751653e+01    9.168714e-01
  2.754828e+01    8.876500e-01
  2.758003e+01    8.542596e-01
  2.761178e+01    8.314064e-01
  2.764353e+01    8.246146e-01
  2.767528e+01    8.217419e-01
  2.770703e+01    8.247750e-01
  2.773878e+01    8.316632e-01
  2.777054e+01    8.009669e-01
  2.780229e+01    7.929780e-01
  2.783404e+01    7.966367e-01
  2.786579e+01    8.208787e-01
  2.789754e+01    7.891819e-01
  2.792929e+01    7.837896e-01
  2.796104e+01    7.855854e-01
  2.799279e+01    8.029779e-01
  2.802454e+01    7.851860e-01
  2.805630e+01    7.931263e-01
  2.808805e+01    7.821183e-01
  2.811980e+01    7.884499e-01
  2.815155e+01    7.756203e-01
  2.818330e+01    7.552489e-01
  2.821505e+01    7.812302e-01
  2.824680e+01    7.897137e-01
  2.827855e+01    7.483751e-01
  2.831030e+01    7.694561e-01
  2.834206e+01    7.625917e-01
  2.837381e+01    7.463340e-01
  2.840556e+01    7.392105e-01
  2.843731e+01    7.481450e-01
  2.846906e+01    7.622143e-01
  2.850081e+01    7.592431e-01
  2.853256e+01    7.606705e-01
  2.856431e+01    7.401695e-01
  2.859606e+01    7.362257e-01
  2.862782e+01    7.700117e-01
  2.865957e+01    7.303070e-01
  2.869132e+01    7.530656e-01
  2.872307e+01    7.591262e-01
  2.875482e+01    7.472851e-01
  2.878657e+01    7.636356e-01
  2.881832e+01    7.527925e-01
  2.885007e+01    7.356887e-01
  2.888183e+01    7.381585e-01
  2.891358e+01    7.130901e-01
  2.894533e+01    7.439107e-01
  2.897708e+01    7.455220e-01
  2.900883e+01    7.259000e-01
  2.904058e+01    7.244117e-01
  2.907233e+01    7.305432e-01
  2.910408e+01    7.335380e-01
  2.913583e+01    7.418906e-01
  2.916759e+01    7.374421e-01
  2.919934e+01    7.116550e-01
  2.923109e+01    7.134407e-01
  2.926284e+01    7.349191e-01
  2.929459e+01    7.190267e-01
  2.932634e+01    7.190390e-01
  2.935809e+01    7.387022e-01
  2.938984e+01    7.340704e-01
  2.942159e+01    7.180448e-01
  2.945335e+01    7.357804e-01
  2.948510e+01    7.171059e-01
  2.951685e+01    7.233810e-01
  2.954860e+01    7.070271e-01
  2.958035e+01    7.376217e-01
  2.961210e+01    7.453504e-01
  2.964385e+01    7.209381e-01
  2.967560e+01    7.118098e-01
  2.970736e+01    7.350222e-01
  2.973911e+01    7.074697e-01
  2.977086e+01    7.128771e-01
  2.980261e+01    7.359999e-01
  2.983436e+01    7.111972e-01
  2.986611e+01    7.224259e-01
  2.989786e+01    7.119334e-01
  2.992961e+01    7.098519e-01
  2.996136e+01    7.088703e-01
  2.999312e+01    7.242136e-01
  3.002487e+01    7.524256e-01
  3.005662e+01    7.379057e-01
  3.008837e+01    7.225473e-01
  3.012012e+01    7.115453e-01
  3.015187e+01    7.075546e-01
  3.018362e+01    7.148481e-01
  3.021537e+01    7.053924e-01
  3.024712e+01    6.844928e-01
  3.027888e+01    7.011848e-01
  3.031063e+01    7.036499e-01
  3.034238e+01    7.040749e-01
  3.037413e+01    6.988488e-01
  3.040588e+01    7.122141e-01
  3.043763e+01    7.170979e-01
  3.046938e+01    7.145582e-01
  3.050113e+01    7.120008e-01
  3.053288e+01    7.362105e-01
  3.056464e+01    7.183453e-01
  3.059639e+01    7.201505e-01
  3.062814e+01    7.057013e-01
  3.065989e+01    7.138794e-01
  3.069164e+01    7.070078e-01
  3.072339e+01    7.185311e-01
  3.075514e+01    7.087604e-01
  3.078689e+01    7.231557e-01
  3.081865e+01    6.947845e-01
  3.085040e+01    7.097676e-01
  3.088215e+01    7.072089e-01
  3.091390e+01    7.098576e-01
  3.094565e+01    7.039986e-01
  3.097740e+01    7.107812e-01
  3.100915e+01    7.068442e-01
  3.104090e+01    7.209408e-01
  3.107265e+01    7.361122e-01
  3.110441e+01    7.006900e-01
  3.113616e+01    7.148939e-01
  3.116791e+01    7.068402e-01
  3.119966e+01    7.188508e-01
  3.123141e+01    7.181752e-01
  3.126316e+01    7.477816e-01
  3.129491e+01    7.518342e-01
  3.132666e+01    7.287337e-01
  3.135841e+01    7.222952e-01
  3.139017e+01    7.247882e-01
  3.142192e+01    7.455248e-01
  3.145367e+01    7.577272e-01
  3.148542e+01    7.439509e-01
  3.151717e+01    7.612916e-01
  3.154892e+01    7.847214e-01
  3.158067e+01    7.876706e-01
  3.161242e+01    8.080539e-01
  3.164418e+01    8.696806e-01
  3.167593e+01    8.863672e-01
  3.170768e+01    9.631039e-01
  3.173943e+01    1.056842e+00
  3.177118e+01    1.164512e+00
  3.180293e+01    1.321058e+00
  3.183468e+01    1.620907e+00
  3.186643e+01    1.919674e+00
  3.189818e+01    2.193970e+00
  3.192994e+01    2.268724e+00
  3.196169e+01    2.060502e+00
  3.199344e+01    1.799360e+00
  3.202519e+01    1.451072e+00
  3.205694e+01    1.214779e+00
  3.208869e+01    1.062290e+00
  3.212044e+01    9.716943e-01
  3.215219e+01    8.803850e-01
  3.218394e+01    8.439047e-01
  3.221570e+01    8.574066e-01
  3.224745e+01    7.713228e-01
  3.227920e+01    7.943274e-01
  3.231095e+01    7.582682e-01
  3.234270e+01    7.640032e-01
  3.237445e+01    7.653115e-01
  3.240620e+01    7.278177e-01
  3.243795e+01    7.304285e-01
  3.246970e+01    7.108389e-01
  3.250146e+01    7.371114e-01
  3.253321e+01    7.286389e-01
  3.254908e+01    7.393711e-01