File: XRD/Activation ramp/2024-07-27_002_Ru-CGO-ex_Activtation_ramp_000002_data_000057.dat
# == pyFAI calibration ==
# Distance Sample to Detector: 0.4 m
# PONI: 9.750e-02, 1.135e-01 m
# Rotations: -0.000175 0.000000 -0.000000 rad
#
# == Fit2d calibration ==
# Distance Sample-beamCenter: 400.000 mm
# Center: x=1514.000, y=1300.000 pix
# Tilt: 0.010 deg  TiltPlanRot: 0.010 deg
#
# Detector Detector	 Spline= None	 PixelSize= 7.500e-05, 7.500e-05 m
#    Detector has a mask: False
#    Detector has a dark current: False
#    detector has a flat field: False
#
# Wavelength: 6.888e-11 m
# Mask applied: user provided
# Dark current applied: False
# Flat field applied: False
# Polarization factor: 0.99
# Normalization factor: 1.0
# --> /home/myspot/data/2024_07_Rosario/Ru-CGO-ex/2024-07-27_002_Ru-CGO-ex_Activtation_ramp_000002_data_000057.dat
#       q_nm^-1             I
  2.003187e-02    0.000000e+00
  5.178302e-02    0.000000e+00
  8.353417e-02    1.568898e-01
  1.152853e-01    2.737308e-02
  1.470365e-01    2.690472e-02
  1.787876e-01    7.403757e-02
  2.105388e-01    3.399134e-02
  2.422899e-01    9.606132e-03
  2.740411e-01    1.315401e-02
  3.057922e-01    5.969597e-02
  3.375433e-01    6.162006e-02
  3.692945e-01    5.837658e-02
  4.010456e-01    8.854249e-03
  4.327968e-01    2.036692e-02
  4.645479e-01    2.230258e-02
  4.962991e-01    3.183394e-02
  5.280502e-01    3.614978e-02
  5.598014e-01    2.515809e-02
  5.915525e-01    2.962017e-02
  6.233037e-01    1.730176e-02
  6.550548e-01    4.244832e-02
  6.868060e-01    3.841695e-02
  7.185571e-01    5.073037e-02
  7.503083e-01    4.127075e-02
  7.820594e-01    1.191227e-01
  8.138106e-01    2.808829e-01
  8.455617e-01    2.867487e-01
  8.773129e-01    3.970207e-01
  9.090640e-01    4.962628e-01
  9.408152e-01    7.001234e-01
  9.725663e-01    8.545588e-01
  1.004317e+00    1.035075e+00
  1.036069e+00    1.180819e+00
  1.067820e+00    1.241524e+00
  1.099571e+00    1.496253e+00
  1.131322e+00    1.295591e+00
  1.163073e+00    1.425478e+00
  1.194824e+00    1.652472e+00
  1.226575e+00    2.098882e+00
  1.258327e+00    2.426963e+00
  1.290078e+00    2.295790e+00
  1.321829e+00    2.422084e+00
  1.353580e+00    2.503369e+00
  1.385331e+00    2.711984e+00
  1.417082e+00    2.669949e+00
  1.448834e+00    2.753898e+00
  1.480585e+00    2.879030e+00
  1.512336e+00    2.902938e+00
  1.544087e+00    2.870021e+00
  1.575838e+00    3.095335e+00
  1.607589e+00    2.910514e+00
  1.639340e+00    2.885824e+00
  1.671092e+00    2.957091e+00
  1.702843e+00    2.885024e+00
  1.734594e+00    2.813417e+00
  1.766345e+00    2.854116e+00
  1.798096e+00    2.813306e+00
  1.829847e+00    2.773160e+00
  1.861598e+00    2.921394e+00
  1.893350e+00    2.838290e+00
  1.925101e+00    2.795583e+00
  1.956852e+00    2.679748e+00
  1.988603e+00    2.693902e+00
  2.020354e+00    2.757203e+00
  2.052105e+00    2.830663e+00
  2.083856e+00    2.712006e+00
  2.115608e+00    2.791324e+00
  2.147359e+00    2.826133e+00
  2.179110e+00    2.686037e+00
  2.210861e+00    2.796530e+00
  2.242612e+00    2.792626e+00
  2.274363e+00    2.767845e+00
  2.306115e+00    2.809699e+00
  2.337866e+00    2.696082e+00
  2.369617e+00    2.759346e+00
  2.401368e+00    2.842020e+00
  2.433119e+00    2.713941e+00
  2.464870e+00    2.811671e+00
  2.496621e+00    2.738377e+00
  2.528373e+00    2.849563e+00
  2.560124e+00    2.846091e+00
  2.591875e+00    2.785994e+00
  2.623626e+00    2.839742e+00
  2.655377e+00    2.875460e+00
  2.687128e+00    2.884305e+00
  2.718879e+00    2.836763e+00
  2.750631e+00    2.961058e+00
  2.782382e+00    2.831100e+00
  2.814133e+00    2.772163e+00
  2.845884e+00    2.803739e+00
  2.877635e+00    2.874651e+00
  2.909386e+00    2.823978e+00
  2.941137e+00    2.856717e+00
  2.972889e+00    2.923248e+00
  3.004640e+00    2.919820e+00
  3.036391e+00    2.872888e+00
  3.068142e+00    2.884358e+00
  3.099893e+00    2.912875e+00
  3.131644e+00    2.975343e+00
  3.163395e+00    2.936965e+00
  3.195147e+00    2.916407e+00
  3.226898e+00    3.018447e+00
  3.258649e+00    2.968033e+00
  3.290400e+00    2.846409e+00
  3.322151e+00    2.908009e+00
  3.353902e+00    2.982486e+00
  3.385654e+00    3.008669e+00
  3.417405e+00    2.969093e+00
  3.449156e+00    2.986689e+00
  3.480907e+00    3.006994e+00
  3.512658e+00    2.962163e+00
  3.544409e+00    2.945942e+00
  3.576160e+00    2.925512e+00
  3.607912e+00    3.002895e+00
  3.639663e+00    2.940253e+00
  3.671414e+00    3.030571e+00
  3.703165e+00    2.949138e+00
  3.734916e+00    2.980906e+00
  3.766667e+00    2.945352e+00
  3.798418e+00    2.995915e+00
  3.830170e+00    2.977358e+00
  3.861921e+00    3.014379e+00
  3.893672e+00    3.088538e+00
  3.925423e+00    3.040721e+00
  3.957174e+00    2.992659e+00
  3.988925e+00    3.049041e+00
  4.020676e+00    3.121043e+00
  4.052428e+00    2.912028e+00
  4.084179e+00    3.107047e+00
  4.115930e+00    2.999413e+00
  4.147681e+00    3.001639e+00
  4.179432e+00    3.054388e+00
  4.211183e+00    3.000829e+00
  4.242935e+00    2.928001e+00
  4.274686e+00    3.087966e+00
  4.306437e+00    3.050750e+00
  4.338188e+00    3.086343e+00
  4.369939e+00    3.107210e+00
  4.401690e+00    3.032504e+00
  4.433441e+00    3.075275e+00
  4.465193e+00    3.078758e+00
  4.496944e+00    3.102614e+00
  4.528695e+00    3.138142e+00
  4.560446e+00    3.062947e+00
  4.592197e+00    3.110085e+00
  4.623948e+00    3.119838e+00
  4.655699e+00    3.098875e+00
  4.687451e+00    3.018939e+00
  4.719202e+00    3.039170e+00
  4.750953e+00    3.287824e+00
  4.782704e+00    3.037184e+00
  4.814455e+00    3.155318e+00
  4.846206e+00    3.126885e+00
  4.877957e+00    3.132025e+00
  4.909709e+00    3.146442e+00
  4.941460e+00    3.120268e+00
  4.973211e+00    3.135189e+00
  5.004962e+00    3.129533e+00
  5.036713e+00    3.104189e+00
  5.068464e+00    3.197628e+00
  5.100216e+00    3.112228e+00
  5.131967e+00    3.132656e+00
  5.163718e+00    3.268570e+00
  5.195469e+00    3.073302e+00
  5.227220e+00    3.163184e+00
  5.258971e+00    3.157212e+00
  5.290722e+00    3.087649e+00
  5.322474e+00    3.152852e+00
  5.354225e+00    3.139115e+00
  5.385976e+00    3.212020e+00
  5.417727e+00    3.061931e+00
  5.449478e+00    3.137315e+00
  5.481229e+00    3.134152e+00
  5.512980e+00    3.102663e+00
  5.544732e+00    3.163807e+00
  5.576483e+00    3.114099e+00
  5.608234e+00    3.090750e+00
  5.639985e+00    3.069600e+00
  5.671736e+00    3.034404e+00
  5.703487e+00    3.013324e+00
  5.735238e+00    3.026673e+00
  5.766990e+00    3.128370e+00
  5.798741e+00    3.030176e+00
  5.830492e+00    3.117677e+00
  5.862243e+00    2.991815e+00
  5.893994e+00    3.042449e+00
  5.925745e+00    2.994459e+00
  5.957497e+00    3.038689e+00
  5.989248e+00    3.014701e+00
  6.020999e+00    3.065695e+00
  6.052750e+00    3.005224e+00
  6.084501e+00    3.087409e+00
  6.116252e+00    3.179798e+00
  6.148003e+00    3.102600e+00
  6.179755e+00    3.030060e+00
  6.211506e+00    3.060783e+00
  6.243257e+00    3.064063e+00
  6.275008e+00    3.055656e+00
  6.306759e+00    3.114053e+00
  6.338510e+00    3.058058e+00
  6.370261e+00    3.031089e+00
  6.402013e+00    3.053015e+00
  6.433764e+00    3.029910e+00
  6.465515e+00    3.028027e+00
  6.497266e+00    2.991108e+00
  6.529017e+00    3.082516e+00
  6.560768e+00    3.044230e+00
  6.592519e+00    3.047126e+00
  6.624271e+00    2.999512e+00
  6.656022e+00    2.999481e+00
  6.687773e+00    3.003200e+00
  6.719524e+00    2.997467e+00
  6.751275e+00    3.104455e+00
  6.783026e+00    3.036412e+00
  6.814777e+00    2.988854e+00
  6.846529e+00    3.079950e+00
  6.878280e+00    3.010043e+00
  6.910031e+00    3.052851e+00
  6.941782e+00    3.130528e+00
  6.973533e+00    3.021347e+00
  7.005284e+00    3.027356e+00
  7.037036e+00    3.035567e+00
  7.068787e+00    2.936014e+00
  7.100538e+00    3.039215e+00
  7.132289e+00    2.978502e+00
  7.164040e+00    2.985769e+00
  7.195791e+00    3.044216e+00
  7.227542e+00    2.991912e+00
  7.259294e+00    3.027828e+00
  7.291045e+00    3.033382e+00
  7.322796e+00    2.994995e+00
  7.354547e+00    2.966226e+00
  7.386298e+00    3.049338e+00
  7.418049e+00    3.021306e+00
  7.449800e+00    3.047663e+00
  7.481552e+00    3.104310e+00
  7.513303e+00    2.988821e+00
  7.545054e+00    2.929795e+00
  7.576805e+00    2.955461e+00
  7.608556e+00    2.928586e+00
  7.640307e+00    2.919526e+00
  7.672058e+00    3.008285e+00
  7.703810e+00    2.995183e+00
  7.735561e+00    2.923757e+00
  7.767312e+00    2.846143e+00
  7.799063e+00    2.909414e+00
  7.830814e+00    2.912661e+00
  7.862565e+00    2.943752e+00
  7.894317e+00    2.957360e+00
  7.926068e+00    3.017532e+00
  7.957819e+00    2.898236e+00
  7.989570e+00    2.954042e+00
  8.021321e+00    2.976550e+00
  8.053072e+00    2.950665e+00
  8.084823e+00    2.932585e+00
  8.116575e+00    2.929139e+00
  8.148326e+00    2.942991e+00
  8.180077e+00    2.970895e+00
  8.211828e+00    2.940479e+00
  8.243579e+00    2.963001e+00
  8.275330e+00    2.872805e+00
  8.307081e+00    2.953499e+00
  8.338833e+00    2.888012e+00
  8.370584e+00    2.909658e+00
  8.402335e+00    2.922889e+00
  8.434086e+00    2.923223e+00
  8.465837e+00    2.854757e+00
  8.497588e+00    2.959563e+00
  8.529339e+00    2.862839e+00
  8.561091e+00    2.831738e+00
  8.592842e+00    2.880034e+00
  8.624593e+00    2.860055e+00
  8.656344e+00    2.870165e+00
  8.688095e+00    2.829561e+00
  8.719846e+00    2.869886e+00
  8.751598e+00    2.839828e+00
  8.783349e+00    2.867339e+00
  8.815100e+00    2.829153e+00
  8.846851e+00    2.854164e+00
  8.878602e+00    2.855173e+00
  8.910353e+00    2.809182e+00
  8.942104e+00    2.831851e+00
  8.973856e+00    2.794907e+00
  9.005607e+00    2.826401e+00
  9.037358e+00    2.826334e+00
  9.069109e+00    2.881387e+00
  9.100860e+00    2.868294e+00
  9.132611e+00    2.841509e+00
  9.164362e+00    2.806750e+00
  9.196114e+00    2.809805e+00
  9.227865e+00    2.686578e+00
  9.259616e+00    2.766093e+00
  9.291367e+00    2.768037e+00
  9.323118e+00    2.770042e+00
  9.354869e+00    2.782754e+00
  9.386620e+00    2.716498e+00
  9.418372e+00    2.767598e+00
  9.450123e+00    2.712843e+00
  9.481874e+00    2.727768e+00
  9.513625e+00    2.810927e+00
  9.545376e+00    2.789683e+00
  9.577127e+00    2.751340e+00
  9.608878e+00    2.790811e+00
  9.640630e+00    2.740504e+00
  9.672381e+00    2.772284e+00
  9.704132e+00    2.750859e+00
  9.735883e+00    2.675509e+00
  9.767634e+00    2.765526e+00
  9.799385e+00    2.754832e+00
  9.831137e+00    2.689087e+00
  9.862888e+00    2.706031e+00
  9.894639e+00    2.666713e+00
  9.926390e+00    2.669463e+00
  9.958141e+00    2.709131e+00
  9.989892e+00    2.710924e+00
  1.002164e+01    2.682716e+00
  1.005339e+01    2.603418e+00
  1.008515e+01    2.612303e+00
  1.011690e+01    2.707765e+00
  1.014865e+01    2.698924e+00
  1.018040e+01    2.665195e+00
  1.021215e+01    2.657840e+00
  1.024390e+01    2.627196e+00
  1.027565e+01    2.634044e+00
  1.030740e+01    2.686320e+00
  1.033915e+01    2.646338e+00
  1.037091e+01    2.623834e+00
  1.040266e+01    2.647753e+00
  1.043441e+01    2.629822e+00
  1.046616e+01    2.635109e+00
  1.049791e+01    2.604785e+00
  1.052966e+01    2.620852e+00
  1.056141e+01    2.573885e+00
  1.059316e+01    2.614929e+00
  1.062492e+01    2.556808e+00
  1.065667e+01    2.564487e+00
  1.068842e+01    2.571901e+00
  1.072017e+01    2.542151e+00
  1.075192e+01    2.532778e+00
  1.078367e+01    2.572627e+00
  1.081542e+01    2.520488e+00
  1.084717e+01    2.510231e+00
  1.087892e+01    2.542191e+00
  1.091068e+01    2.528183e+00
  1.094243e+01    2.526604e+00
  1.097418e+01    2.500674e+00
  1.100593e+01    2.536777e+00
  1.103768e+01    2.454994e+00
  1.106943e+01    2.492536e+00
  1.110118e+01    2.549521e+00
  1.113293e+01    2.543014e+00
  1.116468e+01    2.508612e+00
  1.119644e+01    2.436118e+00
  1.122819e+01    2.472984e+00
  1.125994e+01    2.492522e+00
  1.129169e+01    2.409896e+00
  1.132344e+01    2.434633e+00
  1.135519e+01    2.424551e+00
  1.138694e+01    2.467397e+00
  1.141869e+01    2.408543e+00
  1.145045e+01    2.433901e+00
  1.148220e+01    2.439155e+00
  1.151395e+01    2.434529e+00
  1.154570e+01    2.398537e+00
  1.157745e+01    2.369372e+00
  1.160920e+01    2.391477e+00
  1.164095e+01    2.390846e+00
  1.167270e+01    2.323655e+00
  1.170445e+01    2.367024e+00
  1.173621e+01    2.373242e+00
  1.176796e+01    2.357213e+00
  1.179971e+01    2.383864e+00
  1.183146e+01    2.357870e+00
  1.186321e+01    2.376764e+00
  1.189496e+01    2.362695e+00
  1.192671e+01    2.353955e+00
  1.195846e+01    2.296201e+00
  1.199021e+01    2.327122e+00
  1.202197e+01    2.344360e+00
  1.205372e+01    2.307901e+00
  1.208547e+01    2.321801e+00
  1.211722e+01    2.335323e+00
  1.214897e+01    2.309570e+00
  1.218072e+01    2.379374e+00
  1.221247e+01    2.311507e+00
  1.224422e+01    2.325662e+00
  1.227597e+01    2.349659e+00
  1.230773e+01    2.313827e+00
  1.233948e+01    2.307446e+00
  1.237123e+01    2.325198e+00
  1.240298e+01    2.366173e+00
  1.243473e+01    2.361317e+00
  1.246648e+01    2.386582e+00
  1.249823e+01    2.407358e+00
  1.252998e+01    2.349325e+00
  1.256174e+01    2.396511e+00
  1.259349e+01    2.390502e+00
  1.262524e+01    2.396286e+00
  1.265699e+01    2.506385e+00
  1.268874e+01    2.488567e+00
  1.272049e+01    2.546990e+00
  1.275224e+01    2.559396e+00
  1.278399e+01    2.597583e+00
  1.281574e+01    2.754618e+00
  1.284750e+01    2.873205e+00
  1.287925e+01    3.014837e+00
  1.291100e+01    3.343080e+00
  1.294275e+01    3.719051e+00
  1.297450e+01    4.266867e+00
  1.300625e+01    5.272424e+00
  1.303800e+01    6.862199e+00
  1.306975e+01    9.256381e+00
  1.310150e+01    1.206934e+01
  1.313326e+01    1.497385e+01
  1.316501e+01    1.761583e+01
  1.319676e+01    1.909039e+01
  1.322851e+01    1.703452e+01
  1.326026e+01    1.258340e+01
  1.329201e+01    8.865563e+00
  1.332376e+01    6.529281e+00
  1.335551e+01    5.155759e+00
  1.338727e+01    4.241102e+00
  1.341902e+01    3.564493e+00
  1.345077e+01    3.217762e+00
  1.348252e+01    3.040722e+00
  1.351427e+01    2.742363e+00
  1.354602e+01    2.568468e+00
  1.357777e+01    2.569539e+00
  1.360952e+01    2.419793e+00
  1.364127e+01    2.375947e+00
  1.367303e+01    2.344407e+00
  1.370478e+01    2.312500e+00
  1.373653e+01    2.251523e+00
  1.376828e+01    2.216612e+00
  1.380003e+01    2.159242e+00
  1.383178e+01    2.198197e+00
  1.386353e+01    2.132575e+00
  1.389528e+01    2.108778e+00
  1.392703e+01    2.114549e+00
  1.395879e+01    2.102838e+00
  1.399054e+01    2.096223e+00
  1.402229e+01    2.035873e+00
  1.405404e+01    2.059007e+00
  1.408579e+01    2.012347e+00
  1.411754e+01    2.013579e+00
  1.414929e+01    2.032497e+00
  1.418104e+01    2.003910e+00
  1.421279e+01    2.012270e+00
  1.424455e+01    1.983699e+00
  1.427630e+01    2.025559e+00
  1.430805e+01    1.975404e+00
  1.433980e+01    1.947689e+00
  1.437155e+01    1.950759e+00
  1.440330e+01    1.949650e+00
  1.443505e+01    1.941338e+00
  1.446680e+01    1.904245e+00
  1.449856e+01    1.947538e+00
  1.453031e+01    1.923591e+00
  1.456206e+01    1.906043e+00
  1.459381e+01    1.917022e+00
  1.462556e+01    1.944911e+00
  1.465731e+01    1.953819e+00
  1.468906e+01    1.908805e+00
  1.472081e+01    1.891234e+00
  1.475256e+01    1.927667e+00
  1.478432e+01    1.883770e+00
  1.481607e+01    1.963207e+00
  1.484782e+01    1.944045e+00
  1.487957e+01    1.947554e+00
  1.491132e+01    1.986019e+00
  1.494307e+01    2.004123e+00
  1.497482e+01    2.118687e+00
  1.500657e+01    2.159247e+00
  1.503832e+01    2.301069e+00
  1.507008e+01    2.484415e+00
  1.510183e+01    2.782589e+00
  1.513358e+01    3.245222e+00
  1.516533e+01    4.022388e+00
  1.519708e+01    4.917790e+00
  1.522883e+01    5.660110e+00
  1.526058e+01    6.129669e+00
  1.529233e+01    6.413224e+00
  1.532409e+01    5.802065e+00
  1.535584e+01    4.604209e+00
  1.538759e+01    3.613846e+00
  1.541934e+01    2.956903e+00
  1.545109e+01    2.587322e+00
  1.548284e+01    2.283584e+00
  1.551459e+01    2.130634e+00
  1.554634e+01    2.013179e+00
  1.557809e+01    1.936180e+00
  1.560985e+01    1.882415e+00
  1.564160e+01    1.857540e+00
  1.567335e+01    1.804101e+00
  1.570510e+01    1.803787e+00
  1.573685e+01    1.755674e+00
  1.576860e+01    1.735471e+00
  1.580035e+01    1.715317e+00
  1.583210e+01    1.685327e+00
  1.586385e+01    1.682716e+00
  1.589561e+01    1.660333e+00
  1.592736e+01    1.677318e+00
  1.595911e+01    1.626080e+00
  1.599086e+01    1.628896e+00
  1.602261e+01    1.611702e+00
  1.605436e+01    1.632686e+00
  1.608611e+01    1.610416e+00
  1.611786e+01    1.582291e+00
  1.614961e+01    1.606161e+00
  1.618137e+01    1.585711e+00
  1.621312e+01    1.545409e+00
  1.624487e+01    1.569577e+00
  1.627662e+01    1.590782e+00
  1.630837e+01    1.517581e+00
  1.634012e+01    1.566239e+00
  1.637187e+01    1.543984e+00
  1.640362e+01    1.546892e+00
  1.643538e+01    1.545875e+00
  1.646713e+01    1.531170e+00
  1.649888e+01    1.516675e+00
  1.653063e+01    1.497477e+00
  1.656238e+01    1.510799e+00
  1.659413e+01    1.490097e+00
  1.662588e+01    1.541566e+00
  1.665763e+01    1.509997e+00
  1.668938e+01    1.486434e+00
  1.672114e+01    1.468386e+00
  1.675289e+01    1.470895e+00
  1.678464e+01    1.498273e+00
  1.681639e+01    1.496983e+00
  1.684814e+01    1.463701e+00
  1.687989e+01    1.471386e+00
  1.691164e+01    1.467078e+00
  1.694339e+01    1.459291e+00
  1.697514e+01    1.442354e+00
  1.700690e+01    1.450112e+00
  1.703865e+01    1.426528e+00
  1.707040e+01    1.429382e+00
  1.710215e+01    1.433652e+00
  1.713390e+01    1.409166e+00
  1.716565e+01    1.425423e+00
  1.719740e+01    1.427530e+00
  1.722915e+01    1.406604e+00
  1.726091e+01    1.396382e+00
  1.729266e+01    1.422718e+00
  1.732441e+01    1.397532e+00
  1.735616e+01    1.402434e+00
  1.738791e+01    1.378675e+00
  1.741966e+01    1.396362e+00
  1.745141e+01    1.363671e+00
  1.748316e+01    1.394203e+00
  1.751491e+01    1.384544e+00
  1.754667e+01    1.376706e+00
  1.757842e+01    1.377490e+00
  1.761017e+01    1.353573e+00
  1.764192e+01    1.363583e+00
  1.767367e+01    1.322131e+00
  1.770542e+01    1.332378e+00
  1.773717e+01    1.322960e+00
  1.776892e+01    1.339373e+00
  1.780067e+01    1.329235e+00
  1.783243e+01    1.360849e+00
  1.786418e+01    1.330852e+00
  1.789593e+01    1.301525e+00
  1.792768e+01    1.336623e+00
  1.795943e+01    1.343363e+00
  1.799118e+01    1.309854e+00
  1.802293e+01    1.289029e+00
  1.805468e+01    1.305562e+00
  1.808643e+01    1.323155e+00
  1.811819e+01    1.287022e+00
  1.814994e+01    1.286235e+00
  1.818169e+01    1.281058e+00
  1.821344e+01    1.254979e+00
  1.824519e+01    1.291855e+00
  1.827694e+01    1.283127e+00
  1.830869e+01    1.307846e+00
  1.834044e+01    1.270740e+00
  1.837220e+01    1.273180e+00
  1.840395e+01    1.269667e+00
  1.843570e+01    1.291448e+00
  1.846745e+01    1.275975e+00
  1.849920e+01    1.242687e+00
  1.853095e+01    1.273347e+00
  1.856270e+01    1.270245e+00
  1.859445e+01    1.238052e+00
  1.862620e+01    1.227129e+00
  1.865796e+01    1.260941e+00
  1.868971e+01    1.227397e+00
  1.872146e+01    1.254470e+00
  1.875321e+01    1.241595e+00
  1.878496e+01    1.247001e+00
  1.881671e+01    1.222024e+00
  1.884846e+01    1.224213e+00
  1.888021e+01    1.213845e+00
  1.891196e+01    1.246654e+00
  1.894372e+01    1.228083e+00
  1.897547e+01    1.182387e+00
  1.900722e+01    1.234807e+00
  1.903897e+01    1.209788e+00
  1.907072e+01    1.225664e+00
  1.910247e+01    1.198400e+00
  1.913422e+01    1.185988e+00
  1.916597e+01    1.180875e+00
  1.919773e+01    1.207085e+00
  1.922948e+01    1.210036e+00
  1.926123e+01    1.174048e+00
  1.929298e+01    1.179471e+00
  1.932473e+01    1.209053e+00
  1.935648e+01    1.170922e+00
  1.938823e+01    1.165540e+00
  1.941998e+01    1.143854e+00
  1.945173e+01    1.184572e+00
  1.948349e+01    1.163321e+00
  1.951524e+01    1.162555e+00
  1.954699e+01    1.170902e+00
  1.957874e+01    1.172183e+00
  1.961049e+01    1.154987e+00
  1.964224e+01    1.155937e+00
  1.967399e+01    1.153036e+00
  1.970574e+01    1.172204e+00
  1.973749e+01    1.148096e+00
  1.976925e+01    1.148925e+00
  1.980100e+01    1.153293e+00
  1.983275e+01    1.125411e+00
  1.986450e+01    1.144201e+00
  1.989625e+01    1.158991e+00
  1.992800e+01    1.128066e+00
  1.995975e+01    1.174832e+00
  1.999150e+01    1.122010e+00
  2.002325e+01    1.141462e+00
  2.005501e+01    1.112860e+00
  2.008676e+01    1.115572e+00
  2.011851e+01    1.136458e+00
  2.015026e+01    1.131486e+00
  2.018201e+01    1.110860e+00
  2.021376e+01    1.103972e+00
  2.024551e+01    1.113216e+00
  2.027726e+01    1.089620e+00
  2.030902e+01    1.084570e+00
  2.034077e+01    1.107113e+00
  2.037252e+01    1.090591e+00
  2.040427e+01    1.104717e+00
  2.043602e+01    1.111518e+00
  2.046777e+01    1.095844e+00
  2.049952e+01    1.078081e+00
  2.053127e+01    1.100559e+00
  2.056302e+01    1.071369e+00
  2.059478e+01    1.087839e+00
  2.062653e+01    1.075133e+00
  2.065828e+01    1.100326e+00
  2.069003e+01    1.090736e+00
  2.072178e+01    1.090388e+00
  2.075353e+01    1.089624e+00
  2.078528e+01    1.095230e+00
  2.081703e+01    1.118291e+00
  2.084878e+01    1.097554e+00
  2.088054e+01    1.071794e+00
  2.091229e+01    1.078474e+00
  2.094404e+01    1.087482e+00
  2.097579e+01    1.087872e+00
  2.100754e+01    1.069146e+00
  2.103929e+01    1.112407e+00
  2.107104e+01    1.098542e+00
  2.110279e+01    1.077308e+00
  2.113455e+01    1.078103e+00
  2.116630e+01    1.093363e+00
  2.119805e+01    1.095199e+00
  2.122980e+01    1.096591e+00
  2.126155e+01    1.144763e+00
  2.129330e+01    1.143342e+00
  2.132505e+01    1.144293e+00
  2.135680e+01    1.177248e+00
  2.138855e+01    1.185444e+00
  2.142031e+01    1.203567e+00
  2.145206e+01    1.217623e+00
  2.148381e+01    1.244353e+00
  2.151556e+01    1.315965e+00
  2.154731e+01    1.379569e+00
  2.157906e+01    1.439907e+00
  2.161081e+01    1.572616e+00
  2.164256e+01    1.717275e+00
  2.167431e+01    2.001029e+00
  2.170607e+01    2.420390e+00
  2.173782e+01    2.927666e+00
  2.176957e+01    3.855228e+00
  2.180132e+01    5.062406e+00
  2.183307e+01    6.529997e+00
  2.186482e+01    8.225390e+00
  2.189657e+01    9.789759e+00
  2.192832e+01    1.049745e+01
  2.196007e+01    9.555020e+00
  2.199183e+01    7.441183e+00
  2.202358e+01    5.334786e+00
  2.205533e+01    3.840053e+00
  2.208708e+01    2.919394e+00
  2.211883e+01    2.377201e+00
  2.215058e+01    1.979739e+00
  2.218233e+01    1.746163e+00
  2.221408e+01    1.553729e+00
  2.224584e+01    1.391869e+00
  2.227759e+01    1.329485e+00
  2.230934e+01    1.266159e+00
  2.234109e+01    1.227241e+00
  2.237284e+01    1.155378e+00
  2.240459e+01    1.132926e+00
  2.243634e+01    1.125221e+00
  2.246809e+01    1.078572e+00
  2.249984e+01    1.033521e+00
  2.253160e+01    1.052172e+00
  2.256335e+01    1.030603e+00
  2.259510e+01    1.021164e+00
  2.262685e+01    9.788308e-01
  2.265860e+01    9.816673e-01
  2.269035e+01    9.735001e-01
  2.272210e+01    9.702997e-01
  2.275385e+01    9.366706e-01
  2.278560e+01    9.441954e-01
  2.281736e+01    9.376855e-01
  2.284911e+01    9.496652e-01
  2.288086e+01    9.574874e-01
  2.291261e+01    9.380777e-01
  2.294436e+01    9.278935e-01
  2.297611e+01    9.162476e-01
  2.300786e+01    9.000190e-01
  2.303961e+01    9.058990e-01
  2.307137e+01    8.858745e-01
  2.310312e+01    9.081378e-01
  2.313487e+01    9.031323e-01
  2.316662e+01    8.729594e-01
  2.319837e+01    8.762284e-01
  2.323012e+01    8.733240e-01
  2.326187e+01    8.812686e-01
  2.329362e+01    8.725653e-01
  2.332537e+01    8.818175e-01
  2.335713e+01    8.715366e-01
  2.338888e+01    8.887108e-01
  2.342063e+01    8.711299e-01
  2.345238e+01    8.874573e-01
  2.348413e+01    8.644807e-01
  2.351588e+01    8.705241e-01
  2.354763e+01    8.387047e-01
  2.357938e+01    8.515874e-01
  2.361113e+01    8.463897e-01
  2.364289e+01    8.366082e-01
  2.367464e+01    8.421245e-01
  2.370639e+01    8.265768e-01
  2.373814e+01    8.364223e-01
  2.376989e+01    8.039188e-01
  2.380164e+01    8.050039e-01
  2.383339e+01    8.259663e-01
  2.386514e+01    8.219619e-01
  2.389689e+01    8.227798e-01
  2.392865e+01    8.110979e-01
  2.396040e+01    8.026834e-01
  2.399215e+01    8.024293e-01
  2.402390e+01    8.026809e-01
  2.405565e+01    8.212944e-01
  2.408740e+01    7.689248e-01
  2.411915e+01    7.881327e-01
  2.415090e+01    8.003495e-01
  2.418266e+01    7.845203e-01
  2.421441e+01    7.917738e-01
  2.424616e+01    7.745445e-01
  2.427791e+01    8.094473e-01
  2.430966e+01    7.921553e-01
  2.434141e+01    8.116490e-01
  2.437316e+01    7.917954e-01
  2.440491e+01    8.083294e-01
  2.443666e+01    7.878295e-01
  2.446842e+01    8.054085e-01
  2.450017e+01    7.893065e-01
  2.453192e+01    8.048955e-01
  2.456367e+01    8.041594e-01
  2.459542e+01    7.831573e-01
  2.462717e+01    7.903332e-01
  2.465892e+01    8.030969e-01
  2.469067e+01    7.879403e-01
  2.472242e+01    8.067189e-01
  2.475418e+01    8.011466e-01
  2.478593e+01    7.997836e-01
  2.481768e+01    7.846638e-01
  2.484943e+01    8.040735e-01
  2.488118e+01    7.775152e-01
  2.491293e+01    7.961046e-01
  2.494468e+01    8.114625e-01
  2.497643e+01    7.829840e-01
  2.500819e+01    7.965564e-01
  2.503994e+01    8.256224e-01
  2.507169e+01    8.217133e-01
  2.510344e+01    8.317268e-01
  2.513519e+01    8.194463e-01
  2.516694e+01    8.169485e-01
  2.519869e+01    8.642951e-01
  2.523044e+01    8.659410e-01
  2.526219e+01    8.758454e-01
  2.529395e+01    8.804382e-01
  2.532570e+01    8.665274e-01
  2.535745e+01    8.821445e-01
  2.538920e+01    9.076364e-01
  2.542095e+01    9.317433e-01
  2.545270e+01    9.521294e-01
  2.548445e+01    9.557378e-01
  2.551620e+01    9.738024e-01
  2.554795e+01    1.001440e+00
  2.557971e+01    1.055728e+00
  2.561146e+01    1.101457e+00
  2.564321e+01    1.166119e+00
  2.567496e+01    1.245685e+00
  2.570671e+01    1.416935e+00
  2.573846e+01    1.602455e+00
  2.577021e+01    1.883139e+00
  2.580196e+01    2.295558e+00
  2.583371e+01    2.924067e+00
  2.586547e+01    3.844429e+00
  2.589722e+01    5.075685e+00
  2.592897e+01    6.586858e+00
  2.596072e+01    7.963838e+00
  2.599247e+01    8.704897e+00
  2.602422e+01    8.198897e+00
  2.605597e+01    6.645535e+00
  2.608772e+01    4.840475e+00
  2.611948e+01    3.546100e+00
  2.615123e+01    2.723307e+00
  2.618298e+01    2.159284e+00
  2.621473e+01    1.774439e+00
  2.624648e+01    1.587913e+00
  2.627823e+01    1.403850e+00
  2.630998e+01    1.266949e+00
  2.634173e+01    1.185259e+00
  2.637348e+01    1.091520e+00
  2.640524e+01    1.081814e+00
  2.643699e+01    1.047372e+00
  2.646874e+01    1.000387e+00
  2.650049e+01    9.518697e-01
  2.653224e+01    9.672672e-01
  2.656399e+01    9.340695e-01
  2.659574e+01    9.314186e-01
  2.662749e+01    9.260857e-01
  2.665924e+01    9.247001e-01
  2.669100e+01    9.276838e-01
  2.672275e+01    9.291624e-01
  2.675450e+01    9.263989e-01
  2.678625e+01    9.117174e-01
  2.681800e+01    9.274869e-01
  2.684975e+01    9.191471e-01
  2.688150e+01    9.107416e-01
  2.691325e+01    9.446316e-01
  2.694501e+01    9.634048e-01
  2.697676e+01    9.832987e-01
  2.700851e+01    1.009909e+00
  2.704026e+01    1.076166e+00
  2.707201e+01    1.154421e+00
  2.710376e+01    1.283966e+00
  2.713551e+01    1.482917e+00
  2.716726e+01    1.771222e+00
  2.719901e+01    2.135884e+00
  2.723077e+01    2.389650e+00
  2.726252e+01    2.501598e+00
  2.729427e+01    2.355820e+00
  2.732602e+01    1.954547e+00
  2.735777e+01    1.613351e+00
  2.738952e+01    1.360691e+00
  2.742127e+01    1.197166e+00
  2.745302e+01    1.104248e+00
  2.748477e+01    1.008335e+00
  2.751653e+01    9.677860e-01
  2.754828e+01    9.198253e-01
  2.758003e+01    9.017389e-01
  2.761178e+01    8.489174e-01
  2.764353e+01    8.653708e-01
  2.767528e+01    8.495587e-01
  2.770703e+01    8.442537e-01
  2.773878e+01    8.290803e-01
  2.777054e+01    8.518916e-01
  2.780229e+01    8.336095e-01
  2.783404e+01    7.988412e-01
  2.786579e+01    8.099616e-01
  2.789754e+01    8.410761e-01
  2.792929e+01    8.239882e-01
  2.796104e+01    7.931737e-01
  2.799279e+01    8.110018e-01
  2.802454e+01    8.306291e-01
  2.805630e+01    7.926815e-01
  2.808805e+01    8.017825e-01
  2.811980e+01    7.931910e-01
  2.815155e+01    7.863256e-01
  2.818330e+01    7.828829e-01
  2.821505e+01    8.030676e-01
  2.824680e+01    7.662673e-01
  2.827855e+01    7.950288e-01
  2.831030e+01    7.877609e-01
  2.834206e+01    7.827028e-01
  2.837381e+01    7.875670e-01
  2.840556e+01    7.813060e-01
  2.843731e+01    7.844808e-01
  2.846906e+01    7.824107e-01
  2.850081e+01    7.536318e-01
  2.853256e+01    7.690291e-01
  2.856431e+01    7.625411e-01
  2.859606e+01    7.695915e-01
  2.862782e+01    7.528456e-01
  2.865957e+01    7.725649e-01
  2.869132e+01    7.560186e-01
  2.872307e+01    7.540889e-01
  2.875482e+01    7.604765e-01
  2.878657e+01    7.700403e-01
  2.881832e+01    7.624372e-01
  2.885007e+01    7.502367e-01
  2.888183e+01    7.377220e-01
  2.891358e+01    7.296058e-01
  2.894533e+01    7.406746e-01
  2.897708e+01    7.627954e-01
  2.900883e+01    7.624118e-01
  2.904058e+01    7.594453e-01
  2.907233e+01    7.437671e-01
  2.910408e+01    7.481014e-01
  2.913583e+01    7.409748e-01
  2.916759e+01    7.236894e-01
  2.919934e+01    7.507889e-01
  2.923109e+01    7.214415e-01
  2.926284e+01    7.390750e-01
  2.929459e+01    7.547966e-01
  2.932634e+01    7.332613e-01
  2.935809e+01    7.428144e-01
  2.938984e+01    7.454761e-01
  2.942159e+01    7.541382e-01
  2.945335e+01    7.366394e-01
  2.948510e+01    7.189443e-01
  2.951685e+01    7.235729e-01
  2.954860e+01    7.318766e-01
  2.958035e+01    7.033067e-01
  2.961210e+01    7.407234e-01
  2.964385e+01    7.359085e-01
  2.967560e+01    7.408932e-01
  2.970736e+01    7.062953e-01
  2.973911e+01    7.215108e-01
  2.977086e+01    7.362314e-01
  2.980261e+01    7.117628e-01
  2.983436e+01    7.206997e-01
  2.986611e+01    7.310163e-01
  2.989786e+01    7.328594e-01
  2.992961e+01    7.355210e-01
  2.996136e+01    7.352057e-01
  2.999312e+01    7.398746e-01
  3.002487e+01    7.710708e-01
  3.005662e+01    7.559409e-01
  3.008837e+01    7.312711e-01
  3.012012e+01    7.502620e-01
  3.015187e+01    7.311797e-01
  3.018362e+01    7.145835e-01
  3.021537e+01    7.451851e-01
  3.024712e+01    7.149619e-01
  3.027888e+01    7.225814e-01
  3.031063e+01    7.112209e-01
  3.034238e+01    6.968503e-01
  3.037413e+01    7.242604e-01
  3.040588e+01    7.205271e-01
  3.043763e+01    7.367998e-01
  3.046938e+01    7.390902e-01
  3.050113e+01    7.047921e-01
  3.053288e+01    6.999937e-01
  3.056464e+01    7.105755e-01
  3.059639e+01    7.288697e-01
  3.062814e+01    7.238145e-01
  3.065989e+01    7.258875e-01
  3.069164e+01    7.353033e-01
  3.072339e+01    7.279438e-01
  3.075514e+01    7.243342e-01
  3.078689e+01    7.245100e-01
  3.081865e+01    7.148332e-01
  3.085040e+01    7.075506e-01
  3.088215e+01    7.103366e-01
  3.091390e+01    7.110909e-01
  3.094565e+01    7.293813e-01
  3.097740e+01    7.286704e-01
  3.100915e+01    7.238069e-01
  3.104090e+01    7.345279e-01
  3.107265e+01    7.216127e-01
  3.110441e+01    7.403818e-01
  3.113616e+01    7.399244e-01
  3.116791e+01    7.282109e-01
  3.119966e+01    7.372744e-01
  3.123141e+01    7.300482e-01
  3.126316e+01    7.360256e-01
  3.129491e+01    7.385660e-01
  3.132666e+01    7.448619e-01
  3.135841e+01    7.462975e-01
  3.139017e+01    7.559809e-01
  3.142192e+01    7.763578e-01
  3.145367e+01    7.600788e-01
  3.148542e+01    7.675008e-01
  3.151717e+01    7.584243e-01
  3.154892e+01    8.041943e-01
  3.158067e+01    7.937930e-01
  3.161242e+01    8.244377e-01
  3.164418e+01    8.552075e-01
  3.167593e+01    8.711320e-01
  3.170768e+01    9.488657e-01
  3.173943e+01    9.847813e-01
  3.177118e+01    1.100425e+00
  3.180293e+01    1.236823e+00
  3.183468e+01    1.464317e+00
  3.186643e+01    1.767994e+00
  3.189818e+01    2.093730e+00
  3.192994e+01    2.444631e+00
  3.196169e+01    2.472925e+00
  3.199344e+01    2.270420e+00
  3.202519e+01    1.908779e+00
  3.205694e+01    1.535892e+00
  3.208869e+01    1.256443e+00
  3.212044e+01    1.111763e+00
  3.215219e+01    1.026389e+00
  3.218394e+01    9.157647e-01
  3.221570e+01    8.893059e-01
  3.224745e+01    8.283688e-01
  3.227920e+01    8.309093e-01
  3.231095e+01    8.007513e-01
  3.234270e+01    7.881663e-01
  3.237445e+01    7.449084e-01
  3.240620e+01    7.586192e-01
  3.243795e+01    7.698666e-01
  3.246970e+01    7.526918e-01
  3.250146e+01    7.592119e-01
  3.253321e+01    7.346451e-01
  3.254908e+01    7.426793e-01