File: XRD/Activation ramp/2024-07-27_002_Ru-CGO-ex_Activtation_ramp_000002_data_000013.dat
# == pyFAI calibration ==
# Distance Sample to Detector: 0.4 m
# PONI: 9.750e-02, 1.135e-01 m
# Rotations: -0.000175 0.000000 -0.000000 rad
#
# == Fit2d calibration ==
# Distance Sample-beamCenter: 400.000 mm
# Center: x=1514.000, y=1300.000 pix
# Tilt: 0.010 deg  TiltPlanRot: 0.010 deg
#
# Detector Detector	 Spline= None	 PixelSize= 7.500e-05, 7.500e-05 m
#    Detector has a mask: False
#    Detector has a dark current: False
#    detector has a flat field: False
#
# Wavelength: 6.888e-11 m
# Mask applied: user provided
# Dark current applied: False
# Flat field applied: False
# Polarization factor: 0.99
# Normalization factor: 1.0
# --> /home/myspot/data/2024_07_Rosario/Ru-CGO-ex/2024-07-27_002_Ru-CGO-ex_Activtation_ramp_000002_data_000013.dat
#       q_nm^-1             I
  2.003187e-02    0.000000e+00
  5.178302e-02    0.000000e+00
  8.353417e-02    1.524738e-01
  1.152853e-01    9.475238e-02
  1.470365e-01    2.809671e-02
  1.787876e-01    3.826435e-02
  2.105388e-01    2.691548e-02
  2.422899e-01    3.062022e-02
  2.740411e-01    5.027169e-02
  3.057922e-01    6.846901e-02
  3.375433e-01    4.267794e-02
  3.692945e-01    1.443405e-02
  4.010456e-01    5.635174e-02
  4.327968e-01    2.845332e-02
  4.645479e-01    7.336858e-02
  4.962991e-01    3.047533e-02
  5.280502e-01    3.977342e-02
  5.598014e-01    3.283222e-02
  5.915525e-01    5.266163e-02
  6.233037e-01    2.363959e-02
  6.550548e-01    4.092959e-02
  6.868060e-01    2.043709e-02
  7.185571e-01    2.827912e-02
  7.503083e-01    3.256668e-02
  7.820594e-01    8.261269e-02
  8.138106e-01    1.731421e-01
  8.455617e-01    2.358662e-01
  8.773129e-01    4.516013e-01
  9.090640e-01    6.141269e-01
  9.408152e-01    7.521650e-01
  9.725663e-01    9.024183e-01
  1.004317e+00    1.017209e+00
  1.036069e+00    1.264315e+00
  1.067820e+00    1.366231e+00
  1.099571e+00    1.407239e+00
  1.131322e+00    1.532652e+00
  1.163073e+00    1.417526e+00
  1.194824e+00    1.613972e+00
  1.226575e+00    2.043824e+00
  1.258327e+00    2.396034e+00
  1.290078e+00    2.501090e+00
  1.321829e+00    2.581347e+00
  1.353580e+00    2.611993e+00
  1.385331e+00    2.771379e+00
  1.417082e+00    2.775898e+00
  1.448834e+00    2.656965e+00
  1.480585e+00    2.955743e+00
  1.512336e+00    2.913409e+00
  1.544087e+00    3.038164e+00
  1.575838e+00    3.113648e+00
  1.607589e+00    2.904123e+00
  1.639340e+00    3.093024e+00
  1.671092e+00    2.911232e+00
  1.702843e+00    2.896803e+00
  1.734594e+00    2.857634e+00
  1.766345e+00    2.876389e+00
  1.798096e+00    2.822368e+00
  1.829847e+00    2.847332e+00
  1.861598e+00    2.904263e+00
  1.893350e+00    2.764685e+00
  1.925101e+00    2.742408e+00
  1.956852e+00    2.867704e+00
  1.988603e+00    2.775486e+00
  2.020354e+00    2.876718e+00
  2.052105e+00    2.807069e+00
  2.083856e+00    2.733031e+00
  2.115608e+00    2.867379e+00
  2.147359e+00    2.689555e+00
  2.179110e+00    2.790797e+00
  2.210861e+00    2.760175e+00
  2.242612e+00    2.738422e+00
  2.274363e+00    2.784939e+00
  2.306115e+00    2.840139e+00
  2.337866e+00    2.791627e+00
  2.369617e+00    2.745496e+00
  2.401368e+00    2.796554e+00
  2.433119e+00    2.882943e+00
  2.464870e+00    2.806231e+00
  2.496621e+00    2.802213e+00
  2.528373e+00    2.788272e+00
  2.560124e+00    2.750501e+00
  2.591875e+00    2.919276e+00
  2.623626e+00    2.792608e+00
  2.655377e+00    2.932102e+00
  2.687128e+00    2.909980e+00
  2.718879e+00    2.807346e+00
  2.750631e+00    2.884049e+00
  2.782382e+00    2.788058e+00
  2.814133e+00    2.851130e+00
  2.845884e+00    2.943594e+00
  2.877635e+00    2.957947e+00
  2.909386e+00    2.850745e+00
  2.941137e+00    2.983997e+00
  2.972889e+00    2.943621e+00
  3.004640e+00    2.946450e+00
  3.036391e+00    2.924419e+00
  3.068142e+00    2.999496e+00
  3.099893e+00    2.944080e+00
  3.131644e+00    2.888166e+00
  3.163395e+00    2.900440e+00
  3.195147e+00    2.845913e+00
  3.226898e+00    2.865696e+00
  3.258649e+00    2.902148e+00
  3.290400e+00    2.977087e+00
  3.322151e+00    2.857590e+00
  3.353902e+00    2.953667e+00
  3.385654e+00    2.969546e+00
  3.417405e+00    2.904993e+00
  3.449156e+00    3.038261e+00
  3.480907e+00    3.032490e+00
  3.512658e+00    2.964087e+00
  3.544409e+00    2.940869e+00
  3.576160e+00    2.989049e+00
  3.607912e+00    3.020663e+00
  3.639663e+00    2.999796e+00
  3.671414e+00    3.057902e+00
  3.703165e+00    2.994793e+00
  3.734916e+00    2.997272e+00
  3.766667e+00    3.012349e+00
  3.798418e+00    2.927615e+00
  3.830170e+00    3.119461e+00
  3.861921e+00    2.971979e+00
  3.893672e+00    2.999288e+00
  3.925423e+00    2.925939e+00
  3.957174e+00    3.051403e+00
  3.988925e+00    3.025036e+00
  4.020676e+00    3.000873e+00
  4.052428e+00    3.074677e+00
  4.084179e+00    2.954396e+00
  4.115930e+00    3.002004e+00
  4.147681e+00    3.029802e+00
  4.179432e+00    3.006794e+00
  4.211183e+00    3.100787e+00
  4.242935e+00    2.988648e+00
  4.274686e+00    3.008144e+00
  4.306437e+00    3.055531e+00
  4.338188e+00    3.066400e+00
  4.369939e+00    3.035101e+00
  4.401690e+00    3.004481e+00
  4.433441e+00    3.108070e+00
  4.465193e+00    3.000756e+00
  4.496944e+00    3.014041e+00
  4.528695e+00    3.051210e+00
  4.560446e+00    3.098194e+00
  4.592197e+00    3.089521e+00
  4.623948e+00    3.026489e+00
  4.655699e+00    3.165815e+00
  4.687451e+00    3.158223e+00
  4.719202e+00    3.099502e+00
  4.750953e+00    3.120698e+00
  4.782704e+00    3.134597e+00
  4.814455e+00    3.118553e+00
  4.846206e+00    3.085403e+00
  4.877957e+00    3.166436e+00
  4.909709e+00    3.089221e+00
  4.941460e+00    3.065068e+00
  4.973211e+00    3.091468e+00
  5.004962e+00    3.097359e+00
  5.036713e+00    3.165892e+00
  5.068464e+00    3.126867e+00
  5.100216e+00    3.073696e+00
  5.131967e+00    3.128912e+00
  5.163718e+00    3.147063e+00
  5.195469e+00    3.102620e+00
  5.227220e+00    3.179258e+00
  5.258971e+00    3.216502e+00
  5.290722e+00    3.167318e+00
  5.322474e+00    3.099992e+00
  5.354225e+00    3.190705e+00
  5.385976e+00    3.081596e+00
  5.417727e+00    3.109598e+00
  5.449478e+00    3.085888e+00
  5.481229e+00    3.043586e+00
  5.512980e+00    3.082346e+00
  5.544732e+00    3.095238e+00
  5.576483e+00    3.066004e+00
  5.608234e+00    3.054893e+00
  5.639985e+00    3.038231e+00
  5.671736e+00    3.177099e+00
  5.703487e+00    3.119360e+00
  5.735238e+00    3.027874e+00
  5.766990e+00    3.080276e+00
  5.798741e+00    3.016362e+00
  5.830492e+00    3.021976e+00
  5.862243e+00    3.116738e+00
  5.893994e+00    3.074882e+00
  5.925745e+00    3.085270e+00
  5.957497e+00    3.035232e+00
  5.989248e+00    3.051451e+00
  6.020999e+00    3.022299e+00
  6.052750e+00    3.137351e+00
  6.084501e+00    3.049384e+00
  6.116252e+00    3.042737e+00
  6.148003e+00    3.021937e+00
  6.179755e+00    3.072869e+00
  6.211506e+00    3.035533e+00
  6.243257e+00    3.102342e+00
  6.275008e+00    3.023252e+00
  6.306759e+00    3.173546e+00
  6.338510e+00    3.045617e+00
  6.370261e+00    3.114110e+00
  6.402013e+00    3.021947e+00
  6.433764e+00    3.070322e+00
  6.465515e+00    3.001973e+00
  6.497266e+00    3.101954e+00
  6.529017e+00    3.089241e+00
  6.560768e+00    3.056947e+00
  6.592519e+00    3.093411e+00
  6.624271e+00    3.010137e+00
  6.656022e+00    3.041117e+00
  6.687773e+00    3.058724e+00
  6.719524e+00    3.073826e+00
  6.751275e+00    3.021502e+00
  6.783026e+00    2.971366e+00
  6.814777e+00    3.011467e+00
  6.846529e+00    3.082711e+00
  6.878280e+00    3.000655e+00
  6.910031e+00    3.042651e+00
  6.941782e+00    3.028083e+00
  6.973533e+00    3.060063e+00
  7.005284e+00    2.997378e+00
  7.037036e+00    3.002690e+00
  7.068787e+00    3.065035e+00
  7.100538e+00    2.967041e+00
  7.132289e+00    3.035366e+00
  7.164040e+00    2.988063e+00
  7.195791e+00    3.005358e+00
  7.227542e+00    2.984363e+00
  7.259294e+00    3.004601e+00
  7.291045e+00    3.007406e+00
  7.322796e+00    2.997156e+00
  7.354547e+00    3.027516e+00
  7.386298e+00    2.974305e+00
  7.418049e+00    2.987181e+00
  7.449800e+00    2.988111e+00
  7.481552e+00    2.992914e+00
  7.513303e+00    2.962263e+00
  7.545054e+00    3.063194e+00
  7.576805e+00    3.053821e+00
  7.608556e+00    2.980543e+00
  7.640307e+00    3.014029e+00
  7.672058e+00    3.003248e+00
  7.703810e+00    2.999878e+00
  7.735561e+00    2.992612e+00
  7.767312e+00    2.939167e+00
  7.799063e+00    2.972048e+00
  7.830814e+00    3.009791e+00
  7.862565e+00    2.977914e+00
  7.894317e+00    2.963892e+00
  7.926068e+00    2.940133e+00
  7.957819e+00    3.009785e+00
  7.989570e+00    2.908030e+00
  8.021321e+00    2.970151e+00
  8.053072e+00    2.894318e+00
  8.084823e+00    2.909564e+00
  8.116575e+00    2.965565e+00
  8.148326e+00    2.975893e+00
  8.180077e+00    2.951344e+00
  8.211828e+00    2.971991e+00
  8.243579e+00    2.996307e+00
  8.275330e+00    2.964578e+00
  8.307081e+00    2.920823e+00
  8.338833e+00    2.902688e+00
  8.370584e+00    2.906445e+00
  8.402335e+00    2.966361e+00
  8.434086e+00    2.922036e+00
  8.465837e+00    2.830449e+00
  8.497588e+00    2.904175e+00
  8.529339e+00    2.824198e+00
  8.561091e+00    2.908292e+00
  8.592842e+00    2.896941e+00
  8.624593e+00    2.845829e+00
  8.656344e+00    2.876690e+00
  8.688095e+00    2.919865e+00
  8.719846e+00    2.871916e+00
  8.751598e+00    2.877597e+00
  8.783349e+00    2.908395e+00
  8.815100e+00    2.819278e+00
  8.846851e+00    2.823688e+00
  8.878602e+00    2.819865e+00
  8.910353e+00    2.873468e+00
  8.942104e+00    2.842370e+00
  8.973856e+00    2.826087e+00
  9.005607e+00    2.828203e+00
  9.037358e+00    2.901747e+00
  9.069109e+00    2.880136e+00
  9.100860e+00    2.849424e+00
  9.132611e+00    2.815930e+00
  9.164362e+00    2.778623e+00
  9.196114e+00    2.814296e+00
  9.227865e+00    2.805311e+00
  9.259616e+00    2.787414e+00
  9.291367e+00    2.818742e+00
  9.323118e+00    2.811845e+00
  9.354869e+00    2.757506e+00
  9.386620e+00    2.822492e+00
  9.418372e+00    2.787452e+00
  9.450123e+00    2.794143e+00
  9.481874e+00    2.746768e+00
  9.513625e+00    2.753981e+00
  9.545376e+00    2.789217e+00
  9.577127e+00    2.791432e+00
  9.608878e+00    2.825738e+00
  9.640630e+00    2.799185e+00
  9.672381e+00    2.695055e+00
  9.704132e+00    2.720045e+00
  9.735883e+00    2.818625e+00
  9.767634e+00    2.736408e+00
  9.799385e+00    2.743296e+00
  9.831137e+00    2.770933e+00
  9.862888e+00    2.703395e+00
  9.894639e+00    2.772274e+00
  9.926390e+00    2.698382e+00
  9.958141e+00    2.729533e+00
  9.989892e+00    2.652860e+00
  1.002164e+01    2.690289e+00
  1.005339e+01    2.619923e+00
  1.008515e+01    2.664706e+00
  1.011690e+01    2.647749e+00
  1.014865e+01    2.659584e+00
  1.018040e+01    2.635137e+00
  1.021215e+01    2.658910e+00
  1.024390e+01    2.612700e+00
  1.027565e+01    2.683296e+00
  1.030740e+01    2.631944e+00
  1.033915e+01    2.659229e+00
  1.037091e+01    2.596640e+00
  1.040266e+01    2.666193e+00
  1.043441e+01    2.621712e+00
  1.046616e+01    2.577087e+00
  1.049791e+01    2.637811e+00
  1.052966e+01    2.591917e+00
  1.056141e+01    2.587214e+00
  1.059316e+01    2.584826e+00
  1.062492e+01    2.594199e+00
  1.065667e+01    2.592545e+00
  1.068842e+01    2.586869e+00
  1.072017e+01    2.612720e+00
  1.075192e+01    2.593078e+00
  1.078367e+01    2.563529e+00
  1.081542e+01    2.567010e+00
  1.084717e+01    2.561765e+00
  1.087892e+01    2.504039e+00
  1.091068e+01    2.589492e+00
  1.094243e+01    2.545636e+00
  1.097418e+01    2.511241e+00
  1.100593e+01    2.503075e+00
  1.103768e+01    2.482724e+00
  1.106943e+01    2.529296e+00
  1.110118e+01    2.493957e+00
  1.113293e+01    2.477677e+00
  1.116468e+01    2.495813e+00
  1.119644e+01    2.525410e+00
  1.122819e+01    2.432207e+00
  1.125994e+01    2.459062e+00
  1.129169e+01    2.467341e+00
  1.132344e+01    2.423758e+00
  1.135519e+01    2.449500e+00
  1.138694e+01    2.447799e+00
  1.141869e+01    2.467824e+00
  1.145045e+01    2.374658e+00
  1.148220e+01    2.419263e+00
  1.151395e+01    2.412577e+00
  1.154570e+01    2.465690e+00
  1.157745e+01    2.407943e+00
  1.160920e+01    2.402849e+00
  1.164095e+01    2.376509e+00
  1.167270e+01    2.383451e+00
  1.170445e+01    2.343548e+00
  1.173621e+01    2.368120e+00
  1.176796e+01    2.347260e+00
  1.179971e+01    2.380013e+00
  1.183146e+01    2.415509e+00
  1.186321e+01    2.334996e+00
  1.189496e+01    2.308432e+00
  1.192671e+01    2.380993e+00
  1.195846e+01    2.388934e+00
  1.199021e+01    2.320402e+00
  1.202197e+01    2.360710e+00
  1.205372e+01    2.346676e+00
  1.208547e+01    2.310649e+00
  1.211722e+01    2.331537e+00
  1.214897e+01    2.351026e+00
  1.218072e+01    2.371175e+00
  1.221247e+01    2.343018e+00
  1.224422e+01    2.325844e+00
  1.227597e+01    2.313339e+00
  1.230773e+01    2.354996e+00
  1.233948e+01    2.404675e+00
  1.237123e+01    2.370743e+00
  1.240298e+01    2.351358e+00
  1.243473e+01    2.319600e+00
  1.246648e+01    2.355793e+00
  1.249823e+01    2.335270e+00
  1.252998e+01    2.397944e+00
  1.256174e+01    2.396122e+00
  1.259349e+01    2.423095e+00
  1.262524e+01    2.411687e+00
  1.265699e+01    2.436056e+00
  1.268874e+01    2.506333e+00
  1.272049e+01    2.526667e+00
  1.275224e+01    2.537540e+00
  1.278399e+01    2.664318e+00
  1.281574e+01    2.705552e+00
  1.284750e+01    2.863039e+00
  1.287925e+01    3.042774e+00
  1.291100e+01    3.268050e+00
  1.294275e+01    3.689867e+00
  1.297450e+01    4.185796e+00
  1.300625e+01    5.070081e+00
  1.303800e+01    6.603261e+00
  1.306975e+01    8.870258e+00
  1.310150e+01    1.196195e+01
  1.313326e+01    1.488379e+01
  1.316501e+01    1.797002e+01
  1.319676e+01    1.982500e+01
  1.322851e+01    1.867143e+01
  1.326026e+01    1.419292e+01
  1.329201e+01    9.992712e+00
  1.332376e+01    7.303486e+00
  1.335551e+01    5.578290e+00
  1.338727e+01    4.555622e+00
  1.341902e+01    3.870056e+00
  1.345077e+01    3.424834e+00
  1.348252e+01    3.045505e+00
  1.351427e+01    2.865681e+00
  1.354602e+01    2.683505e+00
  1.357777e+01    2.580453e+00
  1.360952e+01    2.474215e+00
  1.364127e+01    2.472953e+00
  1.367303e+01    2.370625e+00
  1.370478e+01    2.315613e+00
  1.373653e+01    2.247530e+00
  1.376828e+01    2.230941e+00
  1.380003e+01    2.234485e+00
  1.383178e+01    2.200642e+00
  1.386353e+01    2.174762e+00
  1.389528e+01    2.155452e+00
  1.392703e+01    2.155376e+00
  1.395879e+01    2.114831e+00
  1.399054e+01    2.100922e+00
  1.402229e+01    2.070805e+00
  1.405404e+01    2.072245e+00
  1.408579e+01    2.078286e+00
  1.411754e+01    2.049820e+00
  1.414929e+01    2.001962e+00
  1.418104e+01    2.065292e+00
  1.421279e+01    2.046658e+00
  1.424455e+01    2.059404e+00
  1.427630e+01    1.971165e+00
  1.430805e+01    2.023232e+00
  1.433980e+01    1.996778e+00
  1.437155e+01    1.933758e+00
  1.440330e+01    1.953328e+00
  1.443505e+01    1.956905e+00
  1.446680e+01    1.939585e+00
  1.449856e+01    1.944472e+00
  1.453031e+01    1.960124e+00
  1.456206e+01    1.954622e+00
  1.459381e+01    1.957534e+00
  1.462556e+01    1.943516e+00
  1.465731e+01    1.919823e+00
  1.468906e+01    1.917735e+00
  1.472081e+01    1.920067e+00
  1.475256e+01    1.943441e+00
  1.478432e+01    1.913079e+00
  1.481607e+01    1.947663e+00
  1.484782e+01    1.927132e+00
  1.487957e+01    1.892870e+00
  1.491132e+01    1.986978e+00
  1.494307e+01    2.042009e+00
  1.497482e+01    2.028260e+00
  1.500657e+01    2.114325e+00
  1.503832e+01    2.249258e+00
  1.507008e+01    2.457321e+00
  1.510183e+01    2.749520e+00
  1.513358e+01    3.278936e+00
  1.516533e+01    3.903789e+00
  1.519708e+01    4.831328e+00
  1.522883e+01    5.605362e+00
  1.526058e+01    6.314881e+00
  1.529233e+01    6.545691e+00
  1.532409e+01    6.301664e+00
  1.535584e+01    5.116166e+00
  1.538759e+01    3.955373e+00
  1.541934e+01    3.179262e+00
  1.545109e+01    2.704278e+00
  1.548284e+01    2.411334e+00
  1.551459e+01    2.213528e+00
  1.554634e+01    2.072285e+00
  1.557809e+01    2.008098e+00
  1.560985e+01    1.920783e+00
  1.564160e+01    1.880557e+00
  1.567335e+01    1.802710e+00
  1.570510e+01    1.730910e+00
  1.573685e+01    1.752730e+00
  1.576860e+01    1.705136e+00
  1.580035e+01    1.697996e+00
  1.583210e+01    1.713978e+00
  1.586385e+01    1.690661e+00
  1.589561e+01    1.695751e+00
  1.592736e+01    1.623307e+00
  1.595911e+01    1.696865e+00
  1.599086e+01    1.616806e+00
  1.602261e+01    1.658024e+00
  1.605436e+01    1.608192e+00
  1.608611e+01    1.623786e+00
  1.611786e+01    1.602551e+00
  1.614961e+01    1.590332e+00
  1.618137e+01    1.610179e+00
  1.621312e+01    1.582466e+00
  1.624487e+01    1.580100e+00
  1.627662e+01    1.589068e+00
  1.630837e+01    1.559956e+00
  1.634012e+01    1.563088e+00
  1.637187e+01    1.550974e+00
  1.640362e+01    1.569123e+00
  1.643538e+01    1.533635e+00
  1.646713e+01    1.543835e+00
  1.649888e+01    1.532251e+00
  1.653063e+01    1.515592e+00
  1.656238e+01    1.528598e+00
  1.659413e+01    1.482636e+00
  1.662588e+01    1.505152e+00
  1.665763e+01    1.506578e+00
  1.668938e+01    1.493154e+00
  1.672114e+01    1.464652e+00
  1.675289e+01    1.499713e+00
  1.678464e+01    1.478083e+00
  1.681639e+01    1.488482e+00
  1.684814e+01    1.481585e+00
  1.687989e+01    1.436478e+00
  1.691164e+01    1.448976e+00
  1.694339e+01    1.441483e+00
  1.697514e+01    1.467967e+00
  1.700690e+01    1.442092e+00
  1.703865e+01    1.438267e+00
  1.707040e+01    1.455584e+00
  1.710215e+01    1.413242e+00
  1.713390e+01    1.444492e+00
  1.716565e+01    1.445878e+00
  1.719740e+01    1.406044e+00
  1.722915e+01    1.394302e+00
  1.726091e+01    1.414111e+00
  1.729266e+01    1.386809e+00
  1.732441e+01    1.392148e+00
  1.735616e+01    1.393139e+00
  1.738791e+01    1.382776e+00
  1.741966e+01    1.392428e+00
  1.745141e+01    1.378391e+00
  1.748316e+01    1.393759e+00
  1.751491e+01    1.371881e+00
  1.754667e+01    1.377100e+00
  1.757842e+01    1.351807e+00
  1.761017e+01    1.347569e+00
  1.764192e+01    1.368989e+00
  1.767367e+01    1.335656e+00
  1.770542e+01    1.358721e+00
  1.773717e+01    1.353472e+00
  1.776892e+01    1.383409e+00
  1.780067e+01    1.319625e+00
  1.783243e+01    1.374026e+00
  1.786418e+01    1.346714e+00
  1.789593e+01    1.335555e+00
  1.792768e+01    1.323901e+00
  1.795943e+01    1.309030e+00
  1.799118e+01    1.296640e+00
  1.802293e+01    1.342869e+00
  1.805468e+01    1.346541e+00
  1.808643e+01    1.288395e+00
  1.811819e+01    1.308016e+00
  1.814994e+01    1.316295e+00
  1.818169e+01    1.307774e+00
  1.821344e+01    1.280006e+00
  1.824519e+01    1.267109e+00
  1.827694e+01    1.298127e+00
  1.830869e+01    1.287547e+00
  1.834044e+01    1.282156e+00
  1.837220e+01    1.289897e+00
  1.840395e+01    1.264321e+00
  1.843570e+01    1.293365e+00
  1.846745e+01    1.292041e+00
  1.849920e+01    1.260247e+00
  1.853095e+01    1.263201e+00
  1.856270e+01    1.255076e+00
  1.859445e+01    1.242435e+00
  1.862620e+01    1.273172e+00
  1.865796e+01    1.259498e+00
  1.868971e+01    1.243708e+00
  1.872146e+01    1.256009e+00
  1.875321e+01    1.246007e+00
  1.878496e+01    1.242095e+00
  1.881671e+01    1.216285e+00
  1.884846e+01    1.244746e+00
  1.888021e+01    1.217846e+00
  1.891196e+01    1.230633e+00
  1.894372e+01    1.240384e+00
  1.897547e+01    1.211696e+00
  1.900722e+01    1.236846e+00
  1.903897e+01    1.214598e+00
  1.907072e+01    1.204518e+00
  1.910247e+01    1.186163e+00
  1.913422e+01    1.170185e+00
  1.916597e+01    1.208621e+00
  1.919773e+01    1.179558e+00
  1.922948e+01    1.231098e+00
  1.926123e+01    1.197425e+00
  1.929298e+01    1.217112e+00
  1.932473e+01    1.179695e+00
  1.935648e+01    1.206991e+00
  1.938823e+01    1.191909e+00
  1.941998e+01    1.183211e+00
  1.945173e+01    1.203698e+00
  1.948349e+01    1.179051e+00
  1.951524e+01    1.201627e+00
  1.954699e+01    1.179320e+00
  1.957874e+01    1.154128e+00
  1.961049e+01    1.169225e+00
  1.964224e+01    1.168108e+00
  1.967399e+01    1.164575e+00
  1.970574e+01    1.150633e+00
  1.973749e+01    1.137899e+00
  1.976925e+01    1.156674e+00
  1.980100e+01    1.145150e+00
  1.983275e+01    1.158645e+00
  1.986450e+01    1.131141e+00
  1.989625e+01    1.160503e+00
  1.992800e+01    1.131056e+00
  1.995975e+01    1.129591e+00
  1.999150e+01    1.155482e+00
  2.002325e+01    1.129974e+00
  2.005501e+01    1.124456e+00
  2.008676e+01    1.160020e+00
  2.011851e+01    1.156467e+00
  2.015026e+01    1.139773e+00
  2.018201e+01    1.136063e+00
  2.021376e+01    1.149069e+00
  2.024551e+01    1.111456e+00
  2.027726e+01    1.113490e+00
  2.030902e+01    1.121665e+00
  2.034077e+01    1.126466e+00
  2.037252e+01    1.114916e+00
  2.040427e+01    1.107063e+00
  2.043602e+01    1.099796e+00
  2.046777e+01    1.108168e+00
  2.049952e+01    1.091293e+00
  2.053127e+01    1.072443e+00
  2.056302e+01    1.110918e+00
  2.059478e+01    1.103246e+00
  2.062653e+01    1.109041e+00
  2.065828e+01    1.091774e+00
  2.069003e+01    1.097980e+00
  2.072178e+01    1.095016e+00
  2.075353e+01    1.084568e+00
  2.078528e+01    1.080655e+00
  2.081703e+01    1.102545e+00
  2.084878e+01    1.091067e+00
  2.088054e+01    1.114184e+00
  2.091229e+01    1.085251e+00
  2.094404e+01    1.086137e+00
  2.097579e+01    1.115650e+00
  2.100754e+01    1.079681e+00
  2.103929e+01    1.075081e+00
  2.107104e+01    1.106436e+00
  2.110279e+01    1.102452e+00
  2.113455e+01    1.125093e+00
  2.116630e+01    1.098461e+00
  2.119805e+01    1.124096e+00
  2.122980e+01    1.126669e+00
  2.126155e+01    1.140589e+00
  2.129330e+01    1.126144e+00
  2.132505e+01    1.132695e+00
  2.135680e+01    1.161982e+00
  2.138855e+01    1.161022e+00
  2.142031e+01    1.207895e+00
  2.145206e+01    1.217195e+00
  2.148381e+01    1.286992e+00
  2.151556e+01    1.304288e+00
  2.154731e+01    1.372434e+00
  2.157906e+01    1.438030e+00
  2.161081e+01    1.544335e+00
  2.164256e+01    1.694438e+00
  2.167431e+01    1.939434e+00
  2.170607e+01    2.236084e+00
  2.173782e+01    2.826587e+00
  2.176957e+01    3.551471e+00
  2.180132e+01    4.684633e+00
  2.183307e+01    6.278864e+00
  2.186482e+01    7.956829e+00
  2.189657e+01    9.664419e+00
  2.192832e+01    1.093256e+01
  2.196007e+01    1.062484e+01
  2.199183e+01    8.723135e+00
  2.202358e+01    6.301329e+00
  2.205533e+01    4.519222e+00
  2.208708e+01    3.377352e+00
  2.211883e+01    2.675493e+00
  2.215058e+01    2.159196e+00
  2.218233e+01    1.897233e+00
  2.221408e+01    1.646961e+00
  2.224584e+01    1.503618e+00
  2.227759e+01    1.378618e+00
  2.230934e+01    1.316150e+00
  2.234109e+01    1.253754e+00
  2.237284e+01    1.200496e+00
  2.240459e+01    1.149707e+00
  2.243634e+01    1.109726e+00
  2.246809e+01    1.077689e+00
  2.249984e+01    1.061925e+00
  2.253160e+01    1.021940e+00
  2.256335e+01    1.023657e+00
  2.259510e+01    1.050820e+00
  2.262685e+01    1.005900e+00
  2.265860e+01    9.882279e-01
  2.269035e+01    1.019508e+00
  2.272210e+01    9.862366e-01
  2.275385e+01    9.870460e-01
  2.278560e+01    9.642286e-01
  2.281736e+01    9.475294e-01
  2.284911e+01    9.384579e-01
  2.288086e+01    9.466187e-01
  2.291261e+01    9.448023e-01
  2.294436e+01    9.395064e-01
  2.297611e+01    9.284484e-01
  2.300786e+01    9.074304e-01
  2.303961e+01    9.047249e-01
  2.307137e+01    9.045888e-01
  2.310312e+01    8.939372e-01
  2.313487e+01    9.008114e-01
  2.316662e+01    8.609661e-01
  2.319837e+01    8.857474e-01
  2.323012e+01    9.241851e-01
  2.326187e+01    9.017639e-01
  2.329362e+01    8.925173e-01
  2.332537e+01    8.849435e-01
  2.335713e+01    8.809444e-01
  2.338888e+01    8.552195e-01
  2.342063e+01    8.888138e-01
  2.345238e+01    8.637760e-01
  2.348413e+01    8.757759e-01
  2.351588e+01    8.582971e-01
  2.354763e+01    8.515413e-01
  2.357938e+01    8.611470e-01
  2.361113e+01    8.550031e-01
  2.364289e+01    8.439979e-01
  2.367464e+01    8.520145e-01
  2.370639e+01    8.487619e-01
  2.373814e+01    8.236507e-01
  2.376989e+01    8.272465e-01
  2.380164e+01    8.295859e-01
  2.383339e+01    8.326789e-01
  2.386514e+01    7.982569e-01
  2.389689e+01    8.257446e-01
  2.392865e+01    8.144902e-01
  2.396040e+01    8.170688e-01
  2.399215e+01    8.198377e-01
  2.402390e+01    7.802685e-01
  2.405565e+01    7.960868e-01
  2.408740e+01    8.033685e-01
  2.411915e+01    7.835220e-01
  2.415090e+01    8.115672e-01
  2.418266e+01    8.055673e-01
  2.421441e+01    8.156422e-01
  2.424616e+01    7.723870e-01
  2.427791e+01    7.957734e-01
  2.430966e+01    7.859398e-01
  2.434141e+01    8.076250e-01
  2.437316e+01    7.983955e-01
  2.440491e+01    7.901708e-01
  2.443666e+01    7.984116e-01
  2.446842e+01    8.102357e-01
  2.450017e+01    8.071899e-01
  2.453192e+01    7.967156e-01
  2.456367e+01    8.166320e-01
  2.459542e+01    7.847474e-01
  2.462717e+01    7.923935e-01
  2.465892e+01    7.969453e-01
  2.469067e+01    7.958725e-01
  2.472242e+01    8.060216e-01
  2.475418e+01    8.124843e-01
  2.478593e+01    8.101095e-01
  2.481768e+01    7.956092e-01
  2.484943e+01    8.033580e-01
  2.488118e+01    8.063115e-01
  2.491293e+01    7.982369e-01
  2.494468e+01    8.075927e-01
  2.497643e+01    8.123024e-01
  2.500819e+01    8.194472e-01
  2.503994e+01    8.344492e-01
  2.507169e+01    8.349099e-01
  2.510344e+01    8.354878e-01
  2.513519e+01    8.179533e-01
  2.516694e+01    8.383707e-01
  2.519869e+01    8.549023e-01
  2.523044e+01    8.369510e-01
  2.526219e+01    8.581098e-01
  2.529395e+01    8.660745e-01
  2.532570e+01    8.652925e-01
  2.535745e+01    9.045511e-01
  2.538920e+01    8.946953e-01
  2.542095e+01    9.209199e-01
  2.545270e+01    9.390584e-01
  2.548445e+01    9.643093e-01
  2.551620e+01    1.001232e+00
  2.554795e+01    1.041841e+00
  2.557971e+01    1.066908e+00
  2.561146e+01    1.114589e+00
  2.564321e+01    1.167696e+00
  2.567496e+01    1.270407e+00
  2.570671e+01    1.384144e+00
  2.573846e+01    1.560603e+00
  2.577021e+01    1.792802e+00
  2.580196e+01    2.127795e+00
  2.583371e+01    2.708998e+00
  2.586547e+01    3.500237e+00
  2.589722e+01    4.634889e+00
  2.592897e+01    6.153272e+00
  2.596072e+01    7.787331e+00
  2.599247e+01    8.995460e+00
  2.602422e+01    8.961392e+00
  2.605597e+01    7.830020e+00
  2.608772e+01    5.953420e+00
  2.611948e+01    4.347764e+00
  2.615123e+01    3.206668e+00
  2.618298e+01    2.507232e+00
  2.621473e+01    2.042404e+00
  2.624648e+01    1.709307e+00
  2.627823e+01    1.515209e+00
  2.630998e+01    1.337636e+00
  2.634173e+01    1.278650e+00
  2.637348e+01    1.165264e+00
  2.640524e+01    1.097031e+00
  2.643699e+01    1.056057e+00
  2.646874e+01    1.035951e+00
  2.650049e+01    9.958744e-01
  2.653224e+01    9.949771e-01
  2.656399e+01    9.743724e-01
  2.659574e+01    9.797616e-01
  2.662749e+01    9.300463e-01
  2.665924e+01    9.342427e-01
  2.669100e+01    9.230254e-01
  2.672275e+01    9.208912e-01
  2.675450e+01    9.142390e-01
  2.678625e+01    9.217879e-01
  2.681800e+01    9.347185e-01
  2.684975e+01    9.525594e-01
  2.688150e+01    9.511104e-01
  2.691325e+01    9.502007e-01
  2.694501e+01    9.652152e-01
  2.697676e+01    9.629892e-01
  2.700851e+01    1.017738e+00
  2.704026e+01    1.053763e+00
  2.707201e+01    1.144935e+00
  2.710376e+01    1.269178e+00
  2.713551e+01    1.432399e+00
  2.716726e+01    1.678448e+00
  2.719901e+01    1.991570e+00
  2.723077e+01    2.390671e+00
  2.726252e+01    2.591334e+00
  2.729427e+01    2.534359e+00
  2.732602e+01    2.254859e+00
  2.735777e+01    1.841782e+00
  2.738952e+01    1.541563e+00
  2.742127e+01    1.311576e+00
  2.745302e+01    1.155367e+00
  2.748477e+01    1.091630e+00
  2.751653e+01    9.976788e-01
  2.754828e+01    9.548957e-01
  2.758003e+01    9.274904e-01
  2.761178e+01    9.121891e-01
  2.764353e+01    8.959977e-01
  2.767528e+01    8.523290e-01
  2.770703e+01    8.832050e-01
  2.773878e+01    8.522695e-01
  2.777054e+01    8.347894e-01
  2.780229e+01    8.361252e-01
  2.783404e+01    8.364184e-01
  2.786579e+01    8.244826e-01
  2.789754e+01    8.119037e-01
  2.792929e+01    8.229504e-01
  2.796104e+01    8.211545e-01
  2.799279e+01    8.285296e-01
  2.802454e+01    8.194675e-01
  2.805630e+01    7.974042e-01
  2.808805e+01    8.044534e-01
  2.811980e+01    8.095065e-01
  2.815155e+01    7.830112e-01
  2.818330e+01    7.770308e-01
  2.821505e+01    7.878134e-01
  2.824680e+01    7.912868e-01
  2.827855e+01    8.205031e-01
  2.831030e+01    7.838140e-01
  2.834206e+01    7.869118e-01
  2.837381e+01    7.839237e-01
  2.840556e+01    7.785792e-01
  2.843731e+01    7.932566e-01
  2.846906e+01    7.827749e-01
  2.850081e+01    7.742519e-01
  2.853256e+01    7.806952e-01
  2.856431e+01    7.689191e-01
  2.859606e+01    7.753475e-01
  2.862782e+01    7.839192e-01
  2.865957e+01    7.672792e-01
  2.869132e+01    7.812489e-01
  2.872307e+01    7.688882e-01
  2.875482e+01    7.552053e-01
  2.878657e+01    7.517312e-01
  2.881832e+01    7.728244e-01
  2.885007e+01    7.723985e-01
  2.888183e+01    7.570561e-01
  2.891358e+01    7.558941e-01
  2.894533e+01    7.680029e-01
  2.897708e+01    7.561886e-01
  2.900883e+01    7.586050e-01
  2.904058e+01    7.549468e-01
  2.907233e+01    7.494192e-01
  2.910408e+01    7.588249e-01
  2.913583e+01    7.331515e-01
  2.916759e+01    7.538018e-01
  2.919934e+01    7.451828e-01
  2.923109e+01    7.501562e-01
  2.926284e+01    7.349959e-01
  2.929459e+01    7.359165e-01
  2.932634e+01    7.383049e-01
  2.935809e+01    7.482736e-01
  2.938984e+01    7.494076e-01
  2.942159e+01    7.531002e-01
  2.945335e+01    7.492884e-01
  2.948510e+01    7.245393e-01
  2.951685e+01    7.286190e-01
  2.954860e+01    7.419184e-01
  2.958035e+01    7.568963e-01
  2.961210e+01    7.445706e-01
  2.964385e+01    7.482756e-01
  2.967560e+01    7.485902e-01
  2.970736e+01    7.303165e-01
  2.973911e+01    7.273359e-01
  2.977086e+01    7.294721e-01
  2.980261e+01    7.322217e-01
  2.983436e+01    7.523884e-01
  2.986611e+01    7.240486e-01
  2.989786e+01    7.359106e-01
  2.992961e+01    7.232204e-01
  2.996136e+01    7.435049e-01
  2.999312e+01    7.458872e-01
  3.002487e+01    7.288259e-01
  3.005662e+01    7.431931e-01
  3.008837e+01    7.344790e-01
  3.012012e+01    7.392435e-01
  3.015187e+01    7.409719e-01
  3.018362e+01    7.096149e-01
  3.021537e+01    7.280636e-01
  3.024712e+01    7.234302e-01
  3.027888e+01    7.122999e-01
  3.031063e+01    7.215256e-01
  3.034238e+01    7.457827e-01
  3.037413e+01    7.168680e-01
  3.040588e+01    7.175822e-01
  3.043763e+01    7.288718e-01
  3.046938e+01    7.152867e-01
  3.050113e+01    7.220842e-01
  3.053288e+01    7.278655e-01
  3.056464e+01    7.402804e-01
  3.059639e+01    7.280991e-01
  3.062814e+01    7.073167e-01
  3.065989e+01    7.089055e-01
  3.069164e+01    7.063542e-01
  3.072339e+01    7.518451e-01
  3.075514e+01    7.028462e-01
  3.078689e+01    7.242190e-01
  3.081865e+01    7.434911e-01
  3.085040e+01    7.048880e-01
  3.088215e+01    7.407106e-01
  3.091390e+01    7.074414e-01
  3.094565e+01    7.247366e-01
  3.097740e+01    7.327994e-01
  3.100915e+01    7.123052e-01
  3.104090e+01    7.475291e-01
  3.107265e+01    7.078047e-01
  3.110441e+01    7.333947e-01
  3.113616e+01    7.216370e-01
  3.116791e+01    7.353413e-01
  3.119966e+01    7.287769e-01
  3.123141e+01    7.140195e-01
  3.126316e+01    7.328170e-01
  3.129491e+01    7.638339e-01
  3.132666e+01    7.505458e-01
  3.135841e+01    7.409153e-01
  3.139017e+01    7.439918e-01
  3.142192e+01    7.556222e-01
  3.145367e+01    7.588238e-01
  3.148542e+01    7.839627e-01
  3.151717e+01    7.545653e-01
  3.154892e+01    8.124428e-01
  3.158067e+01    7.964579e-01
  3.161242e+01    8.375652e-01
  3.164418e+01    8.500965e-01
  3.167593e+01    8.755484e-01
  3.170768e+01    9.049104e-01
  3.173943e+01    9.774076e-01
  3.177118e+01    1.051086e+00
  3.180293e+01    1.169459e+00
  3.183468e+01    1.343674e+00
  3.186643e+01    1.616068e+00
  3.189818e+01    1.981169e+00
  3.192994e+01    2.408672e+00
  3.196169e+01    2.619729e+00
  3.199344e+01    2.546235e+00
  3.202519e+01    2.225893e+00
  3.205694e+01    1.840030e+00
  3.208869e+01    1.443898e+00
  3.212044e+01    1.241446e+00
  3.215219e+01    1.104308e+00
  3.218394e+01    1.021263e+00
  3.221570e+01    9.165490e-01
  3.224745e+01    8.592278e-01
  3.227920e+01    8.447033e-01
  3.231095e+01    8.401334e-01
  3.234270e+01    7.852196e-01
  3.237445e+01    7.818436e-01
  3.240620e+01    7.499193e-01
  3.243795e+01    7.914996e-01
  3.246970e+01    7.510916e-01
  3.250146e+01    7.623442e-01
  3.253321e+01    7.550071e-01
  3.254908e+01    7.172413e-01