File: XRD/Activation ramp/2024-07-27_002_Ru-CGO-ex_Activtation_ramp_000002_data_000107.dat
# == pyFAI calibration ==
# Distance Sample to Detector: 0.4 m
# PONI: 9.750e-02, 1.135e-01 m
# Rotations: -0.000175 0.000000 -0.000000 rad
#
# == Fit2d calibration ==
# Distance Sample-beamCenter: 400.000 mm
# Center: x=1514.000, y=1300.000 pix
# Tilt: 0.010 deg  TiltPlanRot: 0.010 deg
#
# Detector Detector	 Spline= None	 PixelSize= 7.500e-05, 7.500e-05 m
#    Detector has a mask: False
#    Detector has a dark current: False
#    detector has a flat field: False
#
# Wavelength: 6.888e-11 m
# Mask applied: user provided
# Dark current applied: False
# Flat field applied: False
# Polarization factor: 0.99
# Normalization factor: 1.0
# --> /home/myspot/data/2024_07_Rosario/Ru-CGO-ex/2024-07-27_002_Ru-CGO-ex_Activtation_ramp_000002_data_000107.dat
#       q_nm^-1             I
  2.003187e-02    0.000000e+00
  5.178302e-02    4.718721e-02
  8.353417e-02    2.025472e-01
  1.152853e-01    9.172861e-02
  1.470365e-01    0.000000e+00
  1.787876e-01    2.446919e-02
  2.105388e-01    3.227828e-02
  2.422899e-01    5.149697e-02
  2.740411e-01    1.399450e-02
  3.057922e-01    7.633058e-02
  3.375433e-01    1.367892e-02
  3.692945e-01    3.923972e-02
  4.010456e-01    3.154769e-02
  4.327968e-01    3.115052e-02
  4.645479e-01    7.635222e-02
  4.962991e-01    4.237172e-02
  5.280502e-01    4.912032e-02
  5.598014e-01    2.782534e-02
  5.915525e-01    5.641276e-02
  6.233037e-01    2.775024e-02
  6.550548e-01    4.046983e-02
  6.868060e-01    1.024121e-02
  7.185571e-01    5.203584e-02
  7.503083e-01    5.108748e-02
  7.820594e-01    1.043033e-01
  8.138106e-01    2.111977e-01
  8.455617e-01    2.793374e-01
  8.773129e-01    4.087017e-01
  9.090640e-01    5.485530e-01
  9.408152e-01    7.166336e-01
  9.725663e-01    8.443001e-01
  1.004317e+00    1.116713e+00
  1.036069e+00    1.174940e+00
  1.067820e+00    1.346821e+00
  1.099571e+00    1.395662e+00
  1.131322e+00    1.434329e+00
  1.163073e+00    1.474056e+00
  1.194824e+00    1.637703e+00
  1.226575e+00    1.971368e+00
  1.258327e+00    2.218210e+00
  1.290078e+00    2.549446e+00
  1.321829e+00    2.364254e+00
  1.353580e+00    2.467354e+00
  1.385331e+00    2.603682e+00
  1.417082e+00    2.628759e+00
  1.448834e+00    2.733847e+00
  1.480585e+00    2.789895e+00
  1.512336e+00    2.910337e+00
  1.544087e+00    2.821530e+00
  1.575838e+00    2.870912e+00
  1.607589e+00    3.019306e+00
  1.639340e+00    2.933964e+00
  1.671092e+00    2.864086e+00
  1.702843e+00    2.741428e+00
  1.734594e+00    2.834928e+00
  1.766345e+00    2.749250e+00
  1.798096e+00    2.692795e+00
  1.829847e+00    2.692785e+00
  1.861598e+00    2.903542e+00
  1.893350e+00    2.708315e+00
  1.925101e+00    2.696058e+00
  1.956852e+00    2.776849e+00
  1.988603e+00    2.694646e+00
  2.020354e+00    2.713687e+00
  2.052105e+00    2.608599e+00
  2.083856e+00    2.835875e+00
  2.115608e+00    2.700502e+00
  2.147359e+00    2.707893e+00
  2.179110e+00    2.555312e+00
  2.210861e+00    2.784660e+00
  2.242612e+00    2.728392e+00
  2.274363e+00    2.699672e+00
  2.306115e+00    2.653041e+00
  2.337866e+00    2.751962e+00
  2.369617e+00    2.735932e+00
  2.401368e+00    2.706701e+00
  2.433119e+00    2.754805e+00
  2.464870e+00    2.836550e+00
  2.496621e+00    2.662839e+00
  2.528373e+00    2.777261e+00
  2.560124e+00    2.706144e+00
  2.591875e+00    2.778707e+00
  2.623626e+00    2.699100e+00
  2.655377e+00    2.793531e+00
  2.687128e+00    2.784662e+00
  2.718879e+00    2.752172e+00
  2.750631e+00    2.868958e+00
  2.782382e+00    2.802553e+00
  2.814133e+00    2.795840e+00
  2.845884e+00    2.869501e+00
  2.877635e+00    2.799273e+00
  2.909386e+00    2.767214e+00
  2.941137e+00    2.774396e+00
  2.972889e+00    2.804055e+00
  3.004640e+00    2.772145e+00
  3.036391e+00    2.900916e+00
  3.068142e+00    2.833491e+00
  3.099893e+00    2.783067e+00
  3.131644e+00    2.824392e+00
  3.163395e+00    2.824347e+00
  3.195147e+00    2.876145e+00
  3.226898e+00    2.791615e+00
  3.258649e+00    2.889920e+00
  3.290400e+00    2.883640e+00
  3.322151e+00    2.909403e+00
  3.353902e+00    2.846461e+00
  3.385654e+00    2.944278e+00
  3.417405e+00    2.886654e+00
  3.449156e+00    2.883899e+00
  3.480907e+00    2.851225e+00
  3.512658e+00    2.928985e+00
  3.544409e+00    2.918127e+00
  3.576160e+00    2.931355e+00
  3.607912e+00    2.930617e+00
  3.639663e+00    2.986363e+00
  3.671414e+00    2.951802e+00
  3.703165e+00    2.922680e+00
  3.734916e+00    2.966927e+00
  3.766667e+00    2.977209e+00
  3.798418e+00    2.960356e+00
  3.830170e+00    2.990059e+00
  3.861921e+00    2.905363e+00
  3.893672e+00    3.012797e+00
  3.925423e+00    3.005932e+00
  3.957174e+00    2.974611e+00
  3.988925e+00    2.799585e+00
  4.020676e+00    3.041218e+00
  4.052428e+00    2.965889e+00
  4.084179e+00    3.076994e+00
  4.115930e+00    2.983743e+00
  4.147681e+00    2.979144e+00
  4.179432e+00    3.087212e+00
  4.211183e+00    3.022925e+00
  4.242935e+00    2.995847e+00
  4.274686e+00    2.967318e+00
  4.306437e+00    2.982623e+00
  4.338188e+00    2.931200e+00
  4.369939e+00    3.035191e+00
  4.401690e+00    2.961797e+00
  4.433441e+00    3.026299e+00
  4.465193e+00    2.983664e+00
  4.496944e+00    3.080444e+00
  4.528695e+00    2.872563e+00
  4.560446e+00    3.019957e+00
  4.592197e+00    2.994323e+00
  4.623948e+00    3.062750e+00
  4.655699e+00    3.056029e+00
  4.687451e+00    3.086239e+00
  4.719202e+00    3.054675e+00
  4.750953e+00    3.006400e+00
  4.782704e+00    3.050683e+00
  4.814455e+00    3.050525e+00
  4.846206e+00    3.014434e+00
  4.877957e+00    3.083317e+00
  4.909709e+00    3.054900e+00
  4.941460e+00    3.005451e+00
  4.973211e+00    3.038826e+00
  5.004962e+00    3.087800e+00
  5.036713e+00    3.047976e+00
  5.068464e+00    3.071220e+00
  5.100216e+00    3.106157e+00
  5.131967e+00    3.122657e+00
  5.163718e+00    3.043232e+00
  5.195469e+00    3.075243e+00
  5.227220e+00    2.934174e+00
  5.258971e+00    3.142151e+00
  5.290722e+00    3.088298e+00
  5.322474e+00    3.061033e+00
  5.354225e+00    3.091663e+00
  5.385976e+00    3.087815e+00
  5.417727e+00    3.076885e+00
  5.449478e+00    3.028771e+00
  5.481229e+00    2.984067e+00
  5.512980e+00    3.059973e+00
  5.544732e+00    3.086815e+00
  5.576483e+00    3.072518e+00
  5.608234e+00    2.997899e+00
  5.639985e+00    2.983284e+00
  5.671736e+00    3.086861e+00
  5.703487e+00    2.972719e+00
  5.735238e+00    3.007670e+00
  5.766990e+00    3.109212e+00
  5.798741e+00    2.876578e+00
  5.830492e+00    3.055784e+00
  5.862243e+00    2.987228e+00
  5.893994e+00    3.009622e+00
  5.925745e+00    3.003524e+00
  5.957497e+00    2.935624e+00
  5.989248e+00    2.974354e+00
  6.020999e+00    3.031985e+00
  6.052750e+00    3.002539e+00
  6.084501e+00    3.071847e+00
  6.116252e+00    3.069432e+00
  6.148003e+00    3.038480e+00
  6.179755e+00    3.015238e+00
  6.211506e+00    3.034896e+00
  6.243257e+00    2.994232e+00
  6.275008e+00    3.023284e+00
  6.306759e+00    2.896539e+00
  6.338510e+00    3.023075e+00
  6.370261e+00    3.030553e+00
  6.402013e+00    2.900136e+00
  6.433764e+00    3.030881e+00
  6.465515e+00    3.010326e+00
  6.497266e+00    2.909378e+00
  6.529017e+00    2.906620e+00
  6.560768e+00    2.960202e+00
  6.592519e+00    2.932956e+00
  6.624271e+00    3.005381e+00
  6.656022e+00    2.927386e+00
  6.687773e+00    2.938579e+00
  6.719524e+00    2.985946e+00
  6.751275e+00    3.046633e+00
  6.783026e+00    2.931253e+00
  6.814777e+00    2.962313e+00
  6.846529e+00    2.919843e+00
  6.878280e+00    3.070183e+00
  6.910031e+00    3.026657e+00
  6.941782e+00    2.983057e+00
  6.973533e+00    2.948739e+00
  7.005284e+00    2.926000e+00
  7.037036e+00    2.945058e+00
  7.068787e+00    2.986537e+00
  7.100538e+00    3.018304e+00
  7.132289e+00    2.928852e+00
  7.164040e+00    2.979827e+00
  7.195791e+00    2.949037e+00
  7.227542e+00    2.919461e+00
  7.259294e+00    2.948632e+00
  7.291045e+00    2.995996e+00
  7.322796e+00    2.871608e+00
  7.354547e+00    2.945810e+00
  7.386298e+00    2.929874e+00
  7.418049e+00    2.890540e+00
  7.449800e+00    2.961976e+00
  7.481552e+00    2.922164e+00
  7.513303e+00    2.996412e+00
  7.545054e+00    2.966846e+00
  7.576805e+00    2.910797e+00
  7.608556e+00    2.901249e+00
  7.640307e+00    2.865323e+00
  7.672058e+00    2.950735e+00
  7.703810e+00    2.874838e+00
  7.735561e+00    2.958616e+00
  7.767312e+00    2.883996e+00
  7.799063e+00    2.885330e+00
  7.830814e+00    2.872801e+00
  7.862565e+00    2.963422e+00
  7.894317e+00    2.854993e+00
  7.926068e+00    2.904271e+00
  7.957819e+00    2.899313e+00
  7.989570e+00    2.935435e+00
  8.021321e+00    2.810833e+00
  8.053072e+00    2.923462e+00
  8.084823e+00    2.846220e+00
  8.116575e+00    2.946345e+00
  8.148326e+00    2.903673e+00
  8.180077e+00    2.876313e+00
  8.211828e+00    2.850853e+00
  8.243579e+00    2.921001e+00
  8.275330e+00    2.905380e+00
  8.307081e+00    2.893729e+00
  8.338833e+00    2.904263e+00
  8.370584e+00    2.918272e+00
  8.402335e+00    2.852131e+00
  8.434086e+00    2.828927e+00
  8.465837e+00    2.838340e+00
  8.497588e+00    2.811064e+00
  8.529339e+00    2.859198e+00
  8.561091e+00    2.772887e+00
  8.592842e+00    2.777159e+00
  8.624593e+00    2.826994e+00
  8.656344e+00    2.842425e+00
  8.688095e+00    2.766501e+00
  8.719846e+00    2.840226e+00
  8.751598e+00    2.815348e+00
  8.783349e+00    2.788200e+00
  8.815100e+00    2.839872e+00
  8.846851e+00    2.798193e+00
  8.878602e+00    2.755691e+00
  8.910353e+00    2.864781e+00
  8.942104e+00    2.782293e+00
  8.973856e+00    2.768162e+00
  9.005607e+00    2.836147e+00
  9.037358e+00    2.767780e+00
  9.069109e+00    2.836626e+00
  9.100860e+00    2.804180e+00
  9.132611e+00    2.785830e+00
  9.164362e+00    2.723456e+00
  9.196114e+00    2.754693e+00
  9.227865e+00    2.811021e+00
  9.259616e+00    2.729390e+00
  9.291367e+00    2.754081e+00
  9.323118e+00    2.723331e+00
  9.354869e+00    2.725974e+00
  9.386620e+00    2.712478e+00
  9.418372e+00    2.717839e+00
  9.450123e+00    2.717328e+00
  9.481874e+00    2.711152e+00
  9.513625e+00    2.697094e+00
  9.545376e+00    2.731375e+00
  9.577127e+00    2.720672e+00
  9.608878e+00    2.690636e+00
  9.640630e+00    2.714618e+00
  9.672381e+00    2.654898e+00
  9.704132e+00    2.670883e+00
  9.735883e+00    2.656782e+00
  9.767634e+00    2.663208e+00
  9.799385e+00    2.708156e+00
  9.831137e+00    2.696368e+00
  9.862888e+00    2.640984e+00
  9.894639e+00    2.609353e+00
  9.926390e+00    2.612656e+00
  9.958141e+00    2.621766e+00
  9.989892e+00    2.622294e+00
  1.002164e+01    2.660501e+00
  1.005339e+01    2.647219e+00
  1.008515e+01    2.660253e+00
  1.011690e+01    2.631332e+00
  1.014865e+01    2.550267e+00
  1.018040e+01    2.588784e+00
  1.021215e+01    2.626919e+00
  1.024390e+01    2.579506e+00
  1.027565e+01    2.560162e+00
  1.030740e+01    2.576332e+00
  1.033915e+01    2.600418e+00
  1.037091e+01    2.595319e+00
  1.040266e+01    2.603498e+00
  1.043441e+01    2.586141e+00
  1.046616e+01    2.591215e+00
  1.049791e+01    2.565591e+00
  1.052966e+01    2.560465e+00
  1.056141e+01    2.545836e+00
  1.059316e+01    2.504001e+00
  1.062492e+01    2.513340e+00
  1.065667e+01    2.534975e+00
  1.068842e+01    2.491354e+00
  1.072017e+01    2.467070e+00
  1.075192e+01    2.563087e+00
  1.078367e+01    2.512867e+00
  1.081542e+01    2.516930e+00
  1.084717e+01    2.439903e+00
  1.087892e+01    2.482591e+00
  1.091068e+01    2.403264e+00
  1.094243e+01    2.438985e+00
  1.097418e+01    2.460165e+00
  1.100593e+01    2.484572e+00
  1.103768e+01    2.462445e+00
  1.106943e+01    2.446627e+00
  1.110118e+01    2.400537e+00
  1.113293e+01    2.424505e+00
  1.116468e+01    2.405208e+00
  1.119644e+01    2.418826e+00
  1.122819e+01    2.401397e+00
  1.125994e+01    2.433127e+00
  1.129169e+01    2.433381e+00
  1.132344e+01    2.416943e+00
  1.135519e+01    2.424179e+00
  1.138694e+01    2.358276e+00
  1.141869e+01    2.386749e+00
  1.145045e+01    2.368297e+00
  1.148220e+01    2.345021e+00
  1.151395e+01    2.353631e+00
  1.154570e+01    2.315144e+00
  1.157745e+01    2.297723e+00
  1.160920e+01    2.363190e+00
  1.164095e+01    2.366372e+00
  1.167270e+01    2.348158e+00
  1.170445e+01    2.369079e+00
  1.173621e+01    2.326489e+00
  1.176796e+01    2.340567e+00
  1.179971e+01    2.318914e+00
  1.183146e+01    2.285096e+00
  1.186321e+01    2.338112e+00
  1.189496e+01    2.310123e+00
  1.192671e+01    2.304105e+00
  1.195846e+01    2.301195e+00
  1.199021e+01    2.339093e+00
  1.202197e+01    2.312058e+00
  1.205372e+01    2.286707e+00
  1.208547e+01    2.311721e+00
  1.211722e+01    2.274606e+00
  1.214897e+01    2.294962e+00
  1.218072e+01    2.276206e+00
  1.221247e+01    2.346877e+00
  1.224422e+01    2.247149e+00
  1.227597e+01    2.330784e+00
  1.230773e+01    2.276535e+00
  1.233948e+01    2.285885e+00
  1.237123e+01    2.313116e+00
  1.240298e+01    2.240828e+00
  1.243473e+01    2.261445e+00
  1.246648e+01    2.297544e+00
  1.249823e+01    2.316507e+00
  1.252998e+01    2.375807e+00
  1.256174e+01    2.317381e+00
  1.259349e+01    2.376207e+00
  1.262524e+01    2.353062e+00
  1.265699e+01    2.378086e+00
  1.268874e+01    2.417422e+00
  1.272049e+01    2.481711e+00
  1.275224e+01    2.461710e+00
  1.278399e+01    2.553127e+00
  1.281574e+01    2.684396e+00
  1.284750e+01    2.785786e+00
  1.287925e+01    2.970840e+00
  1.291100e+01    3.258512e+00
  1.294275e+01    3.701516e+00
  1.297450e+01    4.294820e+00
  1.300625e+01    5.363202e+00
  1.303800e+01    7.051888e+00
  1.306975e+01    9.396329e+00
  1.310150e+01    1.205395e+01
  1.313326e+01    1.463104e+01
  1.316501e+01    1.684928e+01
  1.319676e+01    1.749952e+01
  1.322851e+01    1.463098e+01
  1.326026e+01    1.057951e+01
  1.329201e+01    7.484806e+00
  1.332376e+01    5.603766e+00
  1.335551e+01    4.477669e+00
  1.338727e+01    3.816736e+00
  1.341902e+01    3.351205e+00
  1.345077e+01    3.020216e+00
  1.348252e+01    2.754632e+00
  1.351427e+01    2.666616e+00
  1.354602e+01    2.510538e+00
  1.357777e+01    2.398645e+00
  1.360952e+01    2.328982e+00
  1.364127e+01    2.309089e+00
  1.367303e+01    2.268133e+00
  1.370478e+01    2.259709e+00
  1.373653e+01    2.185103e+00
  1.376828e+01    2.194205e+00
  1.380003e+01    2.144776e+00
  1.383178e+01    2.115809e+00
  1.386353e+01    2.112746e+00
  1.389528e+01    2.060840e+00
  1.392703e+01    2.067103e+00
  1.395879e+01    2.058020e+00
  1.399054e+01    1.986784e+00
  1.402229e+01    2.044885e+00
  1.405404e+01    2.016320e+00
  1.408579e+01    2.037241e+00
  1.411754e+01    1.991454e+00
  1.414929e+01    1.979113e+00
  1.418104e+01    1.974453e+00
  1.421279e+01    1.941060e+00
  1.424455e+01    1.943759e+00
  1.427630e+01    1.932030e+00
  1.430805e+01    1.949818e+00
  1.433980e+01    1.914849e+00
  1.437155e+01    1.920385e+00
  1.440330e+01    1.899983e+00
  1.443505e+01    1.920917e+00
  1.446680e+01    1.966381e+00
  1.449856e+01    1.861591e+00
  1.453031e+01    1.886323e+00
  1.456206e+01    1.903062e+00
  1.459381e+01    1.878676e+00
  1.462556e+01    1.884055e+00
  1.465731e+01    1.872633e+00
  1.468906e+01    1.876211e+00
  1.472081e+01    1.903355e+00
  1.475256e+01    1.876880e+00
  1.478432e+01    1.890465e+00
  1.481607e+01    1.870882e+00
  1.484782e+01    1.913839e+00
  1.487957e+01    1.932183e+00
  1.491132e+01    1.985492e+00
  1.494307e+01    2.014649e+00
  1.497482e+01    2.084577e+00
  1.500657e+01    2.107122e+00
  1.503832e+01    2.269727e+00
  1.507008e+01    2.469182e+00
  1.510183e+01    2.859667e+00
  1.513358e+01    3.330501e+00
  1.516533e+01    4.077785e+00
  1.519708e+01    4.858502e+00
  1.522883e+01    5.487690e+00
  1.526058e+01    5.866698e+00
  1.529233e+01    5.849935e+00
  1.532409e+01    5.082654e+00
  1.535584e+01    3.973451e+00
  1.538759e+01    3.243669e+00
  1.541934e+01    2.666872e+00
  1.545109e+01    2.353085e+00
  1.548284e+01    2.155212e+00
  1.551459e+01    2.028523e+00
  1.554634e+01    1.947155e+00
  1.557809e+01    1.871810e+00
  1.560985e+01    1.799552e+00
  1.564160e+01    1.796010e+00
  1.567335e+01    1.724009e+00
  1.570510e+01    1.707909e+00
  1.573685e+01    1.699586e+00
  1.576860e+01    1.710516e+00
  1.580035e+01    1.680376e+00
  1.583210e+01    1.646652e+00
  1.586385e+01    1.616897e+00
  1.589561e+01    1.642603e+00
  1.592736e+01    1.579593e+00
  1.595911e+01    1.608718e+00
  1.599086e+01    1.597795e+00
  1.602261e+01    1.565107e+00
  1.605436e+01    1.590563e+00
  1.608611e+01    1.596030e+00
  1.611786e+01    1.506841e+00
  1.614961e+01    1.571535e+00
  1.618137e+01    1.542309e+00
  1.621312e+01    1.551860e+00
  1.624487e+01    1.559029e+00
  1.627662e+01    1.522153e+00
  1.630837e+01    1.502689e+00
  1.634012e+01    1.513875e+00
  1.637187e+01    1.527120e+00
  1.640362e+01    1.508689e+00
  1.643538e+01    1.521612e+00
  1.646713e+01    1.511965e+00
  1.649888e+01    1.516466e+00
  1.653063e+01    1.502076e+00
  1.656238e+01    1.467616e+00
  1.659413e+01    1.449414e+00
  1.662588e+01    1.473458e+00
  1.665763e+01    1.515430e+00
  1.668938e+01    1.473642e+00
  1.672114e+01    1.421258e+00
  1.675289e+01    1.448356e+00
  1.678464e+01    1.450764e+00
  1.681639e+01    1.428320e+00
  1.684814e+01    1.452608e+00
  1.687989e+01    1.446973e+00
  1.691164e+01    1.390085e+00
  1.694339e+01    1.470168e+00
  1.697514e+01    1.433034e+00
  1.700690e+01    1.414881e+00
  1.703865e+01    1.423849e+00
  1.707040e+01    1.409640e+00
  1.710215e+01    1.415310e+00
  1.713390e+01    1.395063e+00
  1.716565e+01    1.397843e+00
  1.719740e+01    1.397870e+00
  1.722915e+01    1.357051e+00
  1.726091e+01    1.369337e+00
  1.729266e+01    1.371392e+00
  1.732441e+01    1.374490e+00
  1.735616e+01    1.380071e+00
  1.738791e+01    1.344564e+00
  1.741966e+01    1.339783e+00
  1.745141e+01    1.345808e+00
  1.748316e+01    1.352384e+00
  1.751491e+01    1.343999e+00
  1.754667e+01    1.361186e+00
  1.757842e+01    1.336238e+00
  1.761017e+01    1.340664e+00
  1.764192e+01    1.319888e+00
  1.767367e+01    1.323142e+00
  1.770542e+01    1.343769e+00
  1.773717e+01    1.319647e+00
  1.776892e+01    1.305124e+00
  1.780067e+01    1.327467e+00
  1.783243e+01    1.319419e+00
  1.786418e+01    1.313817e+00
  1.789593e+01    1.320926e+00
  1.792768e+01    1.314025e+00
  1.795943e+01    1.292815e+00
  1.799118e+01    1.294883e+00
  1.802293e+01    1.297385e+00
  1.805468e+01    1.274538e+00
  1.808643e+01    1.273981e+00
  1.811819e+01    1.272707e+00
  1.814994e+01    1.264488e+00
  1.818169e+01    1.271088e+00
  1.821344e+01    1.242742e+00
  1.824519e+01    1.268610e+00
  1.827694e+01    1.246405e+00
  1.830869e+01    1.224720e+00
  1.834044e+01    1.244516e+00
  1.837220e+01    1.261867e+00
  1.840395e+01    1.257483e+00
  1.843570e+01    1.241042e+00
  1.846745e+01    1.248519e+00
  1.849920e+01    1.213276e+00
  1.853095e+01    1.227565e+00
  1.856270e+01    1.236405e+00
  1.859445e+01    1.210966e+00
  1.862620e+01    1.229270e+00
  1.865796e+01    1.196066e+00
  1.868971e+01    1.199962e+00
  1.872146e+01    1.220890e+00
  1.875321e+01    1.189329e+00
  1.878496e+01    1.216879e+00
  1.881671e+01    1.204991e+00
  1.884846e+01    1.207019e+00
  1.888021e+01    1.171413e+00
  1.891196e+01    1.185513e+00
  1.894372e+01    1.185733e+00
  1.897547e+01    1.196513e+00
  1.900722e+01    1.203392e+00
  1.903897e+01    1.186340e+00
  1.907072e+01    1.174288e+00
  1.910247e+01    1.167738e+00
  1.913422e+01    1.147856e+00
  1.916597e+01    1.199592e+00
  1.919773e+01    1.178051e+00
  1.922948e+01    1.187541e+00
  1.926123e+01    1.158601e+00
  1.929298e+01    1.153985e+00
  1.932473e+01    1.163254e+00
  1.935648e+01    1.164986e+00
  1.938823e+01    1.173805e+00
  1.941998e+01    1.149512e+00
  1.945173e+01    1.145399e+00
  1.948349e+01    1.135334e+00
  1.951524e+01    1.136925e+00
  1.954699e+01    1.129638e+00
  1.957874e+01    1.128505e+00
  1.961049e+01    1.146238e+00
  1.964224e+01    1.140107e+00
  1.967399e+01    1.115720e+00
  1.970574e+01    1.128697e+00
  1.973749e+01    1.104221e+00
  1.976925e+01    1.137331e+00
  1.980100e+01    1.121891e+00
  1.983275e+01    1.124515e+00
  1.986450e+01    1.096098e+00
  1.989625e+01    1.109689e+00
  1.992800e+01    1.111803e+00
  1.995975e+01    1.116617e+00
  1.999150e+01    1.116259e+00
  2.002325e+01    1.090174e+00
  2.005501e+01    1.087495e+00
  2.008676e+01    1.091248e+00
  2.011851e+01    1.106005e+00
  2.015026e+01    1.075490e+00
  2.018201e+01    1.106692e+00
  2.021376e+01    1.101318e+00
  2.024551e+01    1.090279e+00
  2.027726e+01    1.064245e+00
  2.030902e+01    1.094384e+00
  2.034077e+01    1.075863e+00
  2.037252e+01    1.094329e+00
  2.040427e+01    1.086677e+00
  2.043602e+01    1.070917e+00
  2.046777e+01    1.064501e+00
  2.049952e+01    1.064678e+00
  2.053127e+01    1.076118e+00
  2.056302e+01    1.096266e+00
  2.059478e+01    1.031761e+00
  2.062653e+01    1.105188e+00
  2.065828e+01    1.083685e+00
  2.069003e+01    1.089378e+00
  2.072178e+01    1.062701e+00
  2.075353e+01    1.057522e+00
  2.078528e+01    1.058438e+00
  2.081703e+01    1.062017e+00
  2.084878e+01    1.053278e+00
  2.088054e+01    1.061870e+00
  2.091229e+01    1.078632e+00
  2.094404e+01    1.088033e+00
  2.097579e+01    1.055346e+00
  2.100754e+01    1.088904e+00
  2.103929e+01    1.072336e+00
  2.107104e+01    1.081105e+00
  2.110279e+01    1.085019e+00
  2.113455e+01    1.058738e+00
  2.116630e+01    1.081258e+00
  2.119805e+01    1.091205e+00
  2.122980e+01    1.085416e+00
  2.126155e+01    1.095948e+00
  2.129330e+01    1.078133e+00
  2.132505e+01    1.113596e+00
  2.135680e+01    1.117989e+00
  2.138855e+01    1.150951e+00
  2.142031e+01    1.150015e+00
  2.145206e+01    1.192001e+00
  2.148381e+01    1.230503e+00
  2.151556e+01    1.283946e+00
  2.154731e+01    1.351111e+00
  2.157906e+01    1.432045e+00
  2.161081e+01    1.583033e+00
  2.164256e+01    1.767091e+00
  2.167431e+01    2.065291e+00
  2.170607e+01    2.517990e+00
  2.173782e+01    3.135522e+00
  2.176957e+01    4.169705e+00
  2.180132e+01    5.359276e+00
  2.183307e+01    6.897543e+00
  2.186482e+01    8.408145e+00
  2.189657e+01    9.551083e+00
  2.192832e+01    9.436469e+00
  2.196007e+01    7.913656e+00
  2.199183e+01    5.794687e+00
  2.202358e+01    4.156251e+00
  2.205533e+01    3.134855e+00
  2.208708e+01    2.461954e+00
  2.211883e+01    2.022850e+00
  2.215058e+01    1.764460e+00
  2.218233e+01    1.552783e+00
  2.221408e+01    1.436496e+00
  2.224584e+01    1.352826e+00
  2.227759e+01    1.247920e+00
  2.230934e+01    1.166966e+00
  2.234109e+01    1.141068e+00
  2.237284e+01    1.109865e+00
  2.240459e+01    1.057907e+00
  2.243634e+01    1.047211e+00
  2.246809e+01    1.029292e+00
  2.249984e+01    1.025383e+00
  2.253160e+01    1.005955e+00
  2.256335e+01    9.799715e-01
  2.259510e+01    9.480349e-01
  2.262685e+01    9.572614e-01
  2.265860e+01    9.529322e-01
  2.269035e+01    9.741334e-01
  2.272210e+01    9.536177e-01
  2.275385e+01    9.325741e-01
  2.278560e+01    9.274791e-01
  2.281736e+01    9.125270e-01
  2.284911e+01    9.028311e-01
  2.288086e+01    9.026047e-01
  2.291261e+01    9.077990e-01
  2.294436e+01    9.121432e-01
  2.297611e+01    8.973682e-01
  2.300786e+01    8.995921e-01
  2.303961e+01    8.841671e-01
  2.307137e+01    8.830310e-01
  2.310312e+01    8.661519e-01
  2.313487e+01    8.689910e-01
  2.316662e+01    8.806781e-01
  2.319837e+01    8.523079e-01
  2.323012e+01    8.849074e-01
  2.326187e+01    8.592495e-01
  2.329362e+01    8.625922e-01
  2.332537e+01    8.515241e-01
  2.335713e+01    8.574403e-01
  2.338888e+01    8.561730e-01
  2.342063e+01    8.307061e-01
  2.345238e+01    8.388001e-01
  2.348413e+01    8.408787e-01
  2.351588e+01    8.225282e-01
  2.354763e+01    8.277013e-01
  2.357938e+01    8.507220e-01
  2.361113e+01    8.173262e-01
  2.364289e+01    8.350704e-01
  2.367464e+01    8.195595e-01
  2.370639e+01    8.162422e-01
  2.373814e+01    8.336030e-01
  2.376989e+01    8.018295e-01
  2.380164e+01    7.901653e-01
  2.383339e+01    8.179635e-01
  2.386514e+01    7.900674e-01
  2.389689e+01    7.990919e-01
  2.392865e+01    7.827854e-01
  2.396040e+01    7.705448e-01
  2.399215e+01    7.708797e-01
  2.402390e+01    7.875819e-01
  2.405565e+01    7.808087e-01
  2.408740e+01    7.545311e-01
  2.411915e+01    7.781689e-01
  2.415090e+01    7.712669e-01
  2.418266e+01    7.821212e-01
  2.421441e+01    7.662410e-01
  2.424616e+01    7.937046e-01
  2.427791e+01    7.700862e-01
  2.430966e+01    7.838187e-01
  2.434141e+01    7.946447e-01
  2.437316e+01    7.749216e-01
  2.440491e+01    7.714036e-01
  2.443666e+01    7.744738e-01
  2.446842e+01    7.781335e-01
  2.450017e+01    7.808775e-01
  2.453192e+01    7.607449e-01
  2.456367e+01    7.799280e-01
  2.459542e+01    7.926757e-01
  2.462717e+01    7.691484e-01
  2.465892e+01    7.761288e-01
  2.469067e+01    7.833008e-01
  2.472242e+01    8.262679e-01
  2.475418e+01    7.983602e-01
  2.478593e+01    7.733096e-01
  2.481768e+01    8.102396e-01
  2.484943e+01    7.975211e-01
  2.488118e+01    7.884666e-01
  2.491293e+01    7.869255e-01
  2.494468e+01    7.845894e-01
  2.497643e+01    7.972131e-01
  2.500819e+01    7.995687e-01
  2.503994e+01    8.062088e-01
  2.507169e+01    7.959948e-01
  2.510344e+01    8.148760e-01
  2.513519e+01    8.148558e-01
  2.516694e+01    8.272973e-01
  2.519869e+01    8.264958e-01
  2.523044e+01    8.540599e-01
  2.526219e+01    8.641720e-01
  2.529395e+01    8.464310e-01
  2.532570e+01    8.626484e-01
  2.535745e+01    8.690317e-01
  2.538920e+01    9.008010e-01
  2.542095e+01    9.079092e-01
  2.545270e+01    9.061263e-01
  2.548445e+01    9.722923e-01
  2.551620e+01    9.615245e-01
  2.554795e+01    1.009900e+00
  2.557971e+01    1.038020e+00
  2.561146e+01    1.102198e+00
  2.564321e+01    1.181067e+00
  2.567496e+01    1.297682e+00
  2.570671e+01    1.469324e+00
  2.573846e+01    1.696442e+00
  2.577021e+01    1.991832e+00
  2.580196e+01    2.499233e+00
  2.583371e+01    3.214666e+00
  2.586547e+01    4.220271e+00
  2.589722e+01    5.455031e+00
  2.592897e+01    6.821575e+00
  2.596072e+01    7.795928e+00
  2.599247e+01    7.835946e+00
  2.602422e+01    6.674798e+00
  2.605597e+01    5.068095e+00
  2.608772e+01    3.679179e+00
  2.611948e+01    2.751412e+00
  2.615123e+01    2.217068e+00
  2.618298e+01    1.827628e+00
  2.621473e+01    1.555277e+00
  2.624648e+01    1.364683e+00
  2.627823e+01    1.284399e+00
  2.630998e+01    1.148899e+00
  2.634173e+01    1.061784e+00
  2.637348e+01    1.025991e+00
  2.640524e+01    9.859418e-01
  2.643699e+01    9.780348e-01
  2.646874e+01    9.621738e-01
  2.650049e+01    9.454163e-01
  2.653224e+01    9.245382e-01
  2.656399e+01    9.136571e-01
  2.659574e+01    9.032040e-01
  2.662749e+01    9.047140e-01
  2.665924e+01    8.976712e-01
  2.669100e+01    9.139977e-01
  2.672275e+01    8.865640e-01
  2.675450e+01    8.813628e-01
  2.678625e+01    8.594767e-01
  2.681800e+01    8.916593e-01
  2.684975e+01    8.926557e-01
  2.688150e+01    8.938468e-01
  2.691325e+01    9.097003e-01
  2.694501e+01    9.405978e-01
  2.697676e+01    9.593673e-01
  2.700851e+01    1.033968e+00
  2.704026e+01    1.082362e+00
  2.707201e+01    1.202084e+00
  2.710376e+01    1.322586e+00
  2.713551e+01    1.591963e+00
  2.716726e+01    1.882590e+00
  2.719901e+01    2.212599e+00
  2.723077e+01    2.342936e+00
  2.726252e+01    2.236407e+00
  2.729427e+01    1.970855e+00
  2.732602e+01    1.662063e+00
  2.735777e+01    1.362267e+00
  2.738952e+01    1.185265e+00
  2.742127e+01    1.085413e+00
  2.745302e+01    1.017927e+00
  2.748477e+01    9.391146e-01
  2.751653e+01    9.352046e-01
  2.754828e+01    9.113317e-01
  2.758003e+01    8.723644e-01
  2.761178e+01    8.395091e-01
  2.764353e+01    8.342491e-01
  2.767528e+01    8.297905e-01
  2.770703e+01    8.110144e-01
  2.773878e+01    8.232039e-01
  2.777054e+01    8.297763e-01
  2.780229e+01    8.062556e-01
  2.783404e+01    7.966420e-01
  2.786579e+01    7.993837e-01
  2.789754e+01    7.826950e-01
  2.792929e+01    7.897731e-01
  2.796104e+01    7.861274e-01
  2.799279e+01    7.683638e-01
  2.802454e+01    7.792942e-01
  2.805630e+01    7.652891e-01
  2.808805e+01    7.776312e-01
  2.811980e+01    7.725847e-01
  2.815155e+01    7.569817e-01
  2.818330e+01    7.679402e-01
  2.821505e+01    7.724178e-01
  2.824680e+01    7.642238e-01
  2.827855e+01    7.627366e-01
  2.831030e+01    7.427022e-01
  2.834206e+01    7.550418e-01
  2.837381e+01    7.520224e-01
  2.840556e+01    7.614186e-01
  2.843731e+01    7.435099e-01
  2.846906e+01    7.429428e-01
  2.850081e+01    7.642598e-01
  2.853256e+01    7.520012e-01
  2.856431e+01    7.763771e-01
  2.859606e+01    7.411662e-01
  2.862782e+01    7.690637e-01
  2.865957e+01    7.448298e-01
  2.869132e+01    7.715469e-01
  2.872307e+01    7.442426e-01
  2.875482e+01    7.390216e-01
  2.878657e+01    7.407328e-01
  2.881832e+01    7.242177e-01
  2.885007e+01    7.323955e-01
  2.888183e+01    7.274479e-01
  2.891358e+01    7.427244e-01
  2.894533e+01    7.355385e-01
  2.897708e+01    7.576314e-01
  2.900883e+01    7.477046e-01
  2.904058e+01    7.455571e-01
  2.907233e+01    7.260769e-01
  2.910408e+01    7.411000e-01
  2.913583e+01    7.390776e-01
  2.916759e+01    7.312573e-01
  2.919934e+01    7.233243e-01
  2.923109e+01    7.312568e-01
  2.926284e+01    7.256613e-01
  2.929459e+01    7.362887e-01
  2.932634e+01    7.357727e-01
  2.935809e+01    6.973885e-01
  2.938984e+01    7.086499e-01
  2.942159e+01    7.012051e-01
  2.945335e+01    7.222854e-01
  2.948510e+01    7.247037e-01
  2.951685e+01    7.238036e-01
  2.954860e+01    7.020075e-01
  2.958035e+01    7.173381e-01
  2.961210e+01    7.235857e-01
  2.964385e+01    6.933547e-01
  2.967560e+01    7.240254e-01
  2.970736e+01    6.989708e-01
  2.973911e+01    7.219417e-01
  2.977086e+01    7.122510e-01
  2.980261e+01    7.219030e-01
  2.983436e+01    7.018059e-01
  2.986611e+01    7.133347e-01
  2.989786e+01    6.951811e-01
  2.992961e+01    7.178363e-01
  2.996136e+01    7.157015e-01
  2.999312e+01    7.090967e-01
  3.002487e+01    7.237967e-01
  3.005662e+01    7.358580e-01
  3.008837e+01    7.221392e-01
  3.012012e+01    7.065336e-01
  3.015187e+01    7.194698e-01
  3.018362e+01    7.134546e-01
  3.021537e+01    7.282747e-01
  3.024712e+01    7.016970e-01
  3.027888e+01    7.190816e-01
  3.031063e+01    6.890982e-01
  3.034238e+01    7.065496e-01
  3.037413e+01    7.076511e-01
  3.040588e+01    7.039539e-01
  3.043763e+01    7.246613e-01
  3.046938e+01    6.873869e-01
  3.050113e+01    7.135118e-01
  3.053288e+01    6.940503e-01
  3.056464e+01    6.866775e-01
  3.059639e+01    6.945959e-01
  3.062814e+01    7.062586e-01
  3.065989e+01    6.921577e-01
  3.069164e+01    7.002289e-01
  3.072339e+01    7.072442e-01
  3.075514e+01    6.920587e-01
  3.078689e+01    7.011843e-01
  3.081865e+01    6.873061e-01
  3.085040e+01    7.059883e-01
  3.088215e+01    7.136427e-01
  3.091390e+01    7.151488e-01
  3.094565e+01    7.142544e-01
  3.097740e+01    6.887802e-01
  3.100915e+01    7.121862e-01
  3.104090e+01    7.210389e-01
  3.107265e+01    7.259678e-01
  3.110441e+01    6.955551e-01
  3.113616e+01    7.184657e-01
  3.116791e+01    7.109707e-01
  3.119966e+01    7.026098e-01
  3.123141e+01    6.986513e-01
  3.126316e+01    7.192016e-01
  3.129491e+01    7.288874e-01
  3.132666e+01    7.213337e-01
  3.135841e+01    7.295753e-01
  3.139017e+01    7.483504e-01
  3.142192e+01    7.744409e-01
  3.145367e+01    7.154914e-01
  3.148542e+01    7.374414e-01
  3.151717e+01    7.642977e-01
  3.154892e+01    7.875494e-01
  3.158067e+01    7.947399e-01
  3.161242e+01    8.134997e-01
  3.164418e+01    8.524388e-01
  3.167593e+01    8.860333e-01
  3.170768e+01    9.559633e-01
  3.173943e+01    1.024001e+00
  3.177118e+01    1.154677e+00
  3.180293e+01    1.345339e+00
  3.183468e+01    1.587295e+00
  3.186643e+01    1.917120e+00
  3.189818e+01    2.176374e+00
  3.192994e+01    2.317491e+00
  3.196169e+01    2.149731e+00
  3.199344e+01    1.853890e+00
  3.202519e+01    1.513052e+00
  3.205694e+01    1.277869e+00
  3.208869e+01    1.082761e+00
  3.212044e+01    1.001354e+00
  3.215219e+01    9.281864e-01
  3.218394e+01    8.265651e-01
  3.221570e+01    8.338831e-01
  3.224745e+01    7.848817e-01
  3.227920e+01    7.793570e-01
  3.231095e+01    7.446077e-01
  3.234270e+01    7.452347e-01
  3.237445e+01    7.541127e-01
  3.240620e+01    7.422092e-01
  3.243795e+01    7.223446e-01
  3.246970e+01    7.142789e-01
  3.250146e+01    7.166773e-01
  3.253321e+01    7.003765e-01
  3.254908e+01    7.193329e-01