File: XRD/Activation ramp/2024-07-27_002_Ru-CGO-ex_Activtation_ramp_000002_data_000106.dat
# == pyFAI calibration ==
# Distance Sample to Detector: 0.4 m
# PONI: 9.750e-02, 1.135e-01 m
# Rotations: -0.000175 0.000000 -0.000000 rad
#
# == Fit2d calibration ==
# Distance Sample-beamCenter: 400.000 mm
# Center: x=1514.000, y=1300.000 pix
# Tilt: 0.010 deg  TiltPlanRot: 0.010 deg
#
# Detector Detector	 Spline= None	 PixelSize= 7.500e-05, 7.500e-05 m
#    Detector has a mask: False
#    Detector has a dark current: False
#    detector has a flat field: False
#
# Wavelength: 6.888e-11 m
# Mask applied: user provided
# Dark current applied: False
# Flat field applied: False
# Polarization factor: 0.99
# Normalization factor: 1.0
# --> /home/myspot/data/2024_07_Rosario/Ru-CGO-ex/2024-07-27_002_Ru-CGO-ex_Activtation_ramp_000002_data_000106.dat
#       q_nm^-1             I
  2.003187e-02    0.000000e+00
  5.178302e-02    4.981178e-02
  8.353417e-02    3.919263e-02
  1.152853e-01    7.669635e-02
  1.470365e-01    3.661056e-02
  1.787876e-01    8.204342e-02
  2.105388e-01    8.187189e-02
  2.422899e-01    2.817507e-02
  2.740411e-01    4.538176e-02
  3.057922e-01    5.434052e-02
  3.375433e-01    1.687616e-02
  3.692945e-01    7.086626e-02
  4.010456e-01    1.793587e-02
  4.327968e-01    3.783984e-02
  4.645479e-01    3.806237e-02
  4.962991e-01    3.496362e-02
  5.280502e-01    1.459284e-02
  5.598014e-01    6.293266e-02
  5.915525e-01    2.862200e-02
  6.233037e-01    3.577547e-02
  6.550548e-01    5.404619e-02
  6.868060e-01    4.716739e-02
  7.185571e-01    1.476107e-02
  7.503083e-01    6.157482e-02
  7.820594e-01    1.394220e-01
  8.138106e-01    1.966276e-01
  8.455617e-01    2.786643e-01
  8.773129e-01    3.716371e-01
  9.090640e-01    5.182365e-01
  9.408152e-01    7.235876e-01
  9.725663e-01    8.198554e-01
  1.004317e+00    1.024698e+00
  1.036069e+00    1.164822e+00
  1.067820e+00    1.212991e+00
  1.099571e+00    1.390891e+00
  1.131322e+00    1.437674e+00
  1.163073e+00    1.538379e+00
  1.194824e+00    1.668881e+00
  1.226575e+00    2.061869e+00
  1.258327e+00    2.256086e+00
  1.290078e+00    2.447709e+00
  1.321829e+00    2.488194e+00
  1.353580e+00    2.584264e+00
  1.385331e+00    2.372257e+00
  1.417082e+00    2.569948e+00
  1.448834e+00    2.778310e+00
  1.480585e+00    2.680072e+00
  1.512336e+00    2.932756e+00
  1.544087e+00    3.052340e+00
  1.575838e+00    2.996579e+00
  1.607589e+00    2.899020e+00
  1.639340e+00    2.949969e+00
  1.671092e+00    2.855717e+00
  1.702843e+00    2.827305e+00
  1.734594e+00    2.789165e+00
  1.766345e+00    2.811866e+00
  1.798096e+00    2.758602e+00
  1.829847e+00    2.850396e+00
  1.861598e+00    2.775119e+00
  1.893350e+00    2.702474e+00
  1.925101e+00    2.724905e+00
  1.956852e+00    2.656219e+00
  1.988603e+00    2.748376e+00
  2.020354e+00    2.841723e+00
  2.052105e+00    2.817034e+00
  2.083856e+00    2.777133e+00
  2.115608e+00    2.637586e+00
  2.147359e+00    2.774977e+00
  2.179110e+00    2.761083e+00
  2.210861e+00    2.687733e+00
  2.242612e+00    2.669975e+00
  2.274363e+00    2.826705e+00
  2.306115e+00    2.704040e+00
  2.337866e+00    2.657927e+00
  2.369617e+00    2.728215e+00
  2.401368e+00    2.753961e+00
  2.433119e+00    2.798354e+00
  2.464870e+00    2.805737e+00
  2.496621e+00    2.706836e+00
  2.528373e+00    2.730750e+00
  2.560124e+00    2.791756e+00
  2.591875e+00    2.733048e+00
  2.623626e+00    2.711740e+00
  2.655377e+00    2.693622e+00
  2.687128e+00    2.788362e+00
  2.718879e+00    2.838357e+00
  2.750631e+00    2.806752e+00
  2.782382e+00    2.724487e+00
  2.814133e+00    2.785393e+00
  2.845884e+00    2.728663e+00
  2.877635e+00    2.799156e+00
  2.909386e+00    2.756535e+00
  2.941137e+00    2.798767e+00
  2.972889e+00    2.867746e+00
  3.004640e+00    2.828447e+00
  3.036391e+00    2.808859e+00
  3.068142e+00    2.789967e+00
  3.099893e+00    2.844680e+00
  3.131644e+00    2.855960e+00
  3.163395e+00    2.826615e+00
  3.195147e+00    2.884277e+00
  3.226898e+00    2.866548e+00
  3.258649e+00    2.902315e+00
  3.290400e+00    2.886358e+00
  3.322151e+00    2.842943e+00
  3.353902e+00    2.828295e+00
  3.385654e+00    2.877813e+00
  3.417405e+00    2.869388e+00
  3.449156e+00    2.891879e+00
  3.480907e+00    2.903743e+00
  3.512658e+00    2.909953e+00
  3.544409e+00    2.845827e+00
  3.576160e+00    2.938048e+00
  3.607912e+00    2.913910e+00
  3.639663e+00    2.957850e+00
  3.671414e+00    2.946118e+00
  3.703165e+00    2.950620e+00
  3.734916e+00    2.843076e+00
  3.766667e+00    2.982566e+00
  3.798418e+00    2.979947e+00
  3.830170e+00    2.923112e+00
  3.861921e+00    2.931007e+00
  3.893672e+00    2.926961e+00
  3.925423e+00    2.977484e+00
  3.957174e+00    2.990326e+00
  3.988925e+00    2.990161e+00
  4.020676e+00    2.970157e+00
  4.052428e+00    2.918827e+00
  4.084179e+00    2.999356e+00
  4.115930e+00    2.969118e+00
  4.147681e+00    2.958484e+00
  4.179432e+00    3.028467e+00
  4.211183e+00    3.058640e+00
  4.242935e+00    2.962070e+00
  4.274686e+00    3.027018e+00
  4.306437e+00    2.939736e+00
  4.338188e+00    3.030523e+00
  4.369939e+00    2.936402e+00
  4.401690e+00    3.028618e+00
  4.433441e+00    2.994166e+00
  4.465193e+00    3.009115e+00
  4.496944e+00    3.019477e+00
  4.528695e+00    2.974058e+00
  4.560446e+00    3.017008e+00
  4.592197e+00    3.030997e+00
  4.623948e+00    2.985517e+00
  4.655699e+00    3.019249e+00
  4.687451e+00    3.003950e+00
  4.719202e+00    3.095325e+00
  4.750953e+00    3.104466e+00
  4.782704e+00    3.113195e+00
  4.814455e+00    2.992215e+00
  4.846206e+00    2.988253e+00
  4.877957e+00    3.106363e+00
  4.909709e+00    3.079004e+00
  4.941460e+00    3.093769e+00
  4.973211e+00    3.077936e+00
  5.004962e+00    3.036394e+00
  5.036713e+00    3.053446e+00
  5.068464e+00    3.110553e+00
  5.100216e+00    3.049668e+00
  5.131967e+00    3.085790e+00
  5.163718e+00    3.216701e+00
  5.195469e+00    3.053803e+00
  5.227220e+00    3.024167e+00
  5.258971e+00    3.047865e+00
  5.290722e+00    3.040170e+00
  5.322474e+00    3.109524e+00
  5.354225e+00    2.967864e+00
  5.385976e+00    3.074492e+00
  5.417727e+00    3.025060e+00
  5.449478e+00    3.077563e+00
  5.481229e+00    3.068639e+00
  5.512980e+00    3.051419e+00
  5.544732e+00    3.048169e+00
  5.576483e+00    3.043859e+00
  5.608234e+00    3.020006e+00
  5.639985e+00    3.009969e+00
  5.671736e+00    3.038953e+00
  5.703487e+00    3.058494e+00
  5.735238e+00    3.068269e+00
  5.766990e+00    3.031934e+00
  5.798741e+00    2.904981e+00
  5.830492e+00    2.969832e+00
  5.862243e+00    2.956154e+00
  5.893994e+00    2.886938e+00
  5.925745e+00    2.967644e+00
  5.957497e+00    2.964936e+00
  5.989248e+00    3.034642e+00
  6.020999e+00    3.025290e+00
  6.052750e+00    2.917521e+00
  6.084501e+00    3.005481e+00
  6.116252e+00    3.043540e+00
  6.148003e+00    3.053355e+00
  6.179755e+00    3.068275e+00
  6.211506e+00    3.047913e+00
  6.243257e+00    3.054300e+00
  6.275008e+00    2.975462e+00
  6.306759e+00    2.960834e+00
  6.338510e+00    2.936393e+00
  6.370261e+00    3.015139e+00
  6.402013e+00    2.921298e+00
  6.433764e+00    2.952347e+00
  6.465515e+00    3.010962e+00
  6.497266e+00    3.014664e+00
  6.529017e+00    3.047927e+00
  6.560768e+00    2.924564e+00
  6.592519e+00    2.992976e+00
  6.624271e+00    3.049619e+00
  6.656022e+00    2.966032e+00
  6.687773e+00    2.972343e+00
  6.719524e+00    3.018821e+00
  6.751275e+00    2.969901e+00
  6.783026e+00    3.021746e+00
  6.814777e+00    3.073998e+00
  6.846529e+00    2.931101e+00
  6.878280e+00    2.939500e+00
  6.910031e+00    3.008267e+00
  6.941782e+00    2.950592e+00
  6.973533e+00    2.932800e+00
  7.005284e+00    2.962364e+00
  7.037036e+00    2.947779e+00
  7.068787e+00    2.916501e+00
  7.100538e+00    2.919801e+00
  7.132289e+00    3.026808e+00
  7.164040e+00    2.980277e+00
  7.195791e+00    2.944965e+00
  7.227542e+00    2.924200e+00
  7.259294e+00    2.900107e+00
  7.291045e+00    2.957646e+00
  7.322796e+00    2.884635e+00
  7.354547e+00    2.948585e+00
  7.386298e+00    2.975384e+00
  7.418049e+00    2.949144e+00
  7.449800e+00    2.901824e+00
  7.481552e+00    2.928428e+00
  7.513303e+00    2.960504e+00
  7.545054e+00    2.880931e+00
  7.576805e+00    2.876116e+00
  7.608556e+00    2.893661e+00
  7.640307e+00    2.894531e+00
  7.672058e+00    2.916509e+00
  7.703810e+00    2.887607e+00
  7.735561e+00    2.896228e+00
  7.767312e+00    2.864904e+00
  7.799063e+00    2.787975e+00
  7.830814e+00    2.941319e+00
  7.862565e+00    2.894766e+00
  7.894317e+00    2.823719e+00
  7.926068e+00    2.870606e+00
  7.957819e+00    2.876836e+00
  7.989570e+00    2.829745e+00
  8.021321e+00    2.894927e+00
  8.053072e+00    2.876536e+00
  8.084823e+00    2.873721e+00
  8.116575e+00    2.943027e+00
  8.148326e+00    2.980731e+00
  8.180077e+00    2.967215e+00
  8.211828e+00    2.921606e+00
  8.243579e+00    2.885723e+00
  8.275330e+00    2.888042e+00
  8.307081e+00    2.884131e+00
  8.338833e+00    2.826400e+00
  8.370584e+00    2.831772e+00
  8.402335e+00    2.841599e+00
  8.434086e+00    2.894446e+00
  8.465837e+00    2.796875e+00
  8.497588e+00    2.809386e+00
  8.529339e+00    2.825626e+00
  8.561091e+00    2.845999e+00
  8.592842e+00    2.817346e+00
  8.624593e+00    2.824457e+00
  8.656344e+00    2.786467e+00
  8.688095e+00    2.830179e+00
  8.719846e+00    2.809472e+00
  8.751598e+00    2.818913e+00
  8.783349e+00    2.882656e+00
  8.815100e+00    2.766339e+00
  8.846851e+00    2.790563e+00
  8.878602e+00    2.737491e+00
  8.910353e+00    2.791692e+00
  8.942104e+00    2.802277e+00
  8.973856e+00    2.795832e+00
  9.005607e+00    2.747658e+00
  9.037358e+00    2.784767e+00
  9.069109e+00    2.768026e+00
  9.100860e+00    2.818565e+00
  9.132611e+00    2.747203e+00
  9.164362e+00    2.709314e+00
  9.196114e+00    2.781065e+00
  9.227865e+00    2.710106e+00
  9.259616e+00    2.788904e+00
  9.291367e+00    2.719299e+00
  9.323118e+00    2.701594e+00
  9.354869e+00    2.722088e+00
  9.386620e+00    2.703905e+00
  9.418372e+00    2.770062e+00
  9.450123e+00    2.702689e+00
  9.481874e+00    2.716902e+00
  9.513625e+00    2.730687e+00
  9.545376e+00    2.683785e+00
  9.577127e+00    2.706105e+00
  9.608878e+00    2.655376e+00
  9.640630e+00    2.742736e+00
  9.672381e+00    2.778598e+00
  9.704132e+00    2.733072e+00
  9.735883e+00    2.654908e+00
  9.767634e+00    2.650914e+00
  9.799385e+00    2.687480e+00
  9.831137e+00    2.682523e+00
  9.862888e+00    2.697601e+00
  9.894639e+00    2.659314e+00
  9.926390e+00    2.653516e+00
  9.958141e+00    2.613734e+00
  9.989892e+00    2.604752e+00
  1.002164e+01    2.649393e+00
  1.005339e+01    2.612026e+00
  1.008515e+01    2.612235e+00
  1.011690e+01    2.550432e+00
  1.014865e+01    2.590403e+00
  1.018040e+01    2.579923e+00
  1.021215e+01    2.650032e+00
  1.024390e+01    2.565251e+00
  1.027565e+01    2.583432e+00
  1.030740e+01    2.584324e+00
  1.033915e+01    2.554356e+00
  1.037091e+01    2.541642e+00
  1.040266e+01    2.572038e+00
  1.043441e+01    2.592363e+00
  1.046616e+01    2.568178e+00
  1.049791e+01    2.513187e+00
  1.052966e+01    2.534643e+00
  1.056141e+01    2.598547e+00
  1.059316e+01    2.542120e+00
  1.062492e+01    2.541108e+00
  1.065667e+01    2.531563e+00
  1.068842e+01    2.529176e+00
  1.072017e+01    2.517116e+00
  1.075192e+01    2.555964e+00
  1.078367e+01    2.514105e+00
  1.081542e+01    2.510693e+00
  1.084717e+01    2.475316e+00
  1.087892e+01    2.469342e+00
  1.091068e+01    2.444300e+00
  1.094243e+01    2.479343e+00
  1.097418e+01    2.483547e+00
  1.100593e+01    2.451511e+00
  1.103768e+01    2.443619e+00
  1.106943e+01    2.479096e+00
  1.110118e+01    2.455451e+00
  1.113293e+01    2.464762e+00
  1.116468e+01    2.419025e+00
  1.119644e+01    2.431887e+00
  1.122819e+01    2.459277e+00
  1.125994e+01    2.411624e+00
  1.129169e+01    2.445922e+00
  1.132344e+01    2.372046e+00
  1.135519e+01    2.381577e+00
  1.138694e+01    2.375532e+00
  1.141869e+01    2.369205e+00
  1.145045e+01    2.379972e+00
  1.148220e+01    2.348144e+00
  1.151395e+01    2.385213e+00
  1.154570e+01    2.352082e+00
  1.157745e+01    2.399858e+00
  1.160920e+01    2.366871e+00
  1.164095e+01    2.340943e+00
  1.167270e+01    2.328717e+00
  1.170445e+01    2.344822e+00
  1.173621e+01    2.318202e+00
  1.176796e+01    2.307671e+00
  1.179971e+01    2.317860e+00
  1.183146e+01    2.320536e+00
  1.186321e+01    2.365716e+00
  1.189496e+01    2.302758e+00
  1.192671e+01    2.349796e+00
  1.195846e+01    2.338112e+00
  1.199021e+01    2.287720e+00
  1.202197e+01    2.270676e+00
  1.205372e+01    2.263129e+00
  1.208547e+01    2.312952e+00
  1.211722e+01    2.300601e+00
  1.214897e+01    2.284930e+00
  1.218072e+01    2.283917e+00
  1.221247e+01    2.264488e+00
  1.224422e+01    2.308260e+00
  1.227597e+01    2.241399e+00
  1.230773e+01    2.308348e+00
  1.233948e+01    2.343177e+00
  1.237123e+01    2.295675e+00
  1.240298e+01    2.287298e+00
  1.243473e+01    2.307191e+00
  1.246648e+01    2.316864e+00
  1.249823e+01    2.357149e+00
  1.252998e+01    2.337629e+00
  1.256174e+01    2.332719e+00
  1.259349e+01    2.359082e+00
  1.262524e+01    2.411516e+00
  1.265699e+01    2.399033e+00
  1.268874e+01    2.451490e+00
  1.272049e+01    2.498054e+00
  1.275224e+01    2.527383e+00
  1.278399e+01    2.552170e+00
  1.281574e+01    2.637868e+00
  1.284750e+01    2.793839e+00
  1.287925e+01    2.964663e+00
  1.291100e+01    3.248231e+00
  1.294275e+01    3.675534e+00
  1.297450e+01    4.326733e+00
  1.300625e+01    5.360098e+00
  1.303800e+01    6.997269e+00
  1.306975e+01    9.321450e+00
  1.310150e+01    1.209324e+01
  1.313326e+01    1.464855e+01
  1.316501e+01    1.687799e+01
  1.319676e+01    1.744455e+01
  1.322851e+01    1.465988e+01
  1.326026e+01    1.065233e+01
  1.329201e+01    7.526150e+00
  1.332376e+01    5.680144e+00
  1.335551e+01    4.460429e+00
  1.338727e+01    3.793647e+00
  1.341902e+01    3.362023e+00
  1.345077e+01    2.992291e+00
  1.348252e+01    2.806141e+00
  1.351427e+01    2.625842e+00
  1.354602e+01    2.521452e+00
  1.357777e+01    2.470045e+00
  1.360952e+01    2.359680e+00
  1.364127e+01    2.292634e+00
  1.367303e+01    2.275362e+00
  1.370478e+01    2.275420e+00
  1.373653e+01    2.226349e+00
  1.376828e+01    2.140957e+00
  1.380003e+01    2.173756e+00
  1.383178e+01    2.138233e+00
  1.386353e+01    2.071007e+00
  1.389528e+01    2.099851e+00
  1.392703e+01    2.049634e+00
  1.395879e+01    2.018019e+00
  1.399054e+01    2.031843e+00
  1.402229e+01    2.019829e+00
  1.405404e+01    1.988065e+00
  1.408579e+01    1.987396e+00
  1.411754e+01    2.011019e+00
  1.414929e+01    2.012532e+00
  1.418104e+01    1.987193e+00
  1.421279e+01    2.016199e+00
  1.424455e+01    1.977386e+00
  1.427630e+01    1.936006e+00
  1.430805e+01    1.895790e+00
  1.433980e+01    1.924946e+00
  1.437155e+01    1.920917e+00
  1.440330e+01    1.909993e+00
  1.443505e+01    1.871535e+00
  1.446680e+01    1.850569e+00
  1.449856e+01    1.910477e+00
  1.453031e+01    1.898003e+00
  1.456206e+01    1.891893e+00
  1.459381e+01    1.877362e+00
  1.462556e+01    1.893152e+00
  1.465731e+01    1.884728e+00
  1.468906e+01    1.939357e+00
  1.472081e+01    1.903211e+00
  1.475256e+01    1.866798e+00
  1.478432e+01    1.836866e+00
  1.481607e+01    1.878549e+00
  1.484782e+01    1.928746e+00
  1.487957e+01    1.901929e+00
  1.491132e+01    1.927334e+00
  1.494307e+01    1.978526e+00
  1.497482e+01    2.018875e+00
  1.500657e+01    2.151382e+00
  1.503832e+01    2.271007e+00
  1.507008e+01    2.518255e+00
  1.510183e+01    2.812952e+00
  1.513358e+01    3.353762e+00
  1.516533e+01    4.149476e+00
  1.519708e+01    4.853778e+00
  1.522883e+01    5.451942e+00
  1.526058e+01    5.829511e+00
  1.529233e+01    5.854209e+00
  1.532409e+01    5.118653e+00
  1.535584e+01    4.013677e+00
  1.538759e+01    3.172832e+00
  1.541934e+01    2.697123e+00
  1.545109e+01    2.365280e+00
  1.548284e+01    2.144370e+00
  1.551459e+01    2.007974e+00
  1.554634e+01    1.886890e+00
  1.557809e+01    1.878805e+00
  1.560985e+01    1.804470e+00
  1.564160e+01    1.785440e+00
  1.567335e+01    1.725489e+00
  1.570510e+01    1.721946e+00
  1.573685e+01    1.665811e+00
  1.576860e+01    1.727141e+00
  1.580035e+01    1.640617e+00
  1.583210e+01    1.663232e+00
  1.586385e+01    1.635138e+00
  1.589561e+01    1.618818e+00
  1.592736e+01    1.629656e+00
  1.595911e+01    1.589132e+00
  1.599086e+01    1.598404e+00
  1.602261e+01    1.593012e+00
  1.605436e+01    1.592906e+00
  1.608611e+01    1.609023e+00
  1.611786e+01    1.587425e+00
  1.614961e+01    1.558830e+00
  1.618137e+01    1.538633e+00
  1.621312e+01    1.564009e+00
  1.624487e+01    1.558345e+00
  1.627662e+01    1.552791e+00
  1.630837e+01    1.508648e+00
  1.634012e+01    1.517738e+00
  1.637187e+01    1.492869e+00
  1.640362e+01    1.509732e+00
  1.643538e+01    1.526055e+00
  1.646713e+01    1.504601e+00
  1.649888e+01    1.485635e+00
  1.653063e+01    1.520848e+00
  1.656238e+01    1.502859e+00
  1.659413e+01    1.448640e+00
  1.662588e+01    1.469945e+00
  1.665763e+01    1.444937e+00
  1.668938e+01    1.452831e+00
  1.672114e+01    1.447590e+00
  1.675289e+01    1.440539e+00
  1.678464e+01    1.426445e+00
  1.681639e+01    1.413308e+00
  1.684814e+01    1.458614e+00
  1.687989e+01    1.431486e+00
  1.691164e+01    1.428489e+00
  1.694339e+01    1.398343e+00
  1.697514e+01    1.415580e+00
  1.700690e+01    1.420409e+00
  1.703865e+01    1.398325e+00
  1.707040e+01    1.404632e+00
  1.710215e+01    1.406685e+00
  1.713390e+01    1.381344e+00
  1.716565e+01    1.413830e+00
  1.719740e+01    1.388522e+00
  1.722915e+01    1.362678e+00
  1.726091e+01    1.368119e+00
  1.729266e+01    1.364570e+00
  1.732441e+01    1.327740e+00
  1.735616e+01    1.388599e+00
  1.738791e+01    1.337871e+00
  1.741966e+01    1.368811e+00
  1.745141e+01    1.353215e+00
  1.748316e+01    1.352080e+00
  1.751491e+01    1.354460e+00
  1.754667e+01    1.345417e+00
  1.757842e+01    1.360836e+00
  1.761017e+01    1.340577e+00
  1.764192e+01    1.321833e+00
  1.767367e+01    1.307538e+00
  1.770542e+01    1.362722e+00
  1.773717e+01    1.329385e+00
  1.776892e+01    1.319738e+00
  1.780067e+01    1.313583e+00
  1.783243e+01    1.291771e+00
  1.786418e+01    1.274874e+00
  1.789593e+01    1.290900e+00
  1.792768e+01    1.283992e+00
  1.795943e+01    1.287473e+00
  1.799118e+01    1.300718e+00
  1.802293e+01    1.283965e+00
  1.805468e+01    1.255504e+00
  1.808643e+01    1.289535e+00
  1.811819e+01    1.262751e+00
  1.814994e+01    1.286041e+00
  1.818169e+01    1.298507e+00
  1.821344e+01    1.254785e+00
  1.824519e+01    1.257440e+00
  1.827694e+01    1.229715e+00
  1.830869e+01    1.265001e+00
  1.834044e+01    1.263996e+00
  1.837220e+01    1.224325e+00
  1.840395e+01    1.246505e+00
  1.843570e+01    1.242461e+00
  1.846745e+01    1.230349e+00
  1.849920e+01    1.218867e+00
  1.853095e+01    1.210248e+00
  1.856270e+01    1.232762e+00
  1.859445e+01    1.214828e+00
  1.862620e+01    1.202511e+00
  1.865796e+01    1.219195e+00
  1.868971e+01    1.209841e+00
  1.872146e+01    1.187573e+00
  1.875321e+01    1.224486e+00
  1.878496e+01    1.209223e+00
  1.881671e+01    1.205640e+00
  1.884846e+01    1.195588e+00
  1.888021e+01    1.225520e+00
  1.891196e+01    1.219305e+00
  1.894372e+01    1.204919e+00
  1.897547e+01    1.208756e+00
  1.900722e+01    1.170154e+00
  1.903897e+01    1.147926e+00
  1.907072e+01    1.166750e+00
  1.910247e+01    1.173271e+00
  1.913422e+01    1.192561e+00
  1.916597e+01    1.173235e+00
  1.919773e+01    1.182402e+00
  1.922948e+01    1.147522e+00
  1.926123e+01    1.160647e+00
  1.929298e+01    1.164526e+00
  1.932473e+01    1.169946e+00
  1.935648e+01    1.180591e+00
  1.938823e+01    1.192969e+00
  1.941998e+01    1.148367e+00
  1.945173e+01    1.130571e+00
  1.948349e+01    1.153528e+00
  1.951524e+01    1.154780e+00
  1.954699e+01    1.106965e+00
  1.957874e+01    1.108201e+00
  1.961049e+01    1.169042e+00
  1.964224e+01    1.149904e+00
  1.967399e+01    1.124312e+00
  1.970574e+01    1.133447e+00
  1.973749e+01    1.101529e+00
  1.976925e+01    1.119845e+00
  1.980100e+01    1.122748e+00
  1.983275e+01    1.116630e+00
  1.986450e+01    1.125106e+00
  1.989625e+01    1.110336e+00
  1.992800e+01    1.092582e+00
  1.995975e+01    1.109809e+00
  1.999150e+01    1.108565e+00
  2.002325e+01    1.075803e+00
  2.005501e+01    1.124569e+00
  2.008676e+01    1.107661e+00
  2.011851e+01    1.087494e+00
  2.015026e+01    1.096626e+00
  2.018201e+01    1.110087e+00
  2.021376e+01    1.080199e+00
  2.024551e+01    1.058168e+00
  2.027726e+01    1.078784e+00
  2.030902e+01    1.076939e+00
  2.034077e+01    1.081011e+00
  2.037252e+01    1.082957e+00
  2.040427e+01    1.089425e+00
  2.043602e+01    1.055917e+00
  2.046777e+01    1.056992e+00
  2.049952e+01    1.050998e+00
  2.053127e+01    1.057022e+00
  2.056302e+01    1.061813e+00
  2.059478e+01    1.072988e+00
  2.062653e+01    1.064878e+00
  2.065828e+01    1.056631e+00
  2.069003e+01    1.091326e+00
  2.072178e+01    1.070249e+00
  2.075353e+01    1.064093e+00
  2.078528e+01    1.081913e+00
  2.081703e+01    1.058290e+00
  2.084878e+01    1.068988e+00
  2.088054e+01    1.050888e+00
  2.091229e+01    1.060139e+00
  2.094404e+01    1.082144e+00
  2.097579e+01    1.070072e+00
  2.100754e+01    1.077467e+00
  2.103929e+01    1.089882e+00
  2.107104e+01    1.079966e+00
  2.110279e+01    1.093173e+00
  2.113455e+01    1.076129e+00
  2.116630e+01    1.071902e+00
  2.119805e+01    1.067601e+00
  2.122980e+01    1.081941e+00
  2.126155e+01    1.106030e+00
  2.129330e+01    1.090472e+00
  2.132505e+01    1.130071e+00
  2.135680e+01    1.142470e+00
  2.138855e+01    1.173073e+00
  2.142031e+01    1.172968e+00
  2.145206e+01    1.190755e+00
  2.148381e+01    1.232038e+00
  2.151556e+01    1.273848e+00
  2.154731e+01    1.347629e+00
  2.157906e+01    1.461671e+00
  2.161081e+01    1.577995e+00
  2.164256e+01    1.739506e+00
  2.167431e+01    2.034812e+00
  2.170607e+01    2.473181e+00
  2.173782e+01    3.149236e+00
  2.176957e+01    4.090630e+00
  2.180132e+01    5.270300e+00
  2.183307e+01    6.780320e+00
  2.186482e+01    8.322855e+00
  2.189657e+01    9.527774e+00
  2.192832e+01    9.464276e+00
  2.196007e+01    8.115695e+00
  2.199183e+01    5.906390e+00
  2.202358e+01    4.275688e+00
  2.205533e+01    3.192066e+00
  2.208708e+01    2.531415e+00
  2.211883e+01    2.050278e+00
  2.215058e+01    1.785395e+00
  2.218233e+01    1.560439e+00
  2.221408e+01    1.439178e+00
  2.224584e+01    1.317758e+00
  2.227759e+01    1.238844e+00
  2.230934e+01    1.177810e+00
  2.234109e+01    1.138995e+00
  2.237284e+01    1.109639e+00
  2.240459e+01    1.072145e+00
  2.243634e+01    1.056608e+00
  2.246809e+01    1.057221e+00
  2.249984e+01    1.023408e+00
  2.253160e+01    9.829143e-01
  2.256335e+01    9.817618e-01
  2.259510e+01    9.847242e-01
  2.262685e+01    9.664878e-01
  2.265860e+01    9.483123e-01
  2.269035e+01    9.415522e-01
  2.272210e+01    9.500062e-01
  2.275385e+01    9.434476e-01
  2.278560e+01    9.376178e-01
  2.281736e+01    9.182208e-01
  2.284911e+01    9.234060e-01
  2.288086e+01    8.896947e-01
  2.291261e+01    8.954723e-01
  2.294436e+01    9.051734e-01
  2.297611e+01    8.705963e-01
  2.300786e+01    8.969935e-01
  2.303961e+01    8.733529e-01
  2.307137e+01    8.784745e-01
  2.310312e+01    8.687428e-01
  2.313487e+01    8.506022e-01
  2.316662e+01    8.612912e-01
  2.319837e+01    8.725590e-01
  2.323012e+01    8.626734e-01
  2.326187e+01    8.557534e-01
  2.329362e+01    8.707063e-01
  2.332537e+01    8.540183e-01
  2.335713e+01    8.452561e-01
  2.338888e+01    8.439717e-01
  2.342063e+01    8.407604e-01
  2.345238e+01    8.544292e-01
  2.348413e+01    8.392464e-01
  2.351588e+01    8.245985e-01
  2.354763e+01    8.213933e-01
  2.357938e+01    8.417709e-01
  2.361113e+01    8.390519e-01
  2.364289e+01    8.251796e-01
  2.367464e+01    8.086814e-01
  2.370639e+01    7.993149e-01
  2.373814e+01    8.136045e-01
  2.376989e+01    7.937582e-01
  2.380164e+01    8.108831e-01
  2.383339e+01    8.003129e-01
  2.386514e+01    7.949761e-01
  2.389689e+01    7.971146e-01
  2.392865e+01    7.939079e-01
  2.396040e+01    7.859533e-01
  2.399215e+01    8.091344e-01
  2.402390e+01    7.946793e-01
  2.405565e+01    7.733774e-01
  2.408740e+01    8.081436e-01
  2.411915e+01    7.784611e-01
  2.415090e+01    7.699482e-01
  2.418266e+01    8.057057e-01
  2.421441e+01    7.812405e-01
  2.424616e+01    7.784511e-01
  2.427791e+01    7.832589e-01
  2.430966e+01    7.708296e-01
  2.434141e+01    7.895805e-01
  2.437316e+01    7.719617e-01
  2.440491e+01    7.758338e-01
  2.443666e+01    7.774718e-01
  2.446842e+01    8.068983e-01
  2.450017e+01    7.932852e-01
  2.453192e+01    7.611858e-01
  2.456367e+01    7.693683e-01
  2.459542e+01    7.759784e-01
  2.462717e+01    7.707065e-01
  2.465892e+01    7.741504e-01
  2.469067e+01    7.879289e-01
  2.472242e+01    7.734606e-01
  2.475418e+01    7.924131e-01
  2.478593e+01    7.731575e-01
  2.481768e+01    8.059441e-01
  2.484943e+01    7.779428e-01
  2.488118e+01    7.956742e-01
  2.491293e+01    8.019693e-01
  2.494468e+01    8.019264e-01
  2.497643e+01    7.848879e-01
  2.500819e+01    7.900100e-01
  2.503994e+01    7.953408e-01
  2.507169e+01    7.902922e-01
  2.510344e+01    8.007298e-01
  2.513519e+01    8.351665e-01
  2.516694e+01    8.141403e-01
  2.519869e+01    8.361257e-01
  2.523044e+01    8.392922e-01
  2.526219e+01    8.218380e-01
  2.529395e+01    8.443424e-01
  2.532570e+01    8.624243e-01
  2.535745e+01    8.543675e-01
  2.538920e+01    8.744448e-01
  2.542095e+01    8.960891e-01
  2.545270e+01    9.300296e-01
  2.548445e+01    9.379615e-01
  2.551620e+01    9.838763e-01
  2.554795e+01    9.923818e-01
  2.557971e+01    1.057145e+00
  2.561146e+01    1.124166e+00
  2.564321e+01    1.179827e+00
  2.567496e+01    1.303968e+00
  2.570671e+01    1.421601e+00
  2.573846e+01    1.663023e+00
  2.577021e+01    1.985285e+00
  2.580196e+01    2.492972e+00
  2.583371e+01    3.248088e+00
  2.586547e+01    4.255584e+00
  2.589722e+01    5.432096e+00
  2.592897e+01    6.731058e+00
  2.596072e+01    7.849715e+00
  2.599247e+01    7.923210e+00
  2.602422e+01    6.814634e+00
  2.605597e+01    5.187138e+00
  2.608772e+01    3.763988e+00
  2.611948e+01    2.810220e+00
  2.615123e+01    2.226002e+00
  2.618298e+01    1.849945e+00
  2.621473e+01    1.560296e+00
  2.624648e+01    1.402853e+00
  2.627823e+01    1.239590e+00
  2.630998e+01    1.175129e+00
  2.634173e+01    1.095366e+00
  2.637348e+01    1.021338e+00
  2.640524e+01    9.882326e-01
  2.643699e+01    9.680569e-01
  2.646874e+01    9.352863e-01
  2.650049e+01    9.061792e-01
  2.653224e+01    9.419792e-01
  2.656399e+01    9.164524e-01
  2.659574e+01    8.697484e-01
  2.662749e+01    9.033628e-01
  2.665924e+01    8.930590e-01
  2.669100e+01    8.931247e-01
  2.672275e+01    8.769820e-01
  2.675450e+01    8.873926e-01
  2.678625e+01    8.818153e-01
  2.681800e+01    8.934257e-01
  2.684975e+01    9.105710e-01
  2.688150e+01    9.046720e-01
  2.691325e+01    9.256769e-01
  2.694501e+01    9.468526e-01
  2.697676e+01    9.777648e-01
  2.700851e+01    9.994258e-01
  2.704026e+01    1.088949e+00
  2.707201e+01    1.189252e+00
  2.710376e+01    1.311898e+00
  2.713551e+01    1.577914e+00
  2.716726e+01    1.841877e+00
  2.719901e+01    2.172239e+00
  2.723077e+01    2.314576e+00
  2.726252e+01    2.313295e+00
  2.729427e+01    1.961833e+00
  2.732602e+01    1.603488e+00
  2.735777e+01    1.356864e+00
  2.738952e+01    1.196493e+00
  2.742127e+01    1.083259e+00
  2.745302e+01    9.977242e-01
  2.748477e+01    9.483619e-01
  2.751653e+01    8.974032e-01
  2.754828e+01    8.862646e-01
  2.758003e+01    8.760999e-01
  2.761178e+01    8.564320e-01
  2.764353e+01    8.370968e-01
  2.767528e+01    8.253958e-01
  2.770703e+01    8.448625e-01
  2.773878e+01    8.187409e-01
  2.777054e+01    8.264106e-01
  2.780229e+01    8.131086e-01
  2.783404e+01    7.903708e-01
  2.786579e+01    7.995509e-01
  2.789754e+01    7.673101e-01
  2.792929e+01    7.899635e-01
  2.796104e+01    7.869103e-01
  2.799279e+01    7.708253e-01
  2.802454e+01    7.788255e-01
  2.805630e+01    7.509929e-01
  2.808805e+01    7.671897e-01
  2.811980e+01    7.952833e-01
  2.815155e+01    7.787111e-01
  2.818330e+01    7.639478e-01
  2.821505e+01    7.677156e-01
  2.824680e+01    7.680361e-01
  2.827855e+01    7.407457e-01
  2.831030e+01    7.602364e-01
  2.834206e+01    7.436813e-01
  2.837381e+01    7.705064e-01
  2.840556e+01    7.395336e-01
  2.843731e+01    7.658054e-01
  2.846906e+01    7.467337e-01
  2.850081e+01    7.589010e-01
  2.853256e+01    7.597860e-01
  2.856431e+01    7.478837e-01
  2.859606e+01    7.280099e-01
  2.862782e+01    7.308973e-01
  2.865957e+01    7.585398e-01
  2.869132e+01    7.357383e-01
  2.872307e+01    7.590272e-01
  2.875482e+01    7.476826e-01
  2.878657e+01    7.241688e-01
  2.881832e+01    7.237096e-01
  2.885007e+01    7.406250e-01
  2.888183e+01    7.546637e-01
  2.891358e+01    7.474261e-01
  2.894533e+01    7.431351e-01
  2.897708e+01    7.320684e-01
  2.900883e+01    7.330968e-01
  2.904058e+01    7.297109e-01
  2.907233e+01    7.324221e-01
  2.910408e+01    7.357981e-01
  2.913583e+01    7.419727e-01
  2.916759e+01    7.275125e-01
  2.919934e+01    7.238632e-01
  2.923109e+01    6.985771e-01
  2.926284e+01    7.559558e-01
  2.929459e+01    7.166451e-01
  2.932634e+01    7.156129e-01
  2.935809e+01    7.154703e-01
  2.938984e+01    7.344561e-01
  2.942159e+01    7.076296e-01
  2.945335e+01    6.996802e-01
  2.948510e+01    7.274448e-01
  2.951685e+01    7.157480e-01
  2.954860e+01    7.296228e-01
  2.958035e+01    7.090663e-01
  2.961210e+01    7.152830e-01
  2.964385e+01    7.227551e-01
  2.967560e+01    7.005514e-01
  2.970736e+01    7.040357e-01
  2.973911e+01    7.147440e-01
  2.977086e+01    7.013907e-01
  2.980261e+01    7.030728e-01
  2.983436e+01    7.240349e-01
  2.986611e+01    7.099488e-01
  2.989786e+01    7.077897e-01
  2.992961e+01    7.009736e-01
  2.996136e+01    7.234607e-01
  2.999312e+01    7.315251e-01
  3.002487e+01    7.186078e-01
  3.005662e+01    7.423539e-01
  3.008837e+01    7.141005e-01
  3.012012e+01    7.233229e-01
  3.015187e+01    7.048122e-01
  3.018362e+01    6.962742e-01
  3.021537e+01    7.028002e-01
  3.024712e+01    7.213719e-01
  3.027888e+01    7.139558e-01
  3.031063e+01    7.209334e-01
  3.034238e+01    7.142868e-01
  3.037413e+01    6.767119e-01
  3.040588e+01    7.302541e-01
  3.043763e+01    7.197688e-01
  3.046938e+01    7.119812e-01
  3.050113e+01    7.134599e-01
  3.053288e+01    7.058256e-01
  3.056464e+01    7.157274e-01
  3.059639e+01    6.994747e-01
  3.062814e+01    7.115517e-01
  3.065989e+01    6.979125e-01
  3.069164e+01    6.939678e-01
  3.072339e+01    6.882524e-01
  3.075514e+01    7.113824e-01
  3.078689e+01    7.114680e-01
  3.081865e+01    7.116801e-01
  3.085040e+01    7.076654e-01
  3.088215e+01    6.962444e-01
  3.091390e+01    7.112548e-01
  3.094565e+01    7.002620e-01
  3.097740e+01    7.057524e-01
  3.100915e+01    7.259747e-01
  3.104090e+01    7.042866e-01
  3.107265e+01    7.129174e-01
  3.110441e+01    7.228264e-01
  3.113616e+01    6.944355e-01
  3.116791e+01    6.945770e-01
  3.119966e+01    7.189485e-01
  3.123141e+01    7.045259e-01
  3.126316e+01    7.254856e-01
  3.129491e+01    7.423860e-01
  3.132666e+01    7.248062e-01
  3.135841e+01    7.298185e-01
  3.139017e+01    7.335475e-01
  3.142192e+01    7.364841e-01
  3.145367e+01    7.492540e-01
  3.148542e+01    7.580736e-01
  3.151717e+01    7.617320e-01
  3.154892e+01    7.773107e-01
  3.158067e+01    7.687896e-01
  3.161242e+01    8.441082e-01
  3.164418e+01    8.347133e-01
  3.167593e+01    8.697120e-01
  3.170768e+01    9.269941e-01
  3.173943e+01    1.035512e+00
  3.177118e+01    1.152897e+00
  3.180293e+01    1.306610e+00
  3.183468e+01    1.571719e+00
  3.186643e+01    1.897206e+00
  3.189818e+01    2.183577e+00
  3.192994e+01    2.276650e+00
  3.196169e+01    2.213134e+00
  3.199344e+01    1.868704e+00
  3.202519e+01    1.531248e+00
  3.205694e+01    1.296610e+00
  3.208869e+01    1.107750e+00
  3.212044e+01    1.005246e+00
  3.215219e+01    9.235708e-01
  3.218394e+01    8.918374e-01
  3.221570e+01    8.165998e-01
  3.224745e+01    8.039639e-01
  3.227920e+01    7.696952e-01
  3.231095e+01    7.714765e-01
  3.234270e+01    7.507669e-01
  3.237445e+01    7.380856e-01
  3.240620e+01    7.165718e-01
  3.243795e+01    7.294202e-01
  3.246970e+01    7.494819e-01
  3.250146e+01    7.242390e-01
  3.253321e+01    7.255983e-01
  3.254908e+01    7.054263e-01