File: XRD/Activation ramp/2024-07-27_002_Ru-CGO-ex_Activtation_ramp_000002_data_000001.dat
# == pyFAI calibration ==
# Distance Sample to Detector: 0.4 m
# PONI: 9.750e-02, 1.135e-01 m
# Rotations: -0.000175 0.000000 -0.000000 rad
#
# == Fit2d calibration ==
# Distance Sample-beamCenter: 400.000 mm
# Center: x=1514.000, y=1300.000 pix
# Tilt: 0.010 deg  TiltPlanRot: 0.010 deg
#
# Detector Detector	 Spline= None	 PixelSize= 7.500e-05, 7.500e-05 m
#    Detector has a mask: False
#    Detector has a dark current: False
#    detector has a flat field: False
#
# Wavelength: 6.888e-11 m
# Mask applied: user provided
# Dark current applied: False
# Flat field applied: False
# Polarization factor: 0.99
# Normalization factor: 1.0
# --> /home/myspot/data/2024_07_Rosario/Ru-CGO-ex/2024-07-27_002_Ru-CGO-ex_Activtation_ramp_000002_data_000001.dat
#       q_nm^-1             I
  2.003187e-02    0.000000e+00
  5.178302e-02    4.982381e-02
  8.353417e-02    1.378261e-01
  1.152853e-01    3.425630e-02
  1.470365e-01    4.380239e-02
  1.787876e-01    2.776049e-02
  2.105388e-01    6.211128e-02
  2.422899e-01    4.846483e-02
  2.740411e-01    8.408379e-02
  3.057922e-01    4.116444e-02
  3.375433e-01    6.773150e-02
  3.692945e-01    7.402383e-03
  4.010456e-01    1.638512e-02
  4.327968e-01    4.705777e-02
  4.645479e-01    6.906959e-02
  4.962991e-01    3.111212e-02
  5.280502e-01    4.643807e-02
  5.598014e-01    5.536465e-02
  5.915525e-01    1.793692e-02
  6.233037e-01    4.463424e-02
  6.550548e-01    4.833589e-02
  6.868060e-01    1.408403e-02
  7.185571e-01    3.451778e-02
  7.503083e-01    5.579256e-02
  7.820594e-01    6.555030e-02
  8.138106e-01    1.839425e-01
  8.455617e-01    2.943394e-01
  8.773129e-01    5.107433e-01
  9.090640e-01    5.356330e-01
  9.408152e-01    7.449189e-01
  9.725663e-01    8.808228e-01
  1.004317e+00    1.011057e+00
  1.036069e+00    1.179542e+00
  1.067820e+00    1.280468e+00
  1.099571e+00    1.531699e+00
  1.131322e+00    1.521300e+00
  1.163073e+00    1.511208e+00
  1.194824e+00    1.759244e+00
  1.226575e+00    2.189371e+00
  1.258327e+00    2.485744e+00
  1.290078e+00    2.509063e+00
  1.321829e+00    2.582996e+00
  1.353580e+00    2.676651e+00
  1.385331e+00    2.740687e+00
  1.417082e+00    2.708961e+00
  1.448834e+00    2.761124e+00
  1.480585e+00    2.929299e+00
  1.512336e+00    2.961213e+00
  1.544087e+00    3.246639e+00
  1.575838e+00    2.981420e+00
  1.607589e+00    3.061837e+00
  1.639340e+00    3.063663e+00
  1.671092e+00    2.972578e+00
  1.702843e+00    2.791728e+00
  1.734594e+00    3.038871e+00
  1.766345e+00    2.794984e+00
  1.798096e+00    2.897225e+00
  1.829847e+00    2.837578e+00
  1.861598e+00    2.915344e+00
  1.893350e+00    2.906090e+00
  1.925101e+00    2.820042e+00
  1.956852e+00    2.798030e+00
  1.988603e+00    2.944470e+00
  2.020354e+00    2.903297e+00
  2.052105e+00    2.846262e+00
  2.083856e+00    2.847852e+00
  2.115608e+00    2.820433e+00
  2.147359e+00    2.727131e+00
  2.179110e+00    2.800220e+00
  2.210861e+00    2.847220e+00
  2.242612e+00    2.959036e+00
  2.274363e+00    2.816525e+00
  2.306115e+00    2.855647e+00
  2.337866e+00    2.849182e+00
  2.369617e+00    2.863983e+00
  2.401368e+00    2.846578e+00
  2.433119e+00    2.793083e+00
  2.464870e+00    2.857511e+00
  2.496621e+00    2.865324e+00
  2.528373e+00    2.870093e+00
  2.560124e+00    2.856589e+00
  2.591875e+00    2.900448e+00
  2.623626e+00    2.802626e+00
  2.655377e+00    2.937256e+00
  2.687128e+00    2.884374e+00
  2.718879e+00    2.889208e+00
  2.750631e+00    2.956314e+00
  2.782382e+00    2.887002e+00
  2.814133e+00    2.870341e+00
  2.845884e+00    2.851676e+00
  2.877635e+00    2.952405e+00
  2.909386e+00    2.871069e+00
  2.941137e+00    2.900719e+00
  2.972889e+00    2.948596e+00
  3.004640e+00    2.877432e+00
  3.036391e+00    2.964994e+00
  3.068142e+00    2.921033e+00
  3.099893e+00    2.908921e+00
  3.131644e+00    2.844709e+00
  3.163395e+00    2.981307e+00
  3.195147e+00    2.968406e+00
  3.226898e+00    2.897272e+00
  3.258649e+00    2.918990e+00
  3.290400e+00    2.912652e+00
  3.322151e+00    2.993341e+00
  3.353902e+00    3.020902e+00
  3.385654e+00    2.902087e+00
  3.417405e+00    2.979406e+00
  3.449156e+00    2.962738e+00
  3.480907e+00    2.925451e+00
  3.512658e+00    2.964589e+00
  3.544409e+00    2.995164e+00
  3.576160e+00    3.033317e+00
  3.607912e+00    3.030337e+00
  3.639663e+00    2.941723e+00
  3.671414e+00    2.999650e+00
  3.703165e+00    2.991904e+00
  3.734916e+00    3.051005e+00
  3.766667e+00    2.983559e+00
  3.798418e+00    3.042754e+00
  3.830170e+00    3.076009e+00
  3.861921e+00    2.989283e+00
  3.893672e+00    3.082421e+00
  3.925423e+00    3.065440e+00
  3.957174e+00    3.028841e+00
  3.988925e+00    3.045451e+00
  4.020676e+00    3.060367e+00
  4.052428e+00    3.041172e+00
  4.084179e+00    2.996213e+00
  4.115930e+00    3.000693e+00
  4.147681e+00    3.094247e+00
  4.179432e+00    3.060486e+00
  4.211183e+00    3.049489e+00
  4.242935e+00    3.050132e+00
  4.274686e+00    3.101897e+00
  4.306437e+00    3.183121e+00
  4.338188e+00    3.078780e+00
  4.369939e+00    3.072338e+00
  4.401690e+00    3.098007e+00
  4.433441e+00    3.062641e+00
  4.465193e+00    3.113305e+00
  4.496944e+00    2.988535e+00
  4.528695e+00    3.156177e+00
  4.560446e+00    3.154843e+00
  4.592197e+00    3.150055e+00
  4.623948e+00    3.088524e+00
  4.655699e+00    3.109212e+00
  4.687451e+00    3.121846e+00
  4.719202e+00    3.185668e+00
  4.750953e+00    3.079584e+00
  4.782704e+00    3.135579e+00
  4.814455e+00    3.128251e+00
  4.846206e+00    3.239809e+00
  4.877957e+00    3.104617e+00
  4.909709e+00    3.150451e+00
  4.941460e+00    3.119580e+00
  4.973211e+00    3.094882e+00
  5.004962e+00    3.120386e+00
  5.036713e+00    3.172937e+00
  5.068464e+00    3.089294e+00
  5.100216e+00    3.104494e+00
  5.131967e+00    3.167810e+00
  5.163718e+00    3.161811e+00
  5.195469e+00    3.149662e+00
  5.227220e+00    3.142727e+00
  5.258971e+00    3.154042e+00
  5.290722e+00    3.134746e+00
  5.322474e+00    3.213610e+00
  5.354225e+00    3.236003e+00
  5.385976e+00    3.102894e+00
  5.417727e+00    3.159972e+00
  5.449478e+00    3.171150e+00
  5.481229e+00    3.055929e+00
  5.512980e+00    3.140805e+00
  5.544732e+00    3.124626e+00
  5.576483e+00    3.197949e+00
  5.608234e+00    3.197590e+00
  5.639985e+00    3.209849e+00
  5.671736e+00    3.147186e+00
  5.703487e+00    3.068328e+00
  5.735238e+00    3.136384e+00
  5.766990e+00    3.087449e+00
  5.798741e+00    3.089499e+00
  5.830492e+00    3.053456e+00
  5.862243e+00    3.112761e+00
  5.893994e+00    3.071374e+00
  5.925745e+00    3.071145e+00
  5.957497e+00    3.098532e+00
  5.989248e+00    3.090622e+00
  6.020999e+00    3.115125e+00
  6.052750e+00    3.000946e+00
  6.084501e+00    3.050189e+00
  6.116252e+00    3.128086e+00
  6.148003e+00    3.107322e+00
  6.179755e+00    3.039071e+00
  6.211506e+00    3.153302e+00
  6.243257e+00    3.029238e+00
  6.275008e+00    3.071275e+00
  6.306759e+00    3.089376e+00
  6.338510e+00    3.052738e+00
  6.370261e+00    3.060896e+00
  6.402013e+00    3.125658e+00
  6.433764e+00    3.092785e+00
  6.465515e+00    3.102317e+00
  6.497266e+00    3.075515e+00
  6.529017e+00    3.024577e+00
  6.560768e+00    3.117071e+00
  6.592519e+00    3.112681e+00
  6.624271e+00    3.041484e+00
  6.656022e+00    3.107319e+00
  6.687773e+00    3.032762e+00
  6.719524e+00    3.087376e+00
  6.751275e+00    3.021489e+00
  6.783026e+00    3.080724e+00
  6.814777e+00    3.028552e+00
  6.846529e+00    3.121942e+00
  6.878280e+00    3.067337e+00
  6.910031e+00    3.065428e+00
  6.941782e+00    3.152261e+00
  6.973533e+00    3.031001e+00
  7.005284e+00    3.057641e+00
  7.037036e+00    3.005091e+00
  7.068787e+00    3.032421e+00
  7.100538e+00    3.068180e+00
  7.132289e+00    3.068248e+00
  7.164040e+00    3.009201e+00
  7.195791e+00    3.043225e+00
  7.227542e+00    3.011894e+00
  7.259294e+00    3.019010e+00
  7.291045e+00    3.107852e+00
  7.322796e+00    3.054379e+00
  7.354547e+00    2.985259e+00
  7.386298e+00    2.987683e+00
  7.418049e+00    3.053289e+00
  7.449800e+00    2.978086e+00
  7.481552e+00    3.015593e+00
  7.513303e+00    3.053709e+00
  7.545054e+00    2.956386e+00
  7.576805e+00    2.983496e+00
  7.608556e+00    2.936894e+00
  7.640307e+00    2.991379e+00
  7.672058e+00    2.928859e+00
  7.703810e+00    2.973786e+00
  7.735561e+00    2.976937e+00
  7.767312e+00    3.044750e+00
  7.799063e+00    3.000087e+00
  7.830814e+00    2.897369e+00
  7.862565e+00    2.982484e+00
  7.894317e+00    2.933970e+00
  7.926068e+00    2.964002e+00
  7.957819e+00    2.952570e+00
  7.989570e+00    2.967429e+00
  8.021321e+00    2.920245e+00
  8.053072e+00    2.953852e+00
  8.084823e+00    2.980631e+00
  8.116575e+00    3.000964e+00
  8.148326e+00    3.035621e+00
  8.180077e+00    2.971386e+00
  8.211828e+00    2.965127e+00
  8.243579e+00    3.000734e+00
  8.275330e+00    2.979207e+00
  8.307081e+00    2.943503e+00
  8.338833e+00    3.005191e+00
  8.370584e+00    2.959697e+00
  8.402335e+00    2.990551e+00
  8.434086e+00    2.864778e+00
  8.465837e+00    2.957129e+00
  8.497588e+00    2.918616e+00
  8.529339e+00    2.814357e+00
  8.561091e+00    2.929163e+00
  8.592842e+00    2.923228e+00
  8.624593e+00    2.900106e+00
  8.656344e+00    2.929108e+00
  8.688095e+00    2.915551e+00
  8.719846e+00    2.880026e+00
  8.751598e+00    2.902449e+00
  8.783349e+00    2.893995e+00
  8.815100e+00    2.951477e+00
  8.846851e+00    2.870863e+00
  8.878602e+00    2.873086e+00
  8.910353e+00    2.805423e+00
  8.942104e+00    2.815214e+00
  8.973856e+00    2.888578e+00
  9.005607e+00    2.910765e+00
  9.037358e+00    2.868435e+00
  9.069109e+00    2.834547e+00
  9.100860e+00    2.834609e+00
  9.132611e+00    2.836265e+00
  9.164362e+00    2.837993e+00
  9.196114e+00    2.777506e+00
  9.227865e+00    2.808809e+00
  9.259616e+00    2.842628e+00
  9.291367e+00    2.813976e+00
  9.323118e+00    2.844323e+00
  9.354869e+00    2.737831e+00
  9.386620e+00    2.817694e+00
  9.418372e+00    2.850854e+00
  9.450123e+00    2.838266e+00
  9.481874e+00    2.816504e+00
  9.513625e+00    2.766702e+00
  9.545376e+00    2.735738e+00
  9.577127e+00    2.809319e+00
  9.608878e+00    2.762981e+00
  9.640630e+00    2.852566e+00
  9.672381e+00    2.820511e+00
  9.704132e+00    2.793207e+00
  9.735883e+00    2.785844e+00
  9.767634e+00    2.777471e+00
  9.799385e+00    2.762736e+00
  9.831137e+00    2.759759e+00
  9.862888e+00    2.778539e+00
  9.894639e+00    2.738589e+00
  9.926390e+00    2.683279e+00
  9.958141e+00    2.648753e+00
  9.989892e+00    2.716183e+00
  1.002164e+01    2.741092e+00
  1.005339e+01    2.722641e+00
  1.008515e+01    2.656573e+00
  1.011690e+01    2.679286e+00
  1.014865e+01    2.654015e+00
  1.018040e+01    2.662490e+00
  1.021215e+01    2.651681e+00
  1.024390e+01    2.652817e+00
  1.027565e+01    2.676392e+00
  1.030740e+01    2.625769e+00
  1.033915e+01    2.670923e+00
  1.037091e+01    2.645547e+00
  1.040266e+01    2.656902e+00
  1.043441e+01    2.613981e+00
  1.046616e+01    2.691477e+00
  1.049791e+01    2.580130e+00
  1.052966e+01    2.629160e+00
  1.056141e+01    2.576210e+00
  1.059316e+01    2.605778e+00
  1.062492e+01    2.629091e+00
  1.065667e+01    2.648422e+00
  1.068842e+01    2.598832e+00
  1.072017e+01    2.573034e+00
  1.075192e+01    2.616833e+00
  1.078367e+01    2.531180e+00
  1.081542e+01    2.560493e+00
  1.084717e+01    2.550668e+00
  1.087892e+01    2.569820e+00
  1.091068e+01    2.570734e+00
  1.094243e+01    2.541084e+00
  1.097418e+01    2.519756e+00
  1.100593e+01    2.587797e+00
  1.103768e+01    2.515833e+00
  1.106943e+01    2.542907e+00
  1.110118e+01    2.443269e+00
  1.113293e+01    2.506240e+00
  1.116468e+01    2.548613e+00
  1.119644e+01    2.489505e+00
  1.122819e+01    2.527409e+00
  1.125994e+01    2.462889e+00
  1.129169e+01    2.511274e+00
  1.132344e+01    2.440259e+00
  1.135519e+01    2.429940e+00
  1.138694e+01    2.416165e+00
  1.141869e+01    2.486341e+00
  1.145045e+01    2.464436e+00
  1.148220e+01    2.442617e+00
  1.151395e+01    2.432530e+00
  1.154570e+01    2.384022e+00
  1.157745e+01    2.419182e+00
  1.160920e+01    2.441547e+00
  1.164095e+01    2.392214e+00
  1.167270e+01    2.464463e+00
  1.170445e+01    2.406369e+00
  1.173621e+01    2.443390e+00
  1.176796e+01    2.338280e+00
  1.179971e+01    2.419705e+00
  1.183146e+01    2.391596e+00
  1.186321e+01    2.448423e+00
  1.189496e+01    2.390911e+00
  1.192671e+01    2.350528e+00
  1.195846e+01    2.350324e+00
  1.199021e+01    2.357938e+00
  1.202197e+01    2.342979e+00
  1.205372e+01    2.364175e+00
  1.208547e+01    2.382077e+00
  1.211722e+01    2.392897e+00
  1.214897e+01    2.372912e+00
  1.218072e+01    2.321292e+00
  1.221247e+01    2.400277e+00
  1.224422e+01    2.406964e+00
  1.227597e+01    2.430086e+00
  1.230773e+01    2.374213e+00
  1.233948e+01    2.359993e+00
  1.237123e+01    2.408353e+00
  1.240298e+01    2.412320e+00
  1.243473e+01    2.352520e+00
  1.246648e+01    2.350104e+00
  1.249823e+01    2.389552e+00
  1.252998e+01    2.413759e+00
  1.256174e+01    2.413817e+00
  1.259349e+01    2.424169e+00
  1.262524e+01    2.455250e+00
  1.265699e+01    2.466008e+00
  1.268874e+01    2.488496e+00
  1.272049e+01    2.569458e+00
  1.275224e+01    2.620003e+00
  1.278399e+01    2.662691e+00
  1.281574e+01    2.787661e+00
  1.284750e+01    2.828005e+00
  1.287925e+01    3.023116e+00
  1.291100e+01    3.338964e+00
  1.294275e+01    3.664441e+00
  1.297450e+01    4.264008e+00
  1.300625e+01    5.183037e+00
  1.303800e+01    6.623971e+00
  1.306975e+01    8.922482e+00
  1.310150e+01    1.201472e+01
  1.313326e+01    1.500868e+01
  1.316501e+01    1.801051e+01
  1.319676e+01    2.014049e+01
  1.322851e+01    1.877896e+01
  1.326026e+01    1.466370e+01
  1.329201e+01    1.033573e+01
  1.332376e+01    7.445382e+00
  1.335551e+01    5.658130e+00
  1.338727e+01    4.566812e+00
  1.341902e+01    3.893055e+00
  1.345077e+01    3.432904e+00
  1.348252e+01    3.118691e+00
  1.351427e+01    2.922510e+00
  1.354602e+01    2.756173e+00
  1.357777e+01    2.606055e+00
  1.360952e+01    2.495715e+00
  1.364127e+01    2.457867e+00
  1.367303e+01    2.413356e+00
  1.370478e+01    2.352663e+00
  1.373653e+01    2.268056e+00
  1.376828e+01    2.269412e+00
  1.380003e+01    2.206438e+00
  1.383178e+01    2.237466e+00
  1.386353e+01    2.209136e+00
  1.389528e+01    2.123962e+00
  1.392703e+01    2.140977e+00
  1.395879e+01    2.127323e+00
  1.399054e+01    2.102610e+00
  1.402229e+01    2.094237e+00
  1.405404e+01    2.087735e+00
  1.408579e+01    2.068324e+00
  1.411754e+01    2.070831e+00
  1.414929e+01    2.067207e+00
  1.418104e+01    2.010982e+00
  1.421279e+01    2.066797e+00
  1.424455e+01    2.034871e+00
  1.427630e+01    1.978541e+00
  1.430805e+01    1.963237e+00
  1.433980e+01    2.053099e+00
  1.437155e+01    1.977715e+00
  1.440330e+01    1.965282e+00
  1.443505e+01    1.968301e+00
  1.446680e+01    1.954788e+00
  1.449856e+01    1.943576e+00
  1.453031e+01    1.929538e+00
  1.456206e+01    1.958909e+00
  1.459381e+01    1.958153e+00
  1.462556e+01    1.931334e+00
  1.465731e+01    1.926084e+00
  1.468906e+01    1.897444e+00
  1.472081e+01    1.957758e+00
  1.475256e+01    1.970867e+00
  1.478432e+01    1.947865e+00
  1.481607e+01    1.915974e+00
  1.484782e+01    2.000905e+00
  1.487957e+01    1.928577e+00
  1.491132e+01    2.010056e+00
  1.494307e+01    2.020178e+00
  1.497482e+01    2.065010e+00
  1.500657e+01    2.182366e+00
  1.503832e+01    2.267325e+00
  1.507008e+01    2.449074e+00
  1.510183e+01    2.723322e+00
  1.513358e+01    3.190736e+00
  1.516533e+01    3.907803e+00
  1.519708e+01    4.851659e+00
  1.522883e+01    5.691931e+00
  1.526058e+01    6.313863e+00
  1.529233e+01    6.723705e+00
  1.532409e+01    6.362577e+00
  1.535584e+01    5.205264e+00
  1.538759e+01    4.060236e+00
  1.541934e+01    3.259905e+00
  1.545109e+01    2.795374e+00
  1.548284e+01    2.402987e+00
  1.551459e+01    2.250544e+00
  1.554634e+01    2.089311e+00
  1.557809e+01    1.996758e+00
  1.560985e+01    1.935222e+00
  1.564160e+01    1.902141e+00
  1.567335e+01    1.812430e+00
  1.570510e+01    1.785498e+00
  1.573685e+01    1.773820e+00
  1.576860e+01    1.731422e+00
  1.580035e+01    1.753239e+00
  1.583210e+01    1.740753e+00
  1.586385e+01    1.688104e+00
  1.589561e+01    1.678626e+00
  1.592736e+01    1.689468e+00
  1.595911e+01    1.683204e+00
  1.599086e+01    1.683957e+00
  1.602261e+01    1.608848e+00
  1.605436e+01    1.608421e+00
  1.608611e+01    1.650745e+00
  1.611786e+01    1.631393e+00
  1.614961e+01    1.594965e+00
  1.618137e+01    1.588590e+00
  1.621312e+01    1.608127e+00
  1.624487e+01    1.584921e+00
  1.627662e+01    1.584602e+00
  1.630837e+01    1.572099e+00
  1.634012e+01    1.551899e+00
  1.637187e+01    1.564580e+00
  1.640362e+01    1.547706e+00
  1.643538e+01    1.553073e+00
  1.646713e+01    1.505571e+00
  1.649888e+01    1.555928e+00
  1.653063e+01    1.516285e+00
  1.656238e+01    1.518742e+00
  1.659413e+01    1.529719e+00
  1.662588e+01    1.558056e+00
  1.665763e+01    1.528427e+00
  1.668938e+01    1.538807e+00
  1.672114e+01    1.507962e+00
  1.675289e+01    1.506315e+00
  1.678464e+01    1.473037e+00
  1.681639e+01    1.467816e+00
  1.684814e+01    1.511796e+00
  1.687989e+01    1.490489e+00
  1.691164e+01    1.508692e+00
  1.694339e+01    1.480606e+00
  1.697514e+01    1.487757e+00
  1.700690e+01    1.449932e+00
  1.703865e+01    1.481704e+00
  1.707040e+01    1.434914e+00
  1.710215e+01    1.418888e+00
  1.713390e+01    1.456295e+00
  1.716565e+01    1.442868e+00
  1.719740e+01    1.447658e+00
  1.722915e+01    1.464157e+00
  1.726091e+01    1.427999e+00
  1.729266e+01    1.410057e+00
  1.732441e+01    1.413796e+00
  1.735616e+01    1.444910e+00
  1.738791e+01    1.400039e+00
  1.741966e+01    1.401715e+00
  1.745141e+01    1.401266e+00
  1.748316e+01    1.383204e+00
  1.751491e+01    1.381574e+00
  1.754667e+01    1.394489e+00
  1.757842e+01    1.419554e+00
  1.761017e+01    1.372497e+00
  1.764192e+01    1.369170e+00
  1.767367e+01    1.360576e+00
  1.770542e+01    1.382748e+00
  1.773717e+01    1.356440e+00
  1.776892e+01    1.338336e+00
  1.780067e+01    1.365666e+00
  1.783243e+01    1.352272e+00
  1.786418e+01    1.365928e+00
  1.789593e+01    1.365563e+00
  1.792768e+01    1.343453e+00
  1.795943e+01    1.351089e+00
  1.799118e+01    1.345497e+00
  1.802293e+01    1.322824e+00
  1.805468e+01    1.312664e+00
  1.808643e+01    1.313502e+00
  1.811819e+01    1.292370e+00
  1.814994e+01    1.299227e+00
  1.818169e+01    1.312416e+00
  1.821344e+01    1.296019e+00
  1.824519e+01    1.295390e+00
  1.827694e+01    1.306804e+00
  1.830869e+01    1.305850e+00
  1.834044e+01    1.278064e+00
  1.837220e+01    1.269495e+00
  1.840395e+01    1.308129e+00
  1.843570e+01    1.265701e+00
  1.846745e+01    1.292809e+00
  1.849920e+01    1.262426e+00
  1.853095e+01    1.267985e+00
  1.856270e+01    1.264696e+00
  1.859445e+01    1.263937e+00
  1.862620e+01    1.273361e+00
  1.865796e+01    1.279749e+00
  1.868971e+01    1.263770e+00
  1.872146e+01    1.246331e+00
  1.875321e+01    1.235582e+00
  1.878496e+01    1.266440e+00
  1.881671e+01    1.233058e+00
  1.884846e+01    1.244695e+00
  1.888021e+01    1.246850e+00
  1.891196e+01    1.216640e+00
  1.894372e+01    1.205601e+00
  1.897547e+01    1.236043e+00
  1.900722e+01    1.222377e+00
  1.903897e+01    1.208859e+00
  1.907072e+01    1.230052e+00
  1.910247e+01    1.221785e+00
  1.913422e+01    1.215486e+00
  1.916597e+01    1.195094e+00
  1.919773e+01    1.213683e+00
  1.922948e+01    1.208075e+00
  1.926123e+01    1.193848e+00
  1.929298e+01    1.218320e+00
  1.932473e+01    1.231727e+00
  1.935648e+01    1.210183e+00
  1.938823e+01    1.196750e+00
  1.941998e+01    1.207749e+00
  1.945173e+01    1.209620e+00
  1.948349e+01    1.184576e+00
  1.951524e+01    1.176196e+00
  1.954699e+01    1.180786e+00
  1.957874e+01    1.169314e+00
  1.961049e+01    1.163593e+00
  1.964224e+01    1.201366e+00
  1.967399e+01    1.155926e+00
  1.970574e+01    1.177726e+00
  1.973749e+01    1.148079e+00
  1.976925e+01    1.171826e+00
  1.980100e+01    1.161268e+00
  1.983275e+01    1.144685e+00
  1.986450e+01    1.168830e+00
  1.989625e+01    1.147016e+00
  1.992800e+01    1.167466e+00
  1.995975e+01    1.162887e+00
  1.999150e+01    1.164907e+00
  2.002325e+01    1.131592e+00
  2.005501e+01    1.128312e+00
  2.008676e+01    1.119329e+00
  2.011851e+01    1.150637e+00
  2.015026e+01    1.137214e+00
  2.018201e+01    1.129950e+00
  2.021376e+01    1.162440e+00
  2.024551e+01    1.130907e+00
  2.027726e+01    1.134019e+00
  2.030902e+01    1.126914e+00
  2.034077e+01    1.125786e+00
  2.037252e+01    1.108914e+00
  2.040427e+01    1.099258e+00
  2.043602e+01    1.101962e+00
  2.046777e+01    1.121828e+00
  2.049952e+01    1.150498e+00
  2.053127e+01    1.113858e+00
  2.056302e+01    1.104064e+00
  2.059478e+01    1.117585e+00
  2.062653e+01    1.119810e+00
  2.065828e+01    1.123127e+00
  2.069003e+01    1.113978e+00
  2.072178e+01    1.097952e+00
  2.075353e+01    1.087808e+00
  2.078528e+01    1.124290e+00
  2.081703e+01    1.087674e+00
  2.084878e+01    1.131346e+00
  2.088054e+01    1.117416e+00
  2.091229e+01    1.107382e+00
  2.094404e+01    1.113276e+00
  2.097579e+01    1.088913e+00
  2.100754e+01    1.077470e+00
  2.103929e+01    1.108859e+00
  2.107104e+01    1.097029e+00
  2.110279e+01    1.124492e+00
  2.113455e+01    1.122889e+00
  2.116630e+01    1.121596e+00
  2.119805e+01    1.100217e+00
  2.122980e+01    1.122638e+00
  2.126155e+01    1.139432e+00
  2.129330e+01    1.177368e+00
  2.132505e+01    1.158878e+00
  2.135680e+01    1.142109e+00
  2.138855e+01    1.185737e+00
  2.142031e+01    1.211306e+00
  2.145206e+01    1.235560e+00
  2.148381e+01    1.282750e+00
  2.151556e+01    1.324944e+00
  2.154731e+01    1.362865e+00
  2.157906e+01    1.452743e+00
  2.161081e+01    1.563262e+00
  2.164256e+01    1.743547e+00
  2.167431e+01    1.951478e+00
  2.170607e+01    2.263566e+00
  2.173782e+01    2.784473e+00
  2.176957e+01    3.512233e+00
  2.180132e+01    4.709459e+00
  2.183307e+01    6.157264e+00
  2.186482e+01    7.925197e+00
  2.189657e+01    9.759729e+00
  2.192832e+01    1.108309e+01
  2.196007e+01    1.089379e+01
  2.199183e+01    9.057277e+00
  2.202358e+01    6.563629e+00
  2.205533e+01    4.726603e+00
  2.208708e+01    3.493153e+00
  2.211883e+01    2.781767e+00
  2.215058e+01    2.263245e+00
  2.218233e+01    1.882006e+00
  2.221408e+01    1.688340e+00
  2.224584e+01    1.529536e+00
  2.227759e+01    1.409720e+00
  2.230934e+01    1.326675e+00
  2.234109e+01    1.268641e+00
  2.237284e+01    1.220304e+00
  2.240459e+01    1.173611e+00
  2.243634e+01    1.143269e+00
  2.246809e+01    1.107036e+00
  2.249984e+01    1.094950e+00
  2.253160e+01    1.054761e+00
  2.256335e+01    1.056855e+00
  2.259510e+01    1.052667e+00
  2.262685e+01    1.017846e+00
  2.265860e+01    1.010404e+00
  2.269035e+01    9.856043e-01
  2.272210e+01    1.000094e+00
  2.275385e+01    9.789792e-01
  2.278560e+01    9.732075e-01
  2.281736e+01    9.491930e-01
  2.284911e+01    9.357091e-01
  2.288086e+01    9.462657e-01
  2.291261e+01    9.473651e-01
  2.294436e+01    9.472724e-01
  2.297611e+01    9.242453e-01
  2.300786e+01    9.321156e-01
  2.303961e+01    8.962304e-01
  2.307137e+01    9.476578e-01
  2.310312e+01    9.248174e-01
  2.313487e+01    8.963259e-01
  2.316662e+01    9.031355e-01
  2.319837e+01    8.935128e-01
  2.323012e+01    8.950894e-01
  2.326187e+01    9.090347e-01
  2.329362e+01    8.833387e-01
  2.332537e+01    8.977147e-01
  2.335713e+01    9.058923e-01
  2.338888e+01    8.804383e-01
  2.342063e+01    9.050965e-01
  2.345238e+01    8.613733e-01
  2.348413e+01    8.597397e-01
  2.351588e+01    8.680471e-01
  2.354763e+01    8.700324e-01
  2.357938e+01    8.687598e-01
  2.361113e+01    8.731138e-01
  2.364289e+01    8.842241e-01
  2.367464e+01    8.543240e-01
  2.370639e+01    8.584641e-01
  2.373814e+01    8.408993e-01
  2.376989e+01    8.254167e-01
  2.380164e+01    8.321281e-01
  2.383339e+01    8.118169e-01
  2.386514e+01    8.436713e-01
  2.389689e+01    8.210018e-01
  2.392865e+01    8.415555e-01
  2.396040e+01    8.028878e-01
  2.399215e+01    7.818530e-01
  2.402390e+01    8.060433e-01
  2.405565e+01    7.987008e-01
  2.408740e+01    7.882633e-01
  2.411915e+01    7.955719e-01
  2.415090e+01    8.024229e-01
  2.418266e+01    7.744178e-01
  2.421441e+01    7.928706e-01
  2.424616e+01    7.949636e-01
  2.427791e+01    7.971318e-01
  2.430966e+01    7.977474e-01
  2.434141e+01    8.066550e-01
  2.437316e+01    8.179545e-01
  2.440491e+01    8.105673e-01
  2.443666e+01    8.035812e-01
  2.446842e+01    8.000273e-01
  2.450017e+01    8.041869e-01
  2.453192e+01    8.002872e-01
  2.456367e+01    8.325999e-01
  2.459542e+01    8.046253e-01
  2.462717e+01    8.162232e-01
  2.465892e+01    8.184791e-01
  2.469067e+01    8.231626e-01
  2.472242e+01    8.186691e-01
  2.475418e+01    8.353184e-01
  2.478593e+01    8.087105e-01
  2.481768e+01    8.051539e-01
  2.484943e+01    8.234053e-01
  2.488118e+01    8.285690e-01
  2.491293e+01    8.290933e-01
  2.494468e+01    8.077828e-01
  2.497643e+01    8.154982e-01
  2.500819e+01    8.310541e-01
  2.503994e+01    8.107107e-01
  2.507169e+01    8.377585e-01
  2.510344e+01    8.502234e-01
  2.513519e+01    8.322021e-01
  2.516694e+01    8.270056e-01
  2.519869e+01    8.381032e-01
  2.523044e+01    8.625263e-01
  2.526219e+01    8.785774e-01
  2.529395e+01    8.914803e-01
  2.532570e+01    8.849507e-01
  2.535745e+01    8.961478e-01
  2.538920e+01    9.160163e-01
  2.542095e+01    9.448832e-01
  2.545270e+01    9.734350e-01
  2.548445e+01    9.628990e-01
  2.551620e+01    9.886708e-01
  2.554795e+01    1.028082e+00
  2.557971e+01    1.063831e+00
  2.561146e+01    1.115453e+00
  2.564321e+01    1.187217e+00
  2.567496e+01    1.270959e+00
  2.570671e+01    1.394569e+00
  2.573846e+01    1.569364e+00
  2.577021e+01    1.781619e+00
  2.580196e+01    2.151440e+00
  2.583371e+01    2.693557e+00
  2.586547e+01    3.513038e+00
  2.589722e+01    4.655536e+00
  2.592897e+01    6.141891e+00
  2.596072e+01    7.756906e+00
  2.599247e+01    9.034407e+00
  2.602422e+01    9.317531e+00
  2.605597e+01    8.055695e+00
  2.608772e+01    6.188185e+00
  2.611948e+01    4.507914e+00
  2.615123e+01    3.367078e+00
  2.618298e+01    2.602306e+00
  2.621473e+01    2.098230e+00
  2.624648e+01    1.754294e+00
  2.627823e+01    1.538273e+00
  2.630998e+01    1.394875e+00
  2.634173e+01    1.271341e+00
  2.637348e+01    1.175588e+00
  2.640524e+01    1.115760e+00
  2.643699e+01    1.080569e+00
  2.646874e+01    1.030127e+00
  2.650049e+01    1.011900e+00
  2.653224e+01    9.964719e-01
  2.656399e+01    9.887014e-01
  2.659574e+01    9.639131e-01
  2.662749e+01    9.795709e-01
  2.665924e+01    9.752669e-01
  2.669100e+01    9.426980e-01
  2.672275e+01    9.462337e-01
  2.675450e+01    9.351094e-01
  2.678625e+01    9.240227e-01
  2.681800e+01    9.279175e-01
  2.684975e+01    9.279227e-01
  2.688150e+01    9.541314e-01
  2.691325e+01    9.363362e-01
  2.694501e+01    9.697128e-01
  2.697676e+01    9.765190e-01
  2.700851e+01    1.016971e+00
  2.704026e+01    1.066421e+00
  2.707201e+01    1.129736e+00
  2.710376e+01    1.251831e+00
  2.713551e+01    1.405371e+00
  2.716726e+01    1.683318e+00
  2.719901e+01    2.008165e+00
  2.723077e+01    2.360031e+00
  2.726252e+01    2.647157e+00
  2.729427e+01    2.624395e+00
  2.732602e+01    2.316766e+00
  2.735777e+01    1.900523e+00
  2.738952e+01    1.572431e+00
  2.742127e+01    1.314978e+00
  2.745302e+01    1.183856e+00
  2.748477e+01    1.114106e+00
  2.751653e+01    1.050899e+00
  2.754828e+01    1.000217e+00
  2.758003e+01    9.406364e-01
  2.761178e+01    8.934196e-01
  2.764353e+01    8.969234e-01
  2.767528e+01    8.841298e-01
  2.770703e+01    8.525155e-01
  2.773878e+01    8.650944e-01
  2.777054e+01    8.328167e-01
  2.780229e+01    8.514216e-01
  2.783404e+01    8.274795e-01
  2.786579e+01    8.201314e-01
  2.789754e+01    8.425587e-01
  2.792929e+01    8.420742e-01
  2.796104e+01    8.026243e-01
  2.799279e+01    8.190313e-01
  2.802454e+01    8.143860e-01
  2.805630e+01    8.133975e-01
  2.808805e+01    8.006769e-01
  2.811980e+01    7.999746e-01
  2.815155e+01    7.928370e-01
  2.818330e+01    7.930190e-01
  2.821505e+01    8.224568e-01
  2.824680e+01    8.213659e-01
  2.827855e+01    8.007185e-01
  2.831030e+01    7.985312e-01
  2.834206e+01    7.846845e-01
  2.837381e+01    7.830367e-01
  2.840556e+01    7.934744e-01
  2.843731e+01    7.616169e-01
  2.846906e+01    7.845096e-01
  2.850081e+01    7.929748e-01
  2.853256e+01    7.701527e-01
  2.856431e+01    7.666714e-01
  2.859606e+01    7.816075e-01
  2.862782e+01    7.849070e-01
  2.865957e+01    7.780724e-01
  2.869132e+01    7.859098e-01
  2.872307e+01    7.684951e-01
  2.875482e+01    7.705769e-01
  2.878657e+01    7.789657e-01
  2.881832e+01    7.675365e-01
  2.885007e+01    7.566363e-01
  2.888183e+01    7.706162e-01
  2.891358e+01    7.747188e-01
  2.894533e+01    7.661979e-01
  2.897708e+01    7.655022e-01
  2.900883e+01    7.572487e-01
  2.904058e+01    7.545467e-01
  2.907233e+01    7.498345e-01
  2.910408e+01    7.376109e-01
  2.913583e+01    7.474563e-01
  2.916759e+01    7.603984e-01
  2.919934e+01    7.648753e-01
  2.923109e+01    7.742282e-01
  2.926284e+01    7.634546e-01
  2.929459e+01    7.619388e-01
  2.932634e+01    7.612476e-01
  2.935809e+01    7.579177e-01
  2.938984e+01    7.700859e-01
  2.942159e+01    7.517655e-01
  2.945335e+01    7.552571e-01
  2.948510e+01    7.569461e-01
  2.951685e+01    7.273851e-01
  2.954860e+01    7.582103e-01
  2.958035e+01    7.443298e-01
  2.961210e+01    7.477028e-01
  2.964385e+01    7.612854e-01
  2.967560e+01    7.159808e-01
  2.970736e+01    7.377480e-01
  2.973911e+01    7.542637e-01
  2.977086e+01    7.430323e-01
  2.980261e+01    7.603580e-01
  2.983436e+01    7.314693e-01
  2.986611e+01    7.323318e-01
  2.989786e+01    7.386754e-01
  2.992961e+01    7.371430e-01
  2.996136e+01    7.279636e-01
  2.999312e+01    7.285505e-01
  3.002487e+01    7.270641e-01
  3.005662e+01    7.599277e-01
  3.008837e+01    7.671410e-01
  3.012012e+01    7.394214e-01
  3.015187e+01    7.305293e-01
  3.018362e+01    7.408025e-01
  3.021537e+01    7.270947e-01
  3.024712e+01    7.306510e-01
  3.027888e+01    7.481251e-01
  3.031063e+01    7.590538e-01
  3.034238e+01    7.483612e-01
  3.037413e+01    7.334040e-01
  3.040588e+01    7.315470e-01
  3.043763e+01    7.244305e-01
  3.046938e+01    7.369944e-01
  3.050113e+01    7.133088e-01
  3.053288e+01    7.011591e-01
  3.056464e+01    7.263902e-01
  3.059639e+01    6.931478e-01
  3.062814e+01    7.413949e-01
  3.065989e+01    7.294716e-01
  3.069164e+01    7.313557e-01
  3.072339e+01    7.245097e-01
  3.075514e+01    7.478072e-01
  3.078689e+01    7.374766e-01
  3.081865e+01    7.241198e-01
  3.085040e+01    7.115258e-01
  3.088215e+01    7.341570e-01
  3.091390e+01    7.187477e-01
  3.094565e+01    7.459450e-01
  3.097740e+01    7.322271e-01
  3.100915e+01    7.343068e-01
  3.104090e+01    7.538663e-01
  3.107265e+01    7.352812e-01
  3.110441e+01    7.183128e-01
  3.113616e+01    7.426276e-01
  3.116791e+01    7.496097e-01
  3.119966e+01    7.356300e-01
  3.123141e+01    7.548001e-01
  3.126316e+01    7.428204e-01
  3.129491e+01    7.277343e-01
  3.132666e+01    7.380201e-01
  3.135841e+01    7.399114e-01
  3.139017e+01    7.461436e-01
  3.142192e+01    7.841510e-01
  3.145367e+01    7.748045e-01
  3.148542e+01    7.647878e-01
  3.151717e+01    7.881819e-01
  3.154892e+01    7.971689e-01
  3.158067e+01    7.940432e-01
  3.161242e+01    8.174868e-01
  3.164418e+01    8.642229e-01
  3.167593e+01    8.752155e-01
  3.170768e+01    9.345319e-01
  3.173943e+01    9.814336e-01
  3.177118e+01    1.052478e+00
  3.180293e+01    1.171077e+00
  3.183468e+01    1.317930e+00
  3.186643e+01    1.590870e+00
  3.189818e+01    1.978593e+00
  3.192994e+01    2.406538e+00
  3.196169e+01    2.613124e+00
  3.199344e+01    2.570060e+00
  3.202519e+01    2.299245e+00
  3.205694e+01    1.866861e+00
  3.208869e+01    1.483330e+00
  3.212044e+01    1.269916e+00
  3.215219e+01    1.121670e+00
  3.218394e+01    1.003364e+00
  3.221570e+01    9.251745e-01
  3.224745e+01    8.910384e-01
  3.227920e+01    8.671741e-01
  3.231095e+01    8.260390e-01
  3.234270e+01    8.022116e-01
  3.237445e+01    7.967944e-01
  3.240620e+01    7.745594e-01
  3.243795e+01    7.594696e-01
  3.246970e+01    7.509651e-01
  3.250146e+01    7.607952e-01
  3.253321e+01    7.599940e-01
  3.254908e+01    7.604467e-01