File: XRD/Activation ramp/2024-07-27_002_Ru-CGO-ex_Activtation_ramp_000002_data_000054.dat
# == pyFAI calibration ==
# Distance Sample to Detector: 0.4 m
# PONI: 9.750e-02, 1.135e-01 m
# Rotations: -0.000175 0.000000 -0.000000 rad
#
# == Fit2d calibration ==
# Distance Sample-beamCenter: 400.000 mm
# Center: x=1514.000, y=1300.000 pix
# Tilt: 0.010 deg  TiltPlanRot: 0.010 deg
#
# Detector Detector	 Spline= None	 PixelSize= 7.500e-05, 7.500e-05 m
#    Detector has a mask: False
#    Detector has a dark current: False
#    detector has a flat field: False
#
# Wavelength: 6.888e-11 m
# Mask applied: user provided
# Dark current applied: False
# Flat field applied: False
# Polarization factor: 0.99
# Normalization factor: 1.0
# --> /home/myspot/data/2024_07_Rosario/Ru-CGO-ex/2024-07-27_002_Ru-CGO-ex_Activtation_ramp_000002_data_000054.dat
#       q_nm^-1             I
  2.003187e-02    7.712624e-02
  5.178302e-02    1.708802e-01
  8.353417e-02    1.746446e-01
  1.152853e-01    2.017733e-02
  1.470365e-01    5.495173e-02
  1.787876e-01    8.699706e-02
  2.105388e-01    5.527490e-02
  2.422899e-01    9.308089e-03
  2.740411e-01    4.818685e-02
  3.057922e-01    6.109071e-02
  3.375433e-01    5.299059e-02
  3.692945e-01    4.310368e-02
  4.010456e-01    4.986686e-02
  4.327968e-01    5.594280e-02
  4.645479e-01    2.816097e-02
  4.962991e-01    6.489491e-02
  5.280502e-01    4.638463e-02
  5.598014e-01    1.618483e-02
  5.915525e-01    5.478114e-02
  6.233037e-01    3.087696e-02
  6.550548e-01    3.197933e-02
  6.868060e-01    6.183929e-02
  7.185571e-01    2.814088e-02
  7.503083e-01    2.875147e-02
  7.820594e-01    9.838874e-02
  8.138106e-01    1.698401e-01
  8.455617e-01    3.083066e-01
  8.773129e-01    3.846234e-01
  9.090640e-01    5.606760e-01
  9.408152e-01    7.188563e-01
  9.725663e-01    8.617259e-01
  1.004317e+00    1.074618e+00
  1.036069e+00    1.261903e+00
  1.067820e+00    1.349527e+00
  1.099571e+00    1.436792e+00
  1.131322e+00    1.407771e+00
  1.163073e+00    1.535059e+00
  1.194824e+00    1.591593e+00
  1.226575e+00    2.125013e+00
  1.258327e+00    2.213423e+00
  1.290078e+00    2.292229e+00
  1.321829e+00    2.566723e+00
  1.353580e+00    2.573940e+00
  1.385331e+00    2.731364e+00
  1.417082e+00    2.631089e+00
  1.448834e+00    2.764322e+00
  1.480585e+00    2.891543e+00
  1.512336e+00    3.070162e+00
  1.544087e+00    3.119861e+00
  1.575838e+00    3.079142e+00
  1.607589e+00    2.932650e+00
  1.639340e+00    2.846358e+00
  1.671092e+00    2.821719e+00
  1.702843e+00    2.812757e+00
  1.734594e+00    2.771986e+00
  1.766345e+00    2.881435e+00
  1.798096e+00    2.702785e+00
  1.829847e+00    2.785200e+00
  1.861598e+00    2.825392e+00
  1.893350e+00    2.798760e+00
  1.925101e+00    2.736489e+00
  1.956852e+00    2.857982e+00
  1.988603e+00    2.673773e+00
  2.020354e+00    2.781625e+00
  2.052105e+00    2.783257e+00
  2.083856e+00    2.864145e+00
  2.115608e+00    2.823435e+00
  2.147359e+00    2.738239e+00
  2.179110e+00    2.769083e+00
  2.210861e+00    2.790103e+00
  2.242612e+00    2.934791e+00
  2.274363e+00    2.836922e+00
  2.306115e+00    2.771842e+00
  2.337866e+00    2.754578e+00
  2.369617e+00    2.794013e+00
  2.401368e+00    2.779472e+00
  2.433119e+00    2.729947e+00
  2.464870e+00    2.797932e+00
  2.496621e+00    2.806801e+00
  2.528373e+00    2.733148e+00
  2.560124e+00    2.830230e+00
  2.591875e+00    2.859543e+00
  2.623626e+00    2.908461e+00
  2.655377e+00    2.781541e+00
  2.687128e+00    2.821837e+00
  2.718879e+00    2.815479e+00
  2.750631e+00    2.800420e+00
  2.782382e+00    2.785796e+00
  2.814133e+00    2.988058e+00
  2.845884e+00    2.864738e+00
  2.877635e+00    2.884377e+00
  2.909386e+00    2.912894e+00
  2.941137e+00    2.778702e+00
  2.972889e+00    2.908072e+00
  3.004640e+00    2.861252e+00
  3.036391e+00    2.906189e+00
  3.068142e+00    2.975829e+00
  3.099893e+00    2.965709e+00
  3.131644e+00    2.924208e+00
  3.163395e+00    2.978422e+00
  3.195147e+00    2.902432e+00
  3.226898e+00    2.968665e+00
  3.258649e+00    2.882123e+00
  3.290400e+00    3.014470e+00
  3.322151e+00    3.018692e+00
  3.353902e+00    2.854673e+00
  3.385654e+00    2.922930e+00
  3.417405e+00    2.971808e+00
  3.449156e+00    2.967199e+00
  3.480907e+00    2.970922e+00
  3.512658e+00    2.953891e+00
  3.544409e+00    2.966966e+00
  3.576160e+00    2.923623e+00
  3.607912e+00    2.961670e+00
  3.639663e+00    2.862700e+00
  3.671414e+00    3.080622e+00
  3.703165e+00    3.028698e+00
  3.734916e+00    2.971798e+00
  3.766667e+00    2.999004e+00
  3.798418e+00    3.005217e+00
  3.830170e+00    3.102132e+00
  3.861921e+00    2.981698e+00
  3.893672e+00    3.068672e+00
  3.925423e+00    3.111982e+00
  3.957174e+00    3.108107e+00
  3.988925e+00    3.078290e+00
  4.020676e+00    3.010835e+00
  4.052428e+00    2.979789e+00
  4.084179e+00    3.010394e+00
  4.115930e+00    3.085737e+00
  4.147681e+00    3.023957e+00
  4.179432e+00    3.092872e+00
  4.211183e+00    3.054041e+00
  4.242935e+00    3.039701e+00
  4.274686e+00    3.034825e+00
  4.306437e+00    2.969229e+00
  4.338188e+00    3.079287e+00
  4.369939e+00    3.085928e+00
  4.401690e+00    3.117509e+00
  4.433441e+00    3.100338e+00
  4.465193e+00    3.102545e+00
  4.496944e+00    3.079247e+00
  4.528695e+00    3.133495e+00
  4.560446e+00    3.128196e+00
  4.592197e+00    3.027275e+00
  4.623948e+00    3.190352e+00
  4.655699e+00    3.070899e+00
  4.687451e+00    3.100607e+00
  4.719202e+00    3.071730e+00
  4.750953e+00    3.085377e+00
  4.782704e+00    3.096772e+00
  4.814455e+00    3.080937e+00
  4.846206e+00    3.150783e+00
  4.877957e+00    3.150888e+00
  4.909709e+00    3.149593e+00
  4.941460e+00    3.113928e+00
  4.973211e+00    3.147036e+00
  5.004962e+00    3.168083e+00
  5.036713e+00    3.156948e+00
  5.068464e+00    3.117271e+00
  5.100216e+00    3.086175e+00
  5.131967e+00    3.128365e+00
  5.163718e+00    3.083164e+00
  5.195469e+00    3.103011e+00
  5.227220e+00    3.156922e+00
  5.258971e+00    3.162529e+00
  5.290722e+00    3.109366e+00
  5.322474e+00    3.176471e+00
  5.354225e+00    3.127195e+00
  5.385976e+00    3.132069e+00
  5.417727e+00    3.033837e+00
  5.449478e+00    3.077240e+00
  5.481229e+00    3.037050e+00
  5.512980e+00    3.070932e+00
  5.544732e+00    3.127840e+00
  5.576483e+00    3.089012e+00
  5.608234e+00    3.133334e+00
  5.639985e+00    3.095321e+00
  5.671736e+00    3.098930e+00
  5.703487e+00    3.160689e+00
  5.735238e+00    3.035882e+00
  5.766990e+00    3.108418e+00
  5.798741e+00    3.074069e+00
  5.830492e+00    3.027557e+00
  5.862243e+00    3.094203e+00
  5.893994e+00    3.092621e+00
  5.925745e+00    3.016202e+00
  5.957497e+00    3.027187e+00
  5.989248e+00    3.024860e+00
  6.020999e+00    3.017443e+00
  6.052750e+00    2.968985e+00
  6.084501e+00    3.071022e+00
  6.116252e+00    3.122945e+00
  6.148003e+00    3.035973e+00
  6.179755e+00    3.088166e+00
  6.211506e+00    3.005430e+00
  6.243257e+00    3.023444e+00
  6.275008e+00    3.059542e+00
  6.306759e+00    3.092549e+00
  6.338510e+00    3.121479e+00
  6.370261e+00    3.043084e+00
  6.402013e+00    3.058284e+00
  6.433764e+00    3.064163e+00
  6.465515e+00    3.050035e+00
  6.497266e+00    3.095891e+00
  6.529017e+00    3.044319e+00
  6.560768e+00    3.057292e+00
  6.592519e+00    3.084267e+00
  6.624271e+00    3.056585e+00
  6.656022e+00    3.023804e+00
  6.687773e+00    3.053842e+00
  6.719524e+00    3.022610e+00
  6.751275e+00    3.005994e+00
  6.783026e+00    3.031140e+00
  6.814777e+00    2.963046e+00
  6.846529e+00    3.025812e+00
  6.878280e+00    3.024301e+00
  6.910031e+00    3.022902e+00
  6.941782e+00    2.979219e+00
  6.973533e+00    2.974909e+00
  7.005284e+00    3.004316e+00
  7.037036e+00    3.052063e+00
  7.068787e+00    3.006658e+00
  7.100538e+00    3.039804e+00
  7.132289e+00    3.064402e+00
  7.164040e+00    3.022474e+00
  7.195791e+00    2.987080e+00
  7.227542e+00    3.038769e+00
  7.259294e+00    2.989421e+00
  7.291045e+00    3.107755e+00
  7.322796e+00    3.024891e+00
  7.354547e+00    2.992372e+00
  7.386298e+00    3.019914e+00
  7.418049e+00    2.943190e+00
  7.449800e+00    2.978541e+00
  7.481552e+00    2.930967e+00
  7.513303e+00    2.971380e+00
  7.545054e+00    3.002856e+00
  7.576805e+00    2.913531e+00
  7.608556e+00    2.997748e+00
  7.640307e+00    2.956697e+00
  7.672058e+00    2.959059e+00
  7.703810e+00    2.988874e+00
  7.735561e+00    2.960095e+00
  7.767312e+00    2.942570e+00
  7.799063e+00    2.922981e+00
  7.830814e+00    2.935935e+00
  7.862565e+00    2.962264e+00
  7.894317e+00    2.929759e+00
  7.926068e+00    2.945536e+00
  7.957819e+00    2.958333e+00
  7.989570e+00    2.913490e+00
  8.021321e+00    2.904481e+00
  8.053072e+00    2.927608e+00
  8.084823e+00    2.986630e+00
  8.116575e+00    2.938850e+00
  8.148326e+00    2.959025e+00
  8.180077e+00    2.996565e+00
  8.211828e+00    2.930714e+00
  8.243579e+00    2.962854e+00
  8.275330e+00    2.952055e+00
  8.307081e+00    2.914303e+00
  8.338833e+00    2.955602e+00
  8.370584e+00    2.989380e+00
  8.402335e+00    2.935774e+00
  8.434086e+00    2.876468e+00
  8.465837e+00    2.882713e+00
  8.497588e+00    2.882145e+00
  8.529339e+00    2.842769e+00
  8.561091e+00    2.851453e+00
  8.592842e+00    2.873400e+00
  8.624593e+00    2.875147e+00
  8.656344e+00    2.826137e+00
  8.688095e+00    2.914447e+00
  8.719846e+00    2.903450e+00
  8.751598e+00    2.911308e+00
  8.783349e+00    2.907402e+00
  8.815100e+00    2.925840e+00
  8.846851e+00    2.931793e+00
  8.878602e+00    2.857241e+00
  8.910353e+00    2.876573e+00
  8.942104e+00    2.815848e+00
  8.973856e+00    2.848612e+00
  9.005607e+00    2.872952e+00
  9.037358e+00    2.852833e+00
  9.069109e+00    2.803459e+00
  9.100860e+00    2.843117e+00
  9.132611e+00    2.784532e+00
  9.164362e+00    2.808900e+00
  9.196114e+00    2.773991e+00
  9.227865e+00    2.852679e+00
  9.259616e+00    2.822994e+00
  9.291367e+00    2.807586e+00
  9.323118e+00    2.750435e+00
  9.354869e+00    2.804995e+00
  9.386620e+00    2.742144e+00
  9.418372e+00    2.800113e+00
  9.450123e+00    2.772247e+00
  9.481874e+00    2.775050e+00
  9.513625e+00    2.792951e+00
  9.545376e+00    2.806555e+00
  9.577127e+00    2.816474e+00
  9.608878e+00    2.761717e+00
  9.640630e+00    2.731630e+00
  9.672381e+00    2.737008e+00
  9.704132e+00    2.788860e+00
  9.735883e+00    2.719502e+00
  9.767634e+00    2.717480e+00
  9.799385e+00    2.698453e+00
  9.831137e+00    2.754628e+00
  9.862888e+00    2.681242e+00
  9.894639e+00    2.719990e+00
  9.926390e+00    2.682171e+00
  9.958141e+00    2.737006e+00
  9.989892e+00    2.675766e+00
  1.002164e+01    2.684480e+00
  1.005339e+01    2.629488e+00
  1.008515e+01    2.680016e+00
  1.011690e+01    2.714605e+00
  1.014865e+01    2.677842e+00
  1.018040e+01    2.651120e+00
  1.021215e+01    2.621010e+00
  1.024390e+01    2.626707e+00
  1.027565e+01    2.642188e+00
  1.030740e+01    2.654705e+00
  1.033915e+01    2.658258e+00
  1.037091e+01    2.666781e+00
  1.040266e+01    2.654323e+00
  1.043441e+01    2.622448e+00
  1.046616e+01    2.581527e+00
  1.049791e+01    2.615350e+00
  1.052966e+01    2.616978e+00
  1.056141e+01    2.573719e+00
  1.059316e+01    2.540321e+00
  1.062492e+01    2.557714e+00
  1.065667e+01    2.631198e+00
  1.068842e+01    2.552253e+00
  1.072017e+01    2.620966e+00
  1.075192e+01    2.528037e+00
  1.078367e+01    2.577624e+00
  1.081542e+01    2.534416e+00
  1.084717e+01    2.620412e+00
  1.087892e+01    2.583416e+00
  1.091068e+01    2.515158e+00
  1.094243e+01    2.495366e+00
  1.097418e+01    2.529509e+00
  1.100593e+01    2.502320e+00
  1.103768e+01    2.522190e+00
  1.106943e+01    2.447906e+00
  1.110118e+01    2.478317e+00
  1.113293e+01    2.461755e+00
  1.116468e+01    2.463769e+00
  1.119644e+01    2.443525e+00
  1.122819e+01    2.464574e+00
  1.125994e+01    2.476507e+00
  1.129169e+01    2.433989e+00
  1.132344e+01    2.444897e+00
  1.135519e+01    2.455238e+00
  1.138694e+01    2.435306e+00
  1.141869e+01    2.447170e+00
  1.145045e+01    2.399021e+00
  1.148220e+01    2.391948e+00
  1.151395e+01    2.458048e+00
  1.154570e+01    2.401507e+00
  1.157745e+01    2.432874e+00
  1.160920e+01    2.385236e+00
  1.164095e+01    2.416129e+00
  1.167270e+01    2.407755e+00
  1.170445e+01    2.352667e+00
  1.173621e+01    2.375336e+00
  1.176796e+01    2.377730e+00
  1.179971e+01    2.340271e+00
  1.183146e+01    2.341243e+00
  1.186321e+01    2.414511e+00
  1.189496e+01    2.341925e+00
  1.192671e+01    2.341519e+00
  1.195846e+01    2.319624e+00
  1.199021e+01    2.322675e+00
  1.202197e+01    2.357336e+00
  1.205372e+01    2.342605e+00
  1.208547e+01    2.374730e+00
  1.211722e+01    2.298839e+00
  1.214897e+01    2.327676e+00
  1.218072e+01    2.343043e+00
  1.221247e+01    2.360438e+00
  1.224422e+01    2.325995e+00
  1.227597e+01    2.367697e+00
  1.230773e+01    2.308311e+00
  1.233948e+01    2.383802e+00
  1.237123e+01    2.435952e+00
  1.240298e+01    2.367412e+00
  1.243473e+01    2.348446e+00
  1.246648e+01    2.345112e+00
  1.249823e+01    2.366565e+00
  1.252998e+01    2.387038e+00
  1.256174e+01    2.379836e+00
  1.259349e+01    2.397462e+00
  1.262524e+01    2.447987e+00
  1.265699e+01    2.443358e+00
  1.268874e+01    2.444540e+00
  1.272049e+01    2.512985e+00
  1.275224e+01    2.553375e+00
  1.278399e+01    2.655530e+00
  1.281574e+01    2.781462e+00
  1.284750e+01    2.929380e+00
  1.287925e+01    3.046880e+00
  1.291100e+01    3.293772e+00
  1.294275e+01    3.687246e+00
  1.297450e+01    4.309350e+00
  1.300625e+01    5.346184e+00
  1.303800e+01    6.836761e+00
  1.306975e+01    9.115907e+00
  1.310150e+01    1.211681e+01
  1.313326e+01    1.504499e+01
  1.316501e+01    1.771464e+01
  1.319676e+01    1.911040e+01
  1.322851e+01    1.715597e+01
  1.326026e+01    1.273676e+01
  1.329201e+01    8.901849e+00
  1.332376e+01    6.641833e+00
  1.335551e+01    5.091108e+00
  1.338727e+01    4.192226e+00
  1.341902e+01    3.603928e+00
  1.345077e+01    3.255398e+00
  1.348252e+01    2.980407e+00
  1.351427e+01    2.804401e+00
  1.354602e+01    2.683580e+00
  1.357777e+01    2.543313e+00
  1.360952e+01    2.449463e+00
  1.364127e+01    2.410805e+00
  1.367303e+01    2.366789e+00
  1.370478e+01    2.280567e+00
  1.373653e+01    2.274820e+00
  1.376828e+01    2.198708e+00
  1.380003e+01    2.188014e+00
  1.383178e+01    2.190863e+00
  1.386353e+01    2.117847e+00
  1.389528e+01    2.126396e+00
  1.392703e+01    2.156910e+00
  1.395879e+01    2.095090e+00
  1.399054e+01    2.059662e+00
  1.402229e+01    2.058270e+00
  1.405404e+01    2.048083e+00
  1.408579e+01    2.025424e+00
  1.411754e+01    2.074798e+00
  1.414929e+01    1.980643e+00
  1.418104e+01    2.037293e+00
  1.421279e+01    1.991964e+00
  1.424455e+01    2.023739e+00
  1.427630e+01    1.985696e+00
  1.430805e+01    1.971802e+00
  1.433980e+01    1.936322e+00
  1.437155e+01    1.956779e+00
  1.440330e+01    2.005355e+00
  1.443505e+01    1.943645e+00
  1.446680e+01    1.977237e+00
  1.449856e+01    1.922074e+00
  1.453031e+01    1.935583e+00
  1.456206e+01    1.903268e+00
  1.459381e+01    1.946981e+00
  1.462556e+01    1.873262e+00
  1.465731e+01    1.932046e+00
  1.468906e+01    1.929300e+00
  1.472081e+01    1.948174e+00
  1.475256e+01    1.930049e+00
  1.478432e+01    1.934985e+00
  1.481607e+01    1.936655e+00
  1.484782e+01    1.922574e+00
  1.487957e+01    1.946083e+00
  1.491132e+01    1.957586e+00
  1.494307e+01    2.016362e+00
  1.497482e+01    2.025464e+00
  1.500657e+01    2.138705e+00
  1.503832e+01    2.285079e+00
  1.507008e+01    2.478858e+00
  1.510183e+01    2.773748e+00
  1.513358e+01    3.354903e+00
  1.516533e+01    4.036826e+00
  1.519708e+01    4.900157e+00
  1.522883e+01    5.607156e+00
  1.526058e+01    6.187595e+00
  1.529233e+01    6.435639e+00
  1.532409e+01    5.830762e+00
  1.535584e+01    4.696178e+00
  1.538759e+01    3.603587e+00
  1.541934e+01    2.951768e+00
  1.545109e+01    2.557956e+00
  1.548284e+01    2.302547e+00
  1.551459e+01    2.120039e+00
  1.554634e+01    2.051035e+00
  1.557809e+01    1.888677e+00
  1.560985e+01    1.858876e+00
  1.564160e+01    1.831800e+00
  1.567335e+01    1.812649e+00
  1.570510e+01    1.777878e+00
  1.573685e+01    1.748536e+00
  1.576860e+01    1.738144e+00
  1.580035e+01    1.713873e+00
  1.583210e+01    1.669838e+00
  1.586385e+01    1.667807e+00
  1.589561e+01    1.684812e+00
  1.592736e+01    1.662778e+00
  1.595911e+01    1.677282e+00
  1.599086e+01    1.625655e+00
  1.602261e+01    1.620282e+00
  1.605436e+01    1.632940e+00
  1.608611e+01    1.613781e+00
  1.611786e+01    1.572808e+00
  1.614961e+01    1.585987e+00
  1.618137e+01    1.572559e+00
  1.621312e+01    1.601136e+00
  1.624487e+01    1.535931e+00
  1.627662e+01    1.567031e+00
  1.630837e+01    1.579026e+00
  1.634012e+01    1.532685e+00
  1.637187e+01    1.571243e+00
  1.640362e+01    1.538747e+00
  1.643538e+01    1.548572e+00
  1.646713e+01    1.560930e+00
  1.649888e+01    1.519912e+00
  1.653063e+01    1.481903e+00
  1.656238e+01    1.516618e+00
  1.659413e+01    1.521205e+00
  1.662588e+01    1.490857e+00
  1.665763e+01    1.463953e+00
  1.668938e+01    1.486940e+00
  1.672114e+01    1.469308e+00
  1.675289e+01    1.507605e+00
  1.678464e+01    1.481924e+00
  1.681639e+01    1.475367e+00
  1.684814e+01    1.453972e+00
  1.687989e+01    1.441061e+00
  1.691164e+01    1.482387e+00
  1.694339e+01    1.492594e+00
  1.697514e+01    1.441348e+00
  1.700690e+01    1.464415e+00
  1.703865e+01    1.423004e+00
  1.707040e+01    1.481853e+00
  1.710215e+01    1.419617e+00
  1.713390e+01    1.426540e+00
  1.716565e+01    1.426879e+00
  1.719740e+01    1.388115e+00
  1.722915e+01    1.396899e+00
  1.726091e+01    1.379141e+00
  1.729266e+01    1.410069e+00
  1.732441e+01    1.378307e+00
  1.735616e+01    1.432276e+00
  1.738791e+01    1.412148e+00
  1.741966e+01    1.388398e+00
  1.745141e+01    1.368139e+00
  1.748316e+01    1.374425e+00
  1.751491e+01    1.399343e+00
  1.754667e+01    1.371538e+00
  1.757842e+01    1.363206e+00
  1.761017e+01    1.367988e+00
  1.764192e+01    1.340570e+00
  1.767367e+01    1.339740e+00
  1.770542e+01    1.338972e+00
  1.773717e+01    1.346593e+00
  1.776892e+01    1.343749e+00
  1.780067e+01    1.325644e+00
  1.783243e+01    1.314509e+00
  1.786418e+01    1.364844e+00
  1.789593e+01    1.306065e+00
  1.792768e+01    1.342714e+00
  1.795943e+01    1.297777e+00
  1.799118e+01    1.310936e+00
  1.802293e+01    1.314145e+00
  1.805468e+01    1.306874e+00
  1.808643e+01    1.313419e+00
  1.811819e+01    1.287320e+00
  1.814994e+01    1.304176e+00
  1.818169e+01    1.293628e+00
  1.821344e+01    1.299648e+00
  1.824519e+01    1.288549e+00
  1.827694e+01    1.257570e+00
  1.830869e+01    1.248150e+00
  1.834044e+01    1.244466e+00
  1.837220e+01    1.273947e+00
  1.840395e+01    1.268976e+00
  1.843570e+01    1.285431e+00
  1.846745e+01    1.273562e+00
  1.849920e+01    1.287885e+00
  1.853095e+01    1.231388e+00
  1.856270e+01    1.258219e+00
  1.859445e+01    1.227697e+00
  1.862620e+01    1.272599e+00
  1.865796e+01    1.251467e+00
  1.868971e+01    1.223831e+00
  1.872146e+01    1.248176e+00
  1.875321e+01    1.269282e+00
  1.878496e+01    1.226818e+00
  1.881671e+01    1.246962e+00
  1.884846e+01    1.225790e+00
  1.888021e+01    1.244084e+00
  1.891196e+01    1.235815e+00
  1.894372e+01    1.219277e+00
  1.897547e+01    1.214756e+00
  1.900722e+01    1.225238e+00
  1.903897e+01    1.219102e+00
  1.907072e+01    1.194387e+00
  1.910247e+01    1.192444e+00
  1.913422e+01    1.197531e+00
  1.916597e+01    1.197375e+00
  1.919773e+01    1.186864e+00
  1.922948e+01    1.195610e+00
  1.926123e+01    1.192822e+00
  1.929298e+01    1.174369e+00
  1.932473e+01    1.219659e+00
  1.935648e+01    1.206492e+00
  1.938823e+01    1.181033e+00
  1.941998e+01    1.165940e+00
  1.945173e+01    1.169471e+00
  1.948349e+01    1.176210e+00
  1.951524e+01    1.165969e+00
  1.954699e+01    1.157326e+00
  1.957874e+01    1.160678e+00
  1.961049e+01    1.157158e+00
  1.964224e+01    1.156220e+00
  1.967399e+01    1.168879e+00
  1.970574e+01    1.130789e+00
  1.973749e+01    1.123606e+00
  1.976925e+01    1.160462e+00
  1.980100e+01    1.145587e+00
  1.983275e+01    1.130903e+00
  1.986450e+01    1.131687e+00
  1.989625e+01    1.120197e+00
  1.992800e+01    1.120255e+00
  1.995975e+01    1.104658e+00
  1.999150e+01    1.137570e+00
  2.002325e+01    1.130168e+00
  2.005501e+01    1.126864e+00
  2.008676e+01    1.125243e+00
  2.011851e+01    1.116714e+00
  2.015026e+01    1.128799e+00
  2.018201e+01    1.095074e+00
  2.021376e+01    1.097247e+00
  2.024551e+01    1.106903e+00
  2.027726e+01    1.119002e+00
  2.030902e+01    1.133304e+00
  2.034077e+01    1.101086e+00
  2.037252e+01    1.107077e+00
  2.040427e+01    1.104758e+00
  2.043602e+01    1.095424e+00
  2.046777e+01    1.099045e+00
  2.049952e+01    1.075644e+00
  2.053127e+01    1.103230e+00
  2.056302e+01    1.092188e+00
  2.059478e+01    1.112474e+00
  2.062653e+01    1.099674e+00
  2.065828e+01    1.105676e+00
  2.069003e+01    1.090327e+00
  2.072178e+01    1.104463e+00
  2.075353e+01    1.087547e+00
  2.078528e+01    1.084767e+00
  2.081703e+01    1.116560e+00
  2.084878e+01    1.089887e+00
  2.088054e+01    1.067186e+00
  2.091229e+01    1.074653e+00
  2.094404e+01    1.116845e+00
  2.097579e+01    1.088194e+00
  2.100754e+01    1.114444e+00
  2.103929e+01    1.110854e+00
  2.107104e+01    1.081550e+00
  2.110279e+01    1.128267e+00
  2.113455e+01    1.083284e+00
  2.116630e+01    1.091073e+00
  2.119805e+01    1.119932e+00
  2.122980e+01    1.123295e+00
  2.126155e+01    1.098394e+00
  2.129330e+01    1.122952e+00
  2.132505e+01    1.152530e+00
  2.135680e+01    1.152911e+00
  2.138855e+01    1.166310e+00
  2.142031e+01    1.171276e+00
  2.145206e+01    1.214793e+00
  2.148381e+01    1.270925e+00
  2.151556e+01    1.302951e+00
  2.154731e+01    1.397073e+00
  2.157906e+01    1.471173e+00
  2.161081e+01    1.591309e+00
  2.164256e+01    1.742396e+00
  2.167431e+01    2.010757e+00
  2.170607e+01    2.342165e+00
  2.173782e+01    2.976619e+00
  2.176957e+01    3.826147e+00
  2.180132e+01    5.059261e+00
  2.183307e+01    6.525088e+00
  2.186482e+01    8.258554e+00
  2.189657e+01    9.789676e+00
  2.192832e+01    1.060259e+01
  2.196007e+01    9.754533e+00
  2.199183e+01    7.551618e+00
  2.202358e+01    5.337066e+00
  2.205533e+01    3.894515e+00
  2.208708e+01    2.949819e+00
  2.211883e+01    2.391478e+00
  2.215058e+01    1.982927e+00
  2.218233e+01    1.736014e+00
  2.221408e+01    1.570472e+00
  2.224584e+01    1.415988e+00
  2.227759e+01    1.323306e+00
  2.230934e+01    1.254568e+00
  2.234109e+01    1.190714e+00
  2.237284e+01    1.132083e+00
  2.240459e+01    1.153590e+00
  2.243634e+01    1.119698e+00
  2.246809e+01    1.095254e+00
  2.249984e+01    1.042723e+00
  2.253160e+01    1.037616e+00
  2.256335e+01    1.029796e+00
  2.259510e+01    1.030075e+00
  2.262685e+01    1.007528e+00
  2.265860e+01    9.933792e-01
  2.269035e+01    9.804940e-01
  2.272210e+01    9.612987e-01
  2.275385e+01    9.666568e-01
  2.278560e+01    9.579037e-01
  2.281736e+01    9.405986e-01
  2.284911e+01    9.495392e-01
  2.288086e+01    9.134951e-01
  2.291261e+01    9.521320e-01
  2.294436e+01    9.134904e-01
  2.297611e+01    9.132347e-01
  2.300786e+01    9.037538e-01
  2.303961e+01    9.206226e-01
  2.307137e+01    8.926756e-01
  2.310312e+01    8.825733e-01
  2.313487e+01    9.063296e-01
  2.316662e+01    8.896669e-01
  2.319837e+01    8.788733e-01
  2.323012e+01    8.887655e-01
  2.326187e+01    8.667491e-01
  2.329362e+01    8.915801e-01
  2.332537e+01    8.736863e-01
  2.335713e+01    8.781488e-01
  2.338888e+01    8.717199e-01
  2.342063e+01    8.384078e-01
  2.345238e+01    8.517919e-01
  2.348413e+01    8.542053e-01
  2.351588e+01    8.653876e-01
  2.354763e+01    8.665092e-01
  2.357938e+01    8.411145e-01
  2.361113e+01    8.842821e-01
  2.364289e+01    8.486941e-01
  2.367464e+01    8.551304e-01
  2.370639e+01    8.131939e-01
  2.373814e+01    8.259729e-01
  2.376989e+01    8.322304e-01
  2.380164e+01    8.185994e-01
  2.383339e+01    8.213989e-01
  2.386514e+01    8.222713e-01
  2.389689e+01    8.058065e-01
  2.392865e+01    8.014383e-01
  2.396040e+01    8.150526e-01
  2.399215e+01    7.982306e-01
  2.402390e+01    7.947606e-01
  2.405565e+01    7.867763e-01
  2.408740e+01    7.932661e-01
  2.411915e+01    7.775282e-01
  2.415090e+01    8.077184e-01
  2.418266e+01    7.819035e-01
  2.421441e+01    7.743104e-01
  2.424616e+01    7.746775e-01
  2.427791e+01    8.041194e-01
  2.430966e+01    8.149014e-01
  2.434141e+01    7.872303e-01
  2.437316e+01    8.143064e-01
  2.440491e+01    7.960637e-01
  2.443666e+01    7.984501e-01
  2.446842e+01    7.886629e-01
  2.450017e+01    8.017793e-01
  2.453192e+01    8.133625e-01
  2.456367e+01    7.990177e-01
  2.459542e+01    7.885998e-01
  2.462717e+01    7.919123e-01
  2.465892e+01    8.037667e-01
  2.469067e+01    7.765753e-01
  2.472242e+01    8.143876e-01
  2.475418e+01    7.879611e-01
  2.478593e+01    7.958460e-01
  2.481768e+01    8.064929e-01
  2.484943e+01    7.830290e-01
  2.488118e+01    8.296511e-01
  2.491293e+01    7.838274e-01
  2.494468e+01    7.908063e-01
  2.497643e+01    8.359759e-01
  2.500819e+01    8.246775e-01
  2.503994e+01    8.316070e-01
  2.507169e+01    8.247243e-01
  2.510344e+01    8.218606e-01
  2.513519e+01    8.123632e-01
  2.516694e+01    8.510941e-01
  2.519869e+01    8.367929e-01
  2.523044e+01    8.469716e-01
  2.526219e+01    8.542876e-01
  2.529395e+01    8.707996e-01
  2.532570e+01    8.806638e-01
  2.535745e+01    9.136494e-01
  2.538920e+01    8.989496e-01
  2.542095e+01    9.182162e-01
  2.545270e+01    9.273425e-01
  2.548445e+01    9.889867e-01
  2.551620e+01    9.746181e-01
  2.554795e+01    1.025815e+00
  2.557971e+01    1.061114e+00
  2.561146e+01    1.106826e+00
  2.564321e+01    1.197799e+00
  2.567496e+01    1.278278e+00
  2.570671e+01    1.413704e+00
  2.573846e+01    1.582427e+00
  2.577021e+01    1.913401e+00
  2.580196e+01    2.312806e+00
  2.583371e+01    2.912079e+00
  2.586547e+01    3.819078e+00
  2.589722e+01    5.085447e+00
  2.592897e+01    6.562897e+00
  2.596072e+01    7.977201e+00
  2.599247e+01    8.766544e+00
  2.602422e+01    8.266026e+00
  2.605597e+01    6.683948e+00
  2.608772e+01    4.865427e+00
  2.611948e+01    3.575243e+00
  2.615123e+01    2.745948e+00
  2.618298e+01    2.151008e+00
  2.621473e+01    1.827702e+00
  2.624648e+01    1.602985e+00
  2.627823e+01    1.399469e+00
  2.630998e+01    1.294773e+00
  2.634173e+01    1.171530e+00
  2.637348e+01    1.109562e+00
  2.640524e+01    1.061314e+00
  2.643699e+01    1.018432e+00
  2.646874e+01    9.867535e-01
  2.650049e+01    1.015580e+00
  2.653224e+01    9.496744e-01
  2.656399e+01    9.428908e-01
  2.659574e+01    9.430621e-01
  2.662749e+01    9.390235e-01
  2.665924e+01    9.348909e-01
  2.669100e+01    9.271706e-01
  2.672275e+01    8.756512e-01
  2.675450e+01    8.964547e-01
  2.678625e+01    9.220434e-01
  2.681800e+01    8.963901e-01
  2.684975e+01    9.053884e-01
  2.688150e+01    9.154465e-01
  2.691325e+01    9.539654e-01
  2.694501e+01    9.606284e-01
  2.697676e+01    9.665269e-01
  2.700851e+01    1.026450e+00
  2.704026e+01    1.065943e+00
  2.707201e+01    1.164481e+00
  2.710376e+01    1.295716e+00
  2.713551e+01    1.519571e+00
  2.716726e+01    1.770809e+00
  2.719901e+01    2.121490e+00
  2.723077e+01    2.417660e+00
  2.726252e+01    2.530855e+00
  2.729427e+01    2.327269e+00
  2.732602e+01    1.959619e+00
  2.735777e+01    1.642073e+00
  2.738952e+01    1.365885e+00
  2.742127e+01    1.182776e+00
  2.745302e+01    1.095823e+00
  2.748477e+01    1.005191e+00
  2.751653e+01    9.699032e-01
  2.754828e+01    9.257426e-01
  2.758003e+01    9.094560e-01
  2.761178e+01    9.121517e-01
  2.764353e+01    8.732802e-01
  2.767528e+01    8.724145e-01
  2.770703e+01    8.416169e-01
  2.773878e+01    8.419006e-01
  2.777054e+01    8.477654e-01
  2.780229e+01    8.142607e-01
  2.783404e+01    8.263952e-01
  2.786579e+01    8.199704e-01
  2.789754e+01    8.283514e-01
  2.792929e+01    8.198068e-01
  2.796104e+01    8.206344e-01
  2.799279e+01    7.932197e-01
  2.802454e+01    8.030131e-01
  2.805630e+01    7.908917e-01
  2.808805e+01    7.947249e-01
  2.811980e+01    7.828963e-01
  2.815155e+01    8.037723e-01
  2.818330e+01    8.063222e-01
  2.821505e+01    7.909975e-01
  2.824680e+01    8.016547e-01
  2.827855e+01    7.913968e-01
  2.831030e+01    7.886103e-01
  2.834206e+01    7.806231e-01
  2.837381e+01    7.860390e-01
  2.840556e+01    7.702153e-01
  2.843731e+01    7.766840e-01
  2.846906e+01    7.954192e-01
  2.850081e+01    7.642188e-01
  2.853256e+01    7.696069e-01
  2.856431e+01    7.730482e-01
  2.859606e+01    7.564592e-01
  2.862782e+01    7.790235e-01
  2.865957e+01    7.718985e-01
  2.869132e+01    7.534485e-01
  2.872307e+01    7.747106e-01
  2.875482e+01    7.458885e-01
  2.878657e+01    7.520806e-01
  2.881832e+01    7.461584e-01
  2.885007e+01    7.699123e-01
  2.888183e+01    7.317845e-01
  2.891358e+01    7.505966e-01
  2.894533e+01    7.478012e-01
  2.897708e+01    7.588531e-01
  2.900883e+01    7.438340e-01
  2.904058e+01    7.559516e-01
  2.907233e+01    7.596403e-01
  2.910408e+01    7.304648e-01
  2.913583e+01    7.442360e-01
  2.916759e+01    7.501970e-01
  2.919934e+01    7.370372e-01
  2.923109e+01    7.511898e-01
  2.926284e+01    7.393152e-01
  2.929459e+01    7.407014e-01
  2.932634e+01    7.521866e-01
  2.935809e+01    7.467326e-01
  2.938984e+01    7.211318e-01
  2.942159e+01    7.374864e-01
  2.945335e+01    7.569510e-01
  2.948510e+01    7.380658e-01
  2.951685e+01    7.236913e-01
  2.954860e+01    7.365444e-01
  2.958035e+01    7.232183e-01
  2.961210e+01    7.343811e-01
  2.964385e+01    7.371250e-01
  2.967560e+01    7.294896e-01
  2.970736e+01    7.527683e-01
  2.973911e+01    7.242658e-01
  2.977086e+01    7.409644e-01
  2.980261e+01    7.084726e-01
  2.983436e+01    7.246016e-01
  2.986611e+01    7.335796e-01
  2.989786e+01    7.421656e-01
  2.992961e+01    7.473184e-01
  2.996136e+01    7.405647e-01
  2.999312e+01    7.360759e-01
  3.002487e+01    7.526830e-01
  3.005662e+01    7.414490e-01
  3.008837e+01    7.404712e-01
  3.012012e+01    7.350113e-01
  3.015187e+01    7.170620e-01
  3.018362e+01    7.127739e-01
  3.021537e+01    7.035338e-01
  3.024712e+01    7.398428e-01
  3.027888e+01    7.311619e-01
  3.031063e+01    7.213835e-01
  3.034238e+01    7.086876e-01
  3.037413e+01    7.236565e-01
  3.040588e+01    7.060927e-01
  3.043763e+01    7.272180e-01
  3.046938e+01    7.149221e-01
  3.050113e+01    7.257978e-01
  3.053288e+01    7.175308e-01
  3.056464e+01    7.336312e-01
  3.059639e+01    7.240906e-01
  3.062814e+01    7.222123e-01
  3.065989e+01    7.139257e-01
  3.069164e+01    7.291373e-01
  3.072339e+01    7.160894e-01
  3.075514e+01    6.921419e-01
  3.078689e+01    7.328619e-01
  3.081865e+01    7.157129e-01
  3.085040e+01    7.297051e-01
  3.088215e+01    7.237636e-01
  3.091390e+01    7.119217e-01
  3.094565e+01    7.190459e-01
  3.097740e+01    7.287676e-01
  3.100915e+01    7.317658e-01
  3.104090e+01    7.295396e-01
  3.107265e+01    7.412050e-01
  3.110441e+01    7.241383e-01
  3.113616e+01    7.224489e-01
  3.116791e+01    7.419498e-01
  3.119966e+01    7.406011e-01
  3.123141e+01    7.244694e-01
  3.126316e+01    7.472962e-01
  3.129491e+01    7.626809e-01
  3.132666e+01    7.670419e-01
  3.135841e+01    7.543367e-01
  3.139017e+01    7.452670e-01
  3.142192e+01    7.931476e-01
  3.145367e+01    7.377689e-01
  3.148542e+01    7.649229e-01
  3.151717e+01    7.745093e-01
  3.154892e+01    7.854733e-01
  3.158067e+01    8.173083e-01
  3.161242e+01    8.250244e-01
  3.164418e+01    8.414838e-01
  3.167593e+01    9.000924e-01
  3.170768e+01    9.351617e-01
  3.173943e+01    1.008702e+00
  3.177118e+01    1.092277e+00
  3.180293e+01    1.219684e+00
  3.183468e+01    1.468695e+00
  3.186643e+01    1.785916e+00
  3.189818e+01    2.120474e+00
  3.192994e+01    2.414556e+00
  3.196169e+01    2.496440e+00
  3.199344e+01    2.265386e+00
  3.202519e+01    1.882354e+00
  3.205694e+01    1.566601e+00
  3.208869e+01    1.301183e+00
  3.212044e+01    1.116718e+00
  3.215219e+01    1.004400e+00
  3.218394e+01    9.512196e-01
  3.221570e+01    8.993630e-01
  3.224745e+01    8.626316e-01
  3.227920e+01    7.921837e-01
  3.231095e+01    8.100693e-01
  3.234270e+01    7.844520e-01
  3.237445e+01    7.326521e-01
  3.240620e+01    7.416079e-01
  3.243795e+01    7.560409e-01
  3.246970e+01    7.473416e-01
  3.250146e+01    7.662233e-01
  3.253321e+01    7.372682e-01
  3.254908e+01    7.281101e-01