File: XRD/Activation ramp/2024-07-27_002_Ru-CGO-ex_Activtation_ramp_000002_data_000158.dat
# == pyFAI calibration ==
# Distance Sample to Detector: 0.4 m
# PONI: 9.750e-02, 1.135e-01 m
# Rotations: -0.000175 0.000000 -0.000000 rad
#
# == Fit2d calibration ==
# Distance Sample-beamCenter: 400.000 mm
# Center: x=1514.000, y=1300.000 pix
# Tilt: 0.010 deg  TiltPlanRot: 0.010 deg
#
# Detector Detector	 Spline= None	 PixelSize= 7.500e-05, 7.500e-05 m
#    Detector has a mask: False
#    Detector has a dark current: False
#    detector has a flat field: False
#
# Wavelength: 6.888e-11 m
# Mask applied: user provided
# Dark current applied: False
# Flat field applied: False
# Polarization factor: 0.99
# Normalization factor: 1.0
# --> /home/myspot/data/2024_07_Rosario/Ru-CGO-ex/2024-07-27_002_Ru-CGO-ex_Activtation_ramp_000002_data_000158.dat
#       q_nm^-1             I
  2.003187e-02    2.849293e-01
  5.178302e-02    0.000000e+00
  8.353417e-02    9.268984e-02
  1.152853e-01    6.042184e-02
  1.470365e-01    0.000000e+00
  1.787876e-01    0.000000e+00
  2.105388e-01    4.971413e-02
  2.422899e-01    2.647253e-02
  2.740411e-01    5.912643e-02
  3.057922e-01    1.685017e-02
  3.375433e-01    3.862917e-02
  3.692945e-01    2.382869e-02
  4.010456e-01    4.401355e-02
  4.327968e-01    2.621594e-02
  4.645479e-01    3.033686e-02
  4.962991e-01    2.031904e-02
  5.280502e-01    3.080495e-02
  5.598014e-01    5.590189e-02
  5.915525e-01    2.731590e-02
  6.233037e-01    2.462744e-02
  6.550548e-01    5.696993e-02
  6.868060e-01    2.163619e-02
  7.185571e-01    3.017893e-02
  7.503083e-01    2.988060e-02
  7.820594e-01    7.769077e-02
  8.138106e-01    2.160738e-01
  8.455617e-01    3.368014e-01
  8.773129e-01    4.267261e-01
  9.090640e-01    5.684960e-01
  9.408152e-01    7.299939e-01
  9.725663e-01    8.432972e-01
  1.004317e+00    1.165741e+00
  1.036069e+00    1.167364e+00
  1.067820e+00    1.197597e+00
  1.099571e+00    1.370770e+00
  1.131322e+00    1.419717e+00
  1.163073e+00    1.495238e+00
  1.194824e+00    1.538365e+00
  1.226575e+00    2.110312e+00
  1.258327e+00    2.328242e+00
  1.290078e+00    2.395241e+00
  1.321829e+00    2.523358e+00
  1.353580e+00    2.523646e+00
  1.385331e+00    2.617798e+00
  1.417082e+00    2.541549e+00
  1.448834e+00    2.767383e+00
  1.480585e+00    2.857531e+00
  1.512336e+00    2.953980e+00
  1.544087e+00    2.841693e+00
  1.575838e+00    2.887109e+00
  1.607589e+00    2.955028e+00
  1.639340e+00    2.786295e+00
  1.671092e+00    2.840070e+00
  1.702843e+00    2.784581e+00
  1.734594e+00    2.773042e+00
  1.766345e+00    2.748506e+00
  1.798096e+00    2.773212e+00
  1.829847e+00    2.801485e+00
  1.861598e+00    2.923909e+00
  1.893350e+00    2.686637e+00
  1.925101e+00    2.839060e+00
  1.956852e+00    2.645061e+00
  1.988603e+00    2.771698e+00
  2.020354e+00    2.611879e+00
  2.052105e+00    2.775748e+00
  2.083856e+00    2.727262e+00
  2.115608e+00    2.682098e+00
  2.147359e+00    2.761611e+00
  2.179110e+00    2.753456e+00
  2.210861e+00    2.796986e+00
  2.242612e+00    2.708863e+00
  2.274363e+00    2.619163e+00
  2.306115e+00    2.819081e+00
  2.337866e+00    2.815933e+00
  2.369617e+00    2.713726e+00
  2.401368e+00    2.692026e+00
  2.433119e+00    2.704055e+00
  2.464870e+00    2.720476e+00
  2.496621e+00    2.724685e+00
  2.528373e+00    2.777637e+00
  2.560124e+00    2.827667e+00
  2.591875e+00    2.814646e+00
  2.623626e+00    2.712938e+00
  2.655377e+00    2.850252e+00
  2.687128e+00    2.867710e+00
  2.718879e+00    2.853551e+00
  2.750631e+00    2.788025e+00
  2.782382e+00    2.759217e+00
  2.814133e+00    2.876869e+00
  2.845884e+00    2.877585e+00
  2.877635e+00    2.891760e+00
  2.909386e+00    2.856190e+00
  2.941137e+00    2.869649e+00
  2.972889e+00    2.914502e+00
  3.004640e+00    2.913889e+00
  3.036391e+00    2.856707e+00
  3.068142e+00    2.800889e+00
  3.099893e+00    2.922863e+00
  3.131644e+00    2.840429e+00
  3.163395e+00    2.895301e+00
  3.195147e+00    2.885942e+00
  3.226898e+00    2.849156e+00
  3.258649e+00    2.863474e+00
  3.290400e+00    2.941924e+00
  3.322151e+00    2.918092e+00
  3.353902e+00    2.952855e+00
  3.385654e+00    2.916767e+00
  3.417405e+00    2.965577e+00
  3.449156e+00    3.024560e+00
  3.480907e+00    3.055847e+00
  3.512658e+00    2.984364e+00
  3.544409e+00    2.956178e+00
  3.576160e+00    3.058187e+00
  3.607912e+00    3.048056e+00
  3.639663e+00    2.885802e+00
  3.671414e+00    3.073345e+00
  3.703165e+00    2.968680e+00
  3.734916e+00    2.979908e+00
  3.766667e+00    3.038322e+00
  3.798418e+00    3.027733e+00
  3.830170e+00    3.057344e+00
  3.861921e+00    3.056665e+00
  3.893672e+00    3.083513e+00
  3.925423e+00    3.037170e+00
  3.957174e+00    3.015922e+00
  3.988925e+00    3.000253e+00
  4.020676e+00    3.118290e+00
  4.052428e+00    3.018496e+00
  4.084179e+00    3.022874e+00
  4.115930e+00    3.105994e+00
  4.147681e+00    2.979485e+00
  4.179432e+00    2.960273e+00
  4.211183e+00    3.044026e+00
  4.242935e+00    3.093399e+00
  4.274686e+00    3.189148e+00
  4.306437e+00    2.951632e+00
  4.338188e+00    3.077872e+00
  4.369939e+00    3.065069e+00
  4.401690e+00    3.151791e+00
  4.433441e+00    3.095680e+00
  4.465193e+00    3.042009e+00
  4.496944e+00    3.086297e+00
  4.528695e+00    3.053224e+00
  4.560446e+00    3.025414e+00
  4.592197e+00    3.170965e+00
  4.623948e+00    3.076818e+00
  4.655699e+00    3.141214e+00
  4.687451e+00    3.181920e+00
  4.719202e+00    3.085533e+00
  4.750953e+00    3.037542e+00
  4.782704e+00    3.089413e+00
  4.814455e+00    3.104547e+00
  4.846206e+00    3.174253e+00
  4.877957e+00    3.177046e+00
  4.909709e+00    3.176497e+00
  4.941460e+00    3.148485e+00
  4.973211e+00    3.144879e+00
  5.004962e+00    3.072180e+00
  5.036713e+00    3.149240e+00
  5.068464e+00    3.150839e+00
  5.100216e+00    3.120386e+00
  5.131967e+00    3.142257e+00
  5.163718e+00    3.134599e+00
  5.195469e+00    3.033530e+00
  5.227220e+00    3.086469e+00
  5.258971e+00    3.150748e+00
  5.290722e+00    3.200593e+00
  5.322474e+00    3.189509e+00
  5.354225e+00    3.143376e+00
  5.385976e+00    3.147917e+00
  5.417727e+00    3.106453e+00
  5.449478e+00    3.126276e+00
  5.481229e+00    3.072736e+00
  5.512980e+00    3.051789e+00
  5.544732e+00    3.106240e+00
  5.576483e+00    3.055051e+00
  5.608234e+00    3.069501e+00
  5.639985e+00    3.096407e+00
  5.671736e+00    3.042543e+00
  5.703487e+00    3.033280e+00
  5.735238e+00    3.049940e+00
  5.766990e+00    3.104695e+00
  5.798741e+00    3.100689e+00
  5.830492e+00    3.170569e+00
  5.862243e+00    3.014890e+00
  5.893994e+00    3.082020e+00
  5.925745e+00    3.009353e+00
  5.957497e+00    3.002534e+00
  5.989248e+00    3.011139e+00
  6.020999e+00    3.037779e+00
  6.052750e+00    2.982276e+00
  6.084501e+00    3.088025e+00
  6.116252e+00    3.024634e+00
  6.148003e+00    3.107532e+00
  6.179755e+00    3.112167e+00
  6.211506e+00    2.988181e+00
  6.243257e+00    3.055624e+00
  6.275008e+00    3.098056e+00
  6.306759e+00    2.965092e+00
  6.338510e+00    3.080035e+00
  6.370261e+00    2.993293e+00
  6.402013e+00    2.989524e+00
  6.433764e+00    2.988436e+00
  6.465515e+00    3.015204e+00
  6.497266e+00    3.073552e+00
  6.529017e+00    3.047950e+00
  6.560768e+00    3.084148e+00
  6.592519e+00    3.017715e+00
  6.624271e+00    3.033764e+00
  6.656022e+00    3.013388e+00
  6.687773e+00    3.127176e+00
  6.719524e+00    3.041319e+00
  6.751275e+00    3.034636e+00
  6.783026e+00    2.969531e+00
  6.814777e+00    3.061115e+00
  6.846529e+00    2.977652e+00
  6.878280e+00    3.086426e+00
  6.910031e+00    3.075761e+00
  6.941782e+00    2.980801e+00
  6.973533e+00    3.015290e+00
  7.005284e+00    2.983969e+00
  7.037036e+00    3.007341e+00
  7.068787e+00    3.015409e+00
  7.100538e+00    3.028966e+00
  7.132289e+00    3.066904e+00
  7.164040e+00    3.051665e+00
  7.195791e+00    3.132392e+00
  7.227542e+00    3.068124e+00
  7.259294e+00    2.892875e+00
  7.291045e+00    2.928642e+00
  7.322796e+00    3.062428e+00
  7.354547e+00    2.938002e+00
  7.386298e+00    3.015514e+00
  7.418049e+00    2.981865e+00
  7.449800e+00    2.991833e+00
  7.481552e+00    2.947438e+00
  7.513303e+00    3.036068e+00
  7.545054e+00    2.939220e+00
  7.576805e+00    2.988683e+00
  7.608556e+00    2.992213e+00
  7.640307e+00    3.039156e+00
  7.672058e+00    2.899459e+00
  7.703810e+00    2.975689e+00
  7.735561e+00    2.902986e+00
  7.767312e+00    2.918061e+00
  7.799063e+00    3.016429e+00
  7.830814e+00    3.022119e+00
  7.862565e+00    2.909338e+00
  7.894317e+00    2.973784e+00
  7.926068e+00    2.888816e+00
  7.957819e+00    2.963828e+00
  7.989570e+00    2.903060e+00
  8.021321e+00    2.987399e+00
  8.053072e+00    2.854654e+00
  8.084823e+00    2.966710e+00
  8.116575e+00    3.023549e+00
  8.148326e+00    2.945319e+00
  8.180077e+00    3.009257e+00
  8.211828e+00    2.933764e+00
  8.243579e+00    2.920717e+00
  8.275330e+00    2.912964e+00
  8.307081e+00    2.929473e+00
  8.338833e+00    2.966601e+00
  8.370584e+00    2.930580e+00
  8.402335e+00    3.006726e+00
  8.434086e+00    2.871131e+00
  8.465837e+00    2.891282e+00
  8.497588e+00    2.875425e+00
  8.529339e+00    2.877296e+00
  8.561091e+00    2.841403e+00
  8.592842e+00    2.843812e+00
  8.624593e+00    2.869015e+00
  8.656344e+00    2.864922e+00
  8.688095e+00    2.848035e+00
  8.719846e+00    2.828293e+00
  8.751598e+00    2.924081e+00
  8.783349e+00    2.835301e+00
  8.815100e+00    2.833567e+00
  8.846851e+00    2.865626e+00
  8.878602e+00    2.834028e+00
  8.910353e+00    2.895063e+00
  8.942104e+00    2.816801e+00
  8.973856e+00    2.825881e+00
  9.005607e+00    2.801201e+00
  9.037358e+00    2.848102e+00
  9.069109e+00    2.845310e+00
  9.100860e+00    2.751598e+00
  9.132611e+00    2.786140e+00
  9.164362e+00    2.828218e+00
  9.196114e+00    2.767365e+00
  9.227865e+00    2.791346e+00
  9.259616e+00    2.798842e+00
  9.291367e+00    2.775160e+00
  9.323118e+00    2.704225e+00
  9.354869e+00    2.777403e+00
  9.386620e+00    2.816669e+00
  9.418372e+00    2.789896e+00
  9.450123e+00    2.774127e+00
  9.481874e+00    2.777613e+00
  9.513625e+00    2.773534e+00
  9.545376e+00    2.773259e+00
  9.577127e+00    2.712736e+00
  9.608878e+00    2.700675e+00
  9.640630e+00    2.749053e+00
  9.672381e+00    2.753408e+00
  9.704132e+00    2.759134e+00
  9.735883e+00    2.719661e+00
  9.767634e+00    2.724815e+00
  9.799385e+00    2.720364e+00
  9.831137e+00    2.673694e+00
  9.862888e+00    2.655228e+00
  9.894639e+00    2.674447e+00
  9.926390e+00    2.714577e+00
  9.958141e+00    2.668109e+00
  9.989892e+00    2.677052e+00
  1.002164e+01    2.619205e+00
  1.005339e+01    2.723994e+00
  1.008515e+01    2.670190e+00
  1.011690e+01    2.668149e+00
  1.014865e+01    2.661852e+00
  1.018040e+01    2.602078e+00
  1.021215e+01    2.716515e+00
  1.024390e+01    2.675146e+00
  1.027565e+01    2.663157e+00
  1.030740e+01    2.712515e+00
  1.033915e+01    2.590219e+00
  1.037091e+01    2.612928e+00
  1.040266e+01    2.560474e+00
  1.043441e+01    2.671540e+00
  1.046616e+01    2.641636e+00
  1.049791e+01    2.593920e+00
  1.052966e+01    2.598836e+00
  1.056141e+01    2.626871e+00
  1.059316e+01    2.548016e+00
  1.062492e+01    2.573580e+00
  1.065667e+01    2.604263e+00
  1.068842e+01    2.544859e+00
  1.072017e+01    2.593244e+00
  1.075192e+01    2.540020e+00
  1.078367e+01    2.488968e+00
  1.081542e+01    2.527554e+00
  1.084717e+01    2.540009e+00
  1.087892e+01    2.498149e+00
  1.091068e+01    2.568879e+00
  1.094243e+01    2.501446e+00
  1.097418e+01    2.483321e+00
  1.100593e+01    2.495110e+00
  1.103768e+01    2.498777e+00
  1.106943e+01    2.495936e+00
  1.110118e+01    2.488012e+00
  1.113293e+01    2.460510e+00
  1.116468e+01    2.500622e+00
  1.119644e+01    2.497034e+00
  1.122819e+01    2.491812e+00
  1.125994e+01    2.462843e+00
  1.129169e+01    2.432221e+00
  1.132344e+01    2.490301e+00
  1.135519e+01    2.479161e+00
  1.138694e+01    2.403854e+00
  1.141869e+01    2.473180e+00
  1.145045e+01    2.360936e+00
  1.148220e+01    2.368622e+00
  1.151395e+01    2.461043e+00
  1.154570e+01    2.413856e+00
  1.157745e+01    2.400054e+00
  1.160920e+01    2.346761e+00
  1.164095e+01    2.411505e+00
  1.167270e+01    2.394342e+00
  1.170445e+01    2.416527e+00
  1.173621e+01    2.372036e+00
  1.176796e+01    2.378029e+00
  1.179971e+01    2.374632e+00
  1.183146e+01    2.366339e+00
  1.186321e+01    2.363435e+00
  1.189496e+01    2.379076e+00
  1.192671e+01    2.352076e+00
  1.195846e+01    2.362719e+00
  1.199021e+01    2.362072e+00
  1.202197e+01    2.354563e+00
  1.205372e+01    2.371629e+00
  1.208547e+01    2.290801e+00
  1.211722e+01    2.323928e+00
  1.214897e+01    2.277148e+00
  1.218072e+01    2.297195e+00
  1.221247e+01    2.322142e+00
  1.224422e+01    2.334675e+00
  1.227597e+01    2.331949e+00
  1.230773e+01    2.306070e+00
  1.233948e+01    2.341613e+00
  1.237123e+01    2.314162e+00
  1.240298e+01    2.301374e+00
  1.243473e+01    2.342263e+00
  1.246648e+01    2.342296e+00
  1.249823e+01    2.325243e+00
  1.252998e+01    2.379642e+00
  1.256174e+01    2.352238e+00
  1.259349e+01    2.412127e+00
  1.262524e+01    2.427993e+00
  1.265699e+01    2.434537e+00
  1.268874e+01    2.441216e+00
  1.272049e+01    2.506800e+00
  1.275224e+01    2.549040e+00
  1.278399e+01    2.662826e+00
  1.281574e+01    2.694367e+00
  1.284750e+01    2.851421e+00
  1.287925e+01    2.980384e+00
  1.291100e+01    3.339943e+00
  1.294275e+01    3.764954e+00
  1.297450e+01    4.399414e+00
  1.300625e+01    5.555406e+00
  1.303800e+01    7.298455e+00
  1.306975e+01    9.745996e+00
  1.310150e+01    1.228870e+01
  1.313326e+01    1.458605e+01
  1.316501e+01    1.625976e+01
  1.319676e+01    1.587654e+01
  1.322851e+01    1.265537e+01
  1.326026e+01    9.065087e+00
  1.329201e+01    6.491189e+00
  1.332376e+01    5.033639e+00
  1.335551e+01    4.208511e+00
  1.338727e+01    3.562822e+00
  1.341902e+01    3.115512e+00
  1.345077e+01    2.929886e+00
  1.348252e+01    2.734025e+00
  1.351427e+01    2.536731e+00
  1.354602e+01    2.518425e+00
  1.357777e+01    2.413052e+00
  1.360952e+01    2.336419e+00
  1.364127e+01    2.306813e+00
  1.367303e+01    2.248249e+00
  1.370478e+01    2.252088e+00
  1.373653e+01    2.213181e+00
  1.376828e+01    2.215428e+00
  1.380003e+01    2.158069e+00
  1.383178e+01    2.147913e+00
  1.386353e+01    2.092531e+00
  1.389528e+01    2.144388e+00
  1.392703e+01    2.070191e+00
  1.395879e+01    2.094314e+00
  1.399054e+01    2.070398e+00
  1.402229e+01    2.030232e+00
  1.405404e+01    2.053285e+00
  1.408579e+01    2.020929e+00
  1.411754e+01    2.029549e+00
  1.414929e+01    2.031498e+00
  1.418104e+01    2.006947e+00
  1.421279e+01    1.960038e+00
  1.424455e+01    1.986959e+00
  1.427630e+01    1.940734e+00
  1.430805e+01    1.982283e+00
  1.433980e+01    1.929072e+00
  1.437155e+01    1.955617e+00
  1.440330e+01    1.953493e+00
  1.443505e+01    1.936323e+00
  1.446680e+01    1.969770e+00
  1.449856e+01    1.926331e+00
  1.453031e+01    1.930197e+00
  1.456206e+01    1.983418e+00
  1.459381e+01    1.895279e+00
  1.462556e+01    1.947226e+00
  1.465731e+01    1.929359e+00
  1.468906e+01    1.908785e+00
  1.472081e+01    1.911136e+00
  1.475256e+01    1.921663e+00
  1.478432e+01    1.906110e+00
  1.481607e+01    1.919292e+00
  1.484782e+01    1.945572e+00
  1.487957e+01    1.941238e+00
  1.491132e+01    2.009862e+00
  1.494307e+01    2.019686e+00
  1.497482e+01    2.077861e+00
  1.500657e+01    2.192840e+00
  1.503832e+01    2.321114e+00
  1.507008e+01    2.572701e+00
  1.510183e+01    2.937167e+00
  1.513358e+01    3.561710e+00
  1.516533e+01    4.295554e+00
  1.519708e+01    4.962926e+00
  1.522883e+01    5.363256e+00
  1.526058e+01    5.708944e+00
  1.529233e+01    5.404354e+00
  1.532409e+01    4.500787e+00
  1.535584e+01    3.572522e+00
  1.538759e+01    2.871118e+00
  1.541934e+01    2.535487e+00
  1.545109e+01    2.212922e+00
  1.548284e+01    2.127309e+00
  1.551459e+01    1.959150e+00
  1.554634e+01    1.911402e+00
  1.557809e+01    1.821082e+00
  1.560985e+01    1.800883e+00
  1.564160e+01    1.785280e+00
  1.567335e+01    1.754322e+00
  1.570510e+01    1.775829e+00
  1.573685e+01    1.734803e+00
  1.576860e+01    1.659385e+00
  1.580035e+01    1.684811e+00
  1.583210e+01    1.637569e+00
  1.586385e+01    1.648111e+00
  1.589561e+01    1.666188e+00
  1.592736e+01    1.613317e+00
  1.595911e+01    1.658864e+00
  1.599086e+01    1.627937e+00
  1.602261e+01    1.578672e+00
  1.605436e+01    1.619485e+00
  1.608611e+01    1.609347e+00
  1.611786e+01    1.579207e+00
  1.614961e+01    1.590746e+00
  1.618137e+01    1.606528e+00
  1.621312e+01    1.572913e+00
  1.624487e+01    1.598521e+00
  1.627662e+01    1.568624e+00
  1.630837e+01    1.543835e+00
  1.634012e+01    1.558094e+00
  1.637187e+01    1.552922e+00
  1.640362e+01    1.572587e+00
  1.643538e+01    1.538498e+00
  1.646713e+01    1.523041e+00
  1.649888e+01    1.494894e+00
  1.653063e+01    1.512412e+00
  1.656238e+01    1.532518e+00
  1.659413e+01    1.480039e+00
  1.662588e+01    1.476655e+00
  1.665763e+01    1.476975e+00
  1.668938e+01    1.504987e+00
  1.672114e+01    1.504057e+00
  1.675289e+01    1.484469e+00
  1.678464e+01    1.480345e+00
  1.681639e+01    1.476100e+00
  1.684814e+01    1.492532e+00
  1.687989e+01    1.476206e+00
  1.691164e+01    1.464994e+00
  1.694339e+01    1.481950e+00
  1.697514e+01    1.434104e+00
  1.700690e+01    1.402609e+00
  1.703865e+01    1.467355e+00
  1.707040e+01    1.411075e+00
  1.710215e+01    1.440781e+00
  1.713390e+01    1.420686e+00
  1.716565e+01    1.399368e+00
  1.719740e+01    1.399013e+00
  1.722915e+01    1.418146e+00
  1.726091e+01    1.406905e+00
  1.729266e+01    1.378644e+00
  1.732441e+01    1.376289e+00
  1.735616e+01    1.415926e+00
  1.738791e+01    1.389645e+00
  1.741966e+01    1.369718e+00
  1.745141e+01    1.361084e+00
  1.748316e+01    1.390790e+00
  1.751491e+01    1.363605e+00
  1.754667e+01    1.386524e+00
  1.757842e+01    1.394503e+00
  1.761017e+01    1.359271e+00
  1.764192e+01    1.364252e+00
  1.767367e+01    1.355896e+00
  1.770542e+01    1.364425e+00
  1.773717e+01    1.340761e+00
  1.776892e+01    1.342211e+00
  1.780067e+01    1.348274e+00
  1.783243e+01    1.307511e+00
  1.786418e+01    1.351738e+00
  1.789593e+01    1.333391e+00
  1.792768e+01    1.314499e+00
  1.795943e+01    1.329143e+00
  1.799118e+01    1.307743e+00
  1.802293e+01    1.318104e+00
  1.805468e+01    1.310204e+00
  1.808643e+01    1.335666e+00
  1.811819e+01    1.325045e+00
  1.814994e+01    1.296169e+00
  1.818169e+01    1.298754e+00
  1.821344e+01    1.295313e+00
  1.824519e+01    1.280600e+00
  1.827694e+01    1.279476e+00
  1.830869e+01    1.274160e+00
  1.834044e+01    1.303952e+00
  1.837220e+01    1.250972e+00
  1.840395e+01    1.261188e+00
  1.843570e+01    1.268424e+00
  1.846745e+01    1.257688e+00
  1.849920e+01    1.238555e+00
  1.853095e+01    1.252950e+00
  1.856270e+01    1.258646e+00
  1.859445e+01    1.280029e+00
  1.862620e+01    1.224119e+00
  1.865796e+01    1.205356e+00
  1.868971e+01    1.230615e+00
  1.872146e+01    1.211216e+00
  1.875321e+01    1.234994e+00
  1.878496e+01    1.217700e+00
  1.881671e+01    1.214876e+00
  1.884846e+01    1.251608e+00
  1.888021e+01    1.239045e+00
  1.891196e+01    1.203892e+00
  1.894372e+01    1.188188e+00
  1.897547e+01    1.207566e+00
  1.900722e+01    1.211825e+00
  1.903897e+01    1.224349e+00
  1.907072e+01    1.193967e+00
  1.910247e+01    1.204009e+00
  1.913422e+01    1.201515e+00
  1.916597e+01    1.210788e+00
  1.919773e+01    1.193133e+00
  1.922948e+01    1.168747e+00
  1.926123e+01    1.160151e+00
  1.929298e+01    1.195807e+00
  1.932473e+01    1.180662e+00
  1.935648e+01    1.190156e+00
  1.938823e+01    1.154002e+00
  1.941998e+01    1.167101e+00
  1.945173e+01    1.168086e+00
  1.948349e+01    1.180578e+00
  1.951524e+01    1.156081e+00
  1.954699e+01    1.171341e+00
  1.957874e+01    1.119041e+00
  1.961049e+01    1.159330e+00
  1.964224e+01    1.134766e+00
  1.967399e+01    1.131330e+00
  1.970574e+01    1.141734e+00
  1.973749e+01    1.137593e+00
  1.976925e+01    1.119797e+00
  1.980100e+01    1.136600e+00
  1.983275e+01    1.130999e+00
  1.986450e+01    1.113641e+00
  1.989625e+01    1.119316e+00
  1.992800e+01    1.117799e+00
  1.995975e+01    1.140232e+00
  1.999150e+01    1.105486e+00
  2.002325e+01    1.107488e+00
  2.005501e+01    1.124658e+00
  2.008676e+01    1.114245e+00
  2.011851e+01    1.121107e+00
  2.015026e+01    1.127946e+00
  2.018201e+01    1.121335e+00
  2.021376e+01    1.131619e+00
  2.024551e+01    1.108466e+00
  2.027726e+01    1.103431e+00
  2.030902e+01    1.074687e+00
  2.034077e+01    1.099010e+00
  2.037252e+01    1.074101e+00
  2.040427e+01    1.088549e+00
  2.043602e+01    1.110406e+00
  2.046777e+01    1.080523e+00
  2.049952e+01    1.112785e+00
  2.053127e+01    1.105881e+00
  2.056302e+01    1.094544e+00
  2.059478e+01    1.079165e+00
  2.062653e+01    1.091371e+00
  2.065828e+01    1.091936e+00
  2.069003e+01    1.082432e+00
  2.072178e+01    1.105672e+00
  2.075353e+01    1.072650e+00
  2.078528e+01    1.091679e+00
  2.081703e+01    1.083597e+00
  2.084878e+01    1.079561e+00
  2.088054e+01    1.098766e+00
  2.091229e+01    1.078776e+00
  2.094404e+01    1.062600e+00
  2.097579e+01    1.098039e+00
  2.100754e+01    1.088522e+00
  2.103929e+01    1.056677e+00
  2.107104e+01    1.104349e+00
  2.110279e+01    1.090014e+00
  2.113455e+01    1.066862e+00
  2.116630e+01    1.108427e+00
  2.119805e+01    1.102689e+00
  2.122980e+01    1.113696e+00
  2.126155e+01    1.118155e+00
  2.129330e+01    1.113679e+00
  2.132505e+01    1.129811e+00
  2.135680e+01    1.151584e+00
  2.138855e+01    1.150764e+00
  2.142031e+01    1.155061e+00
  2.145206e+01    1.237517e+00
  2.148381e+01    1.279253e+00
  2.151556e+01    1.355334e+00
  2.154731e+01    1.367518e+00
  2.157906e+01    1.499602e+00
  2.161081e+01    1.609214e+00
  2.164256e+01    1.866323e+00
  2.167431e+01    2.131719e+00
  2.170607e+01    2.674034e+00
  2.173782e+01    3.448579e+00
  2.176957e+01    4.445300e+00
  2.180132e+01    5.737857e+00
  2.183307e+01    7.081087e+00
  2.186482e+01    8.391139e+00
  2.189657e+01    9.050561e+00
  2.192832e+01    8.412524e+00
  2.196007e+01    6.640831e+00
  2.199183e+01    4.764540e+00
  2.202358e+01    3.483559e+00
  2.205533e+01    2.729190e+00
  2.208708e+01    2.162460e+00
  2.211883e+01    1.860947e+00
  2.215058e+01    1.614295e+00
  2.218233e+01    1.467446e+00
  2.221408e+01    1.383335e+00
  2.224584e+01    1.273764e+00
  2.227759e+01    1.222113e+00
  2.230934e+01    1.170588e+00
  2.234109e+01    1.155047e+00
  2.237284e+01    1.076631e+00
  2.240459e+01    1.058424e+00
  2.243634e+01    1.027793e+00
  2.246809e+01    1.029460e+00
  2.249984e+01    1.017370e+00
  2.253160e+01    1.017282e+00
  2.256335e+01    1.016498e+00
  2.259510e+01    9.695572e-01
  2.262685e+01    9.681935e-01
  2.265860e+01    9.576706e-01
  2.269035e+01    9.730708e-01
  2.272210e+01    9.638018e-01
  2.275385e+01    9.270442e-01
  2.278560e+01    9.300480e-01
  2.281736e+01    9.201427e-01
  2.284911e+01    9.326825e-01
  2.288086e+01    9.327606e-01
  2.291261e+01    9.183244e-01
  2.294436e+01    9.361252e-01
  2.297611e+01    9.103447e-01
  2.300786e+01    9.182966e-01
  2.303961e+01    8.818183e-01
  2.307137e+01    8.743285e-01
  2.310312e+01    8.839208e-01
  2.313487e+01    8.827902e-01
  2.316662e+01    8.805411e-01
  2.319837e+01    8.902069e-01
  2.323012e+01    8.859459e-01
  2.326187e+01    8.653089e-01
  2.329362e+01    8.600439e-01
  2.332537e+01    8.489827e-01
  2.335713e+01    8.671026e-01
  2.338888e+01    8.608270e-01
  2.342063e+01    8.546657e-01
  2.345238e+01    8.405328e-01
  2.348413e+01    8.594728e-01
  2.351588e+01    8.469926e-01
  2.354763e+01    8.449107e-01
  2.357938e+01    8.465644e-01
  2.361113e+01    8.508419e-01
  2.364289e+01    8.238333e-01
  2.367464e+01    8.214822e-01
  2.370639e+01    8.213364e-01
  2.373814e+01    8.338783e-01
  2.376989e+01    8.136261e-01
  2.380164e+01    8.266264e-01
  2.383339e+01    8.049341e-01
  2.386514e+01    7.937697e-01
  2.389689e+01    8.107890e-01
  2.392865e+01    7.902396e-01
  2.396040e+01    7.978518e-01
  2.399215e+01    7.735498e-01
  2.402390e+01    7.994410e-01
  2.405565e+01    7.964571e-01
  2.408740e+01    7.740679e-01
  2.411915e+01    7.716378e-01
  2.415090e+01    8.023383e-01
  2.418266e+01    7.663768e-01
  2.421441e+01    7.838715e-01
  2.424616e+01    7.817784e-01
  2.427791e+01    7.625042e-01
  2.430966e+01    7.768253e-01
  2.434141e+01    7.939959e-01
  2.437316e+01    8.043129e-01
  2.440491e+01    7.913469e-01
  2.443666e+01    8.021066e-01
  2.446842e+01    7.808732e-01
  2.450017e+01    7.844038e-01
  2.453192e+01    7.886253e-01
  2.456367e+01    7.808366e-01
  2.459542e+01    7.874233e-01
  2.462717e+01    7.808744e-01
  2.465892e+01    8.056241e-01
  2.469067e+01    8.027015e-01
  2.472242e+01    7.969281e-01
  2.475418e+01    7.920132e-01
  2.478593e+01    8.005274e-01
  2.481768e+01    7.928566e-01
  2.484943e+01    8.016337e-01
  2.488118e+01    7.985433e-01
  2.491293e+01    7.833485e-01
  2.494468e+01    7.845076e-01
  2.497643e+01    8.012810e-01
  2.500819e+01    8.041739e-01
  2.503994e+01    8.035263e-01
  2.507169e+01    8.044359e-01
  2.510344e+01    8.029861e-01
  2.513519e+01    8.281181e-01
  2.516694e+01    8.266007e-01
  2.519869e+01    8.415411e-01
  2.523044e+01    8.379086e-01
  2.526219e+01    8.384419e-01
  2.529395e+01    8.540859e-01
  2.532570e+01    8.515733e-01
  2.535745e+01    8.841648e-01
  2.538920e+01    8.977813e-01
  2.542095e+01    9.139038e-01
  2.545270e+01    9.414770e-01
  2.548445e+01    9.646635e-01
  2.551620e+01    9.916057e-01
  2.554795e+01    1.025848e+00
  2.557971e+01    1.050554e+00
  2.561146e+01    1.158396e+00
  2.564321e+01    1.232567e+00
  2.567496e+01    1.367843e+00
  2.570671e+01    1.551463e+00
  2.573846e+01    1.800009e+00
  2.577021e+01    2.186216e+00
  2.580196e+01    2.761642e+00
  2.583371e+01    3.575308e+00
  2.586547e+01    4.673103e+00
  2.589722e+01    5.862960e+00
  2.592897e+01    6.889445e+00
  2.596072e+01    7.397079e+00
  2.599247e+01    6.824352e+00
  2.602422e+01    5.418783e+00
  2.605597e+01    3.971331e+00
  2.608772e+01    2.927665e+00
  2.611948e+01    2.269294e+00
  2.615123e+01    1.895067e+00
  2.618298e+01    1.600334e+00
  2.621473e+01    1.399861e+00
  2.624648e+01    1.247445e+00
  2.627823e+01    1.172710e+00
  2.630998e+01    1.076529e+00
  2.634173e+01    1.043089e+00
  2.637348e+01    1.001058e+00
  2.640524e+01    9.616261e-01
  2.643699e+01    9.579433e-01
  2.646874e+01    9.576541e-01
  2.650049e+01    9.123022e-01
  2.653224e+01    9.189519e-01
  2.656399e+01    8.867427e-01
  2.659574e+01    9.003417e-01
  2.662749e+01    9.104385e-01
  2.665924e+01    8.781508e-01
  2.669100e+01    8.673073e-01
  2.672275e+01    8.605627e-01
  2.675450e+01    8.650884e-01
  2.678625e+01    8.722973e-01
  2.681800e+01    8.891634e-01
  2.684975e+01    9.145676e-01
  2.688150e+01    9.029200e-01
  2.691325e+01    9.257402e-01
  2.694501e+01    9.491197e-01
  2.697676e+01    9.680519e-01
  2.700851e+01    1.015716e+00
  2.704026e+01    1.108556e+00
  2.707201e+01    1.191285e+00
  2.710376e+01    1.424606e+00
  2.713551e+01    1.670876e+00
  2.716726e+01    1.957042e+00
  2.719901e+01    2.130015e+00
  2.723077e+01    2.167106e+00
  2.726252e+01    2.010728e+00
  2.729427e+01    1.663201e+00
  2.732602e+01    1.413465e+00
  2.735777e+01    1.231757e+00
  2.738952e+01    1.102594e+00
  2.742127e+01    1.017726e+00
  2.745302e+01    9.423977e-01
  2.748477e+01    8.912534e-01
  2.751653e+01    8.744721e-01
  2.754828e+01    8.733431e-01
  2.758003e+01    8.285112e-01
  2.761178e+01    8.290060e-01
  2.764353e+01    8.439432e-01
  2.767528e+01    8.319066e-01
  2.770703e+01    8.004456e-01
  2.773878e+01    8.180867e-01
  2.777054e+01    8.196368e-01
  2.780229e+01    7.986301e-01
  2.783404e+01    8.067497e-01
  2.786579e+01    7.930494e-01
  2.789754e+01    7.733069e-01
  2.792929e+01    7.722670e-01
  2.796104e+01    8.039668e-01
  2.799279e+01    7.861791e-01
  2.802454e+01    7.948194e-01
  2.805630e+01    7.926985e-01
  2.808805e+01    7.912507e-01
  2.811980e+01    7.745460e-01
  2.815155e+01    7.592500e-01
  2.818330e+01    7.733283e-01
  2.821505e+01    7.440040e-01
  2.824680e+01    7.569547e-01
  2.827855e+01    7.573511e-01
  2.831030e+01    7.645004e-01
  2.834206e+01    7.700809e-01
  2.837381e+01    7.922534e-01
  2.840556e+01    7.592039e-01
  2.843731e+01    7.747189e-01
  2.846906e+01    7.525620e-01
  2.850081e+01    7.681292e-01
  2.853256e+01    7.433571e-01
  2.856431e+01    7.541627e-01
  2.859606e+01    7.500941e-01
  2.862782e+01    7.673041e-01
  2.865957e+01    7.402586e-01
  2.869132e+01    7.613938e-01
  2.872307e+01    7.721297e-01
  2.875482e+01    7.354611e-01
  2.878657e+01    7.441518e-01
  2.881832e+01    7.288648e-01
  2.885007e+01    7.576109e-01
  2.888183e+01    7.599435e-01
  2.891358e+01    7.402435e-01
  2.894533e+01    7.411470e-01
  2.897708e+01    7.409499e-01
  2.900883e+01    7.484994e-01
  2.904058e+01    7.433295e-01
  2.907233e+01    7.205181e-01
  2.910408e+01    7.270477e-01
  2.913583e+01    7.236447e-01
  2.916759e+01    7.213505e-01
  2.919934e+01    7.215481e-01
  2.923109e+01    7.099925e-01
  2.926284e+01    7.306907e-01
  2.929459e+01    7.338000e-01
  2.932634e+01    7.163386e-01
  2.935809e+01    7.327935e-01
  2.938984e+01    7.370908e-01
  2.942159e+01    7.191700e-01
  2.945335e+01    7.294186e-01
  2.948510e+01    7.194675e-01
  2.951685e+01    7.200074e-01
  2.954860e+01    7.134792e-01
  2.958035e+01    7.469432e-01
  2.961210e+01    7.446781e-01
  2.964385e+01    7.219070e-01
  2.967560e+01    7.143458e-01
  2.970736e+01    7.094759e-01
  2.973911e+01    7.267370e-01
  2.977086e+01    7.088096e-01
  2.980261e+01    7.200166e-01
  2.983436e+01    7.033367e-01
  2.986611e+01    7.011147e-01
  2.989786e+01    7.067789e-01
  2.992961e+01    6.988872e-01
  2.996136e+01    7.159916e-01
  2.999312e+01    7.201997e-01
  3.002487e+01    7.202941e-01
  3.005662e+01    7.417600e-01
  3.008837e+01    7.419157e-01
  3.012012e+01    7.307563e-01
  3.015187e+01    7.313341e-01
  3.018362e+01    7.058252e-01
  3.021537e+01    6.913729e-01
  3.024712e+01    7.038770e-01
  3.027888e+01    7.110840e-01
  3.031063e+01    7.275457e-01
  3.034238e+01    7.036998e-01
  3.037413e+01    7.207589e-01
  3.040588e+01    7.025459e-01
  3.043763e+01    7.091792e-01
  3.046938e+01    7.108807e-01
  3.050113e+01    7.119653e-01
  3.053288e+01    7.140812e-01
  3.056464e+01    7.067260e-01
  3.059639e+01    7.146037e-01
  3.062814e+01    7.235287e-01
  3.065989e+01    7.078800e-01
  3.069164e+01    7.097656e-01
  3.072339e+01    7.057517e-01
  3.075514e+01    7.139332e-01
  3.078689e+01    7.138226e-01
  3.081865e+01    7.337567e-01
  3.085040e+01    7.053811e-01
  3.088215e+01    7.225752e-01
  3.091390e+01    7.176145e-01
  3.094565e+01    7.202558e-01
  3.097740e+01    7.170764e-01
  3.100915e+01    7.131335e-01
  3.104090e+01    7.197733e-01
  3.107265e+01    7.310686e-01
  3.110441e+01    7.222602e-01
  3.113616e+01    7.219636e-01
  3.116791e+01    7.196891e-01
  3.119966e+01    7.313868e-01
  3.123141e+01    7.240503e-01
  3.126316e+01    7.380799e-01
  3.129491e+01    7.231725e-01
  3.132666e+01    7.357454e-01
  3.135841e+01    7.399962e-01
  3.139017e+01    7.493609e-01
  3.142192e+01    7.814007e-01
  3.145367e+01    7.586204e-01
  3.148542e+01    7.631958e-01
  3.151717e+01    7.500240e-01
  3.154892e+01    7.886838e-01
  3.158067e+01    8.107339e-01
  3.161242e+01    8.415207e-01
  3.164418e+01    8.532307e-01
  3.167593e+01    9.150177e-01
  3.170768e+01    9.843698e-01
  3.173943e+01    1.076695e+00
  3.177118e+01    1.228843e+00
  3.180293e+01    1.433246e+00
  3.183468e+01    1.650611e+00
  3.186643e+01    2.028238e+00
  3.189818e+01    2.168598e+00
  3.192994e+01    2.132289e+00
  3.196169e+01    1.883759e+00
  3.199344e+01    1.553103e+00
  3.202519e+01    1.282342e+00
  3.205694e+01    1.108457e+00
  3.208869e+01    9.874890e-01
  3.212044e+01    9.385058e-01
  3.215219e+01    8.473496e-01
  3.218394e+01    8.374161e-01
  3.221570e+01    7.998794e-01
  3.224745e+01    7.687148e-01
  3.227920e+01    7.561238e-01
  3.231095e+01    7.388792e-01
  3.234270e+01    7.388497e-01
  3.237445e+01    7.116177e-01
  3.240620e+01    7.127671e-01
  3.243795e+01    7.227481e-01
  3.246970e+01    7.057719e-01
  3.250146e+01    7.194295e-01
  3.253321e+01    7.202014e-01
  3.254908e+01    7.239064e-01