File: XRD/Activation ramp/2024-07-27_002_Ru-CGO-ex_Activtation_ramp_000002_data_000015.dat
# == pyFAI calibration ==
# Distance Sample to Detector: 0.4 m
# PONI: 9.750e-02, 1.135e-01 m
# Rotations: -0.000175 0.000000 -0.000000 rad
#
# == Fit2d calibration ==
# Distance Sample-beamCenter: 400.000 mm
# Center: x=1514.000, y=1300.000 pix
# Tilt: 0.010 deg  TiltPlanRot: 0.010 deg
#
# Detector Detector	 Spline= None	 PixelSize= 7.500e-05, 7.500e-05 m
#    Detector has a mask: False
#    Detector has a dark current: False
#    detector has a flat field: False
#
# Wavelength: 6.888e-11 m
# Mask applied: user provided
# Dark current applied: False
# Flat field applied: False
# Polarization factor: 0.99
# Normalization factor: 1.0
# --> /home/myspot/data/2024_07_Rosario/Ru-CGO-ex/2024-07-27_002_Ru-CGO-ex_Activtation_ramp_000002_data_000015.dat
#       q_nm^-1             I
  2.003187e-02    0.000000e+00
  5.178302e-02    4.781393e-02
  8.353417e-02    1.183333e-01
  1.152853e-01    4.834687e-02
  1.470365e-01    3.511650e-02
  1.787876e-01    0.000000e+00
  2.105388e-01    7.288326e-02
  2.422899e-01    2.733315e-02
  2.740411e-01    6.595297e-02
  3.057922e-01    8.191653e-02
  3.375433e-01    7.257890e-02
  3.692945e-01    9.589381e-03
  4.010456e-01    7.191680e-02
  4.327968e-01    4.031768e-02
  4.645479e-01    6.975046e-02
  4.962991e-01    8.845121e-03
  5.280502e-01    8.328391e-03
  5.598014e-01    5.554394e-02
  5.915525e-01    3.134955e-02
  6.233037e-01    3.267030e-02
  6.550548e-01    3.910206e-02
  6.868060e-01    2.749482e-02
  7.185571e-01    2.805406e-02
  7.503083e-01    4.704924e-02
  7.820594e-01    5.812565e-02
  8.138106e-01    2.067302e-01
  8.455617e-01    2.763636e-01
  8.773129e-01    5.139565e-01
  9.090640e-01    6.351907e-01
  9.408152e-01    7.145670e-01
  9.725663e-01    9.273120e-01
  1.004317e+00    1.027710e+00
  1.036069e+00    1.088501e+00
  1.067820e+00    1.310665e+00
  1.099571e+00    1.392592e+00
  1.131322e+00    1.392613e+00
  1.163073e+00    1.495669e+00
  1.194824e+00    1.659033e+00
  1.226575e+00    2.031585e+00
  1.258327e+00    2.346621e+00
  1.290078e+00    2.653329e+00
  1.321829e+00    2.524947e+00
  1.353580e+00    2.579222e+00
  1.385331e+00    2.611627e+00
  1.417082e+00    2.604811e+00
  1.448834e+00    2.754152e+00
  1.480585e+00    2.952277e+00
  1.512336e+00    3.039093e+00
  1.544087e+00    3.148471e+00
  1.575838e+00    3.084120e+00
  1.607589e+00    2.974440e+00
  1.639340e+00    3.052456e+00
  1.671092e+00    2.917636e+00
  1.702843e+00    2.877059e+00
  1.734594e+00    2.883411e+00
  1.766345e+00    2.811516e+00
  1.798096e+00    2.900995e+00
  1.829847e+00    2.906713e+00
  1.861598e+00    2.751077e+00
  1.893350e+00    2.912508e+00
  1.925101e+00    2.819187e+00
  1.956852e+00    2.786564e+00
  1.988603e+00    2.751326e+00
  2.020354e+00    2.846261e+00
  2.052105e+00    2.718167e+00
  2.083856e+00    2.771979e+00
  2.115608e+00    2.803795e+00
  2.147359e+00    2.693960e+00
  2.179110e+00    2.860155e+00
  2.210861e+00    2.806502e+00
  2.242612e+00    2.807799e+00
  2.274363e+00    2.728010e+00
  2.306115e+00    2.709098e+00
  2.337866e+00    2.793725e+00
  2.369617e+00    2.912104e+00
  2.401368e+00    2.752845e+00
  2.433119e+00    2.945500e+00
  2.464870e+00    2.892352e+00
  2.496621e+00    2.867094e+00
  2.528373e+00    2.788040e+00
  2.560124e+00    2.779224e+00
  2.591875e+00    2.899247e+00
  2.623626e+00    2.941484e+00
  2.655377e+00    2.819597e+00
  2.687128e+00    2.802300e+00
  2.718879e+00    2.868929e+00
  2.750631e+00    2.862568e+00
  2.782382e+00    2.867474e+00
  2.814133e+00    2.867264e+00
  2.845884e+00    2.843265e+00
  2.877635e+00    2.934340e+00
  2.909386e+00    3.006376e+00
  2.941137e+00    2.940823e+00
  2.972889e+00    2.891106e+00
  3.004640e+00    2.985672e+00
  3.036391e+00    2.864845e+00
  3.068142e+00    2.896705e+00
  3.099893e+00    3.020659e+00
  3.131644e+00    2.884418e+00
  3.163395e+00    2.911224e+00
  3.195147e+00    2.928747e+00
  3.226898e+00    2.897787e+00
  3.258649e+00    2.970560e+00
  3.290400e+00    3.010198e+00
  3.322151e+00    2.920242e+00
  3.353902e+00    2.955657e+00
  3.385654e+00    2.955391e+00
  3.417405e+00    2.934301e+00
  3.449156e+00    2.976468e+00
  3.480907e+00    2.974465e+00
  3.512658e+00    3.023050e+00
  3.544409e+00    2.939018e+00
  3.576160e+00    2.920434e+00
  3.607912e+00    3.039647e+00
  3.639663e+00    3.036355e+00
  3.671414e+00    3.114297e+00
  3.703165e+00    2.928388e+00
  3.734916e+00    3.007037e+00
  3.766667e+00    3.056060e+00
  3.798418e+00    3.049277e+00
  3.830170e+00    3.070894e+00
  3.861921e+00    2.977337e+00
  3.893672e+00    2.978580e+00
  3.925423e+00    2.967237e+00
  3.957174e+00    3.115535e+00
  3.988925e+00    3.066125e+00
  4.020676e+00    3.048845e+00
  4.052428e+00    3.017959e+00
  4.084179e+00    3.081841e+00
  4.115930e+00    3.136208e+00
  4.147681e+00    3.050322e+00
  4.179432e+00    3.038985e+00
  4.211183e+00    3.067054e+00
  4.242935e+00    3.111814e+00
  4.274686e+00    3.126997e+00
  4.306437e+00    3.091663e+00
  4.338188e+00    3.018486e+00
  4.369939e+00    3.126032e+00
  4.401690e+00    3.110642e+00
  4.433441e+00    3.120258e+00
  4.465193e+00    3.035420e+00
  4.496944e+00    3.058083e+00
  4.528695e+00    3.095185e+00
  4.560446e+00    3.042597e+00
  4.592197e+00    3.144426e+00
  4.623948e+00    3.125690e+00
  4.655699e+00    3.176756e+00
  4.687451e+00    3.142469e+00
  4.719202e+00    3.104195e+00
  4.750953e+00    3.194035e+00
  4.782704e+00    3.136151e+00
  4.814455e+00    3.113651e+00
  4.846206e+00    3.139975e+00
  4.877957e+00    3.223399e+00
  4.909709e+00    3.217789e+00
  4.941460e+00    3.154763e+00
  4.973211e+00    3.112863e+00
  5.004962e+00    3.114079e+00
  5.036713e+00    3.125426e+00
  5.068464e+00    3.270394e+00
  5.100216e+00    3.175061e+00
  5.131967e+00    3.188963e+00
  5.163718e+00    3.118686e+00
  5.195469e+00    3.224838e+00
  5.227220e+00    3.181813e+00
  5.258971e+00    3.119566e+00
  5.290722e+00    3.183699e+00
  5.322474e+00    3.179675e+00
  5.354225e+00    3.128089e+00
  5.385976e+00    3.145059e+00
  5.417727e+00    3.144490e+00
  5.449478e+00    3.113139e+00
  5.481229e+00    3.116586e+00
  5.512980e+00    3.146116e+00
  5.544732e+00    3.155725e+00
  5.576483e+00    3.133639e+00
  5.608234e+00    3.125339e+00
  5.639985e+00    3.075645e+00
  5.671736e+00    3.184339e+00
  5.703487e+00    3.139743e+00
  5.735238e+00    3.042263e+00
  5.766990e+00    3.125840e+00
  5.798741e+00    3.102377e+00
  5.830492e+00    3.057117e+00
  5.862243e+00    3.058991e+00
  5.893994e+00    3.015637e+00
  5.925745e+00    3.040941e+00
  5.957497e+00    3.025286e+00
  5.989248e+00    3.071196e+00
  6.020999e+00    3.014661e+00
  6.052750e+00    2.998598e+00
  6.084501e+00    3.082360e+00
  6.116252e+00    3.106887e+00
  6.148003e+00    3.069695e+00
  6.179755e+00    3.109155e+00
  6.211506e+00    3.028304e+00
  6.243257e+00    3.062139e+00
  6.275008e+00    3.142075e+00
  6.306759e+00    3.024818e+00
  6.338510e+00    2.951736e+00
  6.370261e+00    3.017960e+00
  6.402013e+00    3.112759e+00
  6.433764e+00    3.168086e+00
  6.465515e+00    3.085429e+00
  6.497266e+00    3.006607e+00
  6.529017e+00    3.101792e+00
  6.560768e+00    3.020387e+00
  6.592519e+00    3.046895e+00
  6.624271e+00    3.039739e+00
  6.656022e+00    3.035047e+00
  6.687773e+00    3.045531e+00
  6.719524e+00    3.036402e+00
  6.751275e+00    3.058643e+00
  6.783026e+00    3.132813e+00
  6.814777e+00    2.980357e+00
  6.846529e+00    3.060886e+00
  6.878280e+00    3.026768e+00
  6.910031e+00    3.051175e+00
  6.941782e+00    2.990754e+00
  6.973533e+00    3.034615e+00
  7.005284e+00    3.032268e+00
  7.037036e+00    2.994679e+00
  7.068787e+00    2.982548e+00
  7.100538e+00    3.040017e+00
  7.132289e+00    3.042257e+00
  7.164040e+00    3.004088e+00
  7.195791e+00    3.028605e+00
  7.227542e+00    2.970011e+00
  7.259294e+00    2.985266e+00
  7.291045e+00    3.058021e+00
  7.322796e+00    3.010105e+00
  7.354547e+00    2.972985e+00
  7.386298e+00    2.943192e+00
  7.418049e+00    2.972319e+00
  7.449800e+00    3.078488e+00
  7.481552e+00    2.952719e+00
  7.513303e+00    3.073293e+00
  7.545054e+00    3.007743e+00
  7.576805e+00    2.942035e+00
  7.608556e+00    3.033203e+00
  7.640307e+00    3.022653e+00
  7.672058e+00    2.979478e+00
  7.703810e+00    2.986892e+00
  7.735561e+00    2.916548e+00
  7.767312e+00    2.930086e+00
  7.799063e+00    3.005651e+00
  7.830814e+00    2.918897e+00
  7.862565e+00    2.967724e+00
  7.894317e+00    2.873758e+00
  7.926068e+00    2.992628e+00
  7.957819e+00    2.943177e+00
  7.989570e+00    2.992582e+00
  8.021321e+00    2.964142e+00
  8.053072e+00    2.954085e+00
  8.084823e+00    3.011974e+00
  8.116575e+00    2.920945e+00
  8.148326e+00    3.009382e+00
  8.180077e+00    3.011231e+00
  8.211828e+00    2.979426e+00
  8.243579e+00    2.959797e+00
  8.275330e+00    2.912492e+00
  8.307081e+00    2.861916e+00
  8.338833e+00    2.949950e+00
  8.370584e+00    2.894946e+00
  8.402335e+00    2.918126e+00
  8.434086e+00    2.949930e+00
  8.465837e+00    2.874562e+00
  8.497588e+00    2.938318e+00
  8.529339e+00    2.853267e+00
  8.561091e+00    2.993901e+00
  8.592842e+00    2.909529e+00
  8.624593e+00    2.885983e+00
  8.656344e+00    2.972490e+00
  8.688095e+00    2.910134e+00
  8.719846e+00    2.811880e+00
  8.751598e+00    2.851667e+00
  8.783349e+00    2.881351e+00
  8.815100e+00    2.853931e+00
  8.846851e+00    2.934244e+00
  8.878602e+00    2.873706e+00
  8.910353e+00    2.894460e+00
  8.942104e+00    2.854160e+00
  8.973856e+00    2.900438e+00
  9.005607e+00    2.795711e+00
  9.037358e+00    2.848508e+00
  9.069109e+00    2.821143e+00
  9.100860e+00    2.838809e+00
  9.132611e+00    2.818987e+00
  9.164362e+00    2.858312e+00
  9.196114e+00    2.803034e+00
  9.227865e+00    2.817070e+00
  9.259616e+00    2.792616e+00
  9.291367e+00    2.766211e+00
  9.323118e+00    2.810852e+00
  9.354869e+00    2.778384e+00
  9.386620e+00    2.759817e+00
  9.418372e+00    2.792058e+00
  9.450123e+00    2.775918e+00
  9.481874e+00    2.757134e+00
  9.513625e+00    2.814265e+00
  9.545376e+00    2.780749e+00
  9.577127e+00    2.757402e+00
  9.608878e+00    2.826883e+00
  9.640630e+00    2.761727e+00
  9.672381e+00    2.788227e+00
  9.704132e+00    2.776918e+00
  9.735883e+00    2.784532e+00
  9.767634e+00    2.761330e+00
  9.799385e+00    2.758377e+00
  9.831137e+00    2.777532e+00
  9.862888e+00    2.735188e+00
  9.894639e+00    2.767120e+00
  9.926390e+00    2.756078e+00
  9.958141e+00    2.744641e+00
  9.989892e+00    2.678039e+00
  1.002164e+01    2.696686e+00
  1.005339e+01    2.671810e+00
  1.008515e+01    2.635334e+00
  1.011690e+01    2.677058e+00
  1.014865e+01    2.702266e+00
  1.018040e+01    2.672924e+00
  1.021215e+01    2.660393e+00
  1.024390e+01    2.663144e+00
  1.027565e+01    2.675244e+00
  1.030740e+01    2.621063e+00
  1.033915e+01    2.627561e+00
  1.037091e+01    2.676381e+00
  1.040266e+01    2.676747e+00
  1.043441e+01    2.659186e+00
  1.046616e+01    2.659789e+00
  1.049791e+01    2.604284e+00
  1.052966e+01    2.615759e+00
  1.056141e+01    2.630866e+00
  1.059316e+01    2.644590e+00
  1.062492e+01    2.537154e+00
  1.065667e+01    2.595035e+00
  1.068842e+01    2.586015e+00
  1.072017e+01    2.578533e+00
  1.075192e+01    2.576506e+00
  1.078367e+01    2.530582e+00
  1.081542e+01    2.543021e+00
  1.084717e+01    2.539564e+00
  1.087892e+01    2.535853e+00
  1.091068e+01    2.553544e+00
  1.094243e+01    2.549765e+00
  1.097418e+01    2.522867e+00
  1.100593e+01    2.531265e+00
  1.103768e+01    2.493532e+00
  1.106943e+01    2.486144e+00
  1.110118e+01    2.510515e+00
  1.113293e+01    2.460652e+00
  1.116468e+01    2.477557e+00
  1.119644e+01    2.466268e+00
  1.122819e+01    2.468693e+00
  1.125994e+01    2.536144e+00
  1.129169e+01    2.448785e+00
  1.132344e+01    2.455824e+00
  1.135519e+01    2.489405e+00
  1.138694e+01    2.474807e+00
  1.141869e+01    2.390115e+00
  1.145045e+01    2.431813e+00
  1.148220e+01    2.461259e+00
  1.151395e+01    2.438822e+00
  1.154570e+01    2.395045e+00
  1.157745e+01    2.416550e+00
  1.160920e+01    2.412497e+00
  1.164095e+01    2.411628e+00
  1.167270e+01    2.411032e+00
  1.170445e+01    2.368120e+00
  1.173621e+01    2.424301e+00
  1.176796e+01    2.387052e+00
  1.179971e+01    2.425158e+00
  1.183146e+01    2.332581e+00
  1.186321e+01    2.383301e+00
  1.189496e+01    2.368922e+00
  1.192671e+01    2.340270e+00
  1.195846e+01    2.391809e+00
  1.199021e+01    2.424655e+00
  1.202197e+01    2.336446e+00
  1.205372e+01    2.381116e+00
  1.208547e+01    2.381525e+00
  1.211722e+01    2.367639e+00
  1.214897e+01    2.361894e+00
  1.218072e+01    2.357303e+00
  1.221247e+01    2.365065e+00
  1.224422e+01    2.344350e+00
  1.227597e+01    2.316122e+00
  1.230773e+01    2.350611e+00
  1.233948e+01    2.381864e+00
  1.237123e+01    2.323550e+00
  1.240298e+01    2.342473e+00
  1.243473e+01    2.393935e+00
  1.246648e+01    2.373577e+00
  1.249823e+01    2.382672e+00
  1.252998e+01    2.434631e+00
  1.256174e+01    2.379248e+00
  1.259349e+01    2.384939e+00
  1.262524e+01    2.426558e+00
  1.265699e+01    2.510602e+00
  1.268874e+01    2.521011e+00
  1.272049e+01    2.511394e+00
  1.275224e+01    2.591689e+00
  1.278399e+01    2.683842e+00
  1.281574e+01    2.816658e+00
  1.284750e+01    2.891539e+00
  1.287925e+01    3.048109e+00
  1.291100e+01    3.336697e+00
  1.294275e+01    3.725997e+00
  1.297450e+01    4.239934e+00
  1.300625e+01    5.124697e+00
  1.303800e+01    6.620805e+00
  1.306975e+01    8.968708e+00
  1.310150e+01    1.204517e+01
  1.313326e+01    1.519922e+01
  1.316501e+01    1.797808e+01
  1.319676e+01    2.000154e+01
  1.322851e+01    1.859867e+01
  1.326026e+01    1.418805e+01
  1.329201e+01    9.865950e+00
  1.332376e+01    7.180474e+00
  1.335551e+01    5.565893e+00
  1.338727e+01    4.410898e+00
  1.341902e+01    3.845930e+00
  1.345077e+01    3.368678e+00
  1.348252e+01    3.075904e+00
  1.351427e+01    2.883878e+00
  1.354602e+01    2.702842e+00
  1.357777e+01    2.592104e+00
  1.360952e+01    2.498199e+00
  1.364127e+01    2.435370e+00
  1.367303e+01    2.379954e+00
  1.370478e+01    2.360840e+00
  1.373653e+01    2.263362e+00
  1.376828e+01    2.280423e+00
  1.380003e+01    2.250850e+00
  1.383178e+01    2.229540e+00
  1.386353e+01    2.203145e+00
  1.389528e+01    2.124644e+00
  1.392703e+01    2.146343e+00
  1.395879e+01    2.167774e+00
  1.399054e+01    2.120863e+00
  1.402229e+01    2.121650e+00
  1.405404e+01    2.098578e+00
  1.408579e+01    2.080079e+00
  1.411754e+01    2.033738e+00
  1.414929e+01    2.042647e+00
  1.418104e+01    1.986165e+00
  1.421279e+01    2.035475e+00
  1.424455e+01    2.012649e+00
  1.427630e+01    1.991648e+00
  1.430805e+01    1.983779e+00
  1.433980e+01    1.992594e+00
  1.437155e+01    1.992766e+00
  1.440330e+01    1.936044e+00
  1.443505e+01    1.934995e+00
  1.446680e+01    1.959548e+00
  1.449856e+01    1.953981e+00
  1.453031e+01    1.916209e+00
  1.456206e+01    1.936537e+00
  1.459381e+01    1.944979e+00
  1.462556e+01    1.932424e+00
  1.465731e+01    1.948939e+00
  1.468906e+01    1.906327e+00
  1.472081e+01    1.905235e+00
  1.475256e+01    1.946852e+00
  1.478432e+01    1.941434e+00
  1.481607e+01    1.923667e+00
  1.484782e+01    1.964063e+00
  1.487957e+01    2.000126e+00
  1.491132e+01    1.970536e+00
  1.494307e+01    2.033991e+00
  1.497482e+01    2.059288e+00
  1.500657e+01    2.158669e+00
  1.503832e+01    2.295701e+00
  1.507008e+01    2.450252e+00
  1.510183e+01    2.779452e+00
  1.513358e+01    3.254416e+00
  1.516533e+01    3.927787e+00
  1.519708e+01    4.890909e+00
  1.522883e+01    5.666987e+00
  1.526058e+01    6.339833e+00
  1.529233e+01    6.643993e+00
  1.532409e+01    6.257588e+00
  1.535584e+01    5.107666e+00
  1.538759e+01    3.929226e+00
  1.541934e+01    3.115658e+00
  1.545109e+01    2.685048e+00
  1.548284e+01    2.426193e+00
  1.551459e+01    2.214759e+00
  1.554634e+01    2.057790e+00
  1.557809e+01    1.945811e+00
  1.560985e+01    1.920962e+00
  1.564160e+01    1.866275e+00
  1.567335e+01    1.795271e+00
  1.570510e+01    1.777724e+00
  1.573685e+01    1.791549e+00
  1.576860e+01    1.803889e+00
  1.580035e+01    1.727886e+00
  1.583210e+01    1.703259e+00
  1.586385e+01    1.706839e+00
  1.589561e+01    1.664633e+00
  1.592736e+01    1.647804e+00
  1.595911e+01    1.689495e+00
  1.599086e+01    1.646665e+00
  1.602261e+01    1.598126e+00
  1.605436e+01    1.618917e+00
  1.608611e+01    1.637817e+00
  1.611786e+01    1.602411e+00
  1.614961e+01    1.597156e+00
  1.618137e+01    1.558989e+00
  1.621312e+01    1.621903e+00
  1.624487e+01    1.582541e+00
  1.627662e+01    1.571774e+00
  1.630837e+01    1.590678e+00
  1.634012e+01    1.565006e+00
  1.637187e+01    1.528150e+00
  1.640362e+01    1.535822e+00
  1.643538e+01    1.559541e+00
  1.646713e+01    1.575269e+00
  1.649888e+01    1.515985e+00
  1.653063e+01    1.527980e+00
  1.656238e+01    1.518412e+00
  1.659413e+01    1.530120e+00
  1.662588e+01    1.519409e+00
  1.665763e+01    1.494164e+00
  1.668938e+01    1.518963e+00
  1.672114e+01    1.488237e+00
  1.675289e+01    1.498241e+00
  1.678464e+01    1.501048e+00
  1.681639e+01    1.467473e+00
  1.684814e+01    1.493054e+00
  1.687989e+01    1.507213e+00
  1.691164e+01    1.474078e+00
  1.694339e+01    1.485721e+00
  1.697514e+01    1.436477e+00
  1.700690e+01    1.467466e+00
  1.703865e+01    1.446129e+00
  1.707040e+01    1.464749e+00
  1.710215e+01    1.433207e+00
  1.713390e+01    1.430721e+00
  1.716565e+01    1.438286e+00
  1.719740e+01    1.423458e+00
  1.722915e+01    1.434030e+00
  1.726091e+01    1.420065e+00
  1.729266e+01    1.394403e+00
  1.732441e+01    1.416611e+00
  1.735616e+01    1.402768e+00
  1.738791e+01    1.395018e+00
  1.741966e+01    1.371177e+00
  1.745141e+01    1.379397e+00
  1.748316e+01    1.384876e+00
  1.751491e+01    1.379761e+00
  1.754667e+01    1.379885e+00
  1.757842e+01    1.399302e+00
  1.761017e+01    1.392184e+00
  1.764192e+01    1.358836e+00
  1.767367e+01    1.386674e+00
  1.770542e+01    1.353987e+00
  1.773717e+01    1.372728e+00
  1.776892e+01    1.345826e+00
  1.780067e+01    1.367608e+00
  1.783243e+01    1.339964e+00
  1.786418e+01    1.343966e+00
  1.789593e+01    1.332753e+00
  1.792768e+01    1.334656e+00
  1.795943e+01    1.326559e+00
  1.799118e+01    1.352093e+00
  1.802293e+01    1.323507e+00
  1.805468e+01    1.304110e+00
  1.808643e+01    1.299532e+00
  1.811819e+01    1.333326e+00
  1.814994e+01    1.293195e+00
  1.818169e+01    1.295651e+00
  1.821344e+01    1.305056e+00
  1.824519e+01    1.271031e+00
  1.827694e+01    1.289167e+00
  1.830869e+01    1.275684e+00
  1.834044e+01    1.253130e+00
  1.837220e+01    1.295050e+00
  1.840395e+01    1.279980e+00
  1.843570e+01    1.271829e+00
  1.846745e+01    1.273284e+00
  1.849920e+01    1.240523e+00
  1.853095e+01    1.268530e+00
  1.856270e+01    1.259547e+00
  1.859445e+01    1.248766e+00
  1.862620e+01    1.249471e+00
  1.865796e+01    1.262172e+00
  1.868971e+01    1.276053e+00
  1.872146e+01    1.244661e+00
  1.875321e+01    1.237674e+00
  1.878496e+01    1.256684e+00
  1.881671e+01    1.246987e+00
  1.884846e+01    1.243396e+00
  1.888021e+01    1.239087e+00
  1.891196e+01    1.232079e+00
  1.894372e+01    1.238853e+00
  1.897547e+01    1.227815e+00
  1.900722e+01    1.212542e+00
  1.903897e+01    1.212124e+00
  1.907072e+01    1.202309e+00
  1.910247e+01    1.223386e+00
  1.913422e+01    1.218742e+00
  1.916597e+01    1.188741e+00
  1.919773e+01    1.179430e+00
  1.922948e+01    1.228344e+00
  1.926123e+01    1.202894e+00
  1.929298e+01    1.205641e+00
  1.932473e+01    1.187564e+00
  1.935648e+01    1.194984e+00
  1.938823e+01    1.202123e+00
  1.941998e+01    1.200259e+00
  1.945173e+01    1.204444e+00
  1.948349e+01    1.194831e+00
  1.951524e+01    1.152686e+00
  1.954699e+01    1.187863e+00
  1.957874e+01    1.176436e+00
  1.961049e+01    1.158776e+00
  1.964224e+01    1.160076e+00
  1.967399e+01    1.154461e+00
  1.970574e+01    1.167031e+00
  1.973749e+01    1.153347e+00
  1.976925e+01    1.154432e+00
  1.980100e+01    1.151895e+00
  1.983275e+01    1.157022e+00
  1.986450e+01    1.148864e+00
  1.989625e+01    1.155062e+00
  1.992800e+01    1.148885e+00
  1.995975e+01    1.149325e+00
  1.999150e+01    1.137858e+00
  2.002325e+01    1.156116e+00
  2.005501e+01    1.115218e+00
  2.008676e+01    1.139269e+00
  2.011851e+01    1.125452e+00
  2.015026e+01    1.131748e+00
  2.018201e+01    1.099114e+00
  2.021376e+01    1.113132e+00
  2.024551e+01    1.129581e+00
  2.027726e+01    1.116248e+00
  2.030902e+01    1.128865e+00
  2.034077e+01    1.108815e+00
  2.037252e+01    1.111248e+00
  2.040427e+01    1.102502e+00
  2.043602e+01    1.117585e+00
  2.046777e+01    1.103912e+00
  2.049952e+01    1.084137e+00
  2.053127e+01    1.131880e+00
  2.056302e+01    1.113982e+00
  2.059478e+01    1.114358e+00
  2.062653e+01    1.096336e+00
  2.065828e+01    1.107742e+00
  2.069003e+01    1.097090e+00
  2.072178e+01    1.122712e+00
  2.075353e+01    1.095125e+00
  2.078528e+01    1.094549e+00
  2.081703e+01    1.109932e+00
  2.084878e+01    1.103861e+00
  2.088054e+01    1.103976e+00
  2.091229e+01    1.080190e+00
  2.094404e+01    1.130643e+00
  2.097579e+01    1.107909e+00
  2.100754e+01    1.066747e+00
  2.103929e+01    1.111379e+00
  2.107104e+01    1.109227e+00
  2.110279e+01    1.138986e+00
  2.113455e+01    1.095926e+00
  2.116630e+01    1.132896e+00
  2.119805e+01    1.100864e+00
  2.122980e+01    1.123968e+00
  2.126155e+01    1.128349e+00
  2.129330e+01    1.127458e+00
  2.132505e+01    1.148535e+00
  2.135680e+01    1.155877e+00
  2.138855e+01    1.180435e+00
  2.142031e+01    1.210992e+00
  2.145206e+01    1.218004e+00
  2.148381e+01    1.299495e+00
  2.151556e+01    1.323221e+00
  2.154731e+01    1.384058e+00
  2.157906e+01    1.459695e+00
  2.161081e+01    1.562742e+00
  2.164256e+01    1.736865e+00
  2.167431e+01    1.929388e+00
  2.170607e+01    2.260094e+00
  2.173782e+01    2.800603e+00
  2.176957e+01    3.644839e+00
  2.180132e+01    4.795822e+00
  2.183307e+01    6.325563e+00
  2.186482e+01    8.024815e+00
  2.189657e+01    9.856006e+00
  2.192832e+01    1.099259e+01
  2.196007e+01    1.057740e+01
  2.199183e+01    8.684171e+00
  2.202358e+01    6.258853e+00
  2.205533e+01    4.473395e+00
  2.208708e+01    3.362540e+00
  2.211883e+01    2.638763e+00
  2.215058e+01    2.152294e+00
  2.218233e+01    1.868595e+00
  2.221408e+01    1.666278e+00
  2.224584e+01    1.518597e+00
  2.227759e+01    1.378809e+00
  2.230934e+01    1.302229e+00
  2.234109e+01    1.245471e+00
  2.237284e+01    1.202747e+00
  2.240459e+01    1.177471e+00
  2.243634e+01    1.137684e+00
  2.246809e+01    1.083779e+00
  2.249984e+01    1.063450e+00
  2.253160e+01    1.058468e+00
  2.256335e+01    1.047192e+00
  2.259510e+01    1.015317e+00
  2.262685e+01    1.022735e+00
  2.265860e+01    1.008899e+00
  2.269035e+01    9.747043e-01
  2.272210e+01    9.792021e-01
  2.275385e+01    9.731276e-01
  2.278560e+01    9.405406e-01
  2.281736e+01    9.744235e-01
  2.284911e+01    9.653904e-01
  2.288086e+01    9.435962e-01
  2.291261e+01    9.369315e-01
  2.294436e+01    9.165561e-01
  2.297611e+01    9.377288e-01
  2.300786e+01    9.263614e-01
  2.303961e+01    9.201880e-01
  2.307137e+01    9.150013e-01
  2.310312e+01    8.993125e-01
  2.313487e+01    9.217457e-01
  2.316662e+01    8.987150e-01
  2.319837e+01    9.091602e-01
  2.323012e+01    8.749361e-01
  2.326187e+01    8.906224e-01
  2.329362e+01    8.839270e-01
  2.332537e+01    8.617789e-01
  2.335713e+01    8.774814e-01
  2.338888e+01    8.570474e-01
  2.342063e+01    8.626069e-01
  2.345238e+01    8.716688e-01
  2.348413e+01    8.758751e-01
  2.351588e+01    8.716864e-01
  2.354763e+01    8.734514e-01
  2.357938e+01    8.660854e-01
  2.361113e+01    8.791574e-01
  2.364289e+01    8.691782e-01
  2.367464e+01    8.496019e-01
  2.370639e+01    8.372012e-01
  2.373814e+01    8.370993e-01
  2.376989e+01    8.509568e-01
  2.380164e+01    8.233520e-01
  2.383339e+01    8.280349e-01
  2.386514e+01    8.161066e-01
  2.389689e+01    8.285471e-01
  2.392865e+01    8.024551e-01
  2.396040e+01    8.142619e-01
  2.399215e+01    8.111376e-01
  2.402390e+01    8.046623e-01
  2.405565e+01    8.124920e-01
  2.408740e+01    8.019516e-01
  2.411915e+01    8.309148e-01
  2.415090e+01    8.003519e-01
  2.418266e+01    7.922233e-01
  2.421441e+01    7.976219e-01
  2.424616e+01    7.958927e-01
  2.427791e+01    7.933196e-01
  2.430966e+01    8.100578e-01
  2.434141e+01    7.796985e-01
  2.437316e+01    8.190133e-01
  2.440491e+01    8.153905e-01
  2.443666e+01    8.014653e-01
  2.446842e+01    8.265287e-01
  2.450017e+01    8.057083e-01
  2.453192e+01    7.958299e-01
  2.456367e+01    8.359313e-01
  2.459542e+01    8.421013e-01
  2.462717e+01    7.985094e-01
  2.465892e+01    8.112548e-01
  2.469067e+01    8.058176e-01
  2.472242e+01    8.065751e-01
  2.475418e+01    7.921484e-01
  2.478593e+01    8.136327e-01
  2.481768e+01    8.002761e-01
  2.484943e+01    8.077098e-01
  2.488118e+01    8.022318e-01
  2.491293e+01    8.040313e-01
  2.494468e+01    8.066306e-01
  2.497643e+01    8.050284e-01
  2.500819e+01    8.156902e-01
  2.503994e+01    8.220329e-01
  2.507169e+01    8.118898e-01
  2.510344e+01    8.309835e-01
  2.513519e+01    8.408167e-01
  2.516694e+01    8.316989e-01
  2.519869e+01    8.296490e-01
  2.523044e+01    8.381751e-01
  2.526219e+01    8.653516e-01
  2.529395e+01    9.007432e-01
  2.532570e+01    8.863940e-01
  2.535745e+01    8.876051e-01
  2.538920e+01    9.197983e-01
  2.542095e+01    9.200282e-01
  2.545270e+01    9.397974e-01
  2.548445e+01    9.934040e-01
  2.551620e+01    9.921766e-01
  2.554795e+01    1.028785e+00
  2.557971e+01    1.056140e+00
  2.561146e+01    1.116107e+00
  2.564321e+01    1.185507e+00
  2.567496e+01    1.255525e+00
  2.570671e+01    1.397005e+00
  2.573846e+01    1.558905e+00
  2.577021e+01    1.821986e+00
  2.580196e+01    2.192090e+00
  2.583371e+01    2.713004e+00
  2.586547e+01    3.499118e+00
  2.589722e+01    4.705410e+00
  2.592897e+01    6.275743e+00
  2.596072e+01    7.857176e+00
  2.599247e+01    8.991523e+00
  2.602422e+01    9.014235e+00
  2.605597e+01    7.778745e+00
  2.608772e+01    5.932085e+00
  2.611948e+01    4.322334e+00
  2.615123e+01    3.211649e+00
  2.618298e+01    2.521554e+00
  2.621473e+01    2.011584e+00
  2.624648e+01    1.750986e+00
  2.627823e+01    1.509346e+00
  2.630998e+01    1.361560e+00
  2.634173e+01    1.237487e+00
  2.637348e+01    1.182976e+00
  2.640524e+01    1.090170e+00
  2.643699e+01    1.040354e+00
  2.646874e+01    1.045912e+00
  2.650049e+01    9.878555e-01
  2.653224e+01    9.862865e-01
  2.656399e+01    9.901872e-01
  2.659574e+01    9.830450e-01
  2.662749e+01    9.288478e-01
  2.665924e+01    9.510129e-01
  2.669100e+01    9.249800e-01
  2.672275e+01    9.518350e-01
  2.675450e+01    9.311661e-01
  2.678625e+01    9.261616e-01
  2.681800e+01    9.265186e-01
  2.684975e+01    9.239327e-01
  2.688150e+01    9.343310e-01
  2.691325e+01    9.490122e-01
  2.694501e+01    9.597343e-01
  2.697676e+01    9.862739e-01
  2.700851e+01    1.029990e+00
  2.704026e+01    1.072317e+00
  2.707201e+01    1.154623e+00
  2.710376e+01    1.276419e+00
  2.713551e+01    1.444202e+00
  2.716726e+01    1.694374e+00
  2.719901e+01    2.080324e+00
  2.723077e+01    2.378543e+00
  2.726252e+01    2.606032e+00
  2.729427e+01    2.550182e+00
  2.732602e+01    2.241654e+00
  2.735777e+01    1.839970e+00
  2.738952e+01    1.511645e+00
  2.742127e+01    1.300415e+00
  2.745302e+01    1.139618e+00
  2.748477e+01    1.097658e+00
  2.751653e+01    1.009590e+00
  2.754828e+01    9.764754e-01
  2.758003e+01    9.361578e-01
  2.761178e+01    9.084909e-01
  2.764353e+01    8.830137e-01
  2.767528e+01    8.951803e-01
  2.770703e+01    8.635872e-01
  2.773878e+01    8.576389e-01
  2.777054e+01    8.385367e-01
  2.780229e+01    8.478192e-01
  2.783404e+01    8.363732e-01
  2.786579e+01    8.374820e-01
  2.789754e+01    8.319094e-01
  2.792929e+01    8.201274e-01
  2.796104e+01    8.087793e-01
  2.799279e+01    8.186663e-01
  2.802454e+01    8.001938e-01
  2.805630e+01    7.898579e-01
  2.808805e+01    8.054003e-01
  2.811980e+01    8.130740e-01
  2.815155e+01    8.095618e-01
  2.818330e+01    7.940040e-01
  2.821505e+01    7.990403e-01
  2.824680e+01    7.978988e-01
  2.827855e+01    7.963319e-01
  2.831030e+01    7.898428e-01
  2.834206e+01    7.747156e-01
  2.837381e+01    7.787589e-01
  2.840556e+01    7.756183e-01
  2.843731e+01    7.995781e-01
  2.846906e+01    7.804855e-01
  2.850081e+01    7.827732e-01
  2.853256e+01    7.731110e-01
  2.856431e+01    7.618535e-01
  2.859606e+01    7.835099e-01
  2.862782e+01    7.709011e-01
  2.865957e+01    7.594152e-01
  2.869132e+01    7.736820e-01
  2.872307e+01    7.698349e-01
  2.875482e+01    7.615268e-01
  2.878657e+01    7.629959e-01
  2.881832e+01    7.823789e-01
  2.885007e+01    7.465846e-01
  2.888183e+01    7.685078e-01
  2.891358e+01    7.644275e-01
  2.894533e+01    7.580610e-01
  2.897708e+01    7.351661e-01
  2.900883e+01    7.637413e-01
  2.904058e+01    7.690465e-01
  2.907233e+01    7.538080e-01
  2.910408e+01    7.462668e-01
  2.913583e+01    7.544290e-01
  2.916759e+01    7.529030e-01
  2.919934e+01    7.665871e-01
  2.923109e+01    7.512237e-01
  2.926284e+01    7.608321e-01
  2.929459e+01    7.155532e-01
  2.932634e+01    7.479782e-01
  2.935809e+01    7.446111e-01
  2.938984e+01    7.491860e-01
  2.942159e+01    7.398399e-01
  2.945335e+01    7.417366e-01
  2.948510e+01    7.504117e-01
  2.951685e+01    7.444463e-01
  2.954860e+01    7.351154e-01
  2.958035e+01    7.255672e-01
  2.961210e+01    7.275828e-01
  2.964385e+01    7.248273e-01
  2.967560e+01    7.391115e-01
  2.970736e+01    7.267454e-01
  2.973911e+01    7.429335e-01
  2.977086e+01    7.370155e-01
  2.980261e+01    7.253087e-01
  2.983436e+01    7.377176e-01
  2.986611e+01    7.399465e-01
  2.989786e+01    7.233133e-01
  2.992961e+01    7.176787e-01
  2.996136e+01    7.430344e-01
  2.999312e+01    7.362310e-01
  3.002487e+01    7.776327e-01
  3.005662e+01    7.655180e-01
  3.008837e+01    7.563345e-01
  3.012012e+01    7.345411e-01
  3.015187e+01    7.555988e-01
  3.018362e+01    7.306412e-01
  3.021537e+01    7.322655e-01
  3.024712e+01    7.419085e-01
  3.027888e+01    7.451703e-01
  3.031063e+01    7.247689e-01
  3.034238e+01    7.397817e-01
  3.037413e+01    7.395230e-01
  3.040588e+01    7.432451e-01
  3.043763e+01    7.338878e-01
  3.046938e+01    7.208322e-01
  3.050113e+01    7.265036e-01
  3.053288e+01    7.245748e-01
  3.056464e+01    7.239588e-01
  3.059639e+01    7.032049e-01
  3.062814e+01    7.257850e-01
  3.065989e+01    7.246932e-01
  3.069164e+01    7.257867e-01
  3.072339e+01    7.388079e-01
  3.075514e+01    7.277369e-01
  3.078689e+01    7.491841e-01
  3.081865e+01    7.295853e-01
  3.085040e+01    7.313653e-01
  3.088215e+01    7.423850e-01
  3.091390e+01    7.169213e-01
  3.094565e+01    7.263501e-01
  3.097740e+01    7.235402e-01
  3.100915e+01    7.413229e-01
  3.104090e+01    7.379745e-01
  3.107265e+01    7.544484e-01
  3.110441e+01    7.369875e-01
  3.113616e+01    7.419711e-01
  3.116791e+01    7.459492e-01
  3.119966e+01    7.248266e-01
  3.123141e+01    7.273847e-01
  3.126316e+01    7.431710e-01
  3.129491e+01    7.386847e-01
  3.132666e+01    7.355531e-01
  3.135841e+01    7.516583e-01
  3.139017e+01    7.601074e-01
  3.142192e+01    7.677998e-01
  3.145367e+01    7.663391e-01
  3.148542e+01    7.808552e-01
  3.151717e+01    7.601575e-01
  3.154892e+01    8.065960e-01
  3.158067e+01    7.878404e-01
  3.161242e+01    8.256134e-01
  3.164418e+01    8.617133e-01
  3.167593e+01    8.823942e-01
  3.170768e+01    9.267437e-01
  3.173943e+01    9.666927e-01
  3.177118e+01    1.088008e+00
  3.180293e+01    1.180689e+00
  3.183468e+01    1.368703e+00
  3.186643e+01    1.681689e+00
  3.189818e+01    2.008088e+00
  3.192994e+01    2.366452e+00
  3.196169e+01    2.599453e+00
  3.199344e+01    2.540647e+00
  3.202519e+01    2.219289e+00
  3.205694e+01    1.811199e+00
  3.208869e+01    1.429243e+00
  3.212044e+01    1.235554e+00
  3.215219e+01    1.096501e+00
  3.218394e+01    9.995725e-01
  3.221570e+01    9.305444e-01
  3.224745e+01    8.867148e-01
  3.227920e+01    8.604786e-01
  3.231095e+01    7.937379e-01
  3.234270e+01    8.016125e-01
  3.237445e+01    7.744552e-01
  3.240620e+01    7.723879e-01
  3.243795e+01    7.401939e-01
  3.246970e+01    7.488955e-01
  3.250146e+01    7.337672e-01
  3.253321e+01    7.437611e-01
  3.254908e+01    7.535748e-01