File: XRD/Activation ramp/2024-07-27_002_Ru-CGO-ex_Activtation_ramp_000002_data_000111.dat
# == pyFAI calibration ==
# Distance Sample to Detector: 0.4 m
# PONI: 9.750e-02, 1.135e-01 m
# Rotations: -0.000175 0.000000 -0.000000 rad
#
# == Fit2d calibration ==
# Distance Sample-beamCenter: 400.000 mm
# Center: x=1514.000, y=1300.000 pix
# Tilt: 0.010 deg  TiltPlanRot: 0.010 deg
#
# Detector Detector	 Spline= None	 PixelSize= 7.500e-05, 7.500e-05 m
#    Detector has a mask: False
#    Detector has a dark current: False
#    detector has a flat field: False
#
# Wavelength: 6.888e-11 m
# Mask applied: user provided
# Dark current applied: False
# Flat field applied: False
# Polarization factor: 0.99
# Normalization factor: 1.0
# --> /home/myspot/data/2024_07_Rosario/Ru-CGO-ex/2024-07-27_002_Ru-CGO-ex_Activtation_ramp_000002_data_000111.dat
#       q_nm^-1             I
  2.003187e-02    0.000000e+00
  5.178302e-02    8.011036e-02
  8.353417e-02    9.418921e-02
  1.152853e-01    9.778095e-02
  1.470365e-01    2.548623e-02
  1.787876e-01    4.210676e-02
  2.105388e-01    1.823419e-02
  2.422899e-01    4.232822e-02
  2.740411e-01    6.803758e-03
  3.057922e-01    4.690227e-02
  3.375433e-01    2.330164e-02
  3.692945e-01    1.716918e-02
  4.010456e-01    2.201673e-02
  4.327968e-01    2.441330e-02
  4.645479e-01    4.593311e-02
  4.962991e-01    3.883335e-02
  5.280502e-01    2.321971e-02
  5.598014e-01    1.692269e-02
  5.915525e-01    4.386824e-02
  6.233037e-01    3.292309e-02
  6.550548e-01    4.278287e-02
  6.868060e-01    3.597925e-02
  7.185571e-01    3.938100e-02
  7.503083e-01    4.088461e-02
  7.820594e-01    1.260649e-01
  8.138106e-01    2.663672e-01
  8.455617e-01    2.779524e-01
  8.773129e-01    4.397602e-01
  9.090640e-01    5.746085e-01
  9.408152e-01    7.027857e-01
  9.725663e-01    7.367170e-01
  1.004317e+00    9.121770e-01
  1.036069e+00    1.174225e+00
  1.067820e+00    1.324341e+00
  1.099571e+00    1.378214e+00
  1.131322e+00    1.402378e+00
  1.163073e+00    1.419709e+00
  1.194824e+00    1.637190e+00
  1.226575e+00    1.933455e+00
  1.258327e+00    2.200970e+00
  1.290078e+00    2.457899e+00
  1.321829e+00    2.522952e+00
  1.353580e+00    2.470740e+00
  1.385331e+00    2.632013e+00
  1.417082e+00    2.585005e+00
  1.448834e+00    2.703567e+00
  1.480585e+00    2.746165e+00
  1.512336e+00    2.959831e+00
  1.544087e+00    3.011348e+00
  1.575838e+00    2.783591e+00
  1.607589e+00    2.899395e+00
  1.639340e+00    2.840061e+00
  1.671092e+00    2.842705e+00
  1.702843e+00    2.850561e+00
  1.734594e+00    2.740954e+00
  1.766345e+00    2.792034e+00
  1.798096e+00    2.804861e+00
  1.829847e+00    2.653682e+00
  1.861598e+00    2.646509e+00
  1.893350e+00    2.725581e+00
  1.925101e+00    2.719956e+00
  1.956852e+00    2.696332e+00
  1.988603e+00    2.649898e+00
  2.020354e+00    2.613256e+00
  2.052105e+00    2.592702e+00
  2.083856e+00    2.616531e+00
  2.115608e+00    2.687775e+00
  2.147359e+00    2.663122e+00
  2.179110e+00    2.676876e+00
  2.210861e+00    2.750585e+00
  2.242612e+00    2.530550e+00
  2.274363e+00    2.648670e+00
  2.306115e+00    2.773658e+00
  2.337866e+00    2.684591e+00
  2.369617e+00    2.736682e+00
  2.401368e+00    2.741504e+00
  2.433119e+00    2.707955e+00
  2.464870e+00    2.752218e+00
  2.496621e+00    2.685393e+00
  2.528373e+00    2.721963e+00
  2.560124e+00    2.704233e+00
  2.591875e+00    2.802722e+00
  2.623626e+00    2.801812e+00
  2.655377e+00    2.824040e+00
  2.687128e+00    2.755969e+00
  2.718879e+00    2.720132e+00
  2.750631e+00    2.719158e+00
  2.782382e+00    2.693165e+00
  2.814133e+00    2.740327e+00
  2.845884e+00    2.799668e+00
  2.877635e+00    2.853997e+00
  2.909386e+00    2.798039e+00
  2.941137e+00    2.844041e+00
  2.972889e+00    2.834425e+00
  3.004640e+00    2.867167e+00
  3.036391e+00    2.734284e+00
  3.068142e+00    2.814750e+00
  3.099893e+00    2.812572e+00
  3.131644e+00    2.839865e+00
  3.163395e+00    2.919105e+00
  3.195147e+00    2.750651e+00
  3.226898e+00    2.881593e+00
  3.258649e+00    2.817497e+00
  3.290400e+00    2.866099e+00
  3.322151e+00    2.805140e+00
  3.353902e+00    2.883927e+00
  3.385654e+00    2.851139e+00
  3.417405e+00    2.955293e+00
  3.449156e+00    2.916984e+00
  3.480907e+00    2.872768e+00
  3.512658e+00    2.872720e+00
  3.544409e+00    2.945587e+00
  3.576160e+00    2.844777e+00
  3.607912e+00    2.929900e+00
  3.639663e+00    2.895762e+00
  3.671414e+00    2.913999e+00
  3.703165e+00    3.012836e+00
  3.734916e+00    3.022247e+00
  3.766667e+00    3.016631e+00
  3.798418e+00    2.927134e+00
  3.830170e+00    2.900736e+00
  3.861921e+00    2.907784e+00
  3.893672e+00    2.915885e+00
  3.925423e+00    3.059578e+00
  3.957174e+00    2.970479e+00
  3.988925e+00    2.923736e+00
  4.020676e+00    2.946841e+00
  4.052428e+00    2.938815e+00
  4.084179e+00    2.965333e+00
  4.115930e+00    2.866275e+00
  4.147681e+00    2.957410e+00
  4.179432e+00    3.021426e+00
  4.211183e+00    3.028475e+00
  4.242935e+00    2.956855e+00
  4.274686e+00    2.996790e+00
  4.306437e+00    2.960428e+00
  4.338188e+00    3.044274e+00
  4.369939e+00    3.056015e+00
  4.401690e+00    3.027202e+00
  4.433441e+00    2.997292e+00
  4.465193e+00    3.004737e+00
  4.496944e+00    2.951813e+00
  4.528695e+00    3.005727e+00
  4.560446e+00    3.035925e+00
  4.592197e+00    2.941464e+00
  4.623948e+00    3.053668e+00
  4.655699e+00    3.047865e+00
  4.687451e+00    3.003847e+00
  4.719202e+00    3.091790e+00
  4.750953e+00    3.216756e+00
  4.782704e+00    3.052082e+00
  4.814455e+00    3.131385e+00
  4.846206e+00    3.043760e+00
  4.877957e+00    3.117503e+00
  4.909709e+00    3.087465e+00
  4.941460e+00    3.111651e+00
  4.973211e+00    3.115904e+00
  5.004962e+00    3.119101e+00
  5.036713e+00    3.079693e+00
  5.068464e+00    3.029804e+00
  5.100216e+00    3.067957e+00
  5.131967e+00    3.053993e+00
  5.163718e+00    3.058239e+00
  5.195469e+00    3.029745e+00
  5.227220e+00    3.077181e+00
  5.258971e+00    3.068669e+00
  5.290722e+00    3.107036e+00
  5.322474e+00    3.110644e+00
  5.354225e+00    2.962314e+00
  5.385976e+00    3.108675e+00
  5.417727e+00    3.087043e+00
  5.449478e+00    3.062416e+00
  5.481229e+00    2.992654e+00
  5.512980e+00    2.987811e+00
  5.544732e+00    3.083376e+00
  5.576483e+00    3.066127e+00
  5.608234e+00    3.044959e+00
  5.639985e+00    3.056566e+00
  5.671736e+00    3.048874e+00
  5.703487e+00    2.899891e+00
  5.735238e+00    2.993502e+00
  5.766990e+00    2.994333e+00
  5.798741e+00    3.081543e+00
  5.830492e+00    3.003192e+00
  5.862243e+00    2.953970e+00
  5.893994e+00    2.990653e+00
  5.925745e+00    2.933711e+00
  5.957497e+00    3.048071e+00
  5.989248e+00    2.982652e+00
  6.020999e+00    2.878277e+00
  6.052750e+00    2.970961e+00
  6.084501e+00    2.978683e+00
  6.116252e+00    3.079175e+00
  6.148003e+00    3.105122e+00
  6.179755e+00    3.019639e+00
  6.211506e+00    3.089245e+00
  6.243257e+00    2.984587e+00
  6.275008e+00    2.877404e+00
  6.306759e+00    2.924794e+00
  6.338510e+00    3.020335e+00
  6.370261e+00    3.038444e+00
  6.402013e+00    3.052238e+00
  6.433764e+00    3.011242e+00
  6.465515e+00    2.968754e+00
  6.497266e+00    2.919437e+00
  6.529017e+00    2.990521e+00
  6.560768e+00    2.966586e+00
  6.592519e+00    2.999519e+00
  6.624271e+00    2.956432e+00
  6.656022e+00    2.971811e+00
  6.687773e+00    3.026711e+00
  6.719524e+00    2.945904e+00
  6.751275e+00    3.022656e+00
  6.783026e+00    2.976395e+00
  6.814777e+00    2.962774e+00
  6.846529e+00    2.957715e+00
  6.878280e+00    2.914873e+00
  6.910031e+00    2.906041e+00
  6.941782e+00    2.926496e+00
  6.973533e+00    2.958111e+00
  7.005284e+00    2.929336e+00
  7.037036e+00    2.909279e+00
  7.068787e+00    2.999121e+00
  7.100538e+00    2.968116e+00
  7.132289e+00    2.929226e+00
  7.164040e+00    2.978960e+00
  7.195791e+00    2.989054e+00
  7.227542e+00    2.903139e+00
  7.259294e+00    2.940920e+00
  7.291045e+00    2.967397e+00
  7.322796e+00    2.952607e+00
  7.354547e+00    2.923882e+00
  7.386298e+00    2.968493e+00
  7.418049e+00    2.934117e+00
  7.449800e+00    2.953390e+00
  7.481552e+00    2.949220e+00
  7.513303e+00    2.924020e+00
  7.545054e+00    2.909960e+00
  7.576805e+00    2.894206e+00
  7.608556e+00    2.896207e+00
  7.640307e+00    2.892830e+00
  7.672058e+00    2.918548e+00
  7.703810e+00    2.890472e+00
  7.735561e+00    2.945240e+00
  7.767312e+00    2.911762e+00
  7.799063e+00    2.914119e+00
  7.830814e+00    2.883356e+00
  7.862565e+00    2.903794e+00
  7.894317e+00    2.870959e+00
  7.926068e+00    2.911785e+00
  7.957819e+00    2.870623e+00
  7.989570e+00    2.806700e+00
  8.021321e+00    2.910499e+00
  8.053072e+00    2.874257e+00
  8.084823e+00    2.827877e+00
  8.116575e+00    2.931667e+00
  8.148326e+00    3.004789e+00
  8.180077e+00    2.911066e+00
  8.211828e+00    2.893281e+00
  8.243579e+00    2.884655e+00
  8.275330e+00    2.895264e+00
  8.307081e+00    2.854590e+00
  8.338833e+00    2.819748e+00
  8.370584e+00    2.805076e+00
  8.402335e+00    2.885062e+00
  8.434086e+00    2.848818e+00
  8.465837e+00    2.812937e+00
  8.497588e+00    2.881809e+00
  8.529339e+00    2.775491e+00
  8.561091e+00    2.807566e+00
  8.592842e+00    2.829061e+00
  8.624593e+00    2.792541e+00
  8.656344e+00    2.774207e+00
  8.688095e+00    2.808752e+00
  8.719846e+00    2.760827e+00
  8.751598e+00    2.829086e+00
  8.783349e+00    2.766966e+00
  8.815100e+00    2.816115e+00
  8.846851e+00    2.800241e+00
  8.878602e+00    2.741554e+00
  8.910353e+00    2.807718e+00
  8.942104e+00    2.740599e+00
  8.973856e+00    2.769986e+00
  9.005607e+00    2.717685e+00
  9.037358e+00    2.763203e+00
  9.069109e+00    2.802333e+00
  9.100860e+00    2.753738e+00
  9.132611e+00    2.771955e+00
  9.164362e+00    2.709168e+00
  9.196114e+00    2.733118e+00
  9.227865e+00    2.692506e+00
  9.259616e+00    2.811165e+00
  9.291367e+00    2.771993e+00
  9.323118e+00    2.709249e+00
  9.354869e+00    2.746099e+00
  9.386620e+00    2.770496e+00
  9.418372e+00    2.721143e+00
  9.450123e+00    2.717494e+00
  9.481874e+00    2.730275e+00
  9.513625e+00    2.734791e+00
  9.545376e+00    2.703459e+00
  9.577127e+00    2.714402e+00
  9.608878e+00    2.677674e+00
  9.640630e+00    2.695475e+00
  9.672381e+00    2.634985e+00
  9.704132e+00    2.681231e+00
  9.735883e+00    2.618480e+00
  9.767634e+00    2.639747e+00
  9.799385e+00    2.676423e+00
  9.831137e+00    2.641566e+00
  9.862888e+00    2.556084e+00
  9.894639e+00    2.651035e+00
  9.926390e+00    2.689642e+00
  9.958141e+00    2.709371e+00
  9.989892e+00    2.587652e+00
  1.002164e+01    2.616424e+00
  1.005339e+01    2.648849e+00
  1.008515e+01    2.641321e+00
  1.011690e+01    2.613037e+00
  1.014865e+01    2.596816e+00
  1.018040e+01    2.573463e+00
  1.021215e+01    2.619168e+00
  1.024390e+01    2.604681e+00
  1.027565e+01    2.539398e+00
  1.030740e+01    2.557040e+00
  1.033915e+01    2.500540e+00
  1.037091e+01    2.576714e+00
  1.040266e+01    2.579194e+00
  1.043441e+01    2.579037e+00
  1.046616e+01    2.573325e+00
  1.049791e+01    2.551406e+00
  1.052966e+01    2.495789e+00
  1.056141e+01    2.555966e+00
  1.059316e+01    2.539137e+00
  1.062492e+01    2.532075e+00
  1.065667e+01    2.501929e+00
  1.068842e+01    2.489054e+00
  1.072017e+01    2.536201e+00
  1.075192e+01    2.505798e+00
  1.078367e+01    2.484732e+00
  1.081542e+01    2.498487e+00
  1.084717e+01    2.531570e+00
  1.087892e+01    2.498004e+00
  1.091068e+01    2.477852e+00
  1.094243e+01    2.483630e+00
  1.097418e+01    2.416224e+00
  1.100593e+01    2.450411e+00
  1.103768e+01    2.443535e+00
  1.106943e+01    2.439801e+00
  1.110118e+01    2.440460e+00
  1.113293e+01    2.436822e+00
  1.116468e+01    2.378598e+00
  1.119644e+01    2.482942e+00
  1.122819e+01    2.425714e+00
  1.125994e+01    2.400223e+00
  1.129169e+01    2.424919e+00
  1.132344e+01    2.404469e+00
  1.135519e+01    2.388968e+00
  1.138694e+01    2.360439e+00
  1.141869e+01    2.403222e+00
  1.145045e+01    2.367872e+00
  1.148220e+01    2.358195e+00
  1.151395e+01    2.363990e+00
  1.154570e+01    2.409822e+00
  1.157745e+01    2.400538e+00
  1.160920e+01    2.390056e+00
  1.164095e+01    2.348478e+00
  1.167270e+01    2.290960e+00
  1.170445e+01    2.329071e+00
  1.173621e+01    2.329574e+00
  1.176796e+01    2.314662e+00
  1.179971e+01    2.338956e+00
  1.183146e+01    2.290860e+00
  1.186321e+01    2.334399e+00
  1.189496e+01    2.336420e+00
  1.192671e+01    2.317989e+00
  1.195846e+01    2.313801e+00
  1.199021e+01    2.343347e+00
  1.202197e+01    2.317680e+00
  1.205372e+01    2.295328e+00
  1.208547e+01    2.275895e+00
  1.211722e+01    2.251773e+00
  1.214897e+01    2.291535e+00
  1.218072e+01    2.295536e+00
  1.221247e+01    2.292929e+00
  1.224422e+01    2.253964e+00
  1.227597e+01    2.295562e+00
  1.230773e+01    2.294410e+00
  1.233948e+01    2.288401e+00
  1.237123e+01    2.292439e+00
  1.240298e+01    2.325755e+00
  1.243473e+01    2.251056e+00
  1.246648e+01    2.282871e+00
  1.249823e+01    2.311249e+00
  1.252998e+01    2.317695e+00
  1.256174e+01    2.372327e+00
  1.259349e+01    2.348066e+00
  1.262524e+01    2.353439e+00
  1.265699e+01    2.338223e+00
  1.268874e+01    2.423537e+00
  1.272049e+01    2.429987e+00
  1.275224e+01    2.478257e+00
  1.278399e+01    2.533808e+00
  1.281574e+01    2.687400e+00
  1.284750e+01    2.826568e+00
  1.287925e+01    2.952302e+00
  1.291100e+01    3.218294e+00
  1.294275e+01    3.652290e+00
  1.297450e+01    4.308016e+00
  1.300625e+01    5.243206e+00
  1.303800e+01    6.923254e+00
  1.306975e+01    9.326204e+00
  1.310150e+01    1.201033e+01
  1.313326e+01    1.442177e+01
  1.316501e+01    1.689388e+01
  1.319676e+01    1.742459e+01
  1.322851e+01    1.462854e+01
  1.326026e+01    1.060701e+01
  1.329201e+01    7.481110e+00
  1.332376e+01    5.662278e+00
  1.335551e+01    4.463192e+00
  1.338727e+01    3.786435e+00
  1.341902e+01    3.295635e+00
  1.345077e+01    2.998339e+00
  1.348252e+01    2.795683e+00
  1.351427e+01    2.648719e+00
  1.354602e+01    2.499550e+00
  1.357777e+01    2.455018e+00
  1.360952e+01    2.395986e+00
  1.364127e+01    2.283359e+00
  1.367303e+01    2.282164e+00
  1.370478e+01    2.203561e+00
  1.373653e+01    2.158230e+00
  1.376828e+01    2.150584e+00
  1.380003e+01    2.166977e+00
  1.383178e+01    2.104361e+00
  1.386353e+01    2.079400e+00
  1.389528e+01    2.062878e+00
  1.392703e+01    2.029533e+00
  1.395879e+01    2.055635e+00
  1.399054e+01    2.000891e+00
  1.402229e+01    2.031034e+00
  1.405404e+01    1.995988e+00
  1.408579e+01    1.969721e+00
  1.411754e+01    1.978879e+00
  1.414929e+01    1.980451e+00
  1.418104e+01    1.970874e+00
  1.421279e+01    1.951033e+00
  1.424455e+01    1.966937e+00
  1.427630e+01    1.948674e+00
  1.430805e+01    1.959475e+00
  1.433980e+01    1.923464e+00
  1.437155e+01    1.940500e+00
  1.440330e+01    1.912883e+00
  1.443505e+01    1.876258e+00
  1.446680e+01    1.908448e+00
  1.449856e+01    1.900789e+00
  1.453031e+01    1.918985e+00
  1.456206e+01    1.893170e+00
  1.459381e+01    1.876706e+00
  1.462556e+01    1.887359e+00
  1.465731e+01    1.893989e+00
  1.468906e+01    1.890933e+00
  1.472081e+01    1.912040e+00
  1.475256e+01    1.927953e+00
  1.478432e+01    1.867609e+00
  1.481607e+01    1.887526e+00
  1.484782e+01    1.864754e+00
  1.487957e+01    1.905263e+00
  1.491132e+01    1.900637e+00
  1.494307e+01    1.976538e+00
  1.497482e+01    2.005657e+00
  1.500657e+01    2.125310e+00
  1.503832e+01    2.246041e+00
  1.507008e+01    2.443509e+00
  1.510183e+01    2.851545e+00
  1.513358e+01    3.363631e+00
  1.516533e+01    4.056808e+00
  1.519708e+01    4.842615e+00
  1.522883e+01    5.451129e+00
  1.526058e+01    5.953838e+00
  1.529233e+01    5.819885e+00
  1.532409e+01    5.150277e+00
  1.535584e+01    4.001726e+00
  1.538759e+01    3.190680e+00
  1.541934e+01    2.667720e+00
  1.545109e+01    2.383294e+00
  1.548284e+01    2.154214e+00
  1.551459e+01    2.004458e+00
  1.554634e+01    1.938366e+00
  1.557809e+01    1.898586e+00
  1.560985e+01    1.783183e+00
  1.564160e+01    1.776285e+00
  1.567335e+01    1.730864e+00
  1.570510e+01    1.737352e+00
  1.573685e+01    1.718881e+00
  1.576860e+01    1.663668e+00
  1.580035e+01    1.667192e+00
  1.583210e+01    1.614223e+00
  1.586385e+01    1.642560e+00
  1.589561e+01    1.621080e+00
  1.592736e+01    1.603145e+00
  1.595911e+01    1.616125e+00
  1.599086e+01    1.599920e+00
  1.602261e+01    1.600862e+00
  1.605436e+01    1.570521e+00
  1.608611e+01    1.565800e+00
  1.611786e+01    1.554117e+00
  1.614961e+01    1.551853e+00
  1.618137e+01    1.521328e+00
  1.621312e+01    1.552967e+00
  1.624487e+01    1.522096e+00
  1.627662e+01    1.517355e+00
  1.630837e+01    1.506298e+00
  1.634012e+01    1.520802e+00
  1.637187e+01    1.518624e+00
  1.640362e+01    1.505265e+00
  1.643538e+01    1.489932e+00
  1.646713e+01    1.527799e+00
  1.649888e+01    1.515106e+00
  1.653063e+01    1.481477e+00
  1.656238e+01    1.496135e+00
  1.659413e+01    1.467974e+00
  1.662588e+01    1.459194e+00
  1.665763e+01    1.465796e+00
  1.668938e+01    1.456082e+00
  1.672114e+01    1.453201e+00
  1.675289e+01    1.441036e+00
  1.678464e+01    1.483784e+00
  1.681639e+01    1.428223e+00
  1.684814e+01    1.436426e+00
  1.687989e+01    1.434672e+00
  1.691164e+01    1.432515e+00
  1.694339e+01    1.438128e+00
  1.697514e+01    1.445625e+00
  1.700690e+01    1.398574e+00
  1.703865e+01    1.435252e+00
  1.707040e+01    1.376653e+00
  1.710215e+01    1.402679e+00
  1.713390e+01    1.401716e+00
  1.716565e+01    1.420239e+00
  1.719740e+01    1.391259e+00
  1.722915e+01    1.398433e+00
  1.726091e+01    1.345412e+00
  1.729266e+01    1.357843e+00
  1.732441e+01    1.385947e+00
  1.735616e+01    1.315965e+00
  1.738791e+01    1.337345e+00
  1.741966e+01    1.355314e+00
  1.745141e+01    1.353116e+00
  1.748316e+01    1.303431e+00
  1.751491e+01    1.373722e+00
  1.754667e+01    1.323738e+00
  1.757842e+01    1.361858e+00
  1.761017e+01    1.363013e+00
  1.764192e+01    1.347750e+00
  1.767367e+01    1.328859e+00
  1.770542e+01    1.325308e+00
  1.773717e+01    1.313475e+00
  1.776892e+01    1.275892e+00
  1.780067e+01    1.293124e+00
  1.783243e+01    1.288764e+00
  1.786418e+01    1.314328e+00
  1.789593e+01    1.282922e+00
  1.792768e+01    1.302306e+00
  1.795943e+01    1.325288e+00
  1.799118e+01    1.281943e+00
  1.802293e+01    1.268988e+00
  1.805468e+01    1.285401e+00
  1.808643e+01    1.296146e+00
  1.811819e+01    1.265306e+00
  1.814994e+01    1.277601e+00
  1.818169e+01    1.284282e+00
  1.821344e+01    1.254891e+00
  1.824519e+01    1.255996e+00
  1.827694e+01    1.269225e+00
  1.830869e+01    1.260779e+00
  1.834044e+01    1.242942e+00
  1.837220e+01    1.236406e+00
  1.840395e+01    1.217969e+00
  1.843570e+01    1.219912e+00
  1.846745e+01    1.251085e+00
  1.849920e+01    1.259764e+00
  1.853095e+01    1.211937e+00
  1.856270e+01    1.227434e+00
  1.859445e+01    1.214902e+00
  1.862620e+01    1.219317e+00
  1.865796e+01    1.203034e+00
  1.868971e+01    1.207184e+00
  1.872146e+01    1.194122e+00
  1.875321e+01    1.192990e+00
  1.878496e+01    1.198323e+00
  1.881671e+01    1.201124e+00
  1.884846e+01    1.186979e+00
  1.888021e+01    1.193186e+00
  1.891196e+01    1.178647e+00
  1.894372e+01    1.174558e+00
  1.897547e+01    1.183214e+00
  1.900722e+01    1.183279e+00
  1.903897e+01    1.177534e+00
  1.907072e+01    1.177574e+00
  1.910247e+01    1.229005e+00
  1.913422e+01    1.161108e+00
  1.916597e+01    1.161821e+00
  1.919773e+01    1.196319e+00
  1.922948e+01    1.172685e+00
  1.926123e+01    1.171771e+00
  1.929298e+01    1.145409e+00
  1.932473e+01    1.150262e+00
  1.935648e+01    1.159682e+00
  1.938823e+01    1.173334e+00
  1.941998e+01    1.130960e+00
  1.945173e+01    1.118805e+00
  1.948349e+01    1.156450e+00
  1.951524e+01    1.159848e+00
  1.954699e+01    1.168768e+00
  1.957874e+01    1.147022e+00
  1.961049e+01    1.170698e+00
  1.964224e+01    1.123861e+00
  1.967399e+01    1.126811e+00
  1.970574e+01    1.131254e+00
  1.973749e+01    1.113726e+00
  1.976925e+01    1.115022e+00
  1.980100e+01    1.147971e+00
  1.983275e+01    1.127817e+00
  1.986450e+01    1.111148e+00
  1.989625e+01    1.103789e+00
  1.992800e+01    1.112415e+00
  1.995975e+01    1.113605e+00
  1.999150e+01    1.092034e+00
  2.002325e+01    1.134488e+00
  2.005501e+01    1.115100e+00
  2.008676e+01    1.122782e+00
  2.011851e+01    1.103374e+00
  2.015026e+01    1.088945e+00
  2.018201e+01    1.113066e+00
  2.021376e+01    1.076600e+00
  2.024551e+01    1.119508e+00
  2.027726e+01    1.071511e+00
  2.030902e+01    1.077451e+00
  2.034077e+01    1.079810e+00
  2.037252e+01    1.110142e+00
  2.040427e+01    1.097607e+00
  2.043602e+01    1.088790e+00
  2.046777e+01    1.072730e+00
  2.049952e+01    1.094719e+00
  2.053127e+01    1.080918e+00
  2.056302e+01    1.068964e+00
  2.059478e+01    1.064559e+00
  2.062653e+01    1.061852e+00
  2.065828e+01    1.068692e+00
  2.069003e+01    1.053675e+00
  2.072178e+01    1.071522e+00
  2.075353e+01    1.054098e+00
  2.078528e+01    1.083498e+00
  2.081703e+01    1.063726e+00
  2.084878e+01    1.052156e+00
  2.088054e+01    1.086273e+00
  2.091229e+01    1.065680e+00
  2.094404e+01    1.068703e+00
  2.097579e+01    1.065781e+00
  2.100754e+01    1.072133e+00
  2.103929e+01    1.031642e+00
  2.107104e+01    1.055279e+00
  2.110279e+01    1.080088e+00
  2.113455e+01    1.065884e+00
  2.116630e+01    1.084910e+00
  2.119805e+01    1.087069e+00
  2.122980e+01    1.099424e+00
  2.126155e+01    1.065039e+00
  2.129330e+01    1.116680e+00
  2.132505e+01    1.138297e+00
  2.135680e+01    1.137554e+00
  2.138855e+01    1.144009e+00
  2.142031e+01    1.191815e+00
  2.145206e+01    1.212100e+00
  2.148381e+01    1.239686e+00
  2.151556e+01    1.279007e+00
  2.154731e+01    1.351994e+00
  2.157906e+01    1.406327e+00
  2.161081e+01    1.548673e+00
  2.164256e+01    1.756536e+00
  2.167431e+01    2.042682e+00
  2.170607e+01    2.423159e+00
  2.173782e+01    3.105611e+00
  2.176957e+01    4.030774e+00
  2.180132e+01    5.322177e+00
  2.183307e+01    6.709544e+00
  2.186482e+01    8.232401e+00
  2.189657e+01    9.386729e+00
  2.192832e+01    9.462854e+00
  2.196007e+01    7.923480e+00
  2.199183e+01    5.966200e+00
  2.202358e+01    4.177435e+00
  2.205533e+01    3.191121e+00
  2.208708e+01    2.484710e+00
  2.211883e+01    2.078443e+00
  2.215058e+01    1.741984e+00
  2.218233e+01    1.577627e+00
  2.221408e+01    1.435081e+00
  2.224584e+01    1.320723e+00
  2.227759e+01    1.245732e+00
  2.230934e+01    1.168731e+00
  2.234109e+01    1.148606e+00
  2.237284e+01    1.140462e+00
  2.240459e+01    1.096334e+00
  2.243634e+01    1.045320e+00
  2.246809e+01    1.038339e+00
  2.249984e+01    1.023669e+00
  2.253160e+01    1.015295e+00
  2.256335e+01    9.878033e-01
  2.259510e+01    9.895574e-01
  2.262685e+01    9.636744e-01
  2.265860e+01    9.735571e-01
  2.269035e+01    9.544560e-01
  2.272210e+01    9.327379e-01
  2.275385e+01    9.477942e-01
  2.278560e+01    9.188722e-01
  2.281736e+01    9.076706e-01
  2.284911e+01    9.332066e-01
  2.288086e+01    9.241236e-01
  2.291261e+01    9.160985e-01
  2.294436e+01    8.993100e-01
  2.297611e+01    9.046509e-01
  2.300786e+01    8.798357e-01
  2.303961e+01    8.829989e-01
  2.307137e+01    8.770734e-01
  2.310312e+01    8.849927e-01
  2.313487e+01    8.751598e-01
  2.316662e+01    8.753915e-01
  2.319837e+01    8.576877e-01
  2.323012e+01    8.871002e-01
  2.326187e+01    8.633035e-01
  2.329362e+01    8.592469e-01
  2.332537e+01    8.409434e-01
  2.335713e+01    8.508652e-01
  2.338888e+01    8.462253e-01
  2.342063e+01    8.468698e-01
  2.345238e+01    8.444645e-01
  2.348413e+01    8.258852e-01
  2.351588e+01    8.319402e-01
  2.354763e+01    8.257533e-01
  2.357938e+01    8.367255e-01
  2.361113e+01    8.464851e-01
  2.364289e+01    8.283678e-01
  2.367464e+01    8.161415e-01
  2.370639e+01    8.062438e-01
  2.373814e+01    8.104378e-01
  2.376989e+01    8.054644e-01
  2.380164e+01    7.986203e-01
  2.383339e+01    8.004449e-01
  2.386514e+01    7.785523e-01
  2.389689e+01    8.005878e-01
  2.392865e+01    7.704017e-01
  2.396040e+01    7.765207e-01
  2.399215e+01    7.768241e-01
  2.402390e+01    7.874261e-01
  2.405565e+01    7.881713e-01
  2.408740e+01    7.587649e-01
  2.411915e+01    7.693453e-01
  2.415090e+01    7.525351e-01
  2.418266e+01    7.815046e-01
  2.421441e+01    7.664071e-01
  2.424616e+01    7.561257e-01
  2.427791e+01    7.790921e-01
  2.430966e+01    7.830165e-01
  2.434141e+01    7.734329e-01
  2.437316e+01    7.629642e-01
  2.440491e+01    7.778795e-01
  2.443666e+01    7.708664e-01
  2.446842e+01    7.669146e-01
  2.450017e+01    7.735046e-01
  2.453192e+01    7.863163e-01
  2.456367e+01    7.893872e-01
  2.459542e+01    7.767148e-01
  2.462717e+01    7.710828e-01
  2.465892e+01    7.907938e-01
  2.469067e+01    7.576881e-01
  2.472242e+01    7.642860e-01
  2.475418e+01    7.681643e-01
  2.478593e+01    7.601968e-01
  2.481768e+01    7.827432e-01
  2.484943e+01    7.931599e-01
  2.488118e+01    7.768081e-01
  2.491293e+01    8.059502e-01
  2.494468e+01    7.836015e-01
  2.497643e+01    7.746977e-01
  2.500819e+01    7.982761e-01
  2.503994e+01    7.945027e-01
  2.507169e+01    7.960336e-01
  2.510344e+01    7.951805e-01
  2.513519e+01    8.031372e-01
  2.516694e+01    8.118610e-01
  2.519869e+01    8.209250e-01
  2.523044e+01    8.143301e-01
  2.526219e+01    8.367370e-01
  2.529395e+01    8.560255e-01
  2.532570e+01    8.706478e-01
  2.535745e+01    8.608822e-01
  2.538920e+01    8.651226e-01
  2.542095e+01    8.954059e-01
  2.545270e+01    9.109889e-01
  2.548445e+01    9.279834e-01
  2.551620e+01    9.815662e-01
  2.554795e+01    1.030706e+00
  2.557971e+01    1.072797e+00
  2.561146e+01    1.125585e+00
  2.564321e+01    1.217329e+00
  2.567496e+01    1.275420e+00
  2.570671e+01    1.416515e+00
  2.573846e+01    1.683219e+00
  2.577021e+01    1.976291e+00
  2.580196e+01    2.478162e+00
  2.583371e+01    3.143797e+00
  2.586547e+01    4.192673e+00
  2.589722e+01    5.450799e+00
  2.592897e+01    6.724982e+00
  2.596072e+01    7.648787e+00
  2.599247e+01    7.920990e+00
  2.602422e+01    6.758599e+00
  2.605597e+01    5.122091e+00
  2.608772e+01    3.762280e+00
  2.611948e+01    2.811361e+00
  2.615123e+01    2.208364e+00
  2.618298e+01    1.830762e+00
  2.621473e+01    1.558037e+00
  2.624648e+01    1.388561e+00
  2.627823e+01    1.259449e+00
  2.630998e+01    1.148836e+00
  2.634173e+01    1.057783e+00
  2.637348e+01    1.037834e+00
  2.640524e+01    1.008098e+00
  2.643699e+01    9.535682e-01
  2.646874e+01    9.644081e-01
  2.650049e+01    9.141020e-01
  2.653224e+01    9.036754e-01
  2.656399e+01    9.191087e-01
  2.659574e+01    9.266356e-01
  2.662749e+01    9.024010e-01
  2.665924e+01    9.023389e-01
  2.669100e+01    8.964891e-01
  2.672275e+01    8.955175e-01
  2.675450e+01    8.596733e-01
  2.678625e+01    8.697616e-01
  2.681800e+01    8.772982e-01
  2.684975e+01    8.776913e-01
  2.688150e+01    8.963498e-01
  2.691325e+01    9.236284e-01
  2.694501e+01    9.228927e-01
  2.697676e+01    9.936991e-01
  2.700851e+01    1.011205e+00
  2.704026e+01    1.064806e+00
  2.707201e+01    1.167257e+00
  2.710376e+01    1.326731e+00
  2.713551e+01    1.569114e+00
  2.716726e+01    1.865477e+00
  2.719901e+01    2.150483e+00
  2.723077e+01    2.334780e+00
  2.726252e+01    2.232355e+00
  2.729427e+01    2.000828e+00
  2.732602e+01    1.647772e+00
  2.735777e+01    1.395319e+00
  2.738952e+01    1.193021e+00
  2.742127e+01    1.094070e+00
  2.745302e+01    9.938851e-01
  2.748477e+01    9.476960e-01
  2.751653e+01    8.924118e-01
  2.754828e+01    8.828642e-01
  2.758003e+01    8.702224e-01
  2.761178e+01    8.526562e-01
  2.764353e+01    8.380295e-01
  2.767528e+01    8.268911e-01
  2.770703e+01    8.079348e-01
  2.773878e+01    8.220455e-01
  2.777054e+01    8.091167e-01
  2.780229e+01    8.047038e-01
  2.783404e+01    8.273247e-01
  2.786579e+01    8.054281e-01
  2.789754e+01    7.823070e-01
  2.792929e+01    7.843866e-01
  2.796104e+01    7.838473e-01
  2.799279e+01    7.927945e-01
  2.802454e+01    7.687274e-01
  2.805630e+01    7.986356e-01
  2.808805e+01    7.702349e-01
  2.811980e+01    7.634802e-01
  2.815155e+01    7.603279e-01
  2.818330e+01    7.723716e-01
  2.821505e+01    7.594369e-01
  2.824680e+01    7.635463e-01
  2.827855e+01    7.786721e-01
  2.831030e+01    7.808483e-01
  2.834206e+01    7.526346e-01
  2.837381e+01    7.585146e-01
  2.840556e+01    7.673143e-01
  2.843731e+01    7.560204e-01
  2.846906e+01    7.672076e-01
  2.850081e+01    7.669460e-01
  2.853256e+01    7.235473e-01
  2.856431e+01    7.643318e-01
  2.859606e+01    7.389844e-01
  2.862782e+01    7.407144e-01
  2.865957e+01    7.531824e-01
  2.869132e+01    7.247454e-01
  2.872307e+01    7.451718e-01
  2.875482e+01    7.541922e-01
  2.878657e+01    7.508974e-01
  2.881832e+01    7.244578e-01
  2.885007e+01    7.406079e-01
  2.888183e+01    7.287700e-01
  2.891358e+01    7.274314e-01
  2.894533e+01    7.049718e-01
  2.897708e+01    7.479008e-01
  2.900883e+01    7.302203e-01
  2.904058e+01    7.285417e-01
  2.907233e+01    7.321690e-01
  2.910408e+01    7.355949e-01
  2.913583e+01    7.371253e-01
  2.916759e+01    7.499805e-01
  2.919934e+01    7.198871e-01
  2.923109e+01    7.257484e-01
  2.926284e+01    7.271765e-01
  2.929459e+01    7.195767e-01
  2.932634e+01    7.082084e-01
  2.935809e+01    7.134833e-01
  2.938984e+01    7.193778e-01
  2.942159e+01    7.326424e-01
  2.945335e+01    7.181835e-01
  2.948510e+01    7.199593e-01
  2.951685e+01    7.111328e-01
  2.954860e+01    7.307948e-01
  2.958035e+01    7.222723e-01
  2.961210e+01    7.219208e-01
  2.964385e+01    6.986496e-01
  2.967560e+01    7.262528e-01
  2.970736e+01    7.029644e-01
  2.973911e+01    7.014987e-01
  2.977086e+01    7.040415e-01
  2.980261e+01    7.028271e-01
  2.983436e+01    7.194618e-01
  2.986611e+01    7.147127e-01
  2.989786e+01    7.019632e-01
  2.992961e+01    7.141957e-01
  2.996136e+01    7.258505e-01
  2.999312e+01    7.391027e-01
  3.002487e+01    7.128782e-01
  3.005662e+01    7.302693e-01
  3.008837e+01    7.273626e-01
  3.012012e+01    7.308015e-01
  3.015187e+01    7.253811e-01
  3.018362e+01    7.101812e-01
  3.021537e+01    7.034490e-01
  3.024712e+01    7.196329e-01
  3.027888e+01    7.093517e-01
  3.031063e+01    7.067028e-01
  3.034238e+01    6.910344e-01
  3.037413e+01    7.084440e-01
  3.040588e+01    6.977903e-01
  3.043763e+01    6.951663e-01
  3.046938e+01    7.007145e-01
  3.050113e+01    7.221707e-01
  3.053288e+01    6.934438e-01
  3.056464e+01    7.063618e-01
  3.059639e+01    7.047580e-01
  3.062814e+01    6.934657e-01
  3.065989e+01    6.965179e-01
  3.069164e+01    7.053545e-01
  3.072339e+01    7.204818e-01
  3.075514e+01    7.260806e-01
  3.078689e+01    7.042511e-01
  3.081865e+01    6.881218e-01
  3.085040e+01    6.900204e-01
  3.088215e+01    7.002257e-01
  3.091390e+01    7.265491e-01
  3.094565e+01    7.171510e-01
  3.097740e+01    6.899087e-01
  3.100915e+01    6.848684e-01
  3.104090e+01    6.980674e-01
  3.107265e+01    7.199162e-01
  3.110441e+01    7.287380e-01
  3.113616e+01    7.187867e-01
  3.116791e+01    7.204949e-01
  3.119966e+01    7.019830e-01
  3.123141e+01    7.203586e-01
  3.126316e+01    7.120793e-01
  3.129491e+01    7.327441e-01
  3.132666e+01    7.213815e-01
  3.135841e+01    7.191375e-01
  3.139017e+01    7.465782e-01
  3.142192e+01    7.456865e-01
  3.145367e+01    7.377300e-01
  3.148542e+01    7.666988e-01
  3.151717e+01    7.648506e-01
  3.154892e+01    7.741833e-01
  3.158067e+01    7.845730e-01
  3.161242e+01    8.067227e-01
  3.164418e+01    8.078819e-01
  3.167593e+01    8.885037e-01
  3.170768e+01    9.550290e-01
  3.173943e+01    9.999536e-01
  3.177118e+01    1.118769e+00
  3.180293e+01    1.301859e+00
  3.183468e+01    1.562464e+00
  3.186643e+01    1.879638e+00
  3.189818e+01    2.192999e+00
  3.192994e+01    2.293278e+00
  3.196169e+01    2.150575e+00
  3.199344e+01    1.909555e+00
  3.202519e+01    1.535980e+00
  3.205694e+01    1.303955e+00
  3.208869e+01    1.095438e+00
  3.212044e+01    9.771425e-01
  3.215219e+01    9.044112e-01
  3.218394e+01    8.683605e-01
  3.221570e+01    8.288047e-01
  3.224745e+01    8.082994e-01
  3.227920e+01    7.619904e-01
  3.231095e+01    7.685722e-01
  3.234270e+01    7.418336e-01
  3.237445e+01    7.321262e-01
  3.240620e+01    7.413691e-01
  3.243795e+01    7.305647e-01
  3.246970e+01    7.008365e-01
  3.250146e+01    7.195270e-01
  3.253321e+01    7.174949e-01
  3.254908e+01    6.944703e-01