File: XRD/Activation ramp/2024-07-27_002_Ru-CGO-ex_Activtation_ramp_000002_data_000048.dat
# == pyFAI calibration ==
# Distance Sample to Detector: 0.4 m
# PONI: 9.750e-02, 1.135e-01 m
# Rotations: -0.000175 0.000000 -0.000000 rad
#
# == Fit2d calibration ==
# Distance Sample-beamCenter: 400.000 mm
# Center: x=1514.000, y=1300.000 pix
# Tilt: 0.010 deg  TiltPlanRot: 0.010 deg
#
# Detector Detector	 Spline= None	 PixelSize= 7.500e-05, 7.500e-05 m
#    Detector has a mask: False
#    Detector has a dark current: False
#    detector has a flat field: False
#
# Wavelength: 6.888e-11 m
# Mask applied: user provided
# Dark current applied: False
# Flat field applied: False
# Polarization factor: 0.99
# Normalization factor: 1.0
# --> /home/myspot/data/2024_07_Rosario/Ru-CGO-ex/2024-07-27_002_Ru-CGO-ex_Activtation_ramp_000002_data_000048.dat
#       q_nm^-1             I
  2.003187e-02    0.000000e+00
  5.178302e-02    8.011036e-02
  8.353417e-02    2.018024e-01
  1.152853e-01    3.768082e-03
  1.470365e-01    7.820536e-04
  1.787876e-01    4.643523e-02
  2.105388e-01    2.106897e-02
  2.422899e-01    3.856483e-02
  2.740411e-01    4.455704e-02
  3.057922e-01    4.294662e-02
  3.375433e-01    3.583634e-02
  3.692945e-01    3.256616e-02
  4.010456e-01    3.669939e-02
  4.327968e-01    4.241179e-02
  4.645479e-01    4.780471e-02
  4.962991e-01    4.104313e-02
  5.280502e-01    2.291694e-02
  5.598014e-01    2.532263e-02
  5.915525e-01    1.870686e-02
  6.233037e-01    2.817147e-02
  6.550548e-01    6.057749e-02
  6.868060e-01    3.951113e-02
  7.185571e-01    2.637593e-02
  7.503083e-01    3.757805e-02
  7.820594e-01    1.019302e-01
  8.138106e-01    1.913523e-01
  8.455617e-01    2.617640e-01
  8.773129e-01    4.588960e-01
  9.090640e-01    6.148316e-01
  9.408152e-01    6.054279e-01
  9.725663e-01    8.639132e-01
  1.004317e+00    1.056806e+00
  1.036069e+00    1.161113e+00
  1.067820e+00    1.295563e+00
  1.099571e+00    1.385208e+00
  1.131322e+00    1.473593e+00
  1.163073e+00    1.506544e+00
  1.194824e+00    1.594412e+00
  1.226575e+00    2.021029e+00
  1.258327e+00    2.284750e+00
  1.290078e+00    2.481083e+00
  1.321829e+00    2.425940e+00
  1.353580e+00    2.566478e+00
  1.385331e+00    2.607893e+00
  1.417082e+00    2.682717e+00
  1.448834e+00    2.737977e+00
  1.480585e+00    2.880741e+00
  1.512336e+00    2.989897e+00
  1.544087e+00    3.050325e+00
  1.575838e+00    2.989174e+00
  1.607589e+00    2.966425e+00
  1.639340e+00    3.031888e+00
  1.671092e+00    2.983003e+00
  1.702843e+00    2.878715e+00
  1.734594e+00    2.845496e+00
  1.766345e+00    2.864866e+00
  1.798096e+00    2.863292e+00
  1.829847e+00    2.802154e+00
  1.861598e+00    2.849226e+00
  1.893350e+00    2.932023e+00
  1.925101e+00    2.773954e+00
  1.956852e+00    2.716652e+00
  1.988603e+00    2.753800e+00
  2.020354e+00    2.719783e+00
  2.052105e+00    2.733818e+00
  2.083856e+00    2.753980e+00
  2.115608e+00    2.778602e+00
  2.147359e+00    2.732381e+00
  2.179110e+00    2.880010e+00
  2.210861e+00    2.780602e+00
  2.242612e+00    2.825053e+00
  2.274363e+00    2.709548e+00
  2.306115e+00    2.790369e+00
  2.337866e+00    2.838713e+00
  2.369617e+00    2.805689e+00
  2.401368e+00    2.819241e+00
  2.433119e+00    2.858717e+00
  2.464870e+00    2.775906e+00
  2.496621e+00    2.930345e+00
  2.528373e+00    2.863100e+00
  2.560124e+00    2.887555e+00
  2.591875e+00    2.931209e+00
  2.623626e+00    2.825375e+00
  2.655377e+00    2.794738e+00
  2.687128e+00    2.843731e+00
  2.718879e+00    2.863829e+00
  2.750631e+00    2.851662e+00
  2.782382e+00    2.855069e+00
  2.814133e+00    2.795286e+00
  2.845884e+00    2.956408e+00
  2.877635e+00    2.820628e+00
  2.909386e+00    3.013743e+00
  2.941137e+00    2.918315e+00
  2.972889e+00    2.838769e+00
  3.004640e+00    2.890179e+00
  3.036391e+00    2.912923e+00
  3.068142e+00    2.878321e+00
  3.099893e+00    2.930500e+00
  3.131644e+00    2.930878e+00
  3.163395e+00    2.885760e+00
  3.195147e+00    2.939237e+00
  3.226898e+00    2.827695e+00
  3.258649e+00    2.969291e+00
  3.290400e+00    2.982824e+00
  3.322151e+00    2.995647e+00
  3.353902e+00    2.908226e+00
  3.385654e+00    2.922832e+00
  3.417405e+00    2.973318e+00
  3.449156e+00    2.876936e+00
  3.480907e+00    2.927667e+00
  3.512658e+00    2.949645e+00
  3.544409e+00    2.945848e+00
  3.576160e+00    2.977247e+00
  3.607912e+00    2.895213e+00
  3.639663e+00    2.999107e+00
  3.671414e+00    2.940980e+00
  3.703165e+00    2.944543e+00
  3.734916e+00    2.959269e+00
  3.766667e+00    2.994340e+00
  3.798418e+00    3.094234e+00
  3.830170e+00    2.979833e+00
  3.861921e+00    2.890877e+00
  3.893672e+00    3.005754e+00
  3.925423e+00    3.034936e+00
  3.957174e+00    2.997504e+00
  3.988925e+00    3.069087e+00
  4.020676e+00    3.012952e+00
  4.052428e+00    2.955036e+00
  4.084179e+00    3.040585e+00
  4.115930e+00    2.977603e+00
  4.147681e+00    3.093601e+00
  4.179432e+00    2.995661e+00
  4.211183e+00    3.014201e+00
  4.242935e+00    3.043780e+00
  4.274686e+00    3.067006e+00
  4.306437e+00    3.002922e+00
  4.338188e+00    2.941537e+00
  4.369939e+00    3.025936e+00
  4.401690e+00    3.045278e+00
  4.433441e+00    3.063947e+00
  4.465193e+00    3.043736e+00
  4.496944e+00    3.101941e+00
  4.528695e+00    3.024726e+00
  4.560446e+00    3.049185e+00
  4.592197e+00    3.046601e+00
  4.623948e+00    3.135994e+00
  4.655699e+00    3.127847e+00
  4.687451e+00    3.188413e+00
  4.719202e+00    3.108519e+00
  4.750953e+00    3.080204e+00
  4.782704e+00    3.055085e+00
  4.814455e+00    3.144612e+00
  4.846206e+00    3.056648e+00
  4.877957e+00    3.200988e+00
  4.909709e+00    3.083702e+00
  4.941460e+00    3.140039e+00
  4.973211e+00    3.152119e+00
  5.004962e+00    3.038496e+00
  5.036713e+00    3.111403e+00
  5.068464e+00    3.077657e+00
  5.100216e+00    3.142691e+00
  5.131967e+00    3.092252e+00
  5.163718e+00    3.151727e+00
  5.195469e+00    3.114813e+00
  5.227220e+00    3.167357e+00
  5.258971e+00    3.053827e+00
  5.290722e+00    3.084132e+00
  5.322474e+00    3.122034e+00
  5.354225e+00    3.121268e+00
  5.385976e+00    3.102563e+00
  5.417727e+00    3.069270e+00
  5.449478e+00    2.964343e+00
  5.481229e+00    3.159965e+00
  5.512980e+00    3.056436e+00
  5.544732e+00    3.052433e+00
  5.576483e+00    3.031631e+00
  5.608234e+00    3.170933e+00
  5.639985e+00    3.097380e+00
  5.671736e+00    3.065288e+00
  5.703487e+00    3.047904e+00
  5.735238e+00    3.044413e+00
  5.766990e+00    3.059625e+00
  5.798741e+00    3.044912e+00
  5.830492e+00    3.144672e+00
  5.862243e+00    3.050798e+00
  5.893994e+00    3.001714e+00
  5.925745e+00    3.022866e+00
  5.957497e+00    3.065935e+00
  5.989248e+00    3.051451e+00
  6.020999e+00    2.988555e+00
  6.052750e+00    3.013176e+00
  6.084501e+00    3.034986e+00
  6.116252e+00    3.103136e+00
  6.148003e+00    3.065971e+00
  6.179755e+00    3.042976e+00
  6.211506e+00    2.991714e+00
  6.243257e+00    3.065804e+00
  6.275008e+00    3.077794e+00
  6.306759e+00    2.976518e+00
  6.338510e+00    2.955943e+00
  6.370261e+00    2.999627e+00
  6.402013e+00    3.095125e+00
  6.433764e+00    3.005489e+00
  6.465515e+00    2.957433e+00
  6.497266e+00    2.863516e+00
  6.529017e+00    2.946826e+00
  6.560768e+00    3.041431e+00
  6.592519e+00    3.035505e+00
  6.624271e+00    3.034566e+00
  6.656022e+00    3.016349e+00
  6.687773e+00    3.045605e+00
  6.719524e+00    3.037070e+00
  6.751275e+00    3.040555e+00
  6.783026e+00    2.995337e+00
  6.814777e+00    3.033238e+00
  6.846529e+00    2.989493e+00
  6.878280e+00    3.039797e+00
  6.910031e+00    3.092844e+00
  6.941782e+00    2.918890e+00
  6.973533e+00    3.004412e+00
  7.005284e+00    2.976800e+00
  7.037036e+00    2.976771e+00
  7.068787e+00    3.056839e+00
  7.100538e+00    3.017342e+00
  7.132289e+00    2.993949e+00
  7.164040e+00    3.044138e+00
  7.195791e+00    3.020313e+00
  7.227542e+00    2.963098e+00
  7.259294e+00    2.988297e+00
  7.291045e+00    3.016680e+00
  7.322796e+00    2.963234e+00
  7.354547e+00    3.001119e+00
  7.386298e+00    3.051511e+00
  7.418049e+00    3.026897e+00
  7.449800e+00    2.988790e+00
  7.481552e+00    2.955644e+00
  7.513303e+00    2.922178e+00
  7.545054e+00    2.910160e+00
  7.576805e+00    2.918773e+00
  7.608556e+00    2.970168e+00
  7.640307e+00    2.984918e+00
  7.672058e+00    2.971221e+00
  7.703810e+00    2.948042e+00
  7.735561e+00    2.926461e+00
  7.767312e+00    2.885841e+00
  7.799063e+00    2.973723e+00
  7.830814e+00    2.912360e+00
  7.862565e+00    2.897018e+00
  7.894317e+00    2.951613e+00
  7.926068e+00    2.872326e+00
  7.957819e+00    2.913009e+00
  7.989570e+00    2.907298e+00
  8.021321e+00    2.935269e+00
  8.053072e+00    2.867913e+00
  8.084823e+00    2.919948e+00
  8.116575e+00    2.930102e+00
  8.148326e+00    2.909978e+00
  8.180077e+00    2.946951e+00
  8.211828e+00    2.899089e+00
  8.243579e+00    2.939481e+00
  8.275330e+00    2.912412e+00
  8.307081e+00    2.886086e+00
  8.338833e+00    2.932728e+00
  8.370584e+00    2.892288e+00
  8.402335e+00    2.878021e+00
  8.434086e+00    2.819069e+00
  8.465837e+00    2.903352e+00
  8.497588e+00    2.888988e+00
  8.529339e+00    2.878829e+00
  8.561091e+00    2.849501e+00
  8.592842e+00    2.838651e+00
  8.624593e+00    2.791794e+00
  8.656344e+00    2.865830e+00
  8.688095e+00    2.854154e+00
  8.719846e+00    2.833535e+00
  8.751598e+00    2.905098e+00
  8.783349e+00    2.844550e+00
  8.815100e+00    2.868510e+00
  8.846851e+00    2.772274e+00
  8.878602e+00    2.823123e+00
  8.910353e+00    2.832869e+00
  8.942104e+00    2.840566e+00
  8.973856e+00    2.811101e+00
  9.005607e+00    2.818722e+00
  9.037358e+00    2.797539e+00
  9.069109e+00    2.824341e+00
  9.100860e+00    2.861230e+00
  9.132611e+00    2.875131e+00
  9.164362e+00    2.776478e+00
  9.196114e+00    2.771594e+00
  9.227865e+00    2.773987e+00
  9.259616e+00    2.764174e+00
  9.291367e+00    2.777647e+00
  9.323118e+00    2.816543e+00
  9.354869e+00    2.811463e+00
  9.386620e+00    2.704951e+00
  9.418372e+00    2.736277e+00
  9.450123e+00    2.720862e+00
  9.481874e+00    2.709462e+00
  9.513625e+00    2.789765e+00
  9.545376e+00    2.746413e+00
  9.577127e+00    2.813181e+00
  9.608878e+00    2.748728e+00
  9.640630e+00    2.770125e+00
  9.672381e+00    2.719139e+00
  9.704132e+00    2.755902e+00
  9.735883e+00    2.706743e+00
  9.767634e+00    2.714939e+00
  9.799385e+00    2.757416e+00
  9.831137e+00    2.744646e+00
  9.862888e+00    2.666155e+00
  9.894639e+00    2.696581e+00
  9.926390e+00    2.720241e+00
  9.958141e+00    2.689218e+00
  9.989892e+00    2.621509e+00
  1.002164e+01    2.666938e+00
  1.005339e+01    2.684832e+00
  1.008515e+01    2.676538e+00
  1.011690e+01    2.687165e+00
  1.014865e+01    2.595778e+00
  1.018040e+01    2.632313e+00
  1.021215e+01    2.566401e+00
  1.024390e+01    2.618140e+00
  1.027565e+01    2.646012e+00
  1.030740e+01    2.635503e+00
  1.033915e+01    2.625087e+00
  1.037091e+01    2.637547e+00
  1.040266e+01    2.629405e+00
  1.043441e+01    2.644284e+00
  1.046616e+01    2.598711e+00
  1.049791e+01    2.563081e+00
  1.052966e+01    2.628962e+00
  1.056141e+01    2.541838e+00
  1.059316e+01    2.616995e+00
  1.062492e+01    2.546928e+00
  1.065667e+01    2.562263e+00
  1.068842e+01    2.571377e+00
  1.072017e+01    2.528654e+00
  1.075192e+01    2.560973e+00
  1.078367e+01    2.514979e+00
  1.081542e+01    2.522458e+00
  1.084717e+01    2.517542e+00
  1.087892e+01    2.502403e+00
  1.091068e+01    2.492613e+00
  1.094243e+01    2.468343e+00
  1.097418e+01    2.520603e+00
  1.100593e+01    2.476782e+00
  1.103768e+01    2.487394e+00
  1.106943e+01    2.498534e+00
  1.110118e+01    2.460171e+00
  1.113293e+01    2.436810e+00
  1.116468e+01    2.482545e+00
  1.119644e+01    2.441122e+00
  1.122819e+01    2.451091e+00
  1.125994e+01    2.456835e+00
  1.129169e+01    2.477314e+00
  1.132344e+01    2.390274e+00
  1.135519e+01    2.419390e+00
  1.138694e+01    2.425045e+00
  1.141869e+01    2.353469e+00
  1.145045e+01    2.456182e+00
  1.148220e+01    2.356837e+00
  1.151395e+01    2.395964e+00
  1.154570e+01    2.424109e+00
  1.157745e+01    2.349559e+00
  1.160920e+01    2.377892e+00
  1.164095e+01    2.363358e+00
  1.167270e+01    2.402202e+00
  1.170445e+01    2.380706e+00
  1.173621e+01    2.357471e+00
  1.176796e+01    2.410703e+00
  1.179971e+01    2.340480e+00
  1.183146e+01    2.351009e+00
  1.186321e+01    2.371086e+00
  1.189496e+01    2.327544e+00
  1.192671e+01    2.309605e+00
  1.195846e+01    2.359460e+00
  1.199021e+01    2.330317e+00
  1.202197e+01    2.313833e+00
  1.205372e+01    2.330285e+00
  1.208547e+01    2.314806e+00
  1.211722e+01    2.353041e+00
  1.214897e+01    2.325558e+00
  1.218072e+01    2.287888e+00
  1.221247e+01    2.341682e+00
  1.224422e+01    2.357646e+00
  1.227597e+01    2.365174e+00
  1.230773e+01    2.342854e+00
  1.233948e+01    2.313053e+00
  1.237123e+01    2.292701e+00
  1.240298e+01    2.371705e+00
  1.243473e+01    2.368718e+00
  1.246648e+01    2.344691e+00
  1.249823e+01    2.379919e+00
  1.252998e+01    2.385264e+00
  1.256174e+01    2.395580e+00
  1.259349e+01    2.341709e+00
  1.262524e+01    2.430802e+00
  1.265699e+01    2.463582e+00
  1.268874e+01    2.496582e+00
  1.272049e+01    2.529071e+00
  1.275224e+01    2.547930e+00
  1.278399e+01    2.574222e+00
  1.281574e+01    2.670513e+00
  1.284750e+01    2.819868e+00
  1.287925e+01    2.994010e+00
  1.291100e+01    3.265855e+00
  1.294275e+01    3.664451e+00
  1.297450e+01    4.270598e+00
  1.300625e+01    5.178980e+00
  1.303800e+01    6.717967e+00
  1.306975e+01    9.170741e+00
  1.310150e+01    1.205029e+01
  1.313326e+01    1.486690e+01
  1.316501e+01    1.760937e+01
  1.319676e+01    1.907919e+01
  1.322851e+01    1.721362e+01
  1.326026e+01    1.285556e+01
  1.329201e+01    9.026622e+00
  1.332376e+01    6.599153e+00
  1.335551e+01    5.117405e+00
  1.338727e+01    4.219573e+00
  1.341902e+01    3.635413e+00
  1.345077e+01    3.248962e+00
  1.348252e+01    2.949128e+00
  1.351427e+01    2.781697e+00
  1.354602e+01    2.617590e+00
  1.357777e+01    2.540424e+00
  1.360952e+01    2.425596e+00
  1.364127e+01    2.340955e+00
  1.367303e+01    2.317280e+00
  1.370478e+01    2.278741e+00
  1.373653e+01    2.219077e+00
  1.376828e+01    2.170223e+00
  1.380003e+01    2.192527e+00
  1.383178e+01    2.176336e+00
  1.386353e+01    2.132404e+00
  1.389528e+01    2.136896e+00
  1.392703e+01    2.106943e+00
  1.395879e+01    2.122902e+00
  1.399054e+01    2.086209e+00
  1.402229e+01    2.057062e+00
  1.405404e+01    2.033817e+00
  1.408579e+01    2.049908e+00
  1.411754e+01    2.010716e+00
  1.414929e+01    2.007149e+00
  1.418104e+01    1.995989e+00
  1.421279e+01    2.016732e+00
  1.424455e+01    2.000853e+00
  1.427630e+01    2.014752e+00
  1.430805e+01    1.967376e+00
  1.433980e+01    1.949086e+00
  1.437155e+01    1.967447e+00
  1.440330e+01    1.965372e+00
  1.443505e+01    1.938430e+00
  1.446680e+01    1.966823e+00
  1.449856e+01    1.938004e+00
  1.453031e+01    1.914645e+00
  1.456206e+01    1.935864e+00
  1.459381e+01    1.960545e+00
  1.462556e+01    1.964914e+00
  1.465731e+01    1.937078e+00
  1.468906e+01    1.899273e+00
  1.472081e+01    1.948777e+00
  1.475256e+01    1.929383e+00
  1.478432e+01    1.894345e+00
  1.481607e+01    1.914800e+00
  1.484782e+01    1.922231e+00
  1.487957e+01    1.890188e+00
  1.491132e+01    1.943332e+00
  1.494307e+01    1.978431e+00
  1.497482e+01    2.056014e+00
  1.500657e+01    2.162774e+00
  1.503832e+01    2.243991e+00
  1.507008e+01    2.490668e+00
  1.510183e+01    2.804683e+00
  1.513358e+01    3.257415e+00
  1.516533e+01    3.968958e+00
  1.519708e+01    4.805957e+00
  1.522883e+01    5.583266e+00
  1.526058e+01    6.240860e+00
  1.529233e+01    6.394452e+00
  1.532409e+01    5.899464e+00
  1.535584e+01    4.757643e+00
  1.538759e+01    3.608420e+00
  1.541934e+01    3.004957e+00
  1.545109e+01    2.551801e+00
  1.548284e+01    2.254671e+00
  1.551459e+01    2.130311e+00
  1.554634e+01    1.989892e+00
  1.557809e+01    1.950865e+00
  1.560985e+01    1.832879e+00
  1.564160e+01    1.834069e+00
  1.567335e+01    1.774732e+00
  1.570510e+01    1.794207e+00
  1.573685e+01    1.701700e+00
  1.576860e+01    1.720935e+00
  1.580035e+01    1.722011e+00
  1.583210e+01    1.704229e+00
  1.586385e+01    1.696678e+00
  1.589561e+01    1.682245e+00
  1.592736e+01    1.644114e+00
  1.595911e+01    1.662219e+00
  1.599086e+01    1.600485e+00
  1.602261e+01    1.596801e+00
  1.605436e+01    1.598824e+00
  1.608611e+01    1.604515e+00
  1.611786e+01    1.607203e+00
  1.614961e+01    1.589260e+00
  1.618137e+01    1.565005e+00
  1.621312e+01    1.585438e+00
  1.624487e+01    1.590621e+00
  1.627662e+01    1.566319e+00
  1.630837e+01    1.529479e+00
  1.634012e+01    1.513716e+00
  1.637187e+01    1.531880e+00
  1.640362e+01    1.545893e+00
  1.643538e+01    1.504241e+00
  1.646713e+01    1.504750e+00
  1.649888e+01    1.491610e+00
  1.653063e+01    1.498459e+00
  1.656238e+01    1.511866e+00
  1.659413e+01    1.480041e+00
  1.662588e+01    1.475239e+00
  1.665763e+01    1.506265e+00
  1.668938e+01    1.499620e+00
  1.672114e+01    1.498543e+00
  1.675289e+01    1.462686e+00
  1.678464e+01    1.466325e+00
  1.681639e+01    1.444588e+00
  1.684814e+01    1.443631e+00
  1.687989e+01    1.466783e+00
  1.691164e+01    1.468098e+00
  1.694339e+01    1.423503e+00
  1.697514e+01    1.459367e+00
  1.700690e+01    1.430608e+00
  1.703865e+01    1.441841e+00
  1.707040e+01    1.417670e+00
  1.710215e+01    1.414370e+00
  1.713390e+01    1.438293e+00
  1.716565e+01    1.423294e+00
  1.719740e+01    1.375733e+00
  1.722915e+01    1.426620e+00
  1.726091e+01    1.398416e+00
  1.729266e+01    1.379958e+00
  1.732441e+01    1.348205e+00
  1.735616e+01    1.371707e+00
  1.738791e+01    1.366698e+00
  1.741966e+01    1.373745e+00
  1.745141e+01    1.365043e+00
  1.748316e+01    1.358565e+00
  1.751491e+01    1.385761e+00
  1.754667e+01    1.337841e+00
  1.757842e+01    1.375362e+00
  1.761017e+01    1.359252e+00
  1.764192e+01    1.344569e+00
  1.767367e+01    1.342059e+00
  1.770542e+01    1.359239e+00
  1.773717e+01    1.347815e+00
  1.776892e+01    1.326019e+00
  1.780067e+01    1.327510e+00
  1.783243e+01    1.319538e+00
  1.786418e+01    1.298241e+00
  1.789593e+01    1.324856e+00
  1.792768e+01    1.310216e+00
  1.795943e+01    1.314274e+00
  1.799118e+01    1.332435e+00
  1.802293e+01    1.317949e+00
  1.805468e+01    1.320310e+00
  1.808643e+01    1.319100e+00
  1.811819e+01    1.262329e+00
  1.814994e+01    1.289708e+00
  1.818169e+01    1.283573e+00
  1.821344e+01    1.294389e+00
  1.824519e+01    1.276394e+00
  1.827694e+01    1.269984e+00
  1.830869e+01    1.261023e+00
  1.834044e+01    1.254130e+00
  1.837220e+01    1.230939e+00
  1.840395e+01    1.278787e+00
  1.843570e+01    1.264107e+00
  1.846745e+01    1.264073e+00
  1.849920e+01    1.258703e+00
  1.853095e+01    1.250725e+00
  1.856270e+01    1.233377e+00
  1.859445e+01    1.268628e+00
  1.862620e+01    1.236660e+00
  1.865796e+01    1.245450e+00
  1.868971e+01    1.217904e+00
  1.872146e+01    1.209919e+00
  1.875321e+01    1.204926e+00
  1.878496e+01    1.238884e+00
  1.881671e+01    1.221512e+00
  1.884846e+01    1.195931e+00
  1.888021e+01    1.214376e+00
  1.891196e+01    1.205052e+00
  1.894372e+01    1.213618e+00
  1.897547e+01    1.203666e+00
  1.900722e+01    1.186340e+00
  1.903897e+01    1.195755e+00
  1.907072e+01    1.185316e+00
  1.910247e+01    1.184744e+00
  1.913422e+01    1.190472e+00
  1.916597e+01    1.196189e+00
  1.919773e+01    1.199910e+00
  1.922948e+01    1.181601e+00
  1.926123e+01    1.173623e+00
  1.929298e+01    1.163496e+00
  1.932473e+01    1.201576e+00
  1.935648e+01    1.171095e+00
  1.938823e+01    1.177253e+00
  1.941998e+01    1.178255e+00
  1.945173e+01    1.161155e+00
  1.948349e+01    1.161495e+00
  1.951524e+01    1.157756e+00
  1.954699e+01    1.162206e+00
  1.957874e+01    1.171591e+00
  1.961049e+01    1.146482e+00
  1.964224e+01    1.148493e+00
  1.967399e+01    1.145612e+00
  1.970574e+01    1.155823e+00
  1.973749e+01    1.147743e+00
  1.976925e+01    1.133465e+00
  1.980100e+01    1.136035e+00
  1.983275e+01    1.154697e+00
  1.986450e+01    1.157069e+00
  1.989625e+01    1.145342e+00
  1.992800e+01    1.141402e+00
  1.995975e+01    1.121485e+00
  1.999150e+01    1.115317e+00
  2.002325e+01    1.151492e+00
  2.005501e+01    1.106060e+00
  2.008676e+01    1.129054e+00
  2.011851e+01    1.143984e+00
  2.015026e+01    1.103603e+00
  2.018201e+01    1.122137e+00
  2.021376e+01    1.115444e+00
  2.024551e+01    1.086079e+00
  2.027726e+01    1.106452e+00
  2.030902e+01    1.081076e+00
  2.034077e+01    1.110241e+00
  2.037252e+01    1.106551e+00
  2.040427e+01    1.108106e+00
  2.043602e+01    1.096747e+00
  2.046777e+01    1.109357e+00
  2.049952e+01    1.070853e+00
  2.053127e+01    1.099801e+00
  2.056302e+01    1.072228e+00
  2.059478e+01    1.104985e+00
  2.062653e+01    1.075495e+00
  2.065828e+01    1.082356e+00
  2.069003e+01    1.084954e+00
  2.072178e+01    1.100778e+00
  2.075353e+01    1.084905e+00
  2.078528e+01    1.072628e+00
  2.081703e+01    1.080453e+00
  2.084878e+01    1.077602e+00
  2.088054e+01    1.064295e+00
  2.091229e+01    1.088614e+00
  2.094404e+01    1.106081e+00
  2.097579e+01    1.107410e+00
  2.100754e+01    1.119027e+00
  2.103929e+01    1.104506e+00
  2.107104e+01    1.094937e+00
  2.110279e+01    1.072097e+00
  2.113455e+01    1.066188e+00
  2.116630e+01    1.085400e+00
  2.119805e+01    1.100231e+00
  2.122980e+01    1.117152e+00
  2.126155e+01    1.144964e+00
  2.129330e+01    1.141318e+00
  2.132505e+01    1.144971e+00
  2.135680e+01    1.153979e+00
  2.138855e+01    1.198794e+00
  2.142031e+01    1.189748e+00
  2.145206e+01    1.239319e+00
  2.148381e+01    1.259971e+00
  2.151556e+01    1.292280e+00
  2.154731e+01    1.352977e+00
  2.157906e+01    1.436469e+00
  2.161081e+01    1.569047e+00
  2.164256e+01    1.714137e+00
  2.167431e+01    1.976843e+00
  2.170607e+01    2.322869e+00
  2.173782e+01    2.893167e+00
  2.176957e+01    3.760593e+00
  2.180132e+01    5.039649e+00
  2.183307e+01    6.483596e+00
  2.186482e+01    8.141585e+00
  2.189657e+01    9.801596e+00
  2.192832e+01    1.063172e+01
  2.196007e+01    9.829785e+00
  2.199183e+01    7.653340e+00
  2.202358e+01    5.469402e+00
  2.205533e+01    3.959778e+00
  2.208708e+01    3.025177e+00
  2.211883e+01    2.424779e+00
  2.215058e+01    2.007290e+00
  2.218233e+01    1.717855e+00
  2.221408e+01    1.527020e+00
  2.224584e+01    1.446778e+00
  2.227759e+01    1.343750e+00
  2.230934e+01    1.265187e+00
  2.234109e+01    1.221985e+00
  2.237284e+01    1.163405e+00
  2.240459e+01    1.142645e+00
  2.243634e+01    1.121072e+00
  2.246809e+01    1.065172e+00
  2.249984e+01    1.068519e+00
  2.253160e+01    1.024224e+00
  2.256335e+01    1.008022e+00
  2.259510e+01    1.018605e+00
  2.262685e+01    9.791781e-01
  2.265860e+01    9.800248e-01
  2.269035e+01    9.608237e-01
  2.272210e+01    9.664720e-01
  2.275385e+01    9.820523e-01
  2.278560e+01    9.689468e-01
  2.281736e+01    9.448674e-01
  2.284911e+01    9.308901e-01
  2.288086e+01    9.341028e-01
  2.291261e+01    9.170263e-01
  2.294436e+01    9.050001e-01
  2.297611e+01    9.083973e-01
  2.300786e+01    8.805306e-01
  2.303961e+01    8.856537e-01
  2.307137e+01    8.910635e-01
  2.310312e+01    9.007802e-01
  2.313487e+01    8.953980e-01
  2.316662e+01    9.047803e-01
  2.319837e+01    8.774108e-01
  2.323012e+01    8.780237e-01
  2.326187e+01    8.635125e-01
  2.329362e+01    8.901364e-01
  2.332537e+01    8.866810e-01
  2.335713e+01    8.497794e-01
  2.338888e+01    8.661705e-01
  2.342063e+01    8.553083e-01
  2.345238e+01    8.467147e-01
  2.348413e+01    8.616616e-01
  2.351588e+01    8.416668e-01
  2.354763e+01    8.342802e-01
  2.357938e+01    8.424200e-01
  2.361113e+01    8.480815e-01
  2.364289e+01    8.492656e-01
  2.367464e+01    8.376418e-01
  2.370639e+01    8.319576e-01
  2.373814e+01    8.144405e-01
  2.376989e+01    8.287538e-01
  2.380164e+01    7.973401e-01
  2.383339e+01    8.143171e-01
  2.386514e+01    8.002461e-01
  2.389689e+01    7.959495e-01
  2.392865e+01    7.909670e-01
  2.396040e+01    7.984345e-01
  2.399215e+01    8.088971e-01
  2.402390e+01    7.818747e-01
  2.405565e+01    7.822670e-01
  2.408740e+01    7.779666e-01
  2.411915e+01    7.754035e-01
  2.415090e+01    7.861220e-01
  2.418266e+01    7.952869e-01
  2.421441e+01    7.975742e-01
  2.424616e+01    7.881009e-01
  2.427791e+01    8.003331e-01
  2.430966e+01    7.906023e-01
  2.434141e+01    8.088009e-01
  2.437316e+01    8.050489e-01
  2.440491e+01    8.067273e-01
  2.443666e+01    7.963769e-01
  2.446842e+01    8.091191e-01
  2.450017e+01    8.016530e-01
  2.453192e+01    8.111392e-01
  2.456367e+01    8.037003e-01
  2.459542e+01    7.834042e-01
  2.462717e+01    8.025710e-01
  2.465892e+01    7.864312e-01
  2.469067e+01    8.023724e-01
  2.472242e+01    7.960840e-01
  2.475418e+01    8.013499e-01
  2.478593e+01    8.013773e-01
  2.481768e+01    8.215232e-01
  2.484943e+01    8.121399e-01
  2.488118e+01    8.114414e-01
  2.491293e+01    7.981839e-01
  2.494468e+01    8.106934e-01
  2.497643e+01    8.141734e-01
  2.500819e+01    8.230171e-01
  2.503994e+01    8.177845e-01
  2.507169e+01    8.142008e-01
  2.510344e+01    8.357164e-01
  2.513519e+01    8.095391e-01
  2.516694e+01    8.309194e-01
  2.519869e+01    8.407807e-01
  2.523044e+01    8.327799e-01
  2.526219e+01    8.523306e-01
  2.529395e+01    8.653960e-01
  2.532570e+01    8.913401e-01
  2.535745e+01    8.923203e-01
  2.538920e+01    8.949647e-01
  2.542095e+01    9.374802e-01
  2.545270e+01    9.515694e-01
  2.548445e+01    9.697353e-01
  2.551620e+01    9.730209e-01
  2.554795e+01    1.005270e+00
  2.557971e+01    1.048380e+00
  2.561146e+01    1.099266e+00
  2.564321e+01    1.150499e+00
  2.567496e+01    1.285862e+00
  2.570671e+01    1.436702e+00
  2.573846e+01    1.568004e+00
  2.577021e+01    1.840910e+00
  2.580196e+01    2.244446e+00
  2.583371e+01    2.899319e+00
  2.586547e+01    3.754976e+00
  2.589722e+01    4.999933e+00
  2.592897e+01    6.501251e+00
  2.596072e+01    7.879105e+00
  2.599247e+01    8.714898e+00
  2.602422e+01    8.341420e+00
  2.605597e+01    6.792159e+00
  2.608772e+01    5.065865e+00
  2.611948e+01    3.669206e+00
  2.615123e+01    2.821915e+00
  2.618298e+01    2.239731e+00
  2.621473e+01    1.846446e+00
  2.624648e+01    1.607783e+00
  2.627823e+01    1.398255e+00
  2.630998e+01    1.266031e+00
  2.634173e+01    1.169731e+00
  2.637348e+01    1.115136e+00
  2.640524e+01    1.052128e+00
  2.643699e+01    9.994176e-01
  2.646874e+01    9.875580e-01
  2.650049e+01    9.988934e-01
  2.653224e+01    9.572725e-01
  2.656399e+01    9.356162e-01
  2.659574e+01    9.552070e-01
  2.662749e+01    9.194908e-01
  2.665924e+01    9.179912e-01
  2.669100e+01    9.209118e-01
  2.672275e+01    9.314456e-01
  2.675450e+01    8.879557e-01
  2.678625e+01    9.246677e-01
  2.681800e+01    9.141278e-01
  2.684975e+01    9.252659e-01
  2.688150e+01    9.177421e-01
  2.691325e+01    9.437553e-01
  2.694501e+01    9.708639e-01
  2.697676e+01    9.886221e-01
  2.700851e+01    1.033839e+00
  2.704026e+01    1.061870e+00
  2.707201e+01    1.130431e+00
  2.710376e+01    1.308433e+00
  2.713551e+01    1.476890e+00
  2.716726e+01    1.764731e+00
  2.719901e+01    2.136367e+00
  2.723077e+01    2.385894e+00
  2.726252e+01    2.550760e+00
  2.729427e+01    2.329568e+00
  2.732602e+01    2.027717e+00
  2.735777e+01    1.645854e+00
  2.738952e+01    1.388921e+00
  2.742127e+01    1.220464e+00
  2.745302e+01    1.077909e+00
  2.748477e+01    1.030939e+00
  2.751653e+01    9.791328e-01
  2.754828e+01    9.362859e-01
  2.758003e+01    8.966445e-01
  2.761178e+01    8.857837e-01
  2.764353e+01    8.908115e-01
  2.767528e+01    8.768237e-01
  2.770703e+01    8.663538e-01
  2.773878e+01    8.365235e-01
  2.777054e+01    8.164254e-01
  2.780229e+01    8.293589e-01
  2.783404e+01    8.159868e-01
  2.786579e+01    8.112480e-01
  2.789754e+01    8.006141e-01
  2.792929e+01    8.061516e-01
  2.796104e+01    8.061398e-01
  2.799279e+01    7.973114e-01
  2.802454e+01    7.979476e-01
  2.805630e+01    8.008899e-01
  2.808805e+01    7.963961e-01
  2.811980e+01    7.866142e-01
  2.815155e+01    7.723445e-01
  2.818330e+01    7.976174e-01
  2.821505e+01    7.798732e-01
  2.824680e+01    8.143688e-01
  2.827855e+01    8.027514e-01
  2.831030e+01    7.680604e-01
  2.834206e+01    8.063230e-01
  2.837381e+01    7.645760e-01
  2.840556e+01    7.556778e-01
  2.843731e+01    7.654381e-01
  2.846906e+01    7.687386e-01
  2.850081e+01    7.616419e-01
  2.853256e+01    7.539005e-01
  2.856431e+01    7.602244e-01
  2.859606e+01    7.718600e-01
  2.862782e+01    7.515808e-01
  2.865957e+01    7.864518e-01
  2.869132e+01    7.678140e-01
  2.872307e+01    7.704561e-01
  2.875482e+01    7.394422e-01
  2.878657e+01    7.615288e-01
  2.881832e+01    7.505830e-01
  2.885007e+01    7.684834e-01
  2.888183e+01    7.459192e-01
  2.891358e+01    7.563049e-01
  2.894533e+01    7.608041e-01
  2.897708e+01    7.476953e-01
  2.900883e+01    7.217779e-01
  2.904058e+01    7.373986e-01
  2.907233e+01    7.489225e-01
  2.910408e+01    7.547317e-01
  2.913583e+01    7.711706e-01
  2.916759e+01    7.460791e-01
  2.919934e+01    7.597277e-01
  2.923109e+01    7.381698e-01
  2.926284e+01    7.556431e-01
  2.929459e+01    7.584633e-01
  2.932634e+01    7.338299e-01
  2.935809e+01    7.381233e-01
  2.938984e+01    7.371628e-01
  2.942159e+01    7.215381e-01
  2.945335e+01    7.274262e-01
  2.948510e+01    7.361698e-01
  2.951685e+01    7.234665e-01
  2.954860e+01    7.350175e-01
  2.958035e+01    7.540787e-01
  2.961210e+01    7.285389e-01
  2.964385e+01    7.212773e-01
  2.967560e+01    7.172268e-01
  2.970736e+01    7.229255e-01
  2.973911e+01    7.452987e-01
  2.977086e+01    6.925821e-01
  2.980261e+01    7.239841e-01
  2.983436e+01    7.200540e-01
  2.986611e+01    7.144063e-01
  2.989786e+01    7.233552e-01
  2.992961e+01    7.361947e-01
  2.996136e+01    7.101802e-01
  2.999312e+01    7.322482e-01
  3.002487e+01    7.400876e-01
  3.005662e+01    7.423218e-01
  3.008837e+01    7.559060e-01
  3.012012e+01    7.253901e-01
  3.015187e+01    7.369283e-01
  3.018362e+01    7.154254e-01
  3.021537e+01    7.115195e-01
  3.024712e+01    7.042976e-01
  3.027888e+01    7.039261e-01
  3.031063e+01    7.057281e-01
  3.034238e+01    7.268576e-01
  3.037413e+01    7.167259e-01
  3.040588e+01    7.275909e-01
  3.043763e+01    7.213643e-01
  3.046938e+01    7.160926e-01
  3.050113e+01    7.150773e-01
  3.053288e+01    7.212728e-01
  3.056464e+01    7.039728e-01
  3.059639e+01    7.026807e-01
  3.062814e+01    7.178528e-01
  3.065989e+01    7.191281e-01
  3.069164e+01    7.469651e-01
  3.072339e+01    7.159433e-01
  3.075514e+01    7.200593e-01
  3.078689e+01    7.005255e-01
  3.081865e+01    6.972146e-01
  3.085040e+01    7.130398e-01
  3.088215e+01    7.197413e-01
  3.091390e+01    7.264196e-01
  3.094565e+01    7.031767e-01
  3.097740e+01    7.204411e-01
  3.100915e+01    6.952749e-01
  3.104090e+01    7.271625e-01
  3.107265e+01    7.206535e-01
  3.110441e+01    7.307023e-01
  3.113616e+01    7.431417e-01
  3.116791e+01    7.389536e-01
  3.119966e+01    7.337705e-01
  3.123141e+01    7.403179e-01
  3.126316e+01    7.554567e-01
  3.129491e+01    7.259539e-01
  3.132666e+01    7.319080e-01
  3.135841e+01    7.118375e-01
  3.139017e+01    7.381464e-01
  3.142192e+01    7.720942e-01
  3.145367e+01    7.695662e-01
  3.148542e+01    7.725413e-01
  3.151717e+01    7.780559e-01
  3.154892e+01    7.986218e-01
  3.158067e+01    8.020268e-01
  3.161242e+01    8.413044e-01
  3.164418e+01    8.428957e-01
  3.167593e+01    8.691444e-01
  3.170768e+01    9.204216e-01
  3.173943e+01    1.010726e+00
  3.177118e+01    1.084708e+00
  3.180293e+01    1.209607e+00
  3.183468e+01    1.430948e+00
  3.186643e+01    1.775447e+00
  3.189818e+01    2.077920e+00
  3.192994e+01    2.397612e+00
  3.196169e+01    2.498683e+00
  3.199344e+01    2.321201e+00
  3.202519e+01    1.946744e+00
  3.205694e+01    1.560970e+00
  3.208869e+01    1.308453e+00
  3.212044e+01    1.111849e+00
  3.215219e+01    1.007304e+00
  3.218394e+01    9.388843e-01
  3.221570e+01    8.623281e-01
  3.224745e+01    8.432294e-01
  3.227920e+01    8.098045e-01
  3.231095e+01    7.804436e-01
  3.234270e+01    7.703820e-01
  3.237445e+01    7.585615e-01
  3.240620e+01    7.291445e-01
  3.243795e+01    7.245740e-01
  3.246970e+01    7.533613e-01
  3.250146e+01    7.336669e-01
  3.253321e+01    6.973537e-01
  3.254908e+01    7.279778e-01