File: XRD/Activation ramp/2024-07-27_002_Ru-CGO-ex_Activtation_ramp_000002_data_000069.dat
# == pyFAI calibration ==
# Distance Sample to Detector: 0.4 m
# PONI: 9.750e-02, 1.135e-01 m
# Rotations: -0.000175 0.000000 -0.000000 rad
#
# == Fit2d calibration ==
# Distance Sample-beamCenter: 400.000 mm
# Center: x=1514.000, y=1300.000 pix
# Tilt: 0.010 deg  TiltPlanRot: 0.010 deg
#
# Detector Detector	 Spline= None	 PixelSize= 7.500e-05, 7.500e-05 m
#    Detector has a mask: False
#    Detector has a dark current: False
#    detector has a flat field: False
#
# Wavelength: 6.888e-11 m
# Mask applied: user provided
# Dark current applied: False
# Flat field applied: False
# Polarization factor: 0.99
# Normalization factor: 1.0
# --> /home/myspot/data/2024_07_Rosario/Ru-CGO-ex/2024-07-27_002_Ru-CGO-ex_Activtation_ramp_000002_data_000069.dat
#       q_nm^-1             I
  2.003187e-02    0.000000e+00
  5.178302e-02    2.670345e-02
  8.353417e-02    1.021717e-01
  1.152853e-01    1.766353e-02
  1.470365e-01    5.639378e-02
  1.787876e-01    6.288453e-02
  2.105388e-01    3.862128e-02
  2.422899e-01    9.660430e-02
  2.740411e-01    5.178647e-02
  3.057922e-01    7.355891e-02
  3.375433e-01    5.248874e-02
  3.692945e-01    4.040553e-02
  4.010456e-01    7.089877e-02
  4.327968e-01    4.518990e-02
  4.645479e-01    2.785063e-02
  4.962991e-01    3.308350e-02
  5.280502e-01    3.419515e-02
  5.598014e-01    1.142715e-02
  5.915525e-01    4.906010e-02
  6.233037e-01    2.625046e-02
  6.550548e-01    5.056557e-02
  6.868060e-01    2.832879e-02
  7.185571e-01    5.133530e-02
  7.503083e-01    5.376862e-02
  7.820594e-01    8.469570e-02
  8.138106e-01    2.113513e-01
  8.455617e-01    2.984372e-01
  8.773129e-01    4.503849e-01
  9.090640e-01    5.774377e-01
  9.408152e-01    7.473357e-01
  9.725663e-01    8.168992e-01
  1.004317e+00    1.119166e+00
  1.036069e+00    1.182613e+00
  1.067820e+00    1.201524e+00
  1.099571e+00    1.452072e+00
  1.131322e+00    1.428572e+00
  1.163073e+00    1.551588e+00
  1.194824e+00    1.622959e+00
  1.226575e+00    2.086007e+00
  1.258327e+00    2.325830e+00
  1.290078e+00    2.455238e+00
  1.321829e+00    2.479882e+00
  1.353580e+00    2.543376e+00
  1.385331e+00    2.592875e+00
  1.417082e+00    2.727081e+00
  1.448834e+00    2.794023e+00
  1.480585e+00    2.819844e+00
  1.512336e+00    2.832910e+00
  1.544087e+00    2.976227e+00
  1.575838e+00    3.142715e+00
  1.607589e+00    2.859074e+00
  1.639340e+00    2.873414e+00
  1.671092e+00    2.974658e+00
  1.702843e+00    2.799645e+00
  1.734594e+00    2.841970e+00
  1.766345e+00    2.830907e+00
  1.798096e+00    2.921242e+00
  1.829847e+00    2.802807e+00
  1.861598e+00    2.815855e+00
  1.893350e+00    2.740593e+00
  1.925101e+00    2.767887e+00
  1.956852e+00    2.818447e+00
  1.988603e+00    2.764260e+00
  2.020354e+00    2.789843e+00
  2.052105e+00    2.679038e+00
  2.083856e+00    2.720548e+00
  2.115608e+00    2.885633e+00
  2.147359e+00    2.816790e+00
  2.179110e+00    2.763925e+00
  2.210861e+00    2.805547e+00
  2.242612e+00    2.762476e+00
  2.274363e+00    2.739898e+00
  2.306115e+00    2.902684e+00
  2.337866e+00    2.867268e+00
  2.369617e+00    2.701362e+00
  2.401368e+00    2.822569e+00
  2.433119e+00    2.800390e+00
  2.464870e+00    2.697930e+00
  2.496621e+00    2.709849e+00
  2.528373e+00    2.712487e+00
  2.560124e+00    2.803858e+00
  2.591875e+00    2.823787e+00
  2.623626e+00    2.880991e+00
  2.655377e+00    2.858317e+00
  2.687128e+00    2.838756e+00
  2.718879e+00    2.810229e+00
  2.750631e+00    2.836317e+00
  2.782382e+00    2.851272e+00
  2.814133e+00    2.936181e+00
  2.845884e+00    2.912208e+00
  2.877635e+00    2.780231e+00
  2.909386e+00    2.818445e+00
  2.941137e+00    2.773508e+00
  2.972889e+00    2.867805e+00
  3.004640e+00    2.799785e+00
  3.036391e+00    2.945581e+00
  3.068142e+00    2.960130e+00
  3.099893e+00    2.874674e+00
  3.131644e+00    2.886601e+00
  3.163395e+00    2.994214e+00
  3.195147e+00    2.889920e+00
  3.226898e+00    3.000330e+00
  3.258649e+00    2.926813e+00
  3.290400e+00    2.928384e+00
  3.322151e+00    2.998682e+00
  3.353902e+00    2.955864e+00
  3.385654e+00    2.987454e+00
  3.417405e+00    2.967652e+00
  3.449156e+00    2.933561e+00
  3.480907e+00    2.886762e+00
  3.512658e+00    2.956715e+00
  3.544409e+00    2.996837e+00
  3.576160e+00    2.995273e+00
  3.607912e+00    2.954716e+00
  3.639663e+00    2.918782e+00
  3.671414e+00    3.004714e+00
  3.703165e+00    2.896086e+00
  3.734916e+00    2.885849e+00
  3.766667e+00    3.038221e+00
  3.798418e+00    3.024992e+00
  3.830170e+00    2.935336e+00
  3.861921e+00    2.964025e+00
  3.893672e+00    2.990282e+00
  3.925423e+00    3.035458e+00
  3.957174e+00    3.008312e+00
  3.988925e+00    3.025808e+00
  4.020676e+00    2.979421e+00
  4.052428e+00    2.955367e+00
  4.084179e+00    2.949027e+00
  4.115930e+00    2.996615e+00
  4.147681e+00    3.143915e+00
  4.179432e+00    2.961918e+00
  4.211183e+00    2.992016e+00
  4.242935e+00    3.028429e+00
  4.274686e+00    3.016829e+00
  4.306437e+00    3.127167e+00
  4.338188e+00    3.000244e+00
  4.369939e+00    3.028632e+00
  4.401690e+00    3.005057e+00
  4.433441e+00    3.115905e+00
  4.465193e+00    3.128127e+00
  4.496944e+00    3.005387e+00
  4.528695e+00    2.980663e+00
  4.560446e+00    3.069961e+00
  4.592197e+00    3.027217e+00
  4.623948e+00    3.119883e+00
  4.655699e+00    2.990866e+00
  4.687451e+00    3.078653e+00
  4.719202e+00    3.053162e+00
  4.750953e+00    3.121688e+00
  4.782704e+00    3.097226e+00
  4.814455e+00    3.209373e+00
  4.846206e+00    3.123362e+00
  4.877957e+00    3.021567e+00
  4.909709e+00    3.120117e+00
  4.941460e+00    3.184121e+00
  4.973211e+00    3.100731e+00
  5.004962e+00    3.078772e+00
  5.036713e+00    3.098221e+00
  5.068464e+00    3.123413e+00
  5.100216e+00    3.115378e+00
  5.131967e+00    3.166729e+00
  5.163718e+00    3.081363e+00
  5.195469e+00    3.156548e+00
  5.227220e+00    3.120769e+00
  5.258971e+00    3.081039e+00
  5.290722e+00    3.107349e+00
  5.322474e+00    3.066612e+00
  5.354225e+00    3.098708e+00
  5.385976e+00    3.154611e+00
  5.417727e+00    3.052854e+00
  5.449478e+00    3.009991e+00
  5.481229e+00    3.047710e+00
  5.512980e+00    3.116726e+00
  5.544732e+00    3.047903e+00
  5.576483e+00    3.073422e+00
  5.608234e+00    3.101053e+00
  5.639985e+00    3.063404e+00
  5.671736e+00    3.121539e+00
  5.703487e+00    3.068745e+00
  5.735238e+00    3.039438e+00
  5.766990e+00    2.976401e+00
  5.798741e+00    3.015551e+00
  5.830492e+00    3.053874e+00
  5.862243e+00    3.002784e+00
  5.893994e+00    3.000327e+00
  5.925745e+00    2.919338e+00
  5.957497e+00    3.069944e+00
  5.989248e+00    2.953695e+00
  6.020999e+00    3.005217e+00
  6.052750e+00    2.989519e+00
  6.084501e+00    3.075367e+00
  6.116252e+00    3.091488e+00
  6.148003e+00    2.960630e+00
  6.179755e+00    3.095433e+00
  6.211506e+00    3.004445e+00
  6.243257e+00    3.108075e+00
  6.275008e+00    3.031455e+00
  6.306759e+00    2.971607e+00
  6.338510e+00    2.973363e+00
  6.370261e+00    2.968992e+00
  6.402013e+00    2.947369e+00
  6.433764e+00    3.003361e+00
  6.465515e+00    3.080729e+00
  6.497266e+00    2.983213e+00
  6.529017e+00    3.070810e+00
  6.560768e+00    3.065147e+00
  6.592519e+00    3.024173e+00
  6.624271e+00    2.975952e+00
  6.656022e+00    3.028331e+00
  6.687773e+00    3.075629e+00
  6.719524e+00    3.057559e+00
  6.751275e+00    3.063750e+00
  6.783026e+00    3.007251e+00
  6.814777e+00    3.036461e+00
  6.846529e+00    2.975415e+00
  6.878280e+00    2.971124e+00
  6.910031e+00    3.051461e+00
  6.941782e+00    3.004972e+00
  6.973533e+00    2.954509e+00
  7.005284e+00    3.034916e+00
  7.037036e+00    3.032956e+00
  7.068787e+00    2.987632e+00
  7.100538e+00    3.059004e+00
  7.132289e+00    3.021854e+00
  7.164040e+00    2.952148e+00
  7.195791e+00    3.008059e+00
  7.227542e+00    2.936271e+00
  7.259294e+00    2.965117e+00
  7.291045e+00    3.081565e+00
  7.322796e+00    2.999343e+00
  7.354547e+00    2.946888e+00
  7.386298e+00    3.018468e+00
  7.418049e+00    3.050204e+00
  7.449800e+00    2.994565e+00
  7.481552e+00    2.966107e+00
  7.513303e+00    2.950270e+00
  7.545054e+00    2.923028e+00
  7.576805e+00    2.937209e+00
  7.608556e+00    2.913938e+00
  7.640307e+00    2.867759e+00
  7.672058e+00    2.865246e+00
  7.703810e+00    2.940476e+00
  7.735561e+00    2.926160e+00
  7.767312e+00    2.950017e+00
  7.799063e+00    2.860348e+00
  7.830814e+00    2.916003e+00
  7.862565e+00    2.949633e+00
  7.894317e+00    2.908754e+00
  7.926068e+00    2.938100e+00
  7.957819e+00    2.890143e+00
  7.989570e+00    2.943759e+00
  8.021321e+00    2.907968e+00
  8.053072e+00    2.867077e+00
  8.084823e+00    2.922767e+00
  8.116575e+00    2.990080e+00
  8.148326e+00    3.045346e+00
  8.180077e+00    2.925185e+00
  8.211828e+00    3.032767e+00
  8.243579e+00    2.915665e+00
  8.275330e+00    2.888539e+00
  8.307081e+00    2.850647e+00
  8.338833e+00    2.853620e+00
  8.370584e+00    2.852124e+00
  8.402335e+00    2.939885e+00
  8.434086e+00    2.902427e+00
  8.465837e+00    2.869513e+00
  8.497588e+00    2.816905e+00
  8.529339e+00    2.867781e+00
  8.561091e+00    2.824062e+00
  8.592842e+00    2.837086e+00
  8.624593e+00    2.828729e+00
  8.656344e+00    2.827517e+00
  8.688095e+00    2.857224e+00
  8.719846e+00    2.822356e+00
  8.751598e+00    2.741931e+00
  8.783349e+00    2.875004e+00
  8.815100e+00    2.850328e+00
  8.846851e+00    2.865628e+00
  8.878602e+00    2.763371e+00
  8.910353e+00    2.816111e+00
  8.942104e+00    2.852354e+00
  8.973856e+00    2.777003e+00
  9.005607e+00    2.868251e+00
  9.037358e+00    2.832884e+00
  9.069109e+00    2.749346e+00
  9.100860e+00    2.810011e+00
  9.132611e+00    2.788001e+00
  9.164362e+00    2.855792e+00
  9.196114e+00    2.825502e+00
  9.227865e+00    2.733515e+00
  9.259616e+00    2.816399e+00
  9.291367e+00    2.767758e+00
  9.323118e+00    2.708372e+00
  9.354869e+00    2.829027e+00
  9.386620e+00    2.734045e+00
  9.418372e+00    2.702518e+00
  9.450123e+00    2.753521e+00
  9.481874e+00    2.802665e+00
  9.513625e+00    2.733793e+00
  9.545376e+00    2.741245e+00
  9.577127e+00    2.729227e+00
  9.608878e+00    2.758522e+00
  9.640630e+00    2.772027e+00
  9.672381e+00    2.730139e+00
  9.704132e+00    2.700813e+00
  9.735883e+00    2.718218e+00
  9.767634e+00    2.639278e+00
  9.799385e+00    2.686590e+00
  9.831137e+00    2.701557e+00
  9.862888e+00    2.704365e+00
  9.894639e+00    2.661782e+00
  9.926390e+00    2.638614e+00
  9.958141e+00    2.660061e+00
  9.989892e+00    2.690246e+00
  1.002164e+01    2.665695e+00
  1.005339e+01    2.619030e+00
  1.008515e+01    2.644993e+00
  1.011690e+01    2.626819e+00
  1.014865e+01    2.655002e+00
  1.018040e+01    2.634125e+00
  1.021215e+01    2.667614e+00
  1.024390e+01    2.634609e+00
  1.027565e+01    2.626472e+00
  1.030740e+01    2.608253e+00
  1.033915e+01    2.597108e+00
  1.037091e+01    2.647848e+00
  1.040266e+01    2.619980e+00
  1.043441e+01    2.665648e+00
  1.046616e+01    2.616028e+00
  1.049791e+01    2.615853e+00
  1.052966e+01    2.603556e+00
  1.056141e+01    2.651652e+00
  1.059316e+01    2.606020e+00
  1.062492e+01    2.564672e+00
  1.065667e+01    2.587885e+00
  1.068842e+01    2.525774e+00
  1.072017e+01    2.530114e+00
  1.075192e+01    2.529660e+00
  1.078367e+01    2.530766e+00
  1.081542e+01    2.558615e+00
  1.084717e+01    2.482938e+00
  1.087892e+01    2.467874e+00
  1.091068e+01    2.564805e+00
  1.094243e+01    2.461525e+00
  1.097418e+01    2.516239e+00
  1.100593e+01    2.570926e+00
  1.103768e+01    2.492020e+00
  1.106943e+01    2.495577e+00
  1.110118e+01    2.488060e+00
  1.113293e+01    2.488493e+00
  1.116468e+01    2.417065e+00
  1.119644e+01    2.503024e+00
  1.122819e+01    2.435660e+00
  1.125994e+01    2.428679e+00
  1.129169e+01    2.396296e+00
  1.132344e+01    2.446037e+00
  1.135519e+01    2.415898e+00
  1.138694e+01    2.411165e+00
  1.141869e+01    2.389581e+00
  1.145045e+01    2.429816e+00
  1.148220e+01    2.410894e+00
  1.151395e+01    2.374222e+00
  1.154570e+01    2.403607e+00
  1.157745e+01    2.397135e+00
  1.160920e+01    2.444361e+00
  1.164095e+01    2.377334e+00
  1.167270e+01    2.380364e+00
  1.170445e+01    2.374574e+00
  1.173621e+01    2.309462e+00
  1.176796e+01    2.308371e+00
  1.179971e+01    2.306091e+00
  1.183146e+01    2.362619e+00
  1.186321e+01    2.364712e+00
  1.189496e+01    2.323502e+00
  1.192671e+01    2.342403e+00
  1.195846e+01    2.311610e+00
  1.199021e+01    2.289153e+00
  1.202197e+01    2.320776e+00
  1.205372e+01    2.346909e+00
  1.208547e+01    2.324060e+00
  1.211722e+01    2.293706e+00
  1.214897e+01    2.320986e+00
  1.218072e+01    2.306535e+00
  1.221247e+01    2.337928e+00
  1.224422e+01    2.337973e+00
  1.227597e+01    2.332252e+00
  1.230773e+01    2.273987e+00
  1.233948e+01    2.319155e+00
  1.237123e+01    2.322979e+00
  1.240298e+01    2.291925e+00
  1.243473e+01    2.371186e+00
  1.246648e+01    2.337314e+00
  1.249823e+01    2.337118e+00
  1.252998e+01    2.308966e+00
  1.256174e+01    2.371304e+00
  1.259349e+01    2.342210e+00
  1.262524e+01    2.427408e+00
  1.265699e+01    2.432018e+00
  1.268874e+01    2.469983e+00
  1.272049e+01    2.494624e+00
  1.275224e+01    2.547384e+00
  1.278399e+01    2.649504e+00
  1.281574e+01    2.691063e+00
  1.284750e+01    2.767155e+00
  1.287925e+01    3.036532e+00
  1.291100e+01    3.276688e+00
  1.294275e+01    3.661479e+00
  1.297450e+01    4.287308e+00
  1.300625e+01    5.307969e+00
  1.303800e+01    6.938456e+00
  1.306975e+01    9.227618e+00
  1.310150e+01    1.212686e+01
  1.313326e+01    1.489985e+01
  1.316501e+01    1.748044e+01
  1.319676e+01    1.867174e+01
  1.322851e+01    1.632689e+01
  1.326026e+01    1.198165e+01
  1.329201e+01    8.509860e+00
  1.332376e+01    6.278167e+00
  1.335551e+01    4.908480e+00
  1.338727e+01    4.089730e+00
  1.341902e+01    3.522157e+00
  1.345077e+01    3.190734e+00
  1.348252e+01    2.883315e+00
  1.351427e+01    2.713675e+00
  1.354602e+01    2.579214e+00
  1.357777e+01    2.506871e+00
  1.360952e+01    2.402411e+00
  1.364127e+01    2.348816e+00
  1.367303e+01    2.305116e+00
  1.370478e+01    2.303768e+00
  1.373653e+01    2.222875e+00
  1.376828e+01    2.205785e+00
  1.380003e+01    2.144466e+00
  1.383178e+01    2.155170e+00
  1.386353e+01    2.149526e+00
  1.389528e+01    2.122347e+00
  1.392703e+01    2.112939e+00
  1.395879e+01    2.047282e+00
  1.399054e+01    2.044847e+00
  1.402229e+01    2.047400e+00
  1.405404e+01    2.038750e+00
  1.408579e+01    1.999799e+00
  1.411754e+01    1.992855e+00
  1.414929e+01    1.979536e+00
  1.418104e+01    1.980264e+00
  1.421279e+01    1.976161e+00
  1.424455e+01    1.908749e+00
  1.427630e+01    1.966976e+00
  1.430805e+01    1.994857e+00
  1.433980e+01    1.984181e+00
  1.437155e+01    1.971079e+00
  1.440330e+01    1.947854e+00
  1.443505e+01    1.914531e+00
  1.446680e+01    1.957974e+00
  1.449856e+01    1.935452e+00
  1.453031e+01    1.934375e+00
  1.456206e+01    1.927788e+00
  1.459381e+01    1.933993e+00
  1.462556e+01    1.941353e+00
  1.465731e+01    1.960609e+00
  1.468906e+01    1.882693e+00
  1.472081e+01    1.911978e+00
  1.475256e+01    1.929786e+00
  1.478432e+01    1.912203e+00
  1.481607e+01    1.938361e+00
  1.484782e+01    1.918616e+00
  1.487957e+01    1.967554e+00
  1.491132e+01    1.975202e+00
  1.494307e+01    1.994665e+00
  1.497482e+01    2.049050e+00
  1.500657e+01    2.100822e+00
  1.503832e+01    2.271552e+00
  1.507008e+01    2.505751e+00
  1.510183e+01    2.802388e+00
  1.513358e+01    3.308358e+00
  1.516533e+01    4.077796e+00
  1.519708e+01    4.894890e+00
  1.522883e+01    5.602045e+00
  1.526058e+01    6.113957e+00
  1.529233e+01    6.193440e+00
  1.532409e+01    5.645748e+00
  1.535584e+01    4.411243e+00
  1.538759e+01    3.472002e+00
  1.541934e+01    2.887558e+00
  1.545109e+01    2.482277e+00
  1.548284e+01    2.254363e+00
  1.551459e+01    2.084624e+00
  1.554634e+01    2.014642e+00
  1.557809e+01    1.883664e+00
  1.560985e+01    1.857048e+00
  1.564160e+01    1.836068e+00
  1.567335e+01    1.794777e+00
  1.570510e+01    1.756730e+00
  1.573685e+01    1.675981e+00
  1.576860e+01    1.715084e+00
  1.580035e+01    1.692673e+00
  1.583210e+01    1.673328e+00
  1.586385e+01    1.638487e+00
  1.589561e+01    1.622455e+00
  1.592736e+01    1.648664e+00
  1.595911e+01    1.661457e+00
  1.599086e+01    1.631613e+00
  1.602261e+01    1.579197e+00
  1.605436e+01    1.616301e+00
  1.608611e+01    1.616250e+00
  1.611786e+01    1.591230e+00
  1.614961e+01    1.607915e+00
  1.618137e+01    1.592835e+00
  1.621312e+01    1.539051e+00
  1.624487e+01    1.564730e+00
  1.627662e+01    1.539059e+00
  1.630837e+01    1.553735e+00
  1.634012e+01    1.525876e+00
  1.637187e+01    1.543852e+00
  1.640362e+01    1.504310e+00
  1.643538e+01    1.489243e+00
  1.646713e+01    1.544349e+00
  1.649888e+01    1.512161e+00
  1.653063e+01    1.464886e+00
  1.656238e+01    1.512979e+00
  1.659413e+01    1.486078e+00
  1.662588e+01    1.491273e+00
  1.665763e+01    1.473462e+00
  1.668938e+01    1.449640e+00
  1.672114e+01    1.445272e+00
  1.675289e+01    1.471642e+00
  1.678464e+01    1.455733e+00
  1.681639e+01    1.463057e+00
  1.684814e+01    1.485389e+00
  1.687989e+01    1.430032e+00
  1.691164e+01    1.448087e+00
  1.694339e+01    1.438009e+00
  1.697514e+01    1.448271e+00
  1.700690e+01    1.440920e+00
  1.703865e+01    1.405807e+00
  1.707040e+01    1.433682e+00
  1.710215e+01    1.449363e+00
  1.713390e+01    1.411353e+00
  1.716565e+01    1.412406e+00
  1.719740e+01    1.391032e+00
  1.722915e+01    1.367367e+00
  1.726091e+01    1.394244e+00
  1.729266e+01    1.383988e+00
  1.732441e+01    1.371557e+00
  1.735616e+01    1.378953e+00
  1.738791e+01    1.389022e+00
  1.741966e+01    1.350806e+00
  1.745141e+01    1.345449e+00
  1.748316e+01    1.372995e+00
  1.751491e+01    1.362188e+00
  1.754667e+01    1.358712e+00
  1.757842e+01    1.345842e+00
  1.761017e+01    1.370536e+00
  1.764192e+01    1.327452e+00
  1.767367e+01    1.354714e+00
  1.770542e+01    1.343776e+00
  1.773717e+01    1.336207e+00
  1.776892e+01    1.319680e+00
  1.780067e+01    1.346603e+00
  1.783243e+01    1.327397e+00
  1.786418e+01    1.351599e+00
  1.789593e+01    1.334143e+00
  1.792768e+01    1.335805e+00
  1.795943e+01    1.308834e+00
  1.799118e+01    1.264725e+00
  1.802293e+01    1.280663e+00
  1.805468e+01    1.295930e+00
  1.808643e+01    1.288830e+00
  1.811819e+01    1.281539e+00
  1.814994e+01    1.300996e+00
  1.818169e+01    1.277500e+00
  1.821344e+01    1.286284e+00
  1.824519e+01    1.264601e+00
  1.827694e+01    1.257710e+00
  1.830869e+01    1.267837e+00
  1.834044e+01    1.273197e+00
  1.837220e+01    1.265043e+00
  1.840395e+01    1.255962e+00
  1.843570e+01    1.242537e+00
  1.846745e+01    1.245186e+00
  1.849920e+01    1.243896e+00
  1.853095e+01    1.234207e+00
  1.856270e+01    1.221767e+00
  1.859445e+01    1.231074e+00
  1.862620e+01    1.238420e+00
  1.865796e+01    1.275546e+00
  1.868971e+01    1.216096e+00
  1.872146e+01    1.252423e+00
  1.875321e+01    1.202465e+00
  1.878496e+01    1.199913e+00
  1.881671e+01    1.249643e+00
  1.884846e+01    1.191498e+00
  1.888021e+01    1.220271e+00
  1.891196e+01    1.197317e+00
  1.894372e+01    1.208651e+00
  1.897547e+01    1.194915e+00
  1.900722e+01    1.216343e+00
  1.903897e+01    1.158467e+00
  1.907072e+01    1.177134e+00
  1.910247e+01    1.208800e+00
  1.913422e+01    1.217510e+00
  1.916597e+01    1.206343e+00
  1.919773e+01    1.178530e+00
  1.922948e+01    1.214911e+00
  1.926123e+01    1.190398e+00
  1.929298e+01    1.164920e+00
  1.932473e+01    1.186010e+00
  1.935648e+01    1.167596e+00
  1.938823e+01    1.172608e+00
  1.941998e+01    1.149577e+00
  1.945173e+01    1.157036e+00
  1.948349e+01    1.157216e+00
  1.951524e+01    1.155239e+00
  1.954699e+01    1.163776e+00
  1.957874e+01    1.159385e+00
  1.961049e+01    1.163797e+00
  1.964224e+01    1.172727e+00
  1.967399e+01    1.136675e+00
  1.970574e+01    1.146126e+00
  1.973749e+01    1.169944e+00
  1.976925e+01    1.137596e+00
  1.980100e+01    1.129636e+00
  1.983275e+01    1.149862e+00
  1.986450e+01    1.137019e+00
  1.989625e+01    1.110089e+00
  1.992800e+01    1.120142e+00
  1.995975e+01    1.119389e+00
  1.999150e+01    1.123927e+00
  2.002325e+01    1.124756e+00
  2.005501e+01    1.114531e+00
  2.008676e+01    1.123542e+00
  2.011851e+01    1.094812e+00
  2.015026e+01    1.117566e+00
  2.018201e+01    1.129425e+00
  2.021376e+01    1.116291e+00
  2.024551e+01    1.111357e+00
  2.027726e+01    1.103740e+00
  2.030902e+01    1.076810e+00
  2.034077e+01    1.084893e+00
  2.037252e+01    1.083680e+00
  2.040427e+01    1.101580e+00
  2.043602e+01    1.092763e+00
  2.046777e+01    1.095237e+00
  2.049952e+01    1.104041e+00
  2.053127e+01    1.083990e+00
  2.056302e+01    1.091606e+00
  2.059478e+01    1.102090e+00
  2.062653e+01    1.093681e+00
  2.065828e+01    1.088853e+00
  2.069003e+01    1.077664e+00
  2.072178e+01    1.042809e+00
  2.075353e+01    1.078693e+00
  2.078528e+01    1.054182e+00
  2.081703e+01    1.095265e+00
  2.084878e+01    1.073256e+00
  2.088054e+01    1.094580e+00
  2.091229e+01    1.100995e+00
  2.094404e+01    1.101065e+00
  2.097579e+01    1.105375e+00
  2.100754e+01    1.074070e+00
  2.103929e+01    1.080431e+00
  2.107104e+01    1.092898e+00
  2.110279e+01    1.094385e+00
  2.113455e+01    1.086857e+00
  2.116630e+01    1.083049e+00
  2.119805e+01    1.091927e+00
  2.122980e+01    1.100230e+00
  2.126155e+01    1.120467e+00
  2.129330e+01    1.094222e+00
  2.132505e+01    1.135850e+00
  2.135680e+01    1.150487e+00
  2.138855e+01    1.162169e+00
  2.142031e+01    1.195632e+00
  2.145206e+01    1.227284e+00
  2.148381e+01    1.237967e+00
  2.151556e+01    1.276386e+00
  2.154731e+01    1.391964e+00
  2.157906e+01    1.479258e+00
  2.161081e+01    1.583410e+00
  2.164256e+01    1.754503e+00
  2.167431e+01    1.972979e+00
  2.170607e+01    2.415213e+00
  2.173782e+01    2.984710e+00
  2.176957e+01    3.858968e+00
  2.180132e+01    5.145462e+00
  2.183307e+01    6.684082e+00
  2.186482e+01    8.291082e+00
  2.189657e+01    9.758738e+00
  2.192832e+01    1.027406e+01
  2.196007e+01    9.108424e+00
  2.199183e+01    6.941354e+00
  2.202358e+01    5.016458e+00
  2.205533e+01    3.630432e+00
  2.208708e+01    2.822074e+00
  2.211883e+01    2.245903e+00
  2.215058e+01    1.918908e+00
  2.218233e+01    1.690206e+00
  2.221408e+01    1.497049e+00
  2.224584e+01    1.394882e+00
  2.227759e+01    1.305804e+00
  2.230934e+01    1.244654e+00
  2.234109e+01    1.201046e+00
  2.237284e+01    1.167590e+00
  2.240459e+01    1.140216e+00
  2.243634e+01    1.073415e+00
  2.246809e+01    1.070519e+00
  2.249984e+01    1.066798e+00
  2.253160e+01    1.025256e+00
  2.256335e+01    1.029306e+00
  2.259510e+01    1.014898e+00
  2.262685e+01    9.900343e-01
  2.265860e+01    9.757664e-01
  2.269035e+01    9.711640e-01
  2.272210e+01    9.619610e-01
  2.275385e+01    9.495475e-01
  2.278560e+01    8.992664e-01
  2.281736e+01    9.339704e-01
  2.284911e+01    9.464893e-01
  2.288086e+01    9.184397e-01
  2.291261e+01    9.032136e-01
  2.294436e+01    9.063423e-01
  2.297611e+01    9.082513e-01
  2.300786e+01    8.985051e-01
  2.303961e+01    8.938056e-01
  2.307137e+01    9.244961e-01
  2.310312e+01    8.924814e-01
  2.313487e+01    8.917521e-01
  2.316662e+01    8.897412e-01
  2.319837e+01    8.564485e-01
  2.323012e+01    8.858458e-01
  2.326187e+01    8.798224e-01
  2.329362e+01    8.630545e-01
  2.332537e+01    8.656621e-01
  2.335713e+01    8.570523e-01
  2.338888e+01    8.715462e-01
  2.342063e+01    8.275941e-01
  2.345238e+01    8.558667e-01
  2.348413e+01    8.645431e-01
  2.351588e+01    8.412463e-01
  2.354763e+01    8.483208e-01
  2.357938e+01    8.469298e-01
  2.361113e+01    8.743700e-01
  2.364289e+01    8.574216e-01
  2.367464e+01    8.461754e-01
  2.370639e+01    8.068596e-01
  2.373814e+01    8.266805e-01
  2.376989e+01    8.251638e-01
  2.380164e+01    8.144213e-01
  2.383339e+01    8.115464e-01
  2.386514e+01    8.071619e-01
  2.389689e+01    8.104920e-01
  2.392865e+01    8.079560e-01
  2.396040e+01    8.021229e-01
  2.399215e+01    7.847782e-01
  2.402390e+01    8.003816e-01
  2.405565e+01    8.017896e-01
  2.408740e+01    7.819540e-01
  2.411915e+01    7.639380e-01
  2.415090e+01    7.936852e-01
  2.418266e+01    8.109735e-01
  2.421441e+01    7.954528e-01
  2.424616e+01    8.156502e-01
  2.427791e+01    7.927095e-01
  2.430966e+01    8.066103e-01
  2.434141e+01    8.062372e-01
  2.437316e+01    7.983796e-01
  2.440491e+01    7.956326e-01
  2.443666e+01    7.803794e-01
  2.446842e+01    7.857550e-01
  2.450017e+01    7.845387e-01
  2.453192e+01    8.037830e-01
  2.456367e+01    7.779915e-01
  2.459542e+01    8.091744e-01
  2.462717e+01    7.845294e-01
  2.465892e+01    7.979088e-01
  2.469067e+01    7.839965e-01
  2.472242e+01    7.918671e-01
  2.475418e+01    7.982065e-01
  2.478593e+01    7.916821e-01
  2.481768e+01    7.877808e-01
  2.484943e+01    7.962126e-01
  2.488118e+01    8.081197e-01
  2.491293e+01    8.103849e-01
  2.494468e+01    7.953306e-01
  2.497643e+01    7.856043e-01
  2.500819e+01    8.056808e-01
  2.503994e+01    8.085372e-01
  2.507169e+01    7.879342e-01
  2.510344e+01    8.250026e-01
  2.513519e+01    8.143471e-01
  2.516694e+01    8.181789e-01
  2.519869e+01    8.455693e-01
  2.523044e+01    8.352506e-01
  2.526219e+01    8.698637e-01
  2.529395e+01    8.701969e-01
  2.532570e+01    8.625615e-01
  2.535745e+01    8.653158e-01
  2.538920e+01    9.031861e-01
  2.542095e+01    8.976115e-01
  2.545270e+01    9.354495e-01
  2.548445e+01    9.360845e-01
  2.551620e+01    9.892981e-01
  2.554795e+01    1.061102e+00
  2.557971e+01    1.045531e+00
  2.561146e+01    1.103660e+00
  2.564321e+01    1.196411e+00
  2.567496e+01    1.274665e+00
  2.570671e+01    1.442472e+00
  2.573846e+01    1.638485e+00
  2.577021e+01    1.922264e+00
  2.580196e+01    2.363842e+00
  2.583371e+01    2.996691e+00
  2.586547e+01    3.957702e+00
  2.589722e+01    5.251832e+00
  2.592897e+01    6.660451e+00
  2.596072e+01    7.936268e+00
  2.599247e+01    8.503492e+00
  2.602422e+01    7.784167e+00
  2.605597e+01    6.164542e+00
  2.608772e+01    4.556496e+00
  2.611948e+01    3.331449e+00
  2.615123e+01    2.584002e+00
  2.618298e+01    2.047124e+00
  2.621473e+01    1.726114e+00
  2.624648e+01    1.513652e+00
  2.627823e+01    1.339535e+00
  2.630998e+01    1.228866e+00
  2.634173e+01    1.114364e+00
  2.637348e+01    1.108804e+00
  2.640524e+01    1.042868e+00
  2.643699e+01    1.051279e+00
  2.646874e+01    9.674572e-01
  2.650049e+01    9.823154e-01
  2.653224e+01    9.287339e-01
  2.656399e+01    9.595846e-01
  2.659574e+01    9.151710e-01
  2.662749e+01    9.173281e-01
  2.665924e+01    9.083707e-01
  2.669100e+01    9.134893e-01
  2.672275e+01    9.260906e-01
  2.675450e+01    9.139940e-01
  2.678625e+01    9.138183e-01
  2.681800e+01    9.144256e-01
  2.684975e+01    8.963051e-01
  2.688150e+01    8.938478e-01
  2.691325e+01    9.333194e-01
  2.694501e+01    9.407201e-01
  2.697676e+01    9.708967e-01
  2.700851e+01    1.025389e+00
  2.704026e+01    1.061532e+00
  2.707201e+01    1.162312e+00
  2.710376e+01    1.291345e+00
  2.713551e+01    1.539296e+00
  2.716726e+01    1.783018e+00
  2.719901e+01    2.108536e+00
  2.723077e+01    2.420332e+00
  2.726252e+01    2.469426e+00
  2.729427e+01    2.217595e+00
  2.732602e+01    1.873096e+00
  2.735777e+01    1.544175e+00
  2.738952e+01    1.274513e+00
  2.742127e+01    1.151768e+00
  2.745302e+01    1.072571e+00
  2.748477e+01    1.003305e+00
  2.751653e+01    9.376405e-01
  2.754828e+01    9.181945e-01
  2.758003e+01    9.077947e-01
  2.761178e+01    8.626034e-01
  2.764353e+01    8.442189e-01
  2.767528e+01    8.656585e-01
  2.770703e+01    8.194961e-01
  2.773878e+01    8.567954e-01
  2.777054e+01    8.069682e-01
  2.780229e+01    8.185807e-01
  2.783404e+01    8.169091e-01
  2.786579e+01    8.078284e-01
  2.789754e+01    8.103245e-01
  2.792929e+01    7.899368e-01
  2.796104e+01    8.104407e-01
  2.799279e+01    8.055454e-01
  2.802454e+01    8.129423e-01
  2.805630e+01    8.005710e-01
  2.808805e+01    7.821764e-01
  2.811980e+01    7.922997e-01
  2.815155e+01    7.882357e-01
  2.818330e+01    7.898951e-01
  2.821505e+01    7.688971e-01
  2.824680e+01    7.854122e-01
  2.827855e+01    7.856603e-01
  2.831030e+01    7.779195e-01
  2.834206e+01    7.841247e-01
  2.837381e+01    7.741601e-01
  2.840556e+01    7.697196e-01
  2.843731e+01    7.770754e-01
  2.846906e+01    7.556612e-01
  2.850081e+01    7.439739e-01
  2.853256e+01    7.706284e-01
  2.856431e+01    7.454202e-01
  2.859606e+01    7.768074e-01
  2.862782e+01    7.659370e-01
  2.865957e+01    7.606211e-01
  2.869132e+01    7.462996e-01
  2.872307e+01    7.693084e-01
  2.875482e+01    7.567123e-01
  2.878657e+01    7.347993e-01
  2.881832e+01    7.633319e-01
  2.885007e+01    7.496456e-01
  2.888183e+01    7.319854e-01
  2.891358e+01    7.442517e-01
  2.894533e+01    7.487366e-01
  2.897708e+01    7.541116e-01
  2.900883e+01    7.357944e-01
  2.904058e+01    7.259277e-01
  2.907233e+01    7.589151e-01
  2.910408e+01    7.341076e-01
  2.913583e+01    7.442675e-01
  2.916759e+01    7.340908e-01
  2.919934e+01    7.437488e-01
  2.923109e+01    7.341452e-01
  2.926284e+01    7.230970e-01
  2.929459e+01    7.464483e-01
  2.932634e+01    7.506388e-01
  2.935809e+01    7.290570e-01
  2.938984e+01    7.447392e-01
  2.942159e+01    7.442851e-01
  2.945335e+01    7.224416e-01
  2.948510e+01    7.473341e-01
  2.951685e+01    7.330666e-01
  2.954860e+01    7.386588e-01
  2.958035e+01    7.254949e-01
  2.961210e+01    7.091819e-01
  2.964385e+01    7.173579e-01
  2.967560e+01    7.118581e-01
  2.970736e+01    7.393768e-01
  2.973911e+01    7.158487e-01
  2.977086e+01    7.177699e-01
  2.980261e+01    7.193467e-01
  2.983436e+01    7.183087e-01
  2.986611e+01    7.297124e-01
  2.989786e+01    7.071300e-01
  2.992961e+01    7.329428e-01
  2.996136e+01    7.246628e-01
  2.999312e+01    7.128908e-01
  3.002487e+01    7.232554e-01
  3.005662e+01    7.324281e-01
  3.008837e+01    7.452306e-01
  3.012012e+01    7.216853e-01
  3.015187e+01    7.428077e-01
  3.018362e+01    7.053894e-01
  3.021537e+01    7.074376e-01
  3.024712e+01    7.351323e-01
  3.027888e+01    7.341532e-01
  3.031063e+01    7.272609e-01
  3.034238e+01    7.005368e-01
  3.037413e+01    7.030154e-01
  3.040588e+01    7.243460e-01
  3.043763e+01    7.156679e-01
  3.046938e+01    6.904356e-01
  3.050113e+01    7.153556e-01
  3.053288e+01    7.085460e-01
  3.056464e+01    6.736993e-01
  3.059639e+01    7.126947e-01
  3.062814e+01    7.232457e-01
  3.065989e+01    7.053227e-01
  3.069164e+01    7.193825e-01
  3.072339e+01    7.027999e-01
  3.075514e+01    7.191446e-01
  3.078689e+01    7.176226e-01
  3.081865e+01    7.222541e-01
  3.085040e+01    7.193114e-01
  3.088215e+01    7.341535e-01
  3.091390e+01    7.119213e-01
  3.094565e+01    6.922496e-01
  3.097740e+01    7.280797e-01
  3.100915e+01    7.226957e-01
  3.104090e+01    7.202109e-01
  3.107265e+01    7.179852e-01
  3.110441e+01    7.109891e-01
  3.113616e+01    6.997086e-01
  3.116791e+01    7.255242e-01
  3.119966e+01    7.563733e-01
  3.123141e+01    7.173191e-01
  3.126316e+01    7.295489e-01
  3.129491e+01    7.083786e-01
  3.132666e+01    7.495107e-01
  3.135841e+01    7.247556e-01
  3.139017e+01    7.516373e-01
  3.142192e+01    7.379041e-01
  3.145367e+01    7.617325e-01
  3.148542e+01    7.664470e-01
  3.151717e+01    7.935476e-01
  3.154892e+01    7.777212e-01
  3.158067e+01    7.967812e-01
  3.161242e+01    8.117793e-01
  3.164418e+01    8.165327e-01
  3.167593e+01    8.783074e-01
  3.170768e+01    9.209324e-01
  3.173943e+01    9.909939e-01
  3.177118e+01    1.100463e+00
  3.180293e+01    1.248851e+00
  3.183468e+01    1.491575e+00
  3.186643e+01    1.803702e+00
  3.189818e+01    2.157326e+00
  3.192994e+01    2.404494e+00
  3.196169e+01    2.412516e+00
  3.199344e+01    2.108488e+00
  3.202519e+01    1.780290e+00
  3.205694e+01    1.491147e+00
  3.208869e+01    1.217981e+00
  3.212044e+01    1.064586e+00
  3.215219e+01    9.694726e-01
  3.218394e+01    8.955404e-01
  3.221570e+01    8.507060e-01
  3.224745e+01    8.428585e-01
  3.227920e+01    8.299659e-01
  3.231095e+01    7.667968e-01
  3.234270e+01    7.552103e-01
  3.237445e+01    7.401130e-01
  3.240620e+01    7.486209e-01
  3.243795e+01    7.475548e-01
  3.246970e+01    7.339441e-01
  3.250146e+01    7.298567e-01
  3.253321e+01    7.506950e-01
  3.254908e+01    7.265376e-01