File: XRD/Activation ramp/2024-07-27_002_Ru-CGO-ex_Activtation_ramp_000002_data_000058.dat
# == pyFAI calibration ==
# Distance Sample to Detector: 0.4 m
# PONI: 9.750e-02, 1.135e-01 m
# Rotations: -0.000175 0.000000 -0.000000 rad
#
# == Fit2d calibration ==
# Distance Sample-beamCenter: 400.000 mm
# Center: x=1514.000, y=1300.000 pix
# Tilt: 0.010 deg  TiltPlanRot: 0.010 deg
#
# Detector Detector	 Spline= None	 PixelSize= 7.500e-05, 7.500e-05 m
#    Detector has a mask: False
#    Detector has a dark current: False
#    detector has a flat field: False
#
# Wavelength: 6.888e-11 m
# Mask applied: user provided
# Dark current applied: False
# Flat field applied: False
# Polarization factor: 0.99
# Normalization factor: 1.0
# --> /home/myspot/data/2024_07_Rosario/Ru-CGO-ex/2024-07-27_002_Ru-CGO-ex_Activtation_ramp_000002_data_000058.dat
#       q_nm^-1             I
  2.003187e-02    0.000000e+00
  5.178302e-02    0.000000e+00
  8.353417e-02    1.295189e-01
  1.152853e-01    2.774562e-02
  1.470365e-01    4.347399e-02
  1.787876e-01    5.610349e-02
  2.105388e-01    1.902712e-02
  2.422899e-01    5.815528e-02
  2.740411e-01    5.640860e-02
  3.057922e-01    5.371651e-02
  3.375433e-01    4.980373e-02
  3.692945e-01    4.202260e-02
  4.010456e-01    5.526656e-02
  4.327968e-01    1.823884e-02
  4.645479e-01    6.713897e-02
  4.962991e-01    3.553495e-02
  5.280502e-01    3.022700e-02
  5.598014e-01    3.444082e-02
  5.915525e-01    2.437387e-02
  6.233037e-01    6.881096e-02
  6.550548e-01    3.851649e-02
  6.868060e-01    2.621675e-02
  7.185571e-01    3.106467e-02
  7.503083e-01    5.541602e-02
  7.820594e-01    1.329223e-01
  8.138106e-01    1.893194e-01
  8.455617e-01    2.717312e-01
  8.773129e-01    4.434174e-01
  9.090640e-01    7.681881e-01
  9.408152e-01    7.055451e-01
  9.725663e-01    8.216137e-01
  1.004317e+00    1.064378e+00
  1.036069e+00    1.198675e+00
  1.067820e+00    1.294001e+00
  1.099571e+00    1.421934e+00
  1.131322e+00    1.378615e+00
  1.163073e+00    1.638459e+00
  1.194824e+00    1.678582e+00
  1.226575e+00    2.012491e+00
  1.258327e+00    2.271149e+00
  1.290078e+00    2.568772e+00
  1.321829e+00    2.578810e+00
  1.353580e+00    2.653338e+00
  1.385331e+00    2.802070e+00
  1.417082e+00    2.617639e+00
  1.448834e+00    2.950918e+00
  1.480585e+00    2.837026e+00
  1.512336e+00    2.949177e+00
  1.544087e+00    3.111936e+00
  1.575838e+00    3.162026e+00
  1.607589e+00    2.738635e+00
  1.639340e+00    2.985945e+00
  1.671092e+00    2.846654e+00
  1.702843e+00    2.774347e+00
  1.734594e+00    3.011518e+00
  1.766345e+00    2.868982e+00
  1.798096e+00    2.814419e+00
  1.829847e+00    2.766425e+00
  1.861598e+00    2.932674e+00
  1.893350e+00    2.838506e+00
  1.925101e+00    2.709425e+00
  1.956852e+00    2.818006e+00
  1.988603e+00    2.759901e+00
  2.020354e+00    2.835144e+00
  2.052105e+00    2.853587e+00
  2.083856e+00    2.803071e+00
  2.115608e+00    2.735498e+00
  2.147359e+00    2.754596e+00
  2.179110e+00    2.865507e+00
  2.210861e+00    2.748728e+00
  2.242612e+00    2.661141e+00
  2.274363e+00    2.788795e+00
  2.306115e+00    2.822139e+00
  2.337866e+00    2.846830e+00
  2.369617e+00    2.842674e+00
  2.401368e+00    2.729256e+00
  2.433119e+00    2.826317e+00
  2.464870e+00    2.918431e+00
  2.496621e+00    2.832873e+00
  2.528373e+00    2.834469e+00
  2.560124e+00    2.808407e+00
  2.591875e+00    2.617563e+00
  2.623626e+00    2.793408e+00
  2.655377e+00    2.768748e+00
  2.687128e+00    2.810422e+00
  2.718879e+00    2.808549e+00
  2.750631e+00    2.809263e+00
  2.782382e+00    2.876945e+00
  2.814133e+00    2.866900e+00
  2.845884e+00    2.925187e+00
  2.877635e+00    2.785555e+00
  2.909386e+00    2.951986e+00
  2.941137e+00    2.831764e+00
  2.972889e+00    2.906415e+00
  3.004640e+00    2.938270e+00
  3.036391e+00    2.986304e+00
  3.068142e+00    2.836754e+00
  3.099893e+00    2.958844e+00
  3.131644e+00    2.931512e+00
  3.163395e+00    2.856732e+00
  3.195147e+00    2.974736e+00
  3.226898e+00    2.981246e+00
  3.258649e+00    2.863586e+00
  3.290400e+00    2.947561e+00
  3.322151e+00    2.906493e+00
  3.353902e+00    3.015022e+00
  3.385654e+00    2.973759e+00
  3.417405e+00    2.960164e+00
  3.449156e+00    2.996283e+00
  3.480907e+00    2.974270e+00
  3.512658e+00    2.833738e+00
  3.544409e+00    3.020672e+00
  3.576160e+00    2.964425e+00
  3.607912e+00    3.019577e+00
  3.639663e+00    2.950850e+00
  3.671414e+00    2.887016e+00
  3.703165e+00    2.905190e+00
  3.734916e+00    3.018301e+00
  3.766667e+00    3.030260e+00
  3.798418e+00    3.011734e+00
  3.830170e+00    3.008053e+00
  3.861921e+00    3.046487e+00
  3.893672e+00    3.135881e+00
  3.925423e+00    3.047202e+00
  3.957174e+00    3.092032e+00
  3.988925e+00    3.053638e+00
  4.020676e+00    3.016725e+00
  4.052428e+00    3.062282e+00
  4.084179e+00    3.116221e+00
  4.115930e+00    3.016913e+00
  4.147681e+00    2.979220e+00
  4.179432e+00    3.083347e+00
  4.211183e+00    3.066936e+00
  4.242935e+00    3.015536e+00
  4.274686e+00    2.930086e+00
  4.306437e+00    3.014056e+00
  4.338188e+00    3.093287e+00
  4.369939e+00    3.071271e+00
  4.401690e+00    3.109840e+00
  4.433441e+00    3.026753e+00
  4.465193e+00    3.090795e+00
  4.496944e+00    3.059348e+00
  4.528695e+00    3.031282e+00
  4.560446e+00    3.058907e+00
  4.592197e+00    2.999376e+00
  4.623948e+00    3.071512e+00
  4.655699e+00    3.116319e+00
  4.687451e+00    3.147867e+00
  4.719202e+00    3.040970e+00
  4.750953e+00    3.216375e+00
  4.782704e+00    3.117995e+00
  4.814455e+00    3.139789e+00
  4.846206e+00    3.138732e+00
  4.877957e+00    3.130149e+00
  4.909709e+00    3.124988e+00
  4.941460e+00    3.116937e+00
  4.973211e+00    3.094075e+00
  5.004962e+00    3.143388e+00
  5.036713e+00    3.071205e+00
  5.068464e+00    3.211304e+00
  5.100216e+00    3.100039e+00
  5.131967e+00    3.119022e+00
  5.163718e+00    3.175326e+00
  5.195469e+00    3.177184e+00
  5.227220e+00    3.109385e+00
  5.258971e+00    3.082946e+00
  5.290722e+00    3.126578e+00
  5.322474e+00    3.158619e+00
  5.354225e+00    3.222980e+00
  5.385976e+00    3.109819e+00
  5.417727e+00    3.115752e+00
  5.449478e+00    3.040071e+00
  5.481229e+00    3.025412e+00
  5.512980e+00    3.051985e+00
  5.544732e+00    3.086973e+00
  5.576483e+00    3.084442e+00
  5.608234e+00    3.161211e+00
  5.639985e+00    3.102974e+00
  5.671736e+00    3.054908e+00
  5.703487e+00    2.979453e+00
  5.735238e+00    3.094541e+00
  5.766990e+00    3.032807e+00
  5.798741e+00    3.077213e+00
  5.830492e+00    3.008167e+00
  5.862243e+00    2.971814e+00
  5.893994e+00    3.030062e+00
  5.925745e+00    3.042623e+00
  5.957497e+00    3.052988e+00
  5.989248e+00    3.060918e+00
  6.020999e+00    3.039084e+00
  6.052750e+00    3.052267e+00
  6.084501e+00    3.104208e+00
  6.116252e+00    3.070142e+00
  6.148003e+00    3.099985e+00
  6.179755e+00    3.014446e+00
  6.211506e+00    3.104280e+00
  6.243257e+00    3.132467e+00
  6.275008e+00    3.026252e+00
  6.306759e+00    3.006815e+00
  6.338510e+00    3.065204e+00
  6.370261e+00    3.038361e+00
  6.402013e+00    2.996535e+00
  6.433764e+00    3.038309e+00
  6.465515e+00    2.982870e+00
  6.497266e+00    3.009364e+00
  6.529017e+00    3.075277e+00
  6.560768e+00    3.045902e+00
  6.592519e+00    3.077448e+00
  6.624271e+00    3.103870e+00
  6.656022e+00    2.999774e+00
  6.687773e+00    3.036327e+00
  6.719524e+00    3.062399e+00
  6.751275e+00    3.050167e+00
  6.783026e+00    3.066708e+00
  6.814777e+00    3.065113e+00
  6.846529e+00    3.031023e+00
  6.878280e+00    3.029320e+00
  6.910031e+00    3.075879e+00
  6.941782e+00    2.965120e+00
  6.973533e+00    2.990528e+00
  7.005284e+00    3.019150e+00
  7.037036e+00    2.996227e+00
  7.068787e+00    2.993043e+00
  7.100538e+00    3.077489e+00
  7.132289e+00    3.011018e+00
  7.164040e+00    2.994816e+00
  7.195791e+00    3.026840e+00
  7.227542e+00    2.995834e+00
  7.259294e+00    3.049036e+00
  7.291045e+00    3.035513e+00
  7.322796e+00    3.022518e+00
  7.354547e+00    3.030127e+00
  7.386298e+00    3.006786e+00
  7.418049e+00    2.993413e+00
  7.449800e+00    3.034659e+00
  7.481552e+00    2.957422e+00
  7.513303e+00    2.967206e+00
  7.545054e+00    3.020147e+00
  7.576805e+00    2.957283e+00
  7.608556e+00    3.010450e+00
  7.640307e+00    2.980839e+00
  7.672058e+00    2.970196e+00
  7.703810e+00    2.947314e+00
  7.735561e+00    3.021954e+00
  7.767312e+00    2.920327e+00
  7.799063e+00    2.924965e+00
  7.830814e+00    2.918582e+00
  7.862565e+00    2.960987e+00
  7.894317e+00    2.884505e+00
  7.926068e+00    2.930834e+00
  7.957819e+00    2.930441e+00
  7.989570e+00    2.934334e+00
  8.021321e+00    2.840638e+00
  8.053072e+00    2.861872e+00
  8.084823e+00    2.921023e+00
  8.116575e+00    2.979504e+00
  8.148326e+00    2.944171e+00
  8.180077e+00    2.955853e+00
  8.211828e+00    3.017719e+00
  8.243579e+00    2.923708e+00
  8.275330e+00    2.968179e+00
  8.307081e+00    2.948819e+00
  8.338833e+00    2.871536e+00
  8.370584e+00    2.907536e+00
  8.402335e+00    2.947220e+00
  8.434086e+00    2.882173e+00
  8.465837e+00    2.868775e+00
  8.497588e+00    2.876422e+00
  8.529339e+00    2.906532e+00
  8.561091e+00    2.924485e+00
  8.592842e+00    2.832789e+00
  8.624593e+00    2.886837e+00
  8.656344e+00    2.839556e+00
  8.688095e+00    2.849593e+00
  8.719846e+00    2.826254e+00
  8.751598e+00    2.867254e+00
  8.783349e+00    2.866411e+00
  8.815100e+00    2.880001e+00
  8.846851e+00    2.830191e+00
  8.878602e+00    2.858814e+00
  8.910353e+00    2.877888e+00
  8.942104e+00    2.794158e+00
  8.973856e+00    2.861055e+00
  9.005607e+00    2.825418e+00
  9.037358e+00    2.786681e+00
  9.069109e+00    2.824805e+00
  9.100860e+00    2.822714e+00
  9.132611e+00    2.743494e+00
  9.164362e+00    2.836915e+00
  9.196114e+00    2.825259e+00
  9.227865e+00    2.836445e+00
  9.259616e+00    2.835486e+00
  9.291367e+00    2.829298e+00
  9.323118e+00    2.797338e+00
  9.354869e+00    2.736456e+00
  9.386620e+00    2.721955e+00
  9.418372e+00    2.756246e+00
  9.450123e+00    2.748968e+00
  9.481874e+00    2.750890e+00
  9.513625e+00    2.773813e+00
  9.545376e+00    2.800333e+00
  9.577127e+00    2.813814e+00
  9.608878e+00    2.753336e+00
  9.640630e+00    2.744277e+00
  9.672381e+00    2.762684e+00
  9.704132e+00    2.784083e+00
  9.735883e+00    2.739086e+00
  9.767634e+00    2.718251e+00
  9.799385e+00    2.680181e+00
  9.831137e+00    2.780688e+00
  9.862888e+00    2.721243e+00
  9.894639e+00    2.705019e+00
  9.926390e+00    2.716256e+00
  9.958141e+00    2.663310e+00
  9.989892e+00    2.691249e+00
  1.002164e+01    2.699237e+00
  1.005339e+01    2.669362e+00
  1.008515e+01    2.682113e+00
  1.011690e+01    2.668643e+00
  1.014865e+01    2.637135e+00
  1.018040e+01    2.646053e+00
  1.021215e+01    2.630931e+00
  1.024390e+01    2.676440e+00
  1.027565e+01    2.631643e+00
  1.030740e+01    2.628099e+00
  1.033915e+01    2.642437e+00
  1.037091e+01    2.693812e+00
  1.040266e+01    2.627885e+00
  1.043441e+01    2.619311e+00
  1.046616e+01    2.587818e+00
  1.049791e+01    2.606335e+00
  1.052966e+01    2.566383e+00
  1.056141e+01    2.598914e+00
  1.059316e+01    2.566125e+00
  1.062492e+01    2.538816e+00
  1.065667e+01    2.565497e+00
  1.068842e+01    2.585227e+00
  1.072017e+01    2.558936e+00
  1.075192e+01    2.526372e+00
  1.078367e+01    2.540832e+00
  1.081542e+01    2.525365e+00
  1.084717e+01    2.472105e+00
  1.087892e+01    2.561875e+00
  1.091068e+01    2.482445e+00
  1.094243e+01    2.510043e+00
  1.097418e+01    2.516940e+00
  1.100593e+01    2.515824e+00
  1.103768e+01    2.536597e+00
  1.106943e+01    2.495232e+00
  1.110118e+01    2.487730e+00
  1.113293e+01    2.507994e+00
  1.116468e+01    2.530942e+00
  1.119644e+01    2.505640e+00
  1.122819e+01    2.447949e+00
  1.125994e+01    2.490495e+00
  1.129169e+01    2.465390e+00
  1.132344e+01    2.373756e+00
  1.135519e+01    2.498801e+00
  1.138694e+01    2.471928e+00
  1.141869e+01    2.496188e+00
  1.145045e+01    2.393392e+00
  1.148220e+01    2.392038e+00
  1.151395e+01    2.419396e+00
  1.154570e+01    2.400291e+00
  1.157745e+01    2.386398e+00
  1.160920e+01    2.425189e+00
  1.164095e+01    2.377974e+00
  1.167270e+01    2.423130e+00
  1.170445e+01    2.384738e+00
  1.173621e+01    2.404426e+00
  1.176796e+01    2.359994e+00
  1.179971e+01    2.404741e+00
  1.183146e+01    2.373805e+00
  1.186321e+01    2.370552e+00
  1.189496e+01    2.349429e+00
  1.192671e+01    2.355164e+00
  1.195846e+01    2.376013e+00
  1.199021e+01    2.410977e+00
  1.202197e+01    2.344507e+00
  1.205372e+01    2.318673e+00
  1.208547e+01    2.349493e+00
  1.211722e+01    2.311321e+00
  1.214897e+01    2.353377e+00
  1.218072e+01    2.311731e+00
  1.221247e+01    2.300134e+00
  1.224422e+01    2.351984e+00
  1.227597e+01    2.319029e+00
  1.230773e+01    2.325519e+00
  1.233948e+01    2.338021e+00
  1.237123e+01    2.315391e+00
  1.240298e+01    2.320695e+00
  1.243473e+01    2.374098e+00
  1.246648e+01    2.320424e+00
  1.249823e+01    2.417625e+00
  1.252998e+01    2.349687e+00
  1.256174e+01    2.391611e+00
  1.259349e+01    2.384844e+00
  1.262524e+01    2.453962e+00
  1.265699e+01    2.442947e+00
  1.268874e+01    2.478787e+00
  1.272049e+01    2.499676e+00
  1.275224e+01    2.603169e+00
  1.278399e+01    2.616337e+00
  1.281574e+01    2.740642e+00
  1.284750e+01    2.862679e+00
  1.287925e+01    3.032013e+00
  1.291100e+01    3.323501e+00
  1.294275e+01    3.647927e+00
  1.297450e+01    4.334264e+00
  1.300625e+01    5.308245e+00
  1.303800e+01    6.821720e+00
  1.306975e+01    9.180576e+00
  1.310150e+01    1.220058e+01
  1.313326e+01    1.496887e+01
  1.316501e+01    1.765319e+01
  1.319676e+01    1.899717e+01
  1.322851e+01    1.699838e+01
  1.326026e+01    1.249559e+01
  1.329201e+01    8.905463e+00
  1.332376e+01    6.444172e+00
  1.335551e+01    5.113668e+00
  1.338727e+01    4.143559e+00
  1.341902e+01    3.587730e+00
  1.345077e+01    3.221778e+00
  1.348252e+01    3.039635e+00
  1.351427e+01    2.768602e+00
  1.354602e+01    2.656263e+00
  1.357777e+01    2.491004e+00
  1.360952e+01    2.458443e+00
  1.364127e+01    2.324834e+00
  1.367303e+01    2.306439e+00
  1.370478e+01    2.272205e+00
  1.373653e+01    2.252255e+00
  1.376828e+01    2.220324e+00
  1.380003e+01    2.163824e+00
  1.383178e+01    2.195043e+00
  1.386353e+01    2.168225e+00
  1.389528e+01    2.158943e+00
  1.392703e+01    2.117063e+00
  1.395879e+01    2.080274e+00
  1.399054e+01    2.106983e+00
  1.402229e+01    2.109437e+00
  1.405404e+01    2.083470e+00
  1.408579e+01    2.032305e+00
  1.411754e+01    2.018515e+00
  1.414929e+01    1.998059e+00
  1.418104e+01    2.015038e+00
  1.421279e+01    2.010075e+00
  1.424455e+01    1.973575e+00
  1.427630e+01    1.951614e+00
  1.430805e+01    2.011714e+00
  1.433980e+01    1.957034e+00
  1.437155e+01    1.948571e+00
  1.440330e+01    1.958648e+00
  1.443505e+01    1.954873e+00
  1.446680e+01    1.936878e+00
  1.449856e+01    1.951152e+00
  1.453031e+01    1.924678e+00
  1.456206e+01    1.925835e+00
  1.459381e+01    1.923335e+00
  1.462556e+01    1.963153e+00
  1.465731e+01    1.931549e+00
  1.468906e+01    1.945151e+00
  1.472081e+01    1.915602e+00
  1.475256e+01    1.949967e+00
  1.478432e+01    1.915450e+00
  1.481607e+01    1.958641e+00
  1.484782e+01    1.944733e+00
  1.487957e+01    1.941591e+00
  1.491132e+01    1.993829e+00
  1.494307e+01    1.992056e+00
  1.497482e+01    2.120236e+00
  1.500657e+01    2.202707e+00
  1.503832e+01    2.280184e+00
  1.507008e+01    2.524894e+00
  1.510183e+01    2.827790e+00
  1.513358e+01    3.325363e+00
  1.516533e+01    4.101275e+00
  1.519708e+01    4.889367e+00
  1.522883e+01    5.640117e+00
  1.526058e+01    6.184775e+00
  1.529233e+01    6.396135e+00
  1.532409e+01    5.803191e+00
  1.535584e+01    4.540401e+00
  1.538759e+01    3.660103e+00
  1.541934e+01    2.962724e+00
  1.545109e+01    2.570426e+00
  1.548284e+01    2.288195e+00
  1.551459e+01    2.132564e+00
  1.554634e+01    2.025932e+00
  1.557809e+01    1.904153e+00
  1.560985e+01    1.877776e+00
  1.564160e+01    1.836962e+00
  1.567335e+01    1.772184e+00
  1.570510e+01    1.722808e+00
  1.573685e+01    1.701487e+00
  1.576860e+01    1.711218e+00
  1.580035e+01    1.700771e+00
  1.583210e+01    1.698805e+00
  1.586385e+01    1.686340e+00
  1.589561e+01    1.685339e+00
  1.592736e+01    1.675180e+00
  1.595911e+01    1.634732e+00
  1.599086e+01    1.606802e+00
  1.602261e+01    1.610030e+00
  1.605436e+01    1.613558e+00
  1.608611e+01    1.604160e+00
  1.611786e+01    1.604740e+00
  1.614961e+01    1.574429e+00
  1.618137e+01    1.610528e+00
  1.621312e+01    1.568978e+00
  1.624487e+01    1.560370e+00
  1.627662e+01    1.558845e+00
  1.630837e+01    1.541832e+00
  1.634012e+01    1.587456e+00
  1.637187e+01    1.560068e+00
  1.640362e+01    1.568286e+00
  1.643538e+01    1.515605e+00
  1.646713e+01    1.480485e+00
  1.649888e+01    1.536078e+00
  1.653063e+01    1.539999e+00
  1.656238e+01    1.537874e+00
  1.659413e+01    1.518749e+00
  1.662588e+01    1.496407e+00
  1.665763e+01    1.481596e+00
  1.668938e+01    1.466491e+00
  1.672114e+01    1.490049e+00
  1.675289e+01    1.483460e+00
  1.678464e+01    1.459588e+00
  1.681639e+01    1.476893e+00
  1.684814e+01    1.463591e+00
  1.687989e+01    1.455141e+00
  1.691164e+01    1.456474e+00
  1.694339e+01    1.468080e+00
  1.697514e+01    1.445566e+00
  1.700690e+01    1.471222e+00
  1.703865e+01    1.430934e+00
  1.707040e+01    1.420006e+00
  1.710215e+01    1.441155e+00
  1.713390e+01    1.421659e+00
  1.716565e+01    1.440235e+00
  1.719740e+01    1.442378e+00
  1.722915e+01    1.416057e+00
  1.726091e+01    1.394894e+00
  1.729266e+01    1.389858e+00
  1.732441e+01    1.420996e+00
  1.735616e+01    1.427368e+00
  1.738791e+01    1.383761e+00
  1.741966e+01    1.396219e+00
  1.745141e+01    1.368045e+00
  1.748316e+01    1.367533e+00
  1.751491e+01    1.403870e+00
  1.754667e+01    1.391411e+00
  1.757842e+01    1.353655e+00
  1.761017e+01    1.371005e+00
  1.764192e+01    1.370844e+00
  1.767367e+01    1.376085e+00
  1.770542e+01    1.345734e+00
  1.773717e+01    1.326394e+00
  1.776892e+01    1.356482e+00
  1.780067e+01    1.351107e+00
  1.783243e+01    1.353591e+00
  1.786418e+01    1.353585e+00
  1.789593e+01    1.331166e+00
  1.792768e+01    1.336807e+00
  1.795943e+01    1.321089e+00
  1.799118e+01    1.307175e+00
  1.802293e+01    1.302990e+00
  1.805468e+01    1.282012e+00
  1.808643e+01    1.309549e+00
  1.811819e+01    1.304945e+00
  1.814994e+01    1.275770e+00
  1.818169e+01    1.306482e+00
  1.821344e+01    1.270132e+00
  1.824519e+01    1.288995e+00
  1.827694e+01    1.278998e+00
  1.830869e+01    1.258050e+00
  1.834044e+01    1.248841e+00
  1.837220e+01    1.274955e+00
  1.840395e+01    1.296523e+00
  1.843570e+01    1.244851e+00
  1.846745e+01    1.279186e+00
  1.849920e+01    1.259295e+00
  1.853095e+01    1.262201e+00
  1.856270e+01    1.270555e+00
  1.859445e+01    1.252449e+00
  1.862620e+01    1.241820e+00
  1.865796e+01    1.217480e+00
  1.868971e+01    1.216837e+00
  1.872146e+01    1.224910e+00
  1.875321e+01    1.225309e+00
  1.878496e+01    1.241940e+00
  1.881671e+01    1.201371e+00
  1.884846e+01    1.209354e+00
  1.888021e+01    1.222488e+00
  1.891196e+01    1.216145e+00
  1.894372e+01    1.201354e+00
  1.897547e+01    1.254140e+00
  1.900722e+01    1.230768e+00
  1.903897e+01    1.183486e+00
  1.907072e+01    1.190015e+00
  1.910247e+01    1.201650e+00
  1.913422e+01    1.211201e+00
  1.916597e+01    1.200921e+00
  1.919773e+01    1.164179e+00
  1.922948e+01    1.195594e+00
  1.926123e+01    1.198967e+00
  1.929298e+01    1.172398e+00
  1.932473e+01    1.198613e+00
  1.935648e+01    1.172814e+00
  1.938823e+01    1.174000e+00
  1.941998e+01    1.192044e+00
  1.945173e+01    1.148589e+00
  1.948349e+01    1.170265e+00
  1.951524e+01    1.179988e+00
  1.954699e+01    1.163610e+00
  1.957874e+01    1.186821e+00
  1.961049e+01    1.129117e+00
  1.964224e+01    1.157543e+00
  1.967399e+01    1.149697e+00
  1.970574e+01    1.153719e+00
  1.973749e+01    1.150851e+00
  1.976925e+01    1.173044e+00
  1.980100e+01    1.157418e+00
  1.983275e+01    1.146934e+00
  1.986450e+01    1.152398e+00
  1.989625e+01    1.114786e+00
  1.992800e+01    1.136793e+00
  1.995975e+01    1.134750e+00
  1.999150e+01    1.133484e+00
  2.002325e+01    1.123767e+00
  2.005501e+01    1.123261e+00
  2.008676e+01    1.114826e+00
  2.011851e+01    1.117101e+00
  2.015026e+01    1.108748e+00
  2.018201e+01    1.134896e+00
  2.021376e+01    1.124166e+00
  2.024551e+01    1.109333e+00
  2.027726e+01    1.103864e+00
  2.030902e+01    1.126369e+00
  2.034077e+01    1.109648e+00
  2.037252e+01    1.104087e+00
  2.040427e+01    1.095660e+00
  2.043602e+01    1.121087e+00
  2.046777e+01    1.071775e+00
  2.049952e+01    1.100115e+00
  2.053127e+01    1.122206e+00
  2.056302e+01    1.110845e+00
  2.059478e+01    1.087685e+00
  2.062653e+01    1.097265e+00
  2.065828e+01    1.093436e+00
  2.069003e+01    1.109186e+00
  2.072178e+01    1.100797e+00
  2.075353e+01    1.082674e+00
  2.078528e+01    1.100261e+00
  2.081703e+01    1.093733e+00
  2.084878e+01    1.110104e+00
  2.088054e+01    1.097018e+00
  2.091229e+01    1.072898e+00
  2.094404e+01    1.101866e+00
  2.097579e+01    1.097715e+00
  2.100754e+01    1.090160e+00
  2.103929e+01    1.097382e+00
  2.107104e+01    1.080793e+00
  2.110279e+01    1.081430e+00
  2.113455e+01    1.079386e+00
  2.116630e+01    1.088513e+00
  2.119805e+01    1.139492e+00
  2.122980e+01    1.132564e+00
  2.126155e+01    1.113928e+00
  2.129330e+01    1.134056e+00
  2.132505e+01    1.135499e+00
  2.135680e+01    1.148754e+00
  2.138855e+01    1.181049e+00
  2.142031e+01    1.181031e+00
  2.145206e+01    1.246914e+00
  2.148381e+01    1.254994e+00
  2.151556e+01    1.306532e+00
  2.154731e+01    1.373418e+00
  2.157906e+01    1.467385e+00
  2.161081e+01    1.569456e+00
  2.164256e+01    1.792139e+00
  2.167431e+01    2.002484e+00
  2.170607e+01    2.417241e+00
  2.173782e+01    2.978811e+00
  2.176957e+01    3.833894e+00
  2.180132e+01    5.105046e+00
  2.183307e+01    6.556635e+00
  2.186482e+01    8.155779e+00
  2.189657e+01    9.735064e+00
  2.192832e+01    1.048567e+01
  2.196007e+01    9.525554e+00
  2.199183e+01    7.429465e+00
  2.202358e+01    5.310606e+00
  2.205533e+01    3.845785e+00
  2.208708e+01    2.931276e+00
  2.211883e+01    2.367618e+00
  2.215058e+01    2.027223e+00
  2.218233e+01    1.742653e+00
  2.221408e+01    1.582119e+00
  2.224584e+01    1.437229e+00
  2.227759e+01    1.293038e+00
  2.230934e+01    1.278468e+00
  2.234109e+01    1.195952e+00
  2.237284e+01    1.156159e+00
  2.240459e+01    1.154156e+00
  2.243634e+01    1.125695e+00
  2.246809e+01    1.095320e+00
  2.249984e+01    1.063645e+00
  2.253160e+01    1.065741e+00
  2.256335e+01    1.008964e+00
  2.259510e+01    1.007845e+00
  2.262685e+01    9.753406e-01
  2.265860e+01    9.821534e-01
  2.269035e+01    9.685936e-01
  2.272210e+01    9.584203e-01
  2.275385e+01    9.537326e-01
  2.278560e+01    9.642998e-01
  2.281736e+01    9.345696e-01
  2.284911e+01    9.518949e-01
  2.288086e+01    9.490682e-01
  2.291261e+01    9.064490e-01
  2.294436e+01    9.327713e-01
  2.297611e+01    9.396362e-01
  2.300786e+01    8.944277e-01
  2.303961e+01    9.259034e-01
  2.307137e+01    8.936059e-01
  2.310312e+01    9.158178e-01
  2.313487e+01    9.036370e-01
  2.316662e+01    8.733432e-01
  2.319837e+01    8.839622e-01
  2.323012e+01    8.862129e-01
  2.326187e+01    8.614039e-01
  2.329362e+01    8.903682e-01
  2.332537e+01    8.614287e-01
  2.335713e+01    8.621488e-01
  2.338888e+01    8.681840e-01
  2.342063e+01    8.592187e-01
  2.345238e+01    8.673847e-01
  2.348413e+01    8.674607e-01
  2.351588e+01    8.409542e-01
  2.354763e+01    8.608819e-01
  2.357938e+01    8.674871e-01
  2.361113e+01    8.663349e-01
  2.364289e+01    8.620363e-01
  2.367464e+01    8.555294e-01
  2.370639e+01    8.465589e-01
  2.373814e+01    8.249937e-01
  2.376989e+01    8.272769e-01
  2.380164e+01    8.287352e-01
  2.383339e+01    8.243074e-01
  2.386514e+01    7.978973e-01
  2.389689e+01    8.030919e-01
  2.392865e+01    8.110508e-01
  2.396040e+01    7.955742e-01
  2.399215e+01    7.793183e-01
  2.402390e+01    8.200564e-01
  2.405565e+01    7.842915e-01
  2.408740e+01    7.801408e-01
  2.411915e+01    7.922282e-01
  2.415090e+01    7.882496e-01
  2.418266e+01    7.703800e-01
  2.421441e+01    7.892742e-01
  2.424616e+01    7.896233e-01
  2.427791e+01    8.145954e-01
  2.430966e+01    8.225610e-01
  2.434141e+01    8.174238e-01
  2.437316e+01    8.105618e-01
  2.440491e+01    7.959955e-01
  2.443666e+01    8.092944e-01
  2.446842e+01    7.915999e-01
  2.450017e+01    8.022946e-01
  2.453192e+01    8.105000e-01
  2.456367e+01    7.905926e-01
  2.459542e+01    8.023486e-01
  2.462717e+01    8.142433e-01
  2.465892e+01    8.173422e-01
  2.469067e+01    7.892668e-01
  2.472242e+01    8.036990e-01
  2.475418e+01    8.125222e-01
  2.478593e+01    7.784089e-01
  2.481768e+01    8.160380e-01
  2.484943e+01    7.998040e-01
  2.488118e+01    7.814025e-01
  2.491293e+01    8.029326e-01
  2.494468e+01    7.908887e-01
  2.497643e+01    8.144292e-01
  2.500819e+01    8.151296e-01
  2.503994e+01    8.305007e-01
  2.507169e+01    8.037226e-01
  2.510344e+01    8.346300e-01
  2.513519e+01    8.317916e-01
  2.516694e+01    8.600851e-01
  2.519869e+01    8.440267e-01
  2.523044e+01    8.526677e-01
  2.526219e+01    8.835101e-01
  2.529395e+01    8.734384e-01
  2.532570e+01    8.689494e-01
  2.535745e+01    8.919394e-01
  2.538920e+01    9.089524e-01
  2.542095e+01    9.226153e-01
  2.545270e+01    9.392286e-01
  2.548445e+01    9.729028e-01
  2.551620e+01    1.000522e+00
  2.554795e+01    1.031477e+00
  2.557971e+01    1.055520e+00
  2.561146e+01    1.112368e+00
  2.564321e+01    1.177406e+00
  2.567496e+01    1.289620e+00
  2.570671e+01    1.405022e+00
  2.573846e+01    1.608807e+00
  2.577021e+01    1.892998e+00
  2.580196e+01    2.311227e+00
  2.583371e+01    2.938849e+00
  2.586547e+01    3.900078e+00
  2.589722e+01    5.140669e+00
  2.592897e+01    6.603251e+00
  2.596072e+01    7.972801e+00
  2.599247e+01    8.676728e+00
  2.602422e+01    8.210214e+00
  2.605597e+01    6.609227e+00
  2.608772e+01    4.837655e+00
  2.611948e+01    3.548095e+00
  2.615123e+01    2.676371e+00
  2.618298e+01    2.150480e+00
  2.621473e+01    1.805838e+00
  2.624648e+01    1.594732e+00
  2.627823e+01    1.388046e+00
  2.630998e+01    1.286734e+00
  2.634173e+01    1.165991e+00
  2.637348e+01    1.115536e+00
  2.640524e+01    1.062042e+00
  2.643699e+01    1.018955e+00
  2.646874e+01    1.026726e+00
  2.650049e+01    9.743670e-01
  2.653224e+01    1.004814e+00
  2.656399e+01    9.768906e-01
  2.659574e+01    9.332840e-01
  2.662749e+01    9.372753e-01
  2.665924e+01    8.979396e-01
  2.669100e+01    9.212613e-01
  2.672275e+01    9.189319e-01
  2.675450e+01    9.146731e-01
  2.678625e+01    9.274442e-01
  2.681800e+01    8.991407e-01
  2.684975e+01    9.304501e-01
  2.688150e+01    9.309393e-01
  2.691325e+01    9.370226e-01
  2.694501e+01    9.490237e-01
  2.697676e+01    9.929193e-01
  2.700851e+01    9.973277e-01
  2.704026e+01    1.053369e+00
  2.707201e+01    1.159676e+00
  2.710376e+01    1.338423e+00
  2.713551e+01    1.508521e+00
  2.716726e+01    1.779071e+00
  2.719901e+01    2.115459e+00
  2.723077e+01    2.430981e+00
  2.726252e+01    2.501603e+00
  2.729427e+01    2.311604e+00
  2.732602e+01    1.900893e+00
  2.735777e+01    1.634137e+00
  2.738952e+01    1.377326e+00
  2.742127e+01    1.183954e+00
  2.745302e+01    1.102503e+00
  2.748477e+01    1.007728e+00
  2.751653e+01    9.799044e-01
  2.754828e+01    9.599496e-01
  2.758003e+01    9.039680e-01
  2.761178e+01    9.029642e-01
  2.764353e+01    8.908470e-01
  2.767528e+01    8.717089e-01
  2.770703e+01    8.464562e-01
  2.773878e+01    8.392775e-01
  2.777054e+01    8.430794e-01
  2.780229e+01    8.293158e-01
  2.783404e+01    8.263667e-01
  2.786579e+01    8.160753e-01
  2.789754e+01    8.248990e-01
  2.792929e+01    7.925820e-01
  2.796104e+01    7.897617e-01
  2.799279e+01    7.990830e-01
  2.802454e+01    8.029057e-01
  2.805630e+01    7.782182e-01
  2.808805e+01    7.908705e-01
  2.811980e+01    7.914935e-01
  2.815155e+01    7.914644e-01
  2.818330e+01    7.924367e-01
  2.821505e+01    7.824941e-01
  2.824680e+01    7.964554e-01
  2.827855e+01    7.581463e-01
  2.831030e+01    7.617055e-01
  2.834206e+01    7.746692e-01
  2.837381e+01    7.768204e-01
  2.840556e+01    7.866358e-01
  2.843731e+01    7.603239e-01
  2.846906e+01    7.543904e-01
  2.850081e+01    7.765702e-01
  2.853256e+01    7.671606e-01
  2.856431e+01    7.647722e-01
  2.859606e+01    7.783386e-01
  2.862782e+01    7.540337e-01
  2.865957e+01    7.636377e-01
  2.869132e+01    7.538643e-01
  2.872307e+01    7.628856e-01
  2.875482e+01    7.755347e-01
  2.878657e+01    7.599298e-01
  2.881832e+01    7.443258e-01
  2.885007e+01    7.421425e-01
  2.888183e+01    7.731850e-01
  2.891358e+01    7.507174e-01
  2.894533e+01    7.655724e-01
  2.897708e+01    7.550646e-01
  2.900883e+01    7.562596e-01
  2.904058e+01    7.570614e-01
  2.907233e+01    7.547620e-01
  2.910408e+01    7.351002e-01
  2.913583e+01    7.340587e-01
  2.916759e+01    7.333817e-01
  2.919934e+01    7.411031e-01
  2.923109e+01    7.407570e-01
  2.926284e+01    7.372934e-01
  2.929459e+01    7.283204e-01
  2.932634e+01    7.550645e-01
  2.935809e+01    7.400353e-01
  2.938984e+01    7.454600e-01
  2.942159e+01    7.433527e-01
  2.945335e+01    7.360222e-01
  2.948510e+01    7.376207e-01
  2.951685e+01    7.253218e-01
  2.954860e+01    7.451234e-01
  2.958035e+01    7.301109e-01
  2.961210e+01    7.118858e-01
  2.964385e+01    7.147776e-01
  2.967560e+01    7.355172e-01
  2.970736e+01    7.372165e-01
  2.973911e+01    7.302780e-01
  2.977086e+01    7.376014e-01
  2.980261e+01    7.369161e-01
  2.983436e+01    7.275801e-01
  2.986611e+01    7.168577e-01
  2.989786e+01    7.427745e-01
  2.992961e+01    7.219257e-01
  2.996136e+01    7.365227e-01
  2.999312e+01    7.496698e-01
  3.002487e+01    7.196464e-01
  3.005662e+01    7.447453e-01
  3.008837e+01    7.424271e-01
  3.012012e+01    7.343724e-01
  3.015187e+01    7.246411e-01
  3.018362e+01    7.229269e-01
  3.021537e+01    7.238749e-01
  3.024712e+01    6.969929e-01
  3.027888e+01    7.277003e-01
  3.031063e+01    6.974180e-01
  3.034238e+01    7.396583e-01
  3.037413e+01    7.190840e-01
  3.040588e+01    7.111756e-01
  3.043763e+01    7.061211e-01
  3.046938e+01    7.307448e-01
  3.050113e+01    7.098109e-01
  3.053288e+01    7.278760e-01
  3.056464e+01    7.252932e-01
  3.059639e+01    7.119703e-01
  3.062814e+01    7.215199e-01
  3.065989e+01    7.215024e-01
  3.069164e+01    7.130224e-01
  3.072339e+01    7.083882e-01
  3.075514e+01    7.282077e-01
  3.078689e+01    7.306077e-01
  3.081865e+01    7.164649e-01
  3.085040e+01    7.458631e-01
  3.088215e+01    7.274503e-01
  3.091390e+01    7.181683e-01
  3.094565e+01    7.187269e-01
  3.097740e+01    7.264359e-01
  3.100915e+01    7.361621e-01
  3.104090e+01    7.217813e-01
  3.107265e+01    7.240701e-01
  3.110441e+01    7.297659e-01
  3.113616e+01    7.148580e-01
  3.116791e+01    7.448384e-01
  3.119966e+01    7.251524e-01
  3.123141e+01    7.289310e-01
  3.126316e+01    7.319897e-01
  3.129491e+01    7.751892e-01
  3.132666e+01    7.535924e-01
  3.135841e+01    7.481815e-01
  3.139017e+01    7.634104e-01
  3.142192e+01    7.727301e-01
  3.145367e+01    7.790431e-01
  3.148542e+01    7.547238e-01
  3.151717e+01    7.652159e-01
  3.154892e+01    7.875500e-01
  3.158067e+01    8.073061e-01
  3.161242e+01    7.993994e-01
  3.164418e+01    8.605766e-01
  3.167593e+01    8.535008e-01
  3.170768e+01    9.468697e-01
  3.173943e+01    1.022776e+00
  3.177118e+01    1.084317e+00
  3.180293e+01    1.263430e+00
  3.183468e+01    1.498776e+00
  3.186643e+01    1.778613e+00
  3.189818e+01    2.090043e+00
  3.192994e+01    2.451962e+00
  3.196169e+01    2.466452e+00
  3.199344e+01    2.258162e+00
  3.202519e+01    1.878786e+00
  3.205694e+01    1.560693e+00
  3.208869e+01    1.273191e+00
  3.212044e+01    1.122727e+00
  3.215219e+01    9.915494e-01
  3.218394e+01    9.288864e-01
  3.221570e+01    8.513067e-01
  3.224745e+01    8.142781e-01
  3.227920e+01    8.012976e-01
  3.231095e+01    8.000201e-01
  3.234270e+01    7.864442e-01
  3.237445e+01    7.806556e-01
  3.240620e+01    7.509864e-01
  3.243795e+01    7.334470e-01
  3.246970e+01    7.422298e-01
  3.250146e+01    7.474810e-01
  3.253321e+01    7.327303e-01
  3.254908e+01    7.136188e-01