File: XRD/Activation ramp/2024-07-27_002_Ru-CGO-ex_Activtation_ramp_000002_data_000172.dat
# == pyFAI calibration ==
# Distance Sample to Detector: 0.4 m
# PONI: 9.750e-02, 1.135e-01 m
# Rotations: -0.000175 0.000000 -0.000000 rad
#
# == Fit2d calibration ==
# Distance Sample-beamCenter: 400.000 mm
# Center: x=1514.000, y=1300.000 pix
# Tilt: 0.010 deg  TiltPlanRot: 0.010 deg
#
# Detector Detector	 Spline= None	 PixelSize= 7.500e-05, 7.500e-05 m
#    Detector has a mask: False
#    Detector has a dark current: False
#    detector has a flat field: False
#
# Wavelength: 6.888e-11 m
# Mask applied: user provided
# Dark current applied: False
# Flat field applied: False
# Polarization factor: 0.99
# Normalization factor: 1.0
# --> /home/myspot/data/2024_07_Rosario/Ru-CGO-ex/2024-07-27_002_Ru-CGO-ex_Activtation_ramp_000002_data_000172.dat
#       q_nm^-1             I
  2.003187e-02    7.712624e-02
  5.178302e-02    2.671360e-02
  8.353417e-02    1.690860e-02
  1.152853e-01    9.073436e-02
  1.470365e-01    6.700265e-03
  1.787876e-01    6.340504e-02
  2.105388e-01    5.551288e-02
  2.422899e-01    6.068011e-02
  2.740411e-01    2.486959e-02
  3.057922e-01    4.917550e-02
  3.375433e-01    1.378463e-02
  3.692945e-01    3.886875e-02
  4.010456e-01    3.819967e-02
  4.327968e-01    1.438432e-02
  4.645479e-01    1.855777e-02
  4.962991e-01    6.757257e-02
  5.280502e-01    3.950659e-02
  5.598014e-01    4.025952e-02
  5.915525e-01    3.168017e-02
  6.233037e-01    1.701596e-02
  6.550548e-01    2.556804e-02
  6.868060e-01    3.450832e-02
  7.185571e-01    2.086426e-02
  7.503083e-01    4.717069e-02
  7.820594e-01    7.555036e-02
  8.138106e-01    1.817531e-01
  8.455617e-01    2.750561e-01
  8.773129e-01    3.453263e-01
  9.090640e-01    5.544223e-01
  9.408152e-01    6.479559e-01
  9.725663e-01    8.610781e-01
  1.004317e+00    1.132807e+00
  1.036069e+00    1.154946e+00
  1.067820e+00    1.313349e+00
  1.099571e+00    1.344792e+00
  1.131322e+00    1.436331e+00
  1.163073e+00    1.536866e+00
  1.194824e+00    1.603285e+00
  1.226575e+00    2.036898e+00
  1.258327e+00    2.187585e+00
  1.290078e+00    2.345564e+00
  1.321829e+00    2.473919e+00
  1.353580e+00    2.407718e+00
  1.385331e+00    2.511251e+00
  1.417082e+00    2.435501e+00
  1.448834e+00    2.738064e+00
  1.480585e+00    2.928230e+00
  1.512336e+00    2.730430e+00
  1.544087e+00    2.918807e+00
  1.575838e+00    2.864984e+00
  1.607589e+00    2.904947e+00
  1.639340e+00    2.898503e+00
  1.671092e+00    2.726955e+00
  1.702843e+00    2.920178e+00
  1.734594e+00    2.706372e+00
  1.766345e+00    2.674510e+00
  1.798096e+00    2.745195e+00
  1.829847e+00    2.698010e+00
  1.861598e+00    2.713960e+00
  1.893350e+00    2.641917e+00
  1.925101e+00    2.679362e+00
  1.956852e+00    2.625504e+00
  1.988603e+00    2.578272e+00
  2.020354e+00    2.678956e+00
  2.052105e+00    2.624135e+00
  2.083856e+00    2.743035e+00
  2.115608e+00    2.676441e+00
  2.147359e+00    2.760143e+00
  2.179110e+00    2.751313e+00
  2.210861e+00    2.765497e+00
  2.242612e+00    2.740001e+00
  2.274363e+00    2.788476e+00
  2.306115e+00    2.676448e+00
  2.337866e+00    2.779164e+00
  2.369617e+00    2.827171e+00
  2.401368e+00    2.705637e+00
  2.433119e+00    2.802279e+00
  2.464870e+00    2.736657e+00
  2.496621e+00    2.761882e+00
  2.528373e+00    2.789002e+00
  2.560124e+00    2.805510e+00
  2.591875e+00    2.885433e+00
  2.623626e+00    2.844213e+00
  2.655377e+00    2.830852e+00
  2.687128e+00    2.704126e+00
  2.718879e+00    2.807364e+00
  2.750631e+00    2.701823e+00
  2.782382e+00    2.832590e+00
  2.814133e+00    2.757538e+00
  2.845884e+00    2.902963e+00
  2.877635e+00    2.920928e+00
  2.909386e+00    2.872203e+00
  2.941137e+00    2.910005e+00
  2.972889e+00    2.865261e+00
  3.004640e+00    2.888418e+00
  3.036391e+00    2.893981e+00
  3.068142e+00    2.943209e+00
  3.099893e+00    2.895521e+00
  3.131644e+00    2.873454e+00
  3.163395e+00    2.910213e+00
  3.195147e+00    2.902805e+00
  3.226898e+00    2.850219e+00
  3.258649e+00    2.939802e+00
  3.290400e+00    2.954833e+00
  3.322151e+00    2.904315e+00
  3.353902e+00    2.928521e+00
  3.385654e+00    3.038225e+00
  3.417405e+00    2.928051e+00
  3.449156e+00    2.898912e+00
  3.480907e+00    2.970896e+00
  3.512658e+00    2.903187e+00
  3.544409e+00    2.969144e+00
  3.576160e+00    2.951292e+00
  3.607912e+00    3.004972e+00
  3.639663e+00    2.969375e+00
  3.671414e+00    2.870577e+00
  3.703165e+00    2.992066e+00
  3.734916e+00    2.969894e+00
  3.766667e+00    2.995926e+00
  3.798418e+00    2.891971e+00
  3.830170e+00    3.060524e+00
  3.861921e+00    2.967604e+00
  3.893672e+00    2.947636e+00
  3.925423e+00    3.045605e+00
  3.957174e+00    3.040239e+00
  3.988925e+00    3.044546e+00
  4.020676e+00    3.067751e+00
  4.052428e+00    3.047516e+00
  4.084179e+00    2.956215e+00
  4.115930e+00    2.967938e+00
  4.147681e+00    3.050798e+00
  4.179432e+00    3.050197e+00
  4.211183e+00    3.060343e+00
  4.242935e+00    3.021797e+00
  4.274686e+00    3.110912e+00
  4.306437e+00    3.139800e+00
  4.338188e+00    3.080494e+00
  4.369939e+00    3.080293e+00
  4.401690e+00    3.006273e+00
  4.433441e+00    3.016111e+00
  4.465193e+00    3.072898e+00
  4.496944e+00    3.104057e+00
  4.528695e+00    3.060634e+00
  4.560446e+00    3.124174e+00
  4.592197e+00    3.053816e+00
  4.623948e+00    3.119111e+00
  4.655699e+00    3.117138e+00
  4.687451e+00    3.095500e+00
  4.719202e+00    3.183019e+00
  4.750953e+00    3.133640e+00
  4.782704e+00    3.076219e+00
  4.814455e+00    3.102563e+00
  4.846206e+00    3.076807e+00
  4.877957e+00    3.263985e+00
  4.909709e+00    3.092388e+00
  4.941460e+00    3.138687e+00
  4.973211e+00    3.171524e+00
  5.004962e+00    3.147621e+00
  5.036713e+00    3.136703e+00
  5.068464e+00    3.135236e+00
  5.100216e+00    3.127999e+00
  5.131967e+00    3.089290e+00
  5.163718e+00    3.140804e+00
  5.195469e+00    3.114557e+00
  5.227220e+00    3.115739e+00
  5.258971e+00    3.145145e+00
  5.290722e+00    3.124817e+00
  5.322474e+00    3.140256e+00
  5.354225e+00    3.171381e+00
  5.385976e+00    3.148827e+00
  5.417727e+00    3.081819e+00
  5.449478e+00    3.101567e+00
  5.481229e+00    3.094354e+00
  5.512980e+00    3.165040e+00
  5.544732e+00    3.089345e+00
  5.576483e+00    3.038171e+00
  5.608234e+00    3.050834e+00
  5.639985e+00    3.066780e+00
  5.671736e+00    3.088265e+00
  5.703487e+00    3.052375e+00
  5.735238e+00    3.045997e+00
  5.766990e+00    3.075377e+00
  5.798741e+00    3.003319e+00
  5.830492e+00    3.069308e+00
  5.862243e+00    3.048460e+00
  5.893994e+00    3.018075e+00
  5.925745e+00    3.008828e+00
  5.957497e+00    2.993362e+00
  5.989248e+00    3.032164e+00
  6.020999e+00    2.990071e+00
  6.052750e+00    2.995951e+00
  6.084501e+00    3.057842e+00
  6.116252e+00    3.089773e+00
  6.148003e+00    3.133548e+00
  6.179755e+00    3.103246e+00
  6.211506e+00    3.077986e+00
  6.243257e+00    3.038322e+00
  6.275008e+00    3.050230e+00
  6.306759e+00    3.104762e+00
  6.338510e+00    3.108269e+00
  6.370261e+00    3.043237e+00
  6.402013e+00    3.085385e+00
  6.433764e+00    3.078338e+00
  6.465515e+00    3.010407e+00
  6.497266e+00    2.920430e+00
  6.529017e+00    3.026270e+00
  6.560768e+00    3.032008e+00
  6.592519e+00    3.006576e+00
  6.624271e+00    3.085943e+00
  6.656022e+00    3.098075e+00
  6.687773e+00    3.057486e+00
  6.719524e+00    2.927171e+00
  6.751275e+00    3.063302e+00
  6.783026e+00    2.950740e+00
  6.814777e+00    3.044460e+00
  6.846529e+00    3.095751e+00
  6.878280e+00    2.990059e+00
  6.910031e+00    2.961499e+00
  6.941782e+00    3.010026e+00
  6.973533e+00    2.992880e+00
  7.005284e+00    2.999899e+00
  7.037036e+00    3.054131e+00
  7.068787e+00    3.016759e+00
  7.100538e+00    3.003039e+00
  7.132289e+00    3.066546e+00
  7.164040e+00    2.978433e+00
  7.195791e+00    3.049802e+00
  7.227542e+00    3.005206e+00
  7.259294e+00    3.022891e+00
  7.291045e+00    3.006480e+00
  7.322796e+00    3.010904e+00
  7.354547e+00    2.962579e+00
  7.386298e+00    2.997437e+00
  7.418049e+00    3.042043e+00
  7.449800e+00    3.048290e+00
  7.481552e+00    3.018649e+00
  7.513303e+00    3.027925e+00
  7.545054e+00    2.968042e+00
  7.576805e+00    2.930256e+00
  7.608556e+00    2.925910e+00
  7.640307e+00    3.036881e+00
  7.672058e+00    3.020329e+00
  7.703810e+00    2.941820e+00
  7.735561e+00    2.949812e+00
  7.767312e+00    2.945427e+00
  7.799063e+00    2.955300e+00
  7.830814e+00    2.952584e+00
  7.862565e+00    2.939930e+00
  7.894317e+00    2.945622e+00
  7.926068e+00    3.006320e+00
  7.957819e+00    2.959554e+00
  7.989570e+00    2.885964e+00
  8.021321e+00    2.893080e+00
  8.053072e+00    2.946531e+00
  8.084823e+00    2.997617e+00
  8.116575e+00    2.986342e+00
  8.148326e+00    2.987340e+00
  8.180077e+00    3.041691e+00
  8.211828e+00    2.992629e+00
  8.243579e+00    2.970438e+00
  8.275330e+00    2.951670e+00
  8.307081e+00    2.902176e+00
  8.338833e+00    2.961762e+00
  8.370584e+00    2.925159e+00
  8.402335e+00    2.879221e+00
  8.434086e+00    2.811623e+00
  8.465837e+00    2.910109e+00
  8.497588e+00    2.896205e+00
  8.529339e+00    2.860461e+00
  8.561091e+00    2.873348e+00
  8.592842e+00    2.841846e+00
  8.624593e+00    2.800957e+00
  8.656344e+00    2.913910e+00
  8.688095e+00    2.882494e+00
  8.719846e+00    2.882652e+00
  8.751598e+00    2.865726e+00
  8.783349e+00    2.865702e+00
  8.815100e+00    2.873348e+00
  8.846851e+00    2.859983e+00
  8.878602e+00    2.808643e+00
  8.910353e+00    2.853099e+00
  8.942104e+00    2.833213e+00
  8.973856e+00    2.839610e+00
  9.005607e+00    2.846442e+00
  9.037358e+00    2.825190e+00
  9.069109e+00    2.859734e+00
  9.100860e+00    2.785917e+00
  9.132611e+00    2.822112e+00
  9.164362e+00    2.813134e+00
  9.196114e+00    2.820418e+00
  9.227865e+00    2.775736e+00
  9.259616e+00    2.802755e+00
  9.291367e+00    2.753196e+00
  9.323118e+00    2.810491e+00
  9.354869e+00    2.750728e+00
  9.386620e+00    2.765352e+00
  9.418372e+00    2.753448e+00
  9.450123e+00    2.782476e+00
  9.481874e+00    2.767426e+00
  9.513625e+00    2.719270e+00
  9.545376e+00    2.755168e+00
  9.577127e+00    2.766773e+00
  9.608878e+00    2.733289e+00
  9.640630e+00    2.794708e+00
  9.672381e+00    2.776727e+00
  9.704132e+00    2.752121e+00
  9.735883e+00    2.736453e+00
  9.767634e+00    2.744878e+00
  9.799385e+00    2.692491e+00
  9.831137e+00    2.679540e+00
  9.862888e+00    2.703499e+00
  9.894639e+00    2.735885e+00
  9.926390e+00    2.721945e+00
  9.958141e+00    2.702913e+00
  9.989892e+00    2.652714e+00
  1.002164e+01    2.633660e+00
  1.005339e+01    2.669998e+00
  1.008515e+01    2.664426e+00
  1.011690e+01    2.645580e+00
  1.014865e+01    2.687355e+00
  1.018040e+01    2.681870e+00
  1.021215e+01    2.645499e+00
  1.024390e+01    2.670336e+00
  1.027565e+01    2.630412e+00
  1.030740e+01    2.651726e+00
  1.033915e+01    2.600531e+00
  1.037091e+01    2.621060e+00
  1.040266e+01    2.618908e+00
  1.043441e+01    2.591333e+00
  1.046616e+01    2.660878e+00
  1.049791e+01    2.584036e+00
  1.052966e+01    2.554299e+00
  1.056141e+01    2.606976e+00
  1.059316e+01    2.562293e+00
  1.062492e+01    2.569970e+00
  1.065667e+01    2.599486e+00
  1.068842e+01    2.593806e+00
  1.072017e+01    2.499216e+00
  1.075192e+01    2.553366e+00
  1.078367e+01    2.570868e+00
  1.081542e+01    2.543453e+00
  1.084717e+01    2.541038e+00
  1.087892e+01    2.506734e+00
  1.091068e+01    2.544910e+00
  1.094243e+01    2.514802e+00
  1.097418e+01    2.527386e+00
  1.100593e+01    2.497389e+00
  1.103768e+01    2.483313e+00
  1.106943e+01    2.536485e+00
  1.110118e+01    2.471641e+00
  1.113293e+01    2.504382e+00
  1.116468e+01    2.436731e+00
  1.119644e+01    2.424586e+00
  1.122819e+01    2.394729e+00
  1.125994e+01    2.436755e+00
  1.129169e+01    2.414188e+00
  1.132344e+01    2.456209e+00
  1.135519e+01    2.435822e+00
  1.138694e+01    2.442284e+00
  1.141869e+01    2.377078e+00
  1.145045e+01    2.427372e+00
  1.148220e+01    2.404001e+00
  1.151395e+01    2.374269e+00
  1.154570e+01    2.423495e+00
  1.157745e+01    2.354356e+00
  1.160920e+01    2.381457e+00
  1.164095e+01    2.413120e+00
  1.167270e+01    2.361777e+00
  1.170445e+01    2.416612e+00
  1.173621e+01    2.393981e+00
  1.176796e+01    2.367761e+00
  1.179971e+01    2.402424e+00
  1.183146e+01    2.394175e+00
  1.186321e+01    2.370015e+00
  1.189496e+01    2.351784e+00
  1.192671e+01    2.342513e+00
  1.195846e+01    2.347096e+00
  1.199021e+01    2.337172e+00
  1.202197e+01    2.339023e+00
  1.205372e+01    2.333075e+00
  1.208547e+01    2.282760e+00
  1.211722e+01    2.338206e+00
  1.214897e+01    2.315503e+00
  1.218072e+01    2.304187e+00
  1.221247e+01    2.308204e+00
  1.224422e+01    2.295178e+00
  1.227597e+01    2.328756e+00
  1.230773e+01    2.319481e+00
  1.233948e+01    2.383900e+00
  1.237123e+01    2.324314e+00
  1.240298e+01    2.348611e+00
  1.243473e+01    2.304507e+00
  1.246648e+01    2.352377e+00
  1.249823e+01    2.327768e+00
  1.252998e+01    2.393665e+00
  1.256174e+01    2.359892e+00
  1.259349e+01    2.399922e+00
  1.262524e+01    2.437966e+00
  1.265699e+01    2.424288e+00
  1.268874e+01    2.443988e+00
  1.272049e+01    2.492838e+00
  1.275224e+01    2.561158e+00
  1.278399e+01    2.648626e+00
  1.281574e+01    2.688137e+00
  1.284750e+01    2.830286e+00
  1.287925e+01    3.032952e+00
  1.291100e+01    3.311575e+00
  1.294275e+01    3.700776e+00
  1.297450e+01    4.394534e+00
  1.300625e+01    5.372356e+00
  1.303800e+01    7.108793e+00
  1.306975e+01    9.497532e+00
  1.310150e+01    1.189995e+01
  1.313326e+01    1.407282e+01
  1.316501e+01    1.589282e+01
  1.319676e+01    1.564603e+01
  1.322851e+01    1.256703e+01
  1.326026e+01    9.041442e+00
  1.329201e+01    6.516559e+00
  1.332376e+01    4.947170e+00
  1.335551e+01    4.109857e+00
  1.338727e+01    3.561922e+00
  1.341902e+01    3.182616e+00
  1.345077e+01    2.920295e+00
  1.348252e+01    2.665228e+00
  1.351427e+01    2.567097e+00
  1.354602e+01    2.509432e+00
  1.357777e+01    2.385297e+00
  1.360952e+01    2.309023e+00
  1.364127e+01    2.309816e+00
  1.367303e+01    2.274039e+00
  1.370478e+01    2.214746e+00
  1.373653e+01    2.170499e+00
  1.376828e+01    2.173651e+00
  1.380003e+01    2.160083e+00
  1.383178e+01    2.156026e+00
  1.386353e+01    2.143952e+00
  1.389528e+01    2.089312e+00
  1.392703e+01    2.091492e+00
  1.395879e+01    2.040539e+00
  1.399054e+01    2.074411e+00
  1.402229e+01    2.032670e+00
  1.405404e+01    2.019130e+00
  1.408579e+01    2.047030e+00
  1.411754e+01    1.992868e+00
  1.414929e+01    1.999253e+00
  1.418104e+01    2.009094e+00
  1.421279e+01    1.984667e+00
  1.424455e+01    1.983436e+00
  1.427630e+01    1.953382e+00
  1.430805e+01    1.915537e+00
  1.433980e+01    1.964823e+00
  1.437155e+01    1.910984e+00
  1.440330e+01    1.938776e+00
  1.443505e+01    1.939717e+00
  1.446680e+01    1.918343e+00
  1.449856e+01    1.976901e+00
  1.453031e+01    1.926832e+00
  1.456206e+01    1.920327e+00
  1.459381e+01    1.883923e+00
  1.462556e+01    1.925098e+00
  1.465731e+01    1.932089e+00
  1.468906e+01    1.932206e+00
  1.472081e+01    1.917152e+00
  1.475256e+01    1.874993e+00
  1.478432e+01    1.892305e+00
  1.481607e+01    1.924114e+00
  1.484782e+01    1.917839e+00
  1.487957e+01    1.910629e+00
  1.491132e+01    1.972970e+00
  1.494307e+01    2.024834e+00
  1.497482e+01    2.017664e+00
  1.500657e+01    2.165734e+00
  1.503832e+01    2.356489e+00
  1.507008e+01    2.469746e+00
  1.510183e+01    2.849669e+00
  1.513358e+01    3.471033e+00
  1.516533e+01    4.151302e+00
  1.519708e+01    4.836887e+00
  1.522883e+01    5.255420e+00
  1.526058e+01    5.475996e+00
  1.529233e+01    5.304280e+00
  1.532409e+01    4.509593e+00
  1.535584e+01    3.552054e+00
  1.538759e+01    2.939413e+00
  1.541934e+01    2.469539e+00
  1.545109e+01    2.226143e+00
  1.548284e+01    2.069993e+00
  1.551459e+01    1.956415e+00
  1.554634e+01    1.898098e+00
  1.557809e+01    1.880147e+00
  1.560985e+01    1.793847e+00
  1.564160e+01    1.830627e+00
  1.567335e+01    1.765849e+00
  1.570510e+01    1.739417e+00
  1.573685e+01    1.729316e+00
  1.576860e+01    1.723153e+00
  1.580035e+01    1.702612e+00
  1.583210e+01    1.683915e+00
  1.586385e+01    1.644407e+00
  1.589561e+01    1.649776e+00
  1.592736e+01    1.597321e+00
  1.595911e+01    1.615651e+00
  1.599086e+01    1.609781e+00
  1.602261e+01    1.612520e+00
  1.605436e+01    1.602314e+00
  1.608611e+01    1.590676e+00
  1.611786e+01    1.621314e+00
  1.614961e+01    1.604524e+00
  1.618137e+01    1.573756e+00
  1.621312e+01    1.606142e+00
  1.624487e+01    1.577561e+00
  1.627662e+01    1.568618e+00
  1.630837e+01    1.563765e+00
  1.634012e+01    1.576329e+00
  1.637187e+01    1.526224e+00
  1.640362e+01    1.542995e+00
  1.643538e+01    1.518486e+00
  1.646713e+01    1.514513e+00
  1.649888e+01    1.506112e+00
  1.653063e+01    1.521189e+00
  1.656238e+01    1.512183e+00
  1.659413e+01    1.479196e+00
  1.662588e+01    1.512622e+00
  1.665763e+01    1.491201e+00
  1.668938e+01    1.473271e+00
  1.672114e+01    1.489452e+00
  1.675289e+01    1.501288e+00
  1.678464e+01    1.452448e+00
  1.681639e+01    1.476359e+00
  1.684814e+01    1.458410e+00
  1.687989e+01    1.467462e+00
  1.691164e+01    1.475215e+00
  1.694339e+01    1.419039e+00
  1.697514e+01    1.449026e+00
  1.700690e+01    1.418243e+00
  1.703865e+01    1.414268e+00
  1.707040e+01    1.420615e+00
  1.710215e+01    1.420474e+00
  1.713390e+01    1.414412e+00
  1.716565e+01    1.449725e+00
  1.719740e+01    1.424704e+00
  1.722915e+01    1.428939e+00
  1.726091e+01    1.373346e+00
  1.729266e+01    1.375126e+00
  1.732441e+01    1.398499e+00
  1.735616e+01    1.397051e+00
  1.738791e+01    1.373256e+00
  1.741966e+01    1.370898e+00
  1.745141e+01    1.384244e+00
  1.748316e+01    1.384899e+00
  1.751491e+01    1.366890e+00
  1.754667e+01    1.384624e+00
  1.757842e+01    1.356394e+00
  1.761017e+01    1.381371e+00
  1.764192e+01    1.334221e+00
  1.767367e+01    1.360041e+00
  1.770542e+01    1.342568e+00
  1.773717e+01    1.345986e+00
  1.776892e+01    1.364800e+00
  1.780067e+01    1.333696e+00
  1.783243e+01    1.318428e+00
  1.786418e+01    1.319047e+00
  1.789593e+01    1.321528e+00
  1.792768e+01    1.314269e+00
  1.795943e+01    1.307430e+00
  1.799118e+01    1.307988e+00
  1.802293e+01    1.309274e+00
  1.805468e+01    1.286622e+00
  1.808643e+01    1.268981e+00
  1.811819e+01    1.290206e+00
  1.814994e+01    1.291291e+00
  1.818169e+01    1.282372e+00
  1.821344e+01    1.290487e+00
  1.824519e+01    1.282357e+00
  1.827694e+01    1.271896e+00
  1.830869e+01    1.294328e+00
  1.834044e+01    1.272946e+00
  1.837220e+01    1.281158e+00
  1.840395e+01    1.262895e+00
  1.843570e+01    1.262773e+00
  1.846745e+01    1.267797e+00
  1.849920e+01    1.259948e+00
  1.853095e+01    1.252271e+00
  1.856270e+01    1.247156e+00
  1.859445e+01    1.227610e+00
  1.862620e+01    1.243424e+00
  1.865796e+01    1.225064e+00
  1.868971e+01    1.218200e+00
  1.872146e+01    1.203816e+00
  1.875321e+01    1.219774e+00
  1.878496e+01    1.234940e+00
  1.881671e+01    1.222448e+00
  1.884846e+01    1.234117e+00
  1.888021e+01    1.214804e+00
  1.891196e+01    1.245826e+00
  1.894372e+01    1.204858e+00
  1.897547e+01    1.212103e+00
  1.900722e+01    1.218609e+00
  1.903897e+01    1.197664e+00
  1.907072e+01    1.201060e+00
  1.910247e+01    1.216120e+00
  1.913422e+01    1.194555e+00
  1.916597e+01    1.197413e+00
  1.919773e+01    1.175937e+00
  1.922948e+01    1.178100e+00
  1.926123e+01    1.168241e+00
  1.929298e+01    1.185941e+00
  1.932473e+01    1.167586e+00
  1.935648e+01    1.187449e+00
  1.938823e+01    1.173669e+00
  1.941998e+01    1.194919e+00
  1.945173e+01    1.151895e+00
  1.948349e+01    1.136182e+00
  1.951524e+01    1.160827e+00
  1.954699e+01    1.159220e+00
  1.957874e+01    1.169150e+00
  1.961049e+01    1.156533e+00
  1.964224e+01    1.157832e+00
  1.967399e+01    1.153995e+00
  1.970574e+01    1.148760e+00
  1.973749e+01    1.151925e+00
  1.976925e+01    1.133757e+00
  1.980100e+01    1.149646e+00
  1.983275e+01    1.162142e+00
  1.986450e+01    1.138258e+00
  1.989625e+01    1.114829e+00
  1.992800e+01    1.119135e+00
  1.995975e+01    1.117333e+00
  1.999150e+01    1.130754e+00
  2.002325e+01    1.159919e+00
  2.005501e+01    1.130256e+00
  2.008676e+01    1.087342e+00
  2.011851e+01    1.109930e+00
  2.015026e+01    1.092320e+00
  2.018201e+01    1.119394e+00
  2.021376e+01    1.074555e+00
  2.024551e+01    1.090793e+00
  2.027726e+01    1.127034e+00
  2.030902e+01    1.110547e+00
  2.034077e+01    1.076775e+00
  2.037252e+01    1.097975e+00
  2.040427e+01    1.112586e+00
  2.043602e+01    1.087233e+00
  2.046777e+01    1.081601e+00
  2.049952e+01    1.059859e+00
  2.053127e+01    1.066639e+00
  2.056302e+01    1.077364e+00
  2.059478e+01    1.099566e+00
  2.062653e+01    1.075995e+00
  2.065828e+01    1.060081e+00
  2.069003e+01    1.079991e+00
  2.072178e+01    1.090658e+00
  2.075353e+01    1.100952e+00
  2.078528e+01    1.070811e+00
  2.081703e+01    1.096123e+00
  2.084878e+01    1.075813e+00
  2.088054e+01    1.082439e+00
  2.091229e+01    1.071940e+00
  2.094404e+01    1.057152e+00
  2.097579e+01    1.074776e+00
  2.100754e+01    1.089441e+00
  2.103929e+01    1.102861e+00
  2.107104e+01    1.077390e+00
  2.110279e+01    1.096534e+00
  2.113455e+01    1.071079e+00
  2.116630e+01    1.078519e+00
  2.119805e+01    1.096944e+00
  2.122980e+01    1.101793e+00
  2.126155e+01    1.087253e+00
  2.129330e+01    1.114674e+00
  2.132505e+01    1.123482e+00
  2.135680e+01    1.144209e+00
  2.138855e+01    1.154139e+00
  2.142031e+01    1.195279e+00
  2.145206e+01    1.211072e+00
  2.148381e+01    1.257128e+00
  2.151556e+01    1.294618e+00
  2.154731e+01    1.389574e+00
  2.157906e+01    1.496179e+00
  2.161081e+01    1.590510e+00
  2.164256e+01    1.814749e+00
  2.167431e+01    2.090492e+00
  2.170607e+01    2.599825e+00
  2.173782e+01    3.298557e+00
  2.176957e+01    4.290056e+00
  2.180132e+01    5.496593e+00
  2.183307e+01    6.832501e+00
  2.186482e+01    8.128278e+00
  2.189657e+01    8.796590e+00
  2.192832e+01    8.270108e+00
  2.196007e+01    6.614681e+00
  2.199183e+01    4.799929e+00
  2.202358e+01    3.478399e+00
  2.205533e+01    2.691901e+00
  2.208708e+01    2.166420e+00
  2.211883e+01    1.862012e+00
  2.215058e+01    1.628667e+00
  2.218233e+01    1.442717e+00
  2.221408e+01    1.344407e+00
  2.224584e+01    1.272800e+00
  2.227759e+01    1.251739e+00
  2.230934e+01    1.164653e+00
  2.234109e+01    1.111992e+00
  2.237284e+01    1.098109e+00
  2.240459e+01    1.052084e+00
  2.243634e+01    1.064444e+00
  2.246809e+01    1.014925e+00
  2.249984e+01    1.015593e+00
  2.253160e+01    1.003250e+00
  2.256335e+01    9.948792e-01
  2.259510e+01    9.603223e-01
  2.262685e+01    9.544109e-01
  2.265860e+01    9.711683e-01
  2.269035e+01    9.253887e-01
  2.272210e+01    9.312311e-01
  2.275385e+01    9.321876e-01
  2.278560e+01    9.263713e-01
  2.281736e+01    9.267229e-01
  2.284911e+01    9.343974e-01
  2.288086e+01    9.231570e-01
  2.291261e+01    9.216291e-01
  2.294436e+01    9.009934e-01
  2.297611e+01    9.053529e-01
  2.300786e+01    8.890849e-01
  2.303961e+01    9.057133e-01
  2.307137e+01    8.728262e-01
  2.310312e+01    8.961753e-01
  2.313487e+01    8.863485e-01
  2.316662e+01    8.834553e-01
  2.319837e+01    8.541254e-01
  2.323012e+01    8.588766e-01
  2.326187e+01    8.874118e-01
  2.329362e+01    8.732179e-01
  2.332537e+01    8.558165e-01
  2.335713e+01    8.636653e-01
  2.338888e+01    8.645726e-01
  2.342063e+01    8.431671e-01
  2.345238e+01    8.516494e-01
  2.348413e+01    8.332822e-01
  2.351588e+01    8.442395e-01
  2.354763e+01    8.560828e-01
  2.357938e+01    8.435795e-01
  2.361113e+01    8.251956e-01
  2.364289e+01    8.310971e-01
  2.367464e+01    8.265214e-01
  2.370639e+01    8.092820e-01
  2.373814e+01    8.284931e-01
  2.376989e+01    7.961986e-01
  2.380164e+01    8.144650e-01
  2.383339e+01    8.085543e-01
  2.386514e+01    8.055042e-01
  2.389689e+01    8.124188e-01
  2.392865e+01    8.091039e-01
  2.396040e+01    8.033751e-01
  2.399215e+01    7.725586e-01
  2.402390e+01    7.869102e-01
  2.405565e+01    7.896318e-01
  2.408740e+01    7.986125e-01
  2.411915e+01    7.972721e-01
  2.415090e+01    7.649819e-01
  2.418266e+01    7.780382e-01
  2.421441e+01    7.790213e-01
  2.424616e+01    7.561961e-01
  2.427791e+01    7.975138e-01
  2.430966e+01    7.874283e-01
  2.434141e+01    7.915080e-01
  2.437316e+01    7.900828e-01
  2.440491e+01    7.905945e-01
  2.443666e+01    7.961565e-01
  2.446842e+01    7.885126e-01
  2.450017e+01    7.847896e-01
  2.453192e+01    7.937770e-01
  2.456367e+01    7.950620e-01
  2.459542e+01    7.774945e-01
  2.462717e+01    7.773947e-01
  2.465892e+01    7.870793e-01
  2.469067e+01    7.914758e-01
  2.472242e+01    7.982249e-01
  2.475418e+01    7.934796e-01
  2.478593e+01    8.055684e-01
  2.481768e+01    8.011460e-01
  2.484943e+01    8.052161e-01
  2.488118e+01    7.989652e-01
  2.491293e+01    7.949774e-01
  2.494468e+01    8.014066e-01
  2.497643e+01    8.078816e-01
  2.500819e+01    8.097578e-01
  2.503994e+01    8.007048e-01
  2.507169e+01    8.106479e-01
  2.510344e+01    8.057743e-01
  2.513519e+01    8.026264e-01
  2.516694e+01    8.148929e-01
  2.519869e+01    8.207991e-01
  2.523044e+01    8.453638e-01
  2.526219e+01    8.443352e-01
  2.529395e+01    8.575255e-01
  2.532570e+01    8.668602e-01
  2.535745e+01    8.962291e-01
  2.538920e+01    8.812923e-01
  2.542095e+01    9.213197e-01
  2.545270e+01    9.271091e-01
  2.548445e+01    9.302689e-01
  2.551620e+01    9.902645e-01
  2.554795e+01    1.003955e+00
  2.557971e+01    1.040789e+00
  2.561146e+01    1.131963e+00
  2.564321e+01    1.202794e+00
  2.567496e+01    1.292428e+00
  2.570671e+01    1.517113e+00
  2.573846e+01    1.750811e+00
  2.577021e+01    2.117513e+00
  2.580196e+01    2.640610e+00
  2.583371e+01    3.460502e+00
  2.586547e+01    4.484525e+00
  2.589722e+01    5.658798e+00
  2.592897e+01    6.701556e+00
  2.596072e+01    7.229029e+00
  2.599247e+01    6.729873e+00
  2.602422e+01    5.399172e+00
  2.605597e+01    4.048555e+00
  2.608772e+01    2.998899e+00
  2.611948e+01    2.322083e+00
  2.615123e+01    1.871611e+00
  2.618298e+01    1.591475e+00
  2.621473e+01    1.400907e+00
  2.624648e+01    1.263681e+00
  2.627823e+01    1.137325e+00
  2.630998e+01    1.100644e+00
  2.634173e+01    1.058047e+00
  2.637348e+01    9.906680e-01
  2.640524e+01    9.633920e-01
  2.643699e+01    9.434279e-01
  2.646874e+01    9.205861e-01
  2.650049e+01    9.143955e-01
  2.653224e+01    9.134209e-01
  2.656399e+01    9.064178e-01
  2.659574e+01    8.923021e-01
  2.662749e+01    8.856141e-01
  2.665924e+01    8.938143e-01
  2.669100e+01    8.696415e-01
  2.672275e+01    8.706592e-01
  2.675450e+01    8.632980e-01
  2.678625e+01    8.986040e-01
  2.681800e+01    8.945927e-01
  2.684975e+01    8.735496e-01
  2.688150e+01    8.938357e-01
  2.691325e+01    9.015225e-01
  2.694501e+01    9.297404e-01
  2.697676e+01    9.934002e-01
  2.700851e+01    1.021624e+00
  2.704026e+01    1.103538e+00
  2.707201e+01    1.209942e+00
  2.710376e+01    1.391533e+00
  2.713551e+01    1.615637e+00
  2.716726e+01    1.882345e+00
  2.719901e+01    2.115663e+00
  2.723077e+01    2.144592e+00
  2.726252e+01    1.961122e+00
  2.729427e+01    1.643353e+00
  2.732602e+01    1.419400e+00
  2.735777e+01    1.226829e+00
  2.738952e+01    1.093308e+00
  2.742127e+01    1.020385e+00
  2.745302e+01    9.649296e-01
  2.748477e+01    9.261576e-01
  2.751653e+01    8.939104e-01
  2.754828e+01    8.435344e-01
  2.758003e+01    8.322211e-01
  2.761178e+01    8.630341e-01
  2.764353e+01    8.246856e-01
  2.767528e+01    8.289860e-01
  2.770703e+01    8.114303e-01
  2.773878e+01    7.877351e-01
  2.777054e+01    7.831810e-01
  2.780229e+01    8.131194e-01
  2.783404e+01    7.909960e-01
  2.786579e+01    7.884895e-01
  2.789754e+01    7.897941e-01
  2.792929e+01    8.021764e-01
  2.796104e+01    7.961807e-01
  2.799279e+01    7.931329e-01
  2.802454e+01    7.703489e-01
  2.805630e+01    7.808812e-01
  2.808805e+01    7.738509e-01
  2.811980e+01    7.730591e-01
  2.815155e+01    7.812107e-01
  2.818330e+01    7.752014e-01
  2.821505e+01    7.681298e-01
  2.824680e+01    7.820113e-01
  2.827855e+01    7.580833e-01
  2.831030e+01    7.668420e-01
  2.834206e+01    7.558307e-01
  2.837381e+01    7.628118e-01
  2.840556e+01    7.741092e-01
  2.843731e+01    7.426517e-01
  2.846906e+01    7.472370e-01
  2.850081e+01    7.558402e-01
  2.853256e+01    7.569217e-01
  2.856431e+01    7.416891e-01
  2.859606e+01    7.419047e-01
  2.862782e+01    7.483314e-01
  2.865957e+01    7.441952e-01
  2.869132e+01    7.346753e-01
  2.872307e+01    7.279456e-01
  2.875482e+01    7.533370e-01
  2.878657e+01    7.384173e-01
  2.881832e+01    7.438187e-01
  2.885007e+01    7.411581e-01
  2.888183e+01    7.319657e-01
  2.891358e+01    7.323013e-01
  2.894533e+01    7.237692e-01
  2.897708e+01    7.560309e-01
  2.900883e+01    7.235613e-01
  2.904058e+01    7.380600e-01
  2.907233e+01    7.215605e-01
  2.910408e+01    7.433903e-01
  2.913583e+01    7.371663e-01
  2.916759e+01    7.209501e-01
  2.919934e+01    7.235494e-01
  2.923109e+01    7.208939e-01
  2.926284e+01    7.370728e-01
  2.929459e+01    7.251051e-01
  2.932634e+01    7.233469e-01
  2.935809e+01    7.009498e-01
  2.938984e+01    7.460794e-01
  2.942159e+01    6.979790e-01
  2.945335e+01    7.188614e-01
  2.948510e+01    7.195089e-01
  2.951685e+01    7.202892e-01
  2.954860e+01    6.999631e-01
  2.958035e+01    7.005362e-01
  2.961210e+01    7.250425e-01
  2.964385e+01    6.973583e-01
  2.967560e+01    7.126521e-01
  2.970736e+01    7.137857e-01
  2.973911e+01    7.226902e-01
  2.977086e+01    7.167347e-01
  2.980261e+01    7.087945e-01
  2.983436e+01    7.211257e-01
  2.986611e+01    7.210815e-01
  2.989786e+01    7.041903e-01
  2.992961e+01    7.392318e-01
  2.996136e+01    7.098261e-01
  2.999312e+01    7.234846e-01
  3.002487e+01    7.081831e-01
  3.005662e+01    7.310944e-01
  3.008837e+01    7.215818e-01
  3.012012e+01    7.182925e-01
  3.015187e+01    7.119477e-01
  3.018362e+01    7.112014e-01
  3.021537e+01    7.282293e-01
  3.024712e+01    7.024077e-01
  3.027888e+01    6.973348e-01
  3.031063e+01    7.343333e-01
  3.034238e+01    7.212462e-01
  3.037413e+01    7.093770e-01
  3.040588e+01    7.183691e-01
  3.043763e+01    6.953173e-01
  3.046938e+01    7.206975e-01
  3.050113e+01    7.076339e-01
  3.053288e+01    7.071362e-01
  3.056464e+01    6.993386e-01
  3.059639e+01    7.033612e-01
  3.062814e+01    7.069128e-01
  3.065989e+01    7.056435e-01
  3.069164e+01    7.079593e-01
  3.072339e+01    7.057406e-01
  3.075514e+01    7.103600e-01
  3.078689e+01    7.276762e-01
  3.081865e+01    7.083536e-01
  3.085040e+01    7.136275e-01
  3.088215e+01    7.190122e-01
  3.091390e+01    7.071998e-01
  3.094565e+01    7.269275e-01
  3.097740e+01    7.137535e-01
  3.100915e+01    7.054527e-01
  3.104090e+01    7.196355e-01
  3.107265e+01    7.358942e-01
  3.110441e+01    7.154846e-01
  3.113616e+01    7.215481e-01
  3.116791e+01    7.164420e-01
  3.119966e+01    7.195254e-01
  3.123141e+01    7.252486e-01
  3.126316e+01    7.109050e-01
  3.129491e+01    7.245743e-01
  3.132666e+01    7.111837e-01
  3.135841e+01    7.449659e-01
  3.139017e+01    7.316655e-01
  3.142192e+01    7.304299e-01
  3.145367e+01    7.468751e-01
  3.148542e+01    7.479272e-01
  3.151717e+01    7.819589e-01
  3.154892e+01    7.673118e-01
  3.158067e+01    7.992114e-01
  3.161242e+01    8.196976e-01
  3.164418e+01    8.519016e-01
  3.167593e+01    8.816513e-01
  3.170768e+01    9.789866e-01
  3.173943e+01    1.026328e+00
  3.177118e+01    1.164516e+00
  3.180293e+01    1.375875e+00
  3.183468e+01    1.627941e+00
  3.186643e+01    1.934743e+00
  3.189818e+01    2.111930e+00
  3.192994e+01    2.075197e+00
  3.196169e+01    1.841196e+00
  3.199344e+01    1.590154e+00
  3.202519e+01    1.290300e+00
  3.205694e+01    1.106871e+00
  3.208869e+01    1.031014e+00
  3.212044e+01    9.014174e-01
  3.215219e+01    8.844591e-01
  3.218394e+01    8.074296e-01
  3.221570e+01    7.979788e-01
  3.224745e+01    7.757053e-01
  3.227920e+01    7.578971e-01
  3.231095e+01    7.354570e-01
  3.234270e+01    7.386137e-01
  3.237445e+01    7.267372e-01
  3.240620e+01    7.266439e-01
  3.243795e+01    7.394900e-01
  3.246970e+01    7.014725e-01
  3.250146e+01    7.061304e-01
  3.253321e+01    7.335711e-01
  3.254908e+01    7.504595e-01