File: XRD/Activation ramp/2024-07-27_002_Ru-CGO-ex_Activtation_ramp_000002_data_000128.dat
# == pyFAI calibration ==
# Distance Sample to Detector: 0.4 m
# PONI: 9.750e-02, 1.135e-01 m
# Rotations: -0.000175 0.000000 -0.000000 rad
#
# == Fit2d calibration ==
# Distance Sample-beamCenter: 400.000 mm
# Center: x=1514.000, y=1300.000 pix
# Tilt: 0.010 deg  TiltPlanRot: 0.010 deg
#
# Detector Detector	 Spline= None	 PixelSize= 7.500e-05, 7.500e-05 m
#    Detector has a mask: False
#    Detector has a dark current: False
#    detector has a flat field: False
#
# Wavelength: 6.888e-11 m
# Mask applied: user provided
# Dark current applied: False
# Flat field applied: False
# Polarization factor: 0.99
# Normalization factor: 1.0
# --> /home/myspot/data/2024_07_Rosario/Ru-CGO-ex/2024-07-27_002_Ru-CGO-ex_Activtation_ramp_000002_data_000128.dat
#       q_nm^-1             I
  2.003187e-02    0.000000e+00
  5.178302e-02    1.896418e-01
  8.353417e-02    2.592503e-03
  1.152853e-01    2.774768e-02
  1.470365e-01    1.641128e-01
  1.787876e-01    1.472947e-02
  2.105388e-01    0.000000e+00
  2.422899e-01    7.265461e-02
  2.740411e-01    2.254912e-02
  3.057922e-01    3.090991e-02
  3.375433e-01    2.916214e-02
  3.692945e-01    4.140420e-03
  4.010456e-01    7.241380e-02
  4.327968e-01    5.168084e-02
  4.645479e-01    3.872224e-02
  4.962991e-01    3.565849e-02
  5.280502e-01    2.779848e-02
  5.598014e-01    6.954975e-02
  5.915525e-01    3.599581e-02
  6.233037e-01    3.577416e-02
  6.550548e-01    4.230895e-03
  6.868060e-01    3.166610e-02
  7.185571e-01    5.340481e-02
  7.503083e-01    6.634206e-02
  7.820594e-01    9.402287e-02
  8.138106e-01    2.094211e-01
  8.455617e-01    2.856433e-01
  8.773129e-01    4.731944e-01
  9.090640e-01    5.925391e-01
  9.408152e-01    6.280603e-01
  9.725663e-01    8.932181e-01
  1.004317e+00    9.673986e-01
  1.036069e+00    1.168790e+00
  1.067820e+00    1.245235e+00
  1.099571e+00    1.286825e+00
  1.131322e+00    1.383165e+00
  1.163073e+00    1.481450e+00
  1.194824e+00    1.580403e+00
  1.226575e+00    1.909482e+00
  1.258327e+00    2.401835e+00
  1.290078e+00    2.362509e+00
  1.321829e+00    2.441515e+00
  1.353580e+00    2.405057e+00
  1.385331e+00    2.544133e+00
  1.417082e+00    2.468049e+00
  1.448834e+00    2.537944e+00
  1.480585e+00    2.810587e+00
  1.512336e+00    2.911621e+00
  1.544087e+00    2.966473e+00
  1.575838e+00    2.926732e+00
  1.607589e+00    2.960975e+00
  1.639340e+00    2.917445e+00
  1.671092e+00    2.966290e+00
  1.702843e+00    2.845749e+00
  1.734594e+00    2.730975e+00
  1.766345e+00    2.787632e+00
  1.798096e+00    2.768194e+00
  1.829847e+00    2.711027e+00
  1.861598e+00    2.692199e+00
  1.893350e+00    2.694621e+00
  1.925101e+00    2.854444e+00
  1.956852e+00    2.739395e+00
  1.988603e+00    2.747932e+00
  2.020354e+00    2.635451e+00
  2.052105e+00    2.818326e+00
  2.083856e+00    2.783817e+00
  2.115608e+00    2.690593e+00
  2.147359e+00    2.756313e+00
  2.179110e+00    2.638504e+00
  2.210861e+00    2.799558e+00
  2.242612e+00    2.699468e+00
  2.274363e+00    2.730854e+00
  2.306115e+00    2.653246e+00
  2.337866e+00    2.783073e+00
  2.369617e+00    2.727994e+00
  2.401368e+00    2.654039e+00
  2.433119e+00    2.727660e+00
  2.464870e+00    2.780428e+00
  2.496621e+00    2.736120e+00
  2.528373e+00    2.753613e+00
  2.560124e+00    2.839789e+00
  2.591875e+00    2.742862e+00
  2.623626e+00    2.753220e+00
  2.655377e+00    2.726968e+00
  2.687128e+00    2.775994e+00
  2.718879e+00    2.851008e+00
  2.750631e+00    2.734429e+00
  2.782382e+00    2.876744e+00
  2.814133e+00    2.748551e+00
  2.845884e+00    2.917066e+00
  2.877635e+00    2.778106e+00
  2.909386e+00    2.832288e+00
  2.941137e+00    2.812918e+00
  2.972889e+00    2.799009e+00
  3.004640e+00    2.784410e+00
  3.036391e+00    2.927499e+00
  3.068142e+00    2.863384e+00
  3.099893e+00    2.832198e+00
  3.131644e+00    2.792700e+00
  3.163395e+00    2.955147e+00
  3.195147e+00    2.858896e+00
  3.226898e+00    2.833869e+00
  3.258649e+00    2.992491e+00
  3.290400e+00    2.922541e+00
  3.322151e+00    2.935988e+00
  3.353902e+00    2.854726e+00
  3.385654e+00    2.872653e+00
  3.417405e+00    2.873043e+00
  3.449156e+00    2.885693e+00
  3.480907e+00    2.926265e+00
  3.512658e+00    3.004960e+00
  3.544409e+00    2.951381e+00
  3.576160e+00    3.023259e+00
  3.607912e+00    2.913813e+00
  3.639663e+00    2.963712e+00
  3.671414e+00    2.936757e+00
  3.703165e+00    2.937342e+00
  3.734916e+00    2.943602e+00
  3.766667e+00    2.977739e+00
  3.798418e+00    2.990282e+00
  3.830170e+00    2.969822e+00
  3.861921e+00    3.027184e+00
  3.893672e+00    2.946277e+00
  3.925423e+00    2.945778e+00
  3.957174e+00    3.006345e+00
  3.988925e+00    3.076166e+00
  4.020676e+00    2.966888e+00
  4.052428e+00    2.989956e+00
  4.084179e+00    2.956253e+00
  4.115930e+00    3.063555e+00
  4.147681e+00    3.095299e+00
  4.179432e+00    3.008377e+00
  4.211183e+00    3.025329e+00
  4.242935e+00    2.989752e+00
  4.274686e+00    3.028601e+00
  4.306437e+00    3.004673e+00
  4.338188e+00    3.009606e+00
  4.369939e+00    3.013267e+00
  4.401690e+00    3.055213e+00
  4.433441e+00    2.981438e+00
  4.465193e+00    3.010235e+00
  4.496944e+00    3.011775e+00
  4.528695e+00    3.099527e+00
  4.560446e+00    3.029526e+00
  4.592197e+00    3.155753e+00
  4.623948e+00    3.127520e+00
  4.655699e+00    3.098228e+00
  4.687451e+00    2.940567e+00
  4.719202e+00    3.115427e+00
  4.750953e+00    3.037680e+00
  4.782704e+00    3.005535e+00
  4.814455e+00    3.036327e+00
  4.846206e+00    3.099480e+00
  4.877957e+00    3.045506e+00
  4.909709e+00    3.035632e+00
  4.941460e+00    3.082649e+00
  4.973211e+00    3.093560e+00
  5.004962e+00    3.063193e+00
  5.036713e+00    3.028034e+00
  5.068464e+00    3.074728e+00
  5.100216e+00    3.062346e+00
  5.131967e+00    3.108121e+00
  5.163718e+00    3.171414e+00
  5.195469e+00    3.117937e+00
  5.227220e+00    3.070301e+00
  5.258971e+00    3.119802e+00
  5.290722e+00    3.077424e+00
  5.322474e+00    3.113620e+00
  5.354225e+00    3.152655e+00
  5.385976e+00    3.153652e+00
  5.417727e+00    3.078317e+00
  5.449478e+00    3.079890e+00
  5.481229e+00    3.084572e+00
  5.512980e+00    3.087788e+00
  5.544732e+00    3.108378e+00
  5.576483e+00    3.098549e+00
  5.608234e+00    2.991359e+00
  5.639985e+00    3.028992e+00
  5.671736e+00    3.016405e+00
  5.703487e+00    3.062853e+00
  5.735238e+00    3.028209e+00
  5.766990e+00    3.013227e+00
  5.798741e+00    3.025228e+00
  5.830492e+00    3.032997e+00
  5.862243e+00    3.005321e+00
  5.893994e+00    3.071805e+00
  5.925745e+00    3.010584e+00
  5.957497e+00    2.909039e+00
  5.989248e+00    2.996686e+00
  6.020999e+00    2.974489e+00
  6.052750e+00    3.051114e+00
  6.084501e+00    3.048701e+00
  6.116252e+00    3.052541e+00
  6.148003e+00    2.999413e+00
  6.179755e+00    3.029482e+00
  6.211506e+00    3.076806e+00
  6.243257e+00    2.938782e+00
  6.275008e+00    3.077858e+00
  6.306759e+00    3.005080e+00
  6.338510e+00    2.966084e+00
  6.370261e+00    3.083903e+00
  6.402013e+00    2.996991e+00
  6.433764e+00    2.944099e+00
  6.465515e+00    2.935105e+00
  6.497266e+00    2.987789e+00
  6.529017e+00    3.029889e+00
  6.560768e+00    3.054198e+00
  6.592519e+00    2.929722e+00
  6.624271e+00    3.057452e+00
  6.656022e+00    3.024632e+00
  6.687773e+00    3.082279e+00
  6.719524e+00    3.055113e+00
  6.751275e+00    2.967538e+00
  6.783026e+00    2.986844e+00
  6.814777e+00    2.950544e+00
  6.846529e+00    2.941756e+00
  6.878280e+00    3.007612e+00
  6.910031e+00    2.986820e+00
  6.941782e+00    3.046909e+00
  6.973533e+00    3.036246e+00
  7.005284e+00    2.967191e+00
  7.037036e+00    3.010637e+00
  7.068787e+00    2.935933e+00
  7.100538e+00    2.944341e+00
  7.132289e+00    2.941362e+00
  7.164040e+00    2.938935e+00
  7.195791e+00    2.967046e+00
  7.227542e+00    3.034759e+00
  7.259294e+00    2.971049e+00
  7.291045e+00    3.034515e+00
  7.322796e+00    2.983359e+00
  7.354547e+00    2.983829e+00
  7.386298e+00    2.937629e+00
  7.418049e+00    2.957046e+00
  7.449800e+00    2.900605e+00
  7.481552e+00    3.004788e+00
  7.513303e+00    2.954087e+00
  7.545054e+00    2.911837e+00
  7.576805e+00    2.901732e+00
  7.608556e+00    2.932634e+00
  7.640307e+00    2.919064e+00
  7.672058e+00    2.884084e+00
  7.703810e+00    2.872840e+00
  7.735561e+00    2.945029e+00
  7.767312e+00    2.904663e+00
  7.799063e+00    2.985199e+00
  7.830814e+00    2.913856e+00
  7.862565e+00    2.860144e+00
  7.894317e+00    2.887259e+00
  7.926068e+00    2.910471e+00
  7.957819e+00    2.921936e+00
  7.989570e+00    2.908409e+00
  8.021321e+00    2.928207e+00
  8.053072e+00    2.872904e+00
  8.084823e+00    2.882888e+00
  8.116575e+00    2.864777e+00
  8.148326e+00    2.890254e+00
  8.180077e+00    2.876005e+00
  8.211828e+00    2.910306e+00
  8.243579e+00    3.001648e+00
  8.275330e+00    2.885715e+00
  8.307081e+00    2.923493e+00
  8.338833e+00    2.913994e+00
  8.370584e+00    2.865957e+00
  8.402335e+00    2.795175e+00
  8.434086e+00    2.868484e+00
  8.465837e+00    2.852089e+00
  8.497588e+00    2.792910e+00
  8.529339e+00    2.852435e+00
  8.561091e+00    2.827276e+00
  8.592842e+00    2.876810e+00
  8.624593e+00    2.826823e+00
  8.656344e+00    2.805928e+00
  8.688095e+00    2.854760e+00
  8.719846e+00    2.815759e+00
  8.751598e+00    2.804175e+00
  8.783349e+00    2.826578e+00
  8.815100e+00    2.825288e+00
  8.846851e+00    2.848075e+00
  8.878602e+00    2.797953e+00
  8.910353e+00    2.747273e+00
  8.942104e+00    2.869696e+00
  8.973856e+00    2.851780e+00
  9.005607e+00    2.774065e+00
  9.037358e+00    2.743911e+00
  9.069109e+00    2.804400e+00
  9.100860e+00    2.762987e+00
  9.132611e+00    2.767784e+00
  9.164362e+00    2.761042e+00
  9.196114e+00    2.766529e+00
  9.227865e+00    2.760329e+00
  9.259616e+00    2.774994e+00
  9.291367e+00    2.753254e+00
  9.323118e+00    2.726271e+00
  9.354869e+00    2.766253e+00
  9.386620e+00    2.725683e+00
  9.418372e+00    2.741233e+00
  9.450123e+00    2.724442e+00
  9.481874e+00    2.739817e+00
  9.513625e+00    2.756269e+00
  9.545376e+00    2.769323e+00
  9.577127e+00    2.724877e+00
  9.608878e+00    2.764130e+00
  9.640630e+00    2.726039e+00
  9.672381e+00    2.748863e+00
  9.704132e+00    2.686579e+00
  9.735883e+00    2.693968e+00
  9.767634e+00    2.671710e+00
  9.799385e+00    2.652692e+00
  9.831137e+00    2.688548e+00
  9.862888e+00    2.677226e+00
  9.894639e+00    2.625173e+00
  9.926390e+00    2.684998e+00
  9.958141e+00    2.643231e+00
  9.989892e+00    2.656305e+00
  1.002164e+01    2.666564e+00
  1.005339e+01    2.707010e+00
  1.008515e+01    2.650208e+00
  1.011690e+01    2.615540e+00
  1.014865e+01    2.605505e+00
  1.018040e+01    2.553598e+00
  1.021215e+01    2.603745e+00
  1.024390e+01    2.649478e+00
  1.027565e+01    2.569897e+00
  1.030740e+01    2.566233e+00
  1.033915e+01    2.599218e+00
  1.037091e+01    2.588216e+00
  1.040266e+01    2.582460e+00
  1.043441e+01    2.600055e+00
  1.046616e+01    2.587851e+00
  1.049791e+01    2.591605e+00
  1.052966e+01    2.530445e+00
  1.056141e+01    2.538935e+00
  1.059316e+01    2.551023e+00
  1.062492e+01    2.540190e+00
  1.065667e+01    2.558538e+00
  1.068842e+01    2.494497e+00
  1.072017e+01    2.575356e+00
  1.075192e+01    2.510352e+00
  1.078367e+01    2.543728e+00
  1.081542e+01    2.555110e+00
  1.084717e+01    2.553135e+00
  1.087892e+01    2.460396e+00
  1.091068e+01    2.438577e+00
  1.094243e+01    2.419234e+00
  1.097418e+01    2.435694e+00
  1.100593e+01    2.461046e+00
  1.103768e+01    2.461697e+00
  1.106943e+01    2.463195e+00
  1.110118e+01    2.442578e+00
  1.113293e+01    2.452419e+00
  1.116468e+01    2.452662e+00
  1.119644e+01    2.464087e+00
  1.122819e+01    2.394183e+00
  1.125994e+01    2.440004e+00
  1.129169e+01    2.438863e+00
  1.132344e+01    2.393078e+00
  1.135519e+01    2.423236e+00
  1.138694e+01    2.430296e+00
  1.141869e+01    2.410005e+00
  1.145045e+01    2.365191e+00
  1.148220e+01    2.375073e+00
  1.151395e+01    2.396945e+00
  1.154570e+01    2.392488e+00
  1.157745e+01    2.411433e+00
  1.160920e+01    2.402753e+00
  1.164095e+01    2.359249e+00
  1.167270e+01    2.325991e+00
  1.170445e+01    2.355343e+00
  1.173621e+01    2.354371e+00
  1.176796e+01    2.358057e+00
  1.179971e+01    2.347908e+00
  1.183146e+01    2.365282e+00
  1.186321e+01    2.370468e+00
  1.189496e+01    2.306005e+00
  1.192671e+01    2.282530e+00
  1.195846e+01    2.295418e+00
  1.199021e+01    2.255857e+00
  1.202197e+01    2.342225e+00
  1.205372e+01    2.309275e+00
  1.208547e+01    2.330429e+00
  1.211722e+01    2.267289e+00
  1.214897e+01    2.260294e+00
  1.218072e+01    2.289361e+00
  1.221247e+01    2.317611e+00
  1.224422e+01    2.302331e+00
  1.227597e+01    2.245340e+00
  1.230773e+01    2.342064e+00
  1.233948e+01    2.322106e+00
  1.237123e+01    2.343399e+00
  1.240298e+01    2.311129e+00
  1.243473e+01    2.348475e+00
  1.246648e+01    2.256912e+00
  1.249823e+01    2.318688e+00
  1.252998e+01    2.351177e+00
  1.256174e+01    2.366759e+00
  1.259349e+01    2.347502e+00
  1.262524e+01    2.363195e+00
  1.265699e+01    2.399255e+00
  1.268874e+01    2.420398e+00
  1.272049e+01    2.442843e+00
  1.275224e+01    2.524435e+00
  1.278399e+01    2.579421e+00
  1.281574e+01    2.650097e+00
  1.284750e+01    2.828311e+00
  1.287925e+01    3.038018e+00
  1.291100e+01    3.249172e+00
  1.294275e+01    3.651945e+00
  1.297450e+01    4.334086e+00
  1.300625e+01    5.319188e+00
  1.303800e+01    6.998539e+00
  1.306975e+01    9.458510e+00
  1.310150e+01    1.208598e+01
  1.313326e+01    1.450011e+01
  1.316501e+01    1.668119e+01
  1.319676e+01    1.713127e+01
  1.322851e+01    1.422401e+01
  1.326026e+01    1.019855e+01
  1.329201e+01    7.321780e+00
  1.332376e+01    5.495008e+00
  1.335551e+01    4.416783e+00
  1.338727e+01    3.714825e+00
  1.341902e+01    3.197000e+00
  1.345077e+01    2.987636e+00
  1.348252e+01    2.794741e+00
  1.351427e+01    2.619084e+00
  1.354602e+01    2.526263e+00
  1.357777e+01    2.480199e+00
  1.360952e+01    2.360695e+00
  1.364127e+01    2.344184e+00
  1.367303e+01    2.265774e+00
  1.370478e+01    2.224984e+00
  1.373653e+01    2.190554e+00
  1.376828e+01    2.177604e+00
  1.380003e+01    2.124483e+00
  1.383178e+01    2.097782e+00
  1.386353e+01    2.136569e+00
  1.389528e+01    2.103899e+00
  1.392703e+01    2.097999e+00
  1.395879e+01    2.075424e+00
  1.399054e+01    2.048101e+00
  1.402229e+01    1.994543e+00
  1.405404e+01    2.050350e+00
  1.408579e+01    2.035183e+00
  1.411754e+01    1.964149e+00
  1.414929e+01    1.980820e+00
  1.418104e+01    1.982686e+00
  1.421279e+01    1.975494e+00
  1.424455e+01    1.920724e+00
  1.427630e+01    1.967367e+00
  1.430805e+01    1.969037e+00
  1.433980e+01    1.920721e+00
  1.437155e+01    1.923323e+00
  1.440330e+01    1.903727e+00
  1.443505e+01    1.940215e+00
  1.446680e+01    1.934679e+00
  1.449856e+01    1.928740e+00
  1.453031e+01    1.931418e+00
  1.456206e+01    1.879559e+00
  1.459381e+01    1.883334e+00
  1.462556e+01    1.891633e+00
  1.465731e+01    1.905355e+00
  1.468906e+01    1.914988e+00
  1.472081e+01    1.888081e+00
  1.475256e+01    1.881799e+00
  1.478432e+01    1.865137e+00
  1.481607e+01    1.922374e+00
  1.484782e+01    1.878601e+00
  1.487957e+01    1.909083e+00
  1.491132e+01    1.983412e+00
  1.494307e+01    1.986344e+00
  1.497482e+01    2.044424e+00
  1.500657e+01    2.167154e+00
  1.503832e+01    2.300588e+00
  1.507008e+01    2.484758e+00
  1.510183e+01    2.858298e+00
  1.513358e+01    3.430433e+00
  1.516533e+01    4.165380e+00
  1.519708e+01    4.861066e+00
  1.522883e+01    5.505005e+00
  1.526058e+01    5.833262e+00
  1.529233e+01    5.666897e+00
  1.532409e+01    4.927262e+00
  1.535584e+01    3.946758e+00
  1.538759e+01    3.103045e+00
  1.541934e+01    2.697697e+00
  1.545109e+01    2.321601e+00
  1.548284e+01    2.150626e+00
  1.551459e+01    1.991664e+00
  1.554634e+01    1.960206e+00
  1.557809e+01    1.873205e+00
  1.560985e+01    1.824083e+00
  1.564160e+01    1.784094e+00
  1.567335e+01    1.763393e+00
  1.570510e+01    1.713160e+00
  1.573685e+01    1.670290e+00
  1.576860e+01    1.665265e+00
  1.580035e+01    1.702325e+00
  1.583210e+01    1.647003e+00
  1.586385e+01    1.633125e+00
  1.589561e+01    1.659365e+00
  1.592736e+01    1.609259e+00
  1.595911e+01    1.634700e+00
  1.599086e+01    1.641344e+00
  1.602261e+01    1.590594e+00
  1.605436e+01    1.562278e+00
  1.608611e+01    1.596193e+00
  1.611786e+01    1.572373e+00
  1.614961e+01    1.548188e+00
  1.618137e+01    1.558980e+00
  1.621312e+01    1.558883e+00
  1.624487e+01    1.570375e+00
  1.627662e+01    1.550057e+00
  1.630837e+01    1.528111e+00
  1.634012e+01    1.488921e+00
  1.637187e+01    1.532934e+00
  1.640362e+01    1.503546e+00
  1.643538e+01    1.498459e+00
  1.646713e+01    1.532411e+00
  1.649888e+01    1.504687e+00
  1.653063e+01    1.501281e+00
  1.656238e+01    1.490136e+00
  1.659413e+01    1.495686e+00
  1.662588e+01    1.470535e+00
  1.665763e+01    1.508243e+00
  1.668938e+01    1.458645e+00
  1.672114e+01    1.456959e+00
  1.675289e+01    1.429992e+00
  1.678464e+01    1.485592e+00
  1.681639e+01    1.456095e+00
  1.684814e+01    1.455577e+00
  1.687989e+01    1.474731e+00
  1.691164e+01    1.462035e+00
  1.694339e+01    1.433843e+00
  1.697514e+01    1.441396e+00
  1.700690e+01    1.431639e+00
  1.703865e+01    1.397840e+00
  1.707040e+01    1.423768e+00
  1.710215e+01    1.428401e+00
  1.713390e+01    1.401074e+00
  1.716565e+01    1.394275e+00
  1.719740e+01    1.400426e+00
  1.722915e+01    1.395288e+00
  1.726091e+01    1.406375e+00
  1.729266e+01    1.369425e+00
  1.732441e+01    1.376311e+00
  1.735616e+01    1.379278e+00
  1.738791e+01    1.375326e+00
  1.741966e+01    1.399825e+00
  1.745141e+01    1.357696e+00
  1.748316e+01    1.358824e+00
  1.751491e+01    1.345599e+00
  1.754667e+01    1.352671e+00
  1.757842e+01    1.346797e+00
  1.761017e+01    1.384177e+00
  1.764192e+01    1.341790e+00
  1.767367e+01    1.327476e+00
  1.770542e+01    1.320226e+00
  1.773717e+01    1.317702e+00
  1.776892e+01    1.305022e+00
  1.780067e+01    1.319311e+00
  1.783243e+01    1.316690e+00
  1.786418e+01    1.347538e+00
  1.789593e+01    1.292586e+00
  1.792768e+01    1.340011e+00
  1.795943e+01    1.289707e+00
  1.799118e+01    1.296419e+00
  1.802293e+01    1.292122e+00
  1.805468e+01    1.299491e+00
  1.808643e+01    1.264428e+00
  1.811819e+01    1.252206e+00
  1.814994e+01    1.281220e+00
  1.818169e+01    1.270768e+00
  1.821344e+01    1.249635e+00
  1.824519e+01    1.281700e+00
  1.827694e+01    1.260541e+00
  1.830869e+01    1.259708e+00
  1.834044e+01    1.250748e+00
  1.837220e+01    1.241364e+00
  1.840395e+01    1.264393e+00
  1.843570e+01    1.228738e+00
  1.846745e+01    1.248647e+00
  1.849920e+01    1.230895e+00
  1.853095e+01    1.230730e+00
  1.856270e+01    1.205137e+00
  1.859445e+01    1.219710e+00
  1.862620e+01    1.192447e+00
  1.865796e+01    1.230051e+00
  1.868971e+01    1.205854e+00
  1.872146e+01    1.239805e+00
  1.875321e+01    1.248985e+00
  1.878496e+01    1.224210e+00
  1.881671e+01    1.218693e+00
  1.884846e+01    1.192294e+00
  1.888021e+01    1.199833e+00
  1.891196e+01    1.200712e+00
  1.894372e+01    1.192139e+00
  1.897547e+01    1.199004e+00
  1.900722e+01    1.197523e+00
  1.903897e+01    1.180972e+00
  1.907072e+01    1.205403e+00
  1.910247e+01    1.178547e+00
  1.913422e+01    1.191768e+00
  1.916597e+01    1.190550e+00
  1.919773e+01    1.170455e+00
  1.922948e+01    1.208309e+00
  1.926123e+01    1.163693e+00
  1.929298e+01    1.181591e+00
  1.932473e+01    1.166415e+00
  1.935648e+01    1.165348e+00
  1.938823e+01    1.152155e+00
  1.941998e+01    1.162677e+00
  1.945173e+01    1.154027e+00
  1.948349e+01    1.139798e+00
  1.951524e+01    1.157950e+00
  1.954699e+01    1.151233e+00
  1.957874e+01    1.121971e+00
  1.961049e+01    1.135772e+00
  1.964224e+01    1.116444e+00
  1.967399e+01    1.144243e+00
  1.970574e+01    1.105920e+00
  1.973749e+01    1.131962e+00
  1.976925e+01    1.133050e+00
  1.980100e+01    1.142028e+00
  1.983275e+01    1.125281e+00
  1.986450e+01    1.117039e+00
  1.989625e+01    1.105376e+00
  1.992800e+01    1.124456e+00
  1.995975e+01    1.117964e+00
  1.999150e+01    1.141279e+00
  2.002325e+01    1.117897e+00
  2.005501e+01    1.129956e+00
  2.008676e+01    1.122824e+00
  2.011851e+01    1.104784e+00
  2.015026e+01    1.087759e+00
  2.018201e+01    1.091548e+00
  2.021376e+01    1.122415e+00
  2.024551e+01    1.083230e+00
  2.027726e+01    1.090123e+00
  2.030902e+01    1.087519e+00
  2.034077e+01    1.086661e+00
  2.037252e+01    1.082989e+00
  2.040427e+01    1.090482e+00
  2.043602e+01    1.071148e+00
  2.046777e+01    1.077933e+00
  2.049952e+01    1.077214e+00
  2.053127e+01    1.081632e+00
  2.056302e+01    1.068922e+00
  2.059478e+01    1.077293e+00
  2.062653e+01    1.071190e+00
  2.065828e+01    1.045942e+00
  2.069003e+01    1.077695e+00
  2.072178e+01    1.066988e+00
  2.075353e+01    1.068892e+00
  2.078528e+01    1.066327e+00
  2.081703e+01    1.084394e+00
  2.084878e+01    1.066291e+00
  2.088054e+01    1.079867e+00
  2.091229e+01    1.068842e+00
  2.094404e+01    1.085181e+00
  2.097579e+01    1.069183e+00
  2.100754e+01    1.082332e+00
  2.103929e+01    1.100680e+00
  2.107104e+01    1.068848e+00
  2.110279e+01    1.071080e+00
  2.113455e+01    1.097831e+00
  2.116630e+01    1.077955e+00
  2.119805e+01    1.077737e+00
  2.122980e+01    1.108354e+00
  2.126155e+01    1.081012e+00
  2.129330e+01    1.086292e+00
  2.132505e+01    1.148155e+00
  2.135680e+01    1.117732e+00
  2.138855e+01    1.139710e+00
  2.142031e+01    1.178625e+00
  2.145206e+01    1.202002e+00
  2.148381e+01    1.222334e+00
  2.151556e+01    1.297158e+00
  2.154731e+01    1.365034e+00
  2.157906e+01    1.473765e+00
  2.161081e+01    1.588750e+00
  2.164256e+01    1.773990e+00
  2.167431e+01    2.083629e+00
  2.170607e+01    2.504543e+00
  2.173782e+01    3.193242e+00
  2.176957e+01    4.103212e+00
  2.180132e+01    5.374934e+00
  2.183307e+01    6.864355e+00
  2.186482e+01    8.221582e+00
  2.189657e+01    9.337274e+00
  2.192832e+01    9.244386e+00
  2.196007e+01    7.603775e+00
  2.199183e+01    5.613917e+00
  2.202358e+01    4.007010e+00
  2.205533e+01    3.075151e+00
  2.208708e+01    2.435419e+00
  2.211883e+01    2.003961e+00
  2.215058e+01    1.722817e+00
  2.218233e+01    1.544451e+00
  2.221408e+01    1.406036e+00
  2.224584e+01    1.315689e+00
  2.227759e+01    1.220283e+00
  2.230934e+01    1.211899e+00
  2.234109e+01    1.143820e+00
  2.237284e+01    1.097010e+00
  2.240459e+01    1.078151e+00
  2.243634e+01    1.053518e+00
  2.246809e+01    1.028803e+00
  2.249984e+01    1.014670e+00
  2.253160e+01    9.959776e-01
  2.256335e+01    9.749461e-01
  2.259510e+01    9.959763e-01
  2.262685e+01    9.656699e-01
  2.265860e+01    9.703462e-01
  2.269035e+01    9.403843e-01
  2.272210e+01    9.248790e-01
  2.275385e+01    9.360547e-01
  2.278560e+01    9.463661e-01
  2.281736e+01    9.161609e-01
  2.284911e+01    9.154226e-01
  2.288086e+01    8.971602e-01
  2.291261e+01    9.055789e-01
  2.294436e+01    8.998971e-01
  2.297611e+01    9.130749e-01
  2.300786e+01    8.863364e-01
  2.303961e+01    8.916281e-01
  2.307137e+01    8.828152e-01
  2.310312e+01    8.723570e-01
  2.313487e+01    8.976539e-01
  2.316662e+01    8.664308e-01
  2.319837e+01    8.520231e-01
  2.323012e+01    8.833206e-01
  2.326187e+01    8.518818e-01
  2.329362e+01    8.381898e-01
  2.332537e+01    8.564702e-01
  2.335713e+01    8.530367e-01
  2.338888e+01    8.390974e-01
  2.342063e+01    8.643584e-01
  2.345238e+01    8.381679e-01
  2.348413e+01    8.376845e-01
  2.351588e+01    8.474551e-01
  2.354763e+01    8.510967e-01
  2.357938e+01    8.533406e-01
  2.361113e+01    8.502275e-01
  2.364289e+01    8.346983e-01
  2.367464e+01    8.332285e-01
  2.370639e+01    8.184153e-01
  2.373814e+01    8.232027e-01
  2.376989e+01    8.053851e-01
  2.380164e+01    8.048301e-01
  2.383339e+01    7.866874e-01
  2.386514e+01    7.919082e-01
  2.389689e+01    7.960663e-01
  2.392865e+01    8.044671e-01
  2.396040e+01    7.753624e-01
  2.399215e+01    8.114195e-01
  2.402390e+01    7.883250e-01
  2.405565e+01    7.957833e-01
  2.408740e+01    7.544960e-01
  2.411915e+01    7.690657e-01
  2.415090e+01    7.835977e-01
  2.418266e+01    7.927098e-01
  2.421441e+01    7.734696e-01
  2.424616e+01    7.772502e-01
  2.427791e+01    7.892491e-01
  2.430966e+01    7.685921e-01
  2.434141e+01    7.923170e-01
  2.437316e+01    7.696556e-01
  2.440491e+01    7.864679e-01
  2.443666e+01    7.885705e-01
  2.446842e+01    7.674803e-01
  2.450017e+01    7.846880e-01
  2.453192e+01    7.786415e-01
  2.456367e+01    7.931027e-01
  2.459542e+01    7.849491e-01
  2.462717e+01    7.742025e-01
  2.465892e+01    7.986711e-01
  2.469067e+01    7.767144e-01
  2.472242e+01    8.000262e-01
  2.475418e+01    7.869565e-01
  2.478593e+01    7.735005e-01
  2.481768e+01    7.973509e-01
  2.484943e+01    7.710379e-01
  2.488118e+01    7.965904e-01
  2.491293e+01    7.974376e-01
  2.494468e+01    8.013061e-01
  2.497643e+01    7.953301e-01
  2.500819e+01    8.053696e-01
  2.503994e+01    8.151643e-01
  2.507169e+01    8.124909e-01
  2.510344e+01    7.982199e-01
  2.513519e+01    8.174240e-01
  2.516694e+01    8.318279e-01
  2.519869e+01    8.169873e-01
  2.523044e+01    8.456265e-01
  2.526219e+01    8.382636e-01
  2.529395e+01    8.425456e-01
  2.532570e+01    8.605366e-01
  2.535745e+01    8.611086e-01
  2.538920e+01    9.152328e-01
  2.542095e+01    9.053634e-01
  2.545270e+01    9.128760e-01
  2.548445e+01    9.443065e-01
  2.551620e+01    9.747860e-01
  2.554795e+01    1.063318e+00
  2.557971e+01    1.074829e+00
  2.561146e+01    1.141154e+00
  2.564321e+01    1.213593e+00
  2.567496e+01    1.286390e+00
  2.570671e+01    1.475333e+00
  2.573846e+01    1.659715e+00
  2.577021e+01    1.990999e+00
  2.580196e+01    2.535357e+00
  2.583371e+01    3.272553e+00
  2.586547e+01    4.327821e+00
  2.589722e+01    5.564856e+00
  2.592897e+01    6.779064e+00
  2.596072e+01    7.688113e+00
  2.599247e+01    7.542247e+00
  2.602422e+01    6.423470e+00
  2.605597e+01    4.860364e+00
  2.608772e+01    3.544524e+00
  2.611948e+01    2.654269e+00
  2.615123e+01    2.125412e+00
  2.618298e+01    1.760090e+00
  2.621473e+01    1.494040e+00
  2.624648e+01    1.352297e+00
  2.627823e+01    1.245410e+00
  2.630998e+01    1.147319e+00
  2.634173e+01    1.084816e+00
  2.637348e+01    1.036963e+00
  2.640524e+01    1.013074e+00
  2.643699e+01    9.613428e-01
  2.646874e+01    9.751722e-01
  2.650049e+01    9.303568e-01
  2.653224e+01    9.274122e-01
  2.656399e+01    9.211389e-01
  2.659574e+01    9.178321e-01
  2.662749e+01    8.938961e-01
  2.665924e+01    8.834915e-01
  2.669100e+01    8.738613e-01
  2.672275e+01    9.019224e-01
  2.675450e+01    8.871632e-01
  2.678625e+01    9.039847e-01
  2.681800e+01    8.843205e-01
  2.684975e+01    8.922002e-01
  2.688150e+01    9.147014e-01
  2.691325e+01    9.233876e-01
  2.694501e+01    9.280791e-01
  2.697676e+01    9.988180e-01
  2.700851e+01    1.005007e+00
  2.704026e+01    1.094919e+00
  2.707201e+01    1.194861e+00
  2.710376e+01    1.340617e+00
  2.713551e+01    1.562556e+00
  2.716726e+01    1.880101e+00
  2.719901e+01    2.134225e+00
  2.723077e+01    2.304604e+00
  2.726252e+01    2.181983e+00
  2.729427e+01    1.920744e+00
  2.732602e+01    1.590131e+00
  2.735777e+01    1.340557e+00
  2.738952e+01    1.164437e+00
  2.742127e+01    1.080240e+00
  2.745302e+01    1.004661e+00
  2.748477e+01    9.400426e-01
  2.751653e+01    9.242265e-01
  2.754828e+01    8.857619e-01
  2.758003e+01    8.684648e-01
  2.761178e+01    8.609760e-01
  2.764353e+01    8.410237e-01
  2.767528e+01    8.092324e-01
  2.770703e+01    8.432809e-01
  2.773878e+01    8.097432e-01
  2.777054e+01    8.195554e-01
  2.780229e+01    7.985913e-01
  2.783404e+01    8.057827e-01
  2.786579e+01    7.857550e-01
  2.789754e+01    7.934164e-01
  2.792929e+01    7.615915e-01
  2.796104e+01    7.826495e-01
  2.799279e+01    7.874053e-01
  2.802454e+01    7.889022e-01
  2.805630e+01    7.979746e-01
  2.808805e+01    7.642344e-01
  2.811980e+01    7.689255e-01
  2.815155e+01    7.693015e-01
  2.818330e+01    7.901871e-01
  2.821505e+01    7.783616e-01
  2.824680e+01    7.615258e-01
  2.827855e+01    7.676078e-01
  2.831030e+01    7.638313e-01
  2.834206e+01    7.619264e-01
  2.837381e+01    7.648765e-01
  2.840556e+01    7.383024e-01
  2.843731e+01    7.696757e-01
  2.846906e+01    7.570379e-01
  2.850081e+01    7.522072e-01
  2.853256e+01    7.646147e-01
  2.856431e+01    7.461314e-01
  2.859606e+01    7.231424e-01
  2.862782e+01    7.470997e-01
  2.865957e+01    7.313936e-01
  2.869132e+01    7.484823e-01
  2.872307e+01    7.501600e-01
  2.875482e+01    7.442259e-01
  2.878657e+01    7.379407e-01
  2.881832e+01    7.404831e-01
  2.885007e+01    7.300540e-01
  2.888183e+01    7.365465e-01
  2.891358e+01    7.454216e-01
  2.894533e+01    7.265257e-01
  2.897708e+01    7.195657e-01
  2.900883e+01    7.474037e-01
  2.904058e+01    7.321563e-01
  2.907233e+01    7.501342e-01
  2.910408e+01    7.287443e-01
  2.913583e+01    7.266771e-01
  2.916759e+01    7.307948e-01
  2.919934e+01    7.348013e-01
  2.923109e+01    7.301180e-01
  2.926284e+01    7.257413e-01
  2.929459e+01    7.233865e-01
  2.932634e+01    7.256812e-01
  2.935809e+01    7.145946e-01
  2.938984e+01    7.287441e-01
  2.942159e+01    7.336081e-01
  2.945335e+01    7.248365e-01
  2.948510e+01    7.216845e-01
  2.951685e+01    7.294619e-01
  2.954860e+01    7.201220e-01
  2.958035e+01    7.153488e-01
  2.961210e+01    7.342806e-01
  2.964385e+01    7.036518e-01
  2.967560e+01    7.198343e-01
  2.970736e+01    7.089247e-01
  2.973911e+01    7.239546e-01
  2.977086e+01    7.109644e-01
  2.980261e+01    7.004061e-01
  2.983436e+01    6.913898e-01
  2.986611e+01    7.087778e-01
  2.989786e+01    7.184330e-01
  2.992961e+01    7.116892e-01
  2.996136e+01    7.071055e-01
  2.999312e+01    7.138053e-01
  3.002487e+01    7.253426e-01
  3.005662e+01    7.200091e-01
  3.008837e+01    7.408254e-01
  3.012012e+01    7.130397e-01
  3.015187e+01    7.244870e-01
  3.018362e+01    7.097470e-01
  3.021537e+01    7.140276e-01
  3.024712e+01    6.824433e-01
  3.027888e+01    7.059331e-01
  3.031063e+01    7.255089e-01
  3.034238e+01    7.048854e-01
  3.037413e+01    6.974456e-01
  3.040588e+01    7.012304e-01
  3.043763e+01    7.108821e-01
  3.046938e+01    6.997298e-01
  3.050113e+01    7.173370e-01
  3.053288e+01    7.008396e-01
  3.056464e+01    7.127731e-01
  3.059639e+01    6.882585e-01
  3.062814e+01    7.242552e-01
  3.065989e+01    7.174640e-01
  3.069164e+01    6.959101e-01
  3.072339e+01    6.879490e-01
  3.075514e+01    7.024994e-01
  3.078689e+01    7.176789e-01
  3.081865e+01    7.171649e-01
  3.085040e+01    7.192648e-01
  3.088215e+01    6.951584e-01
  3.091390e+01    7.024856e-01
  3.094565e+01    7.030631e-01
  3.097740e+01    6.911720e-01
  3.100915e+01    7.185873e-01
  3.104090e+01    7.307119e-01
  3.107265e+01    7.213571e-01
  3.110441e+01    7.052497e-01
  3.113616e+01    7.198957e-01
  3.116791e+01    7.091019e-01
  3.119966e+01    7.252859e-01
  3.123141e+01    7.446063e-01
  3.126316e+01    7.255228e-01
  3.129491e+01    7.203285e-01
  3.132666e+01    7.166922e-01
  3.135841e+01    7.157626e-01
  3.139017e+01    7.521191e-01
  3.142192e+01    7.217731e-01
  3.145367e+01    7.358871e-01
  3.148542e+01    7.692602e-01
  3.151717e+01    7.682794e-01
  3.154892e+01    8.135918e-01
  3.158067e+01    7.600424e-01
  3.161242e+01    8.099229e-01
  3.164418e+01    8.532543e-01
  3.167593e+01    8.828468e-01
  3.170768e+01    9.551064e-01
  3.173943e+01    1.029534e+00
  3.177118e+01    1.122408e+00
  3.180293e+01    1.336345e+00
  3.183468e+01    1.620853e+00
  3.186643e+01    1.912330e+00
  3.189818e+01    2.182325e+00
  3.192994e+01    2.302345e+00
  3.196169e+01    2.138152e+00
  3.199344e+01    1.788568e+00
  3.202519e+01    1.469151e+00
  3.205694e+01    1.276258e+00
  3.208869e+01    1.073511e+00
  3.212044e+01    9.845706e-01
  3.215219e+01    9.160006e-01
  3.218394e+01    7.974843e-01
  3.221570e+01    8.105140e-01
  3.224745e+01    7.960696e-01
  3.227920e+01    7.546551e-01
  3.231095e+01    7.662787e-01
  3.234270e+01    7.192338e-01
  3.237445e+01    7.560632e-01
  3.240620e+01    7.370613e-01
  3.243795e+01    7.448043e-01
  3.246970e+01    7.175456e-01
  3.250146e+01    7.255205e-01
  3.253321e+01    7.300203e-01
  3.254908e+01    7.237095e-01