File: XRD/Activation ramp/2024-07-27_002_Ru-CGO-ex_Activtation_ramp_000002_data_000052.dat
# == pyFAI calibration ==
# Distance Sample to Detector: 0.4 m
# PONI: 9.750e-02, 1.135e-01 m
# Rotations: -0.000175 0.000000 -0.000000 rad
#
# == Fit2d calibration ==
# Distance Sample-beamCenter: 400.000 mm
# Center: x=1514.000, y=1300.000 pix
# Tilt: 0.010 deg  TiltPlanRot: 0.010 deg
#
# Detector Detector	 Spline= None	 PixelSize= 7.500e-05, 7.500e-05 m
#    Detector has a mask: False
#    Detector has a dark current: False
#    detector has a flat field: False
#
# Wavelength: 6.888e-11 m
# Mask applied: user provided
# Dark current applied: False
# Flat field applied: False
# Polarization factor: 0.99
# Normalization factor: 1.0
# --> /home/myspot/data/2024_07_Rosario/Ru-CGO-ex/2024-07-27_002_Ru-CGO-ex_Activtation_ramp_000002_data_000052.dat
#       q_nm^-1             I
  2.003187e-02    2.226973e-02
  5.178302e-02    1.144005e-01
  8.353417e-02    1.003437e-01
  1.152853e-01    6.908096e-02
  1.470365e-01    1.247969e-01
  1.787876e-01    4.704601e-02
  2.105388e-01    3.741128e-02
  2.422899e-01    0.000000e+00
  2.740411e-01    3.644479e-02
  3.057922e-01    5.617080e-02
  3.375433e-01    4.493424e-02
  3.692945e-01    5.090750e-02
  4.010456e-01    1.800456e-02
  4.327968e-01    2.933344e-02
  4.645479e-01    4.337886e-02
  4.962991e-01    2.656464e-02
  5.280502e-01    3.464279e-02
  5.598014e-01    2.899121e-02
  5.915525e-01    5.195254e-02
  6.233037e-01    3.724409e-02
  6.550548e-01    5.009498e-02
  6.868060e-01    3.193030e-02
  7.185571e-01    3.840624e-02
  7.503083e-01    7.397535e-02
  7.820594e-01    1.457993e-01
  8.138106e-01    1.708101e-01
  8.455617e-01    3.393020e-01
  8.773129e-01    3.961582e-01
  9.090640e-01    5.943909e-01
  9.408152e-01    7.898591e-01
  9.725663e-01    9.023543e-01
  1.004317e+00    9.753751e-01
  1.036069e+00    1.282502e+00
  1.067820e+00    1.305100e+00
  1.099571e+00    1.337895e+00
  1.131322e+00    1.319186e+00
  1.163073e+00    1.458969e+00
  1.194824e+00    1.685542e+00
  1.226575e+00    2.028312e+00
  1.258327e+00    2.415230e+00
  1.290078e+00    2.425619e+00
  1.321829e+00    2.535381e+00
  1.353580e+00    2.662634e+00
  1.385331e+00    2.570096e+00
  1.417082e+00    2.595142e+00
  1.448834e+00    2.702591e+00
  1.480585e+00    2.854253e+00
  1.512336e+00    2.965489e+00
  1.544087e+00    2.948278e+00
  1.575838e+00    3.068995e+00
  1.607589e+00    2.851852e+00
  1.639340e+00    3.006740e+00
  1.671092e+00    2.895933e+00
  1.702843e+00    2.819763e+00
  1.734594e+00    2.811931e+00
  1.766345e+00    2.937872e+00
  1.798096e+00    2.778569e+00
  1.829847e+00    2.800273e+00
  1.861598e+00    2.840969e+00
  1.893350e+00    2.648752e+00
  1.925101e+00    2.779147e+00
  1.956852e+00    2.841361e+00
  1.988603e+00    2.702208e+00
  2.020354e+00    2.702648e+00
  2.052105e+00    2.779380e+00
  2.083856e+00    2.740457e+00
  2.115608e+00    2.738996e+00
  2.147359e+00    2.752789e+00
  2.179110e+00    2.905980e+00
  2.210861e+00    2.742407e+00
  2.242612e+00    2.719140e+00
  2.274363e+00    2.790486e+00
  2.306115e+00    2.665517e+00
  2.337866e+00    2.626027e+00
  2.369617e+00    2.845090e+00
  2.401368e+00    2.851977e+00
  2.433119e+00    2.732827e+00
  2.464870e+00    2.942066e+00
  2.496621e+00    2.800011e+00
  2.528373e+00    2.811385e+00
  2.560124e+00    2.756704e+00
  2.591875e+00    2.857301e+00
  2.623626e+00    2.849794e+00
  2.655377e+00    2.806754e+00
  2.687128e+00    2.685616e+00
  2.718879e+00    2.903875e+00
  2.750631e+00    2.823970e+00
  2.782382e+00    2.836141e+00
  2.814133e+00    2.888821e+00
  2.845884e+00    2.846769e+00
  2.877635e+00    2.902622e+00
  2.909386e+00    2.888639e+00
  2.941137e+00    2.866852e+00
  2.972889e+00    2.837902e+00
  3.004640e+00    2.848304e+00
  3.036391e+00    2.957494e+00
  3.068142e+00    2.845515e+00
  3.099893e+00    2.984885e+00
  3.131644e+00    2.903364e+00
  3.163395e+00    2.905662e+00
  3.195147e+00    2.854365e+00
  3.226898e+00    2.918355e+00
  3.258649e+00    2.986334e+00
  3.290400e+00    2.998806e+00
  3.322151e+00    2.948285e+00
  3.353902e+00    2.965471e+00
  3.385654e+00    2.940829e+00
  3.417405e+00    2.907146e+00
  3.449156e+00    2.901083e+00
  3.480907e+00    2.961966e+00
  3.512658e+00    2.932656e+00
  3.544409e+00    2.925433e+00
  3.576160e+00    3.046432e+00
  3.607912e+00    2.987411e+00
  3.639663e+00    2.997345e+00
  3.671414e+00    2.830685e+00
  3.703165e+00    2.958486e+00
  3.734916e+00    2.982893e+00
  3.766667e+00    3.018369e+00
  3.798418e+00    2.988967e+00
  3.830170e+00    3.020015e+00
  3.861921e+00    2.927629e+00
  3.893672e+00    3.008180e+00
  3.925423e+00    3.000568e+00
  3.957174e+00    3.024030e+00
  3.988925e+00    3.066515e+00
  4.020676e+00    3.085448e+00
  4.052428e+00    2.961098e+00
  4.084179e+00    3.065420e+00
  4.115930e+00    3.011797e+00
  4.147681e+00    3.015349e+00
  4.179432e+00    2.952915e+00
  4.211183e+00    3.047686e+00
  4.242935e+00    3.043286e+00
  4.274686e+00    3.064399e+00
  4.306437e+00    3.017716e+00
  4.338188e+00    3.035244e+00
  4.369939e+00    3.071396e+00
  4.401690e+00    3.027673e+00
  4.433441e+00    3.001073e+00
  4.465193e+00    3.063529e+00
  4.496944e+00    3.054443e+00
  4.528695e+00    3.092714e+00
  4.560446e+00    3.043897e+00
  4.592197e+00    3.129071e+00
  4.623948e+00    3.098507e+00
  4.655699e+00    3.110082e+00
  4.687451e+00    3.135348e+00
  4.719202e+00    3.072506e+00
  4.750953e+00    3.217853e+00
  4.782704e+00    3.123028e+00
  4.814455e+00    3.081249e+00
  4.846206e+00    3.077533e+00
  4.877957e+00    3.103955e+00
  4.909709e+00    3.050879e+00
  4.941460e+00    3.122246e+00
  4.973211e+00    3.120733e+00
  5.004962e+00    3.059280e+00
  5.036713e+00    3.145647e+00
  5.068464e+00    3.154210e+00
  5.100216e+00    3.129714e+00
  5.131967e+00    3.115787e+00
  5.163718e+00    3.119776e+00
  5.195469e+00    3.252531e+00
  5.227220e+00    3.106330e+00
  5.258971e+00    3.171440e+00
  5.290722e+00    3.112565e+00
  5.322474e+00    3.102247e+00
  5.354225e+00    3.117100e+00
  5.385976e+00    3.148460e+00
  5.417727e+00    3.112871e+00
  5.449478e+00    3.035056e+00
  5.481229e+00    3.087759e+00
  5.512980e+00    3.076004e+00
  5.544732e+00    3.053136e+00
  5.576483e+00    3.023412e+00
  5.608234e+00    3.158133e+00
  5.639985e+00    3.100263e+00
  5.671736e+00    3.100256e+00
  5.703487e+00    2.996668e+00
  5.735238e+00    3.077712e+00
  5.766990e+00    2.992167e+00
  5.798741e+00    3.033365e+00
  5.830492e+00    3.050571e+00
  5.862243e+00    3.044274e+00
  5.893994e+00    3.099369e+00
  5.925745e+00    3.046130e+00
  5.957497e+00    3.029996e+00
  5.989248e+00    3.044363e+00
  6.020999e+00    2.939168e+00
  6.052750e+00    3.130801e+00
  6.084501e+00    3.030388e+00
  6.116252e+00    3.071577e+00
  6.148003e+00    3.045246e+00
  6.179755e+00    3.050742e+00
  6.211506e+00    3.036435e+00
  6.243257e+00    3.031178e+00
  6.275008e+00    2.984631e+00
  6.306759e+00    3.050904e+00
  6.338510e+00    3.046133e+00
  6.370261e+00    2.999534e+00
  6.402013e+00    3.045696e+00
  6.433764e+00    3.106284e+00
  6.465515e+00    3.015887e+00
  6.497266e+00    2.967218e+00
  6.529017e+00    2.997657e+00
  6.560768e+00    3.042741e+00
  6.592519e+00    3.076686e+00
  6.624271e+00    3.023014e+00
  6.656022e+00    3.016224e+00
  6.687773e+00    3.007437e+00
  6.719524e+00    2.932146e+00
  6.751275e+00    3.021834e+00
  6.783026e+00    2.994945e+00
  6.814777e+00    3.023067e+00
  6.846529e+00    3.005746e+00
  6.878280e+00    2.961433e+00
  6.910031e+00    3.053277e+00
  6.941782e+00    2.982056e+00
  6.973533e+00    2.978223e+00
  7.005284e+00    3.072884e+00
  7.037036e+00    2.995474e+00
  7.068787e+00    3.030535e+00
  7.100538e+00    3.016851e+00
  7.132289e+00    2.981832e+00
  7.164040e+00    2.991886e+00
  7.195791e+00    2.949338e+00
  7.227542e+00    2.948317e+00
  7.259294e+00    3.068585e+00
  7.291045e+00    2.994032e+00
  7.322796e+00    3.072502e+00
  7.354547e+00    3.015926e+00
  7.386298e+00    2.957167e+00
  7.418049e+00    2.988815e+00
  7.449800e+00    2.912220e+00
  7.481552e+00    3.010705e+00
  7.513303e+00    2.998425e+00
  7.545054e+00    2.975290e+00
  7.576805e+00    2.991104e+00
  7.608556e+00    2.989657e+00
  7.640307e+00    2.955518e+00
  7.672058e+00    2.937336e+00
  7.703810e+00    2.970032e+00
  7.735561e+00    2.922732e+00
  7.767312e+00    3.031712e+00
  7.799063e+00    2.889841e+00
  7.830814e+00    2.940605e+00
  7.862565e+00    2.949365e+00
  7.894317e+00    2.881934e+00
  7.926068e+00    2.881590e+00
  7.957819e+00    2.889949e+00
  7.989570e+00    2.868684e+00
  8.021321e+00    2.903372e+00
  8.053072e+00    2.900404e+00
  8.084823e+00    2.942698e+00
  8.116575e+00    2.965864e+00
  8.148326e+00    2.966401e+00
  8.180077e+00    2.978941e+00
  8.211828e+00    2.940394e+00
  8.243579e+00    2.966149e+00
  8.275330e+00    2.912455e+00
  8.307081e+00    2.901505e+00
  8.338833e+00    2.893100e+00
  8.370584e+00    2.940925e+00
  8.402335e+00    2.945224e+00
  8.434086e+00    2.872609e+00
  8.465837e+00    2.815044e+00
  8.497588e+00    2.875425e+00
  8.529339e+00    2.882921e+00
  8.561091e+00    2.895325e+00
  8.592842e+00    2.863936e+00
  8.624593e+00    2.890944e+00
  8.656344e+00    2.907017e+00
  8.688095e+00    2.889043e+00
  8.719846e+00    2.847952e+00
  8.751598e+00    2.852408e+00
  8.783349e+00    2.869297e+00
  8.815100e+00    2.841257e+00
  8.846851e+00    2.812400e+00
  8.878602e+00    2.810292e+00
  8.910353e+00    2.815464e+00
  8.942104e+00    2.839008e+00
  8.973856e+00    2.787131e+00
  9.005607e+00    2.785578e+00
  9.037358e+00    2.842433e+00
  9.069109e+00    2.739702e+00
  9.100860e+00    2.807089e+00
  9.132611e+00    2.753837e+00
  9.164362e+00    2.801283e+00
  9.196114e+00    2.859395e+00
  9.227865e+00    2.760844e+00
  9.259616e+00    2.796864e+00
  9.291367e+00    2.800207e+00
  9.323118e+00    2.822477e+00
  9.354869e+00    2.753170e+00
  9.386620e+00    2.727973e+00
  9.418372e+00    2.780558e+00
  9.450123e+00    2.799426e+00
  9.481874e+00    2.740884e+00
  9.513625e+00    2.762906e+00
  9.545376e+00    2.779658e+00
  9.577127e+00    2.707760e+00
  9.608878e+00    2.719250e+00
  9.640630e+00    2.776718e+00
  9.672381e+00    2.759767e+00
  9.704132e+00    2.686923e+00
  9.735883e+00    2.769747e+00
  9.767634e+00    2.741436e+00
  9.799385e+00    2.733903e+00
  9.831137e+00    2.716257e+00
  9.862888e+00    2.716295e+00
  9.894639e+00    2.685965e+00
  9.926390e+00    2.725101e+00
  9.958141e+00    2.680341e+00
  9.989892e+00    2.691054e+00
  1.002164e+01    2.656490e+00
  1.005339e+01    2.642434e+00
  1.008515e+01    2.647758e+00
  1.011690e+01    2.661469e+00
  1.014865e+01    2.650408e+00
  1.018040e+01    2.641026e+00
  1.021215e+01    2.618693e+00
  1.024390e+01    2.669483e+00
  1.027565e+01    2.685027e+00
  1.030740e+01    2.687750e+00
  1.033915e+01    2.607559e+00
  1.037091e+01    2.611882e+00
  1.040266e+01    2.636994e+00
  1.043441e+01    2.598013e+00
  1.046616e+01    2.569071e+00
  1.049791e+01    2.632259e+00
  1.052966e+01    2.598761e+00
  1.056141e+01    2.534724e+00
  1.059316e+01    2.514893e+00
  1.062492e+01    2.626073e+00
  1.065667e+01    2.582328e+00
  1.068842e+01    2.514838e+00
  1.072017e+01    2.519451e+00
  1.075192e+01    2.514771e+00
  1.078367e+01    2.496733e+00
  1.081542e+01    2.520220e+00
  1.084717e+01    2.522986e+00
  1.087892e+01    2.539585e+00
  1.091068e+01    2.520836e+00
  1.094243e+01    2.486446e+00
  1.097418e+01    2.483375e+00
  1.100593e+01    2.520125e+00
  1.103768e+01    2.498572e+00
  1.106943e+01    2.474086e+00
  1.110118e+01    2.517327e+00
  1.113293e+01    2.436850e+00
  1.116468e+01    2.470931e+00
  1.119644e+01    2.464991e+00
  1.122819e+01    2.444175e+00
  1.125994e+01    2.463167e+00
  1.129169e+01    2.459542e+00
  1.132344e+01    2.487160e+00
  1.135519e+01    2.454930e+00
  1.138694e+01    2.384321e+00
  1.141869e+01    2.413528e+00
  1.145045e+01    2.437051e+00
  1.148220e+01    2.409928e+00
  1.151395e+01    2.422978e+00
  1.154570e+01    2.411423e+00
  1.157745e+01    2.377921e+00
  1.160920e+01    2.433639e+00
  1.164095e+01    2.388242e+00
  1.167270e+01    2.356055e+00
  1.170445e+01    2.355288e+00
  1.173621e+01    2.380570e+00
  1.176796e+01    2.340908e+00
  1.179971e+01    2.367950e+00
  1.183146e+01    2.334271e+00
  1.186321e+01    2.334674e+00
  1.189496e+01    2.310679e+00
  1.192671e+01    2.349791e+00
  1.195846e+01    2.354738e+00
  1.199021e+01    2.309001e+00
  1.202197e+01    2.353407e+00
  1.205372e+01    2.369421e+00
  1.208547e+01    2.323476e+00
  1.211722e+01    2.329364e+00
  1.214897e+01    2.343778e+00
  1.218072e+01    2.325631e+00
  1.221247e+01    2.299504e+00
  1.224422e+01    2.349932e+00
  1.227597e+01    2.348134e+00
  1.230773e+01    2.320161e+00
  1.233948e+01    2.258936e+00
  1.237123e+01    2.360572e+00
  1.240298e+01    2.275239e+00
  1.243473e+01    2.363405e+00
  1.246648e+01    2.339612e+00
  1.249823e+01    2.370066e+00
  1.252998e+01    2.343546e+00
  1.256174e+01    2.384658e+00
  1.259349e+01    2.346345e+00
  1.262524e+01    2.420096e+00
  1.265699e+01    2.450369e+00
  1.268874e+01    2.444345e+00
  1.272049e+01    2.471865e+00
  1.275224e+01    2.568228e+00
  1.278399e+01    2.636912e+00
  1.281574e+01    2.691313e+00
  1.284750e+01    2.894140e+00
  1.287925e+01    3.028120e+00
  1.291100e+01    3.280093e+00
  1.294275e+01    3.723841e+00
  1.297450e+01    4.305277e+00
  1.300625e+01    5.223950e+00
  1.303800e+01    6.864254e+00
  1.306975e+01    9.206341e+00
  1.310150e+01    1.201686e+01
  1.313326e+01    1.496670e+01
  1.316501e+01    1.767524e+01
  1.319676e+01    1.920836e+01
  1.322851e+01    1.703325e+01
  1.326026e+01    1.265176e+01
  1.329201e+01    8.913741e+00
  1.332376e+01    6.521912e+00
  1.335551e+01    5.157372e+00
  1.338727e+01    4.233996e+00
  1.341902e+01    3.588060e+00
  1.345077e+01    3.202641e+00
  1.348252e+01    2.917312e+00
  1.351427e+01    2.724151e+00
  1.354602e+01    2.659451e+00
  1.357777e+01    2.542300e+00
  1.360952e+01    2.452642e+00
  1.364127e+01    2.390190e+00
  1.367303e+01    2.319171e+00
  1.370478e+01    2.266898e+00
  1.373653e+01    2.236601e+00
  1.376828e+01    2.208942e+00
  1.380003e+01    2.210331e+00
  1.383178e+01    2.155021e+00
  1.386353e+01    2.124221e+00
  1.389528e+01    2.122236e+00
  1.392703e+01    2.067172e+00
  1.395879e+01    2.078843e+00
  1.399054e+01    2.066641e+00
  1.402229e+01    2.039776e+00
  1.405404e+01    2.054970e+00
  1.408579e+01    2.082840e+00
  1.411754e+01    2.047206e+00
  1.414929e+01    2.019472e+00
  1.418104e+01    1.978126e+00
  1.421279e+01    2.004705e+00
  1.424455e+01    1.982764e+00
  1.427630e+01    1.983819e+00
  1.430805e+01    1.959601e+00
  1.433980e+01    1.964078e+00
  1.437155e+01    1.985287e+00
  1.440330e+01    1.977114e+00
  1.443505e+01    1.951457e+00
  1.446680e+01    1.983357e+00
  1.449856e+01    1.936283e+00
  1.453031e+01    1.949000e+00
  1.456206e+01    1.917724e+00
  1.459381e+01    1.909241e+00
  1.462556e+01    1.964146e+00
  1.465731e+01    1.919396e+00
  1.468906e+01    1.941342e+00
  1.472081e+01    1.907535e+00
  1.475256e+01    1.901767e+00
  1.478432e+01    1.917142e+00
  1.481607e+01    1.924711e+00
  1.484782e+01    1.963761e+00
  1.487957e+01    1.962561e+00
  1.491132e+01    1.993811e+00
  1.494307e+01    1.986836e+00
  1.497482e+01    2.040187e+00
  1.500657e+01    2.126681e+00
  1.503832e+01    2.289962e+00
  1.507008e+01    2.452018e+00
  1.510183e+01    2.797795e+00
  1.513358e+01    3.266150e+00
  1.516533e+01    3.980791e+00
  1.519708e+01    4.919054e+00
  1.522883e+01    5.528704e+00
  1.526058e+01    6.204066e+00
  1.529233e+01    6.323381e+00
  1.532409e+01    5.849906e+00
  1.535584e+01    4.608521e+00
  1.538759e+01    3.588585e+00
  1.541934e+01    2.969444e+00
  1.545109e+01    2.572092e+00
  1.548284e+01    2.283483e+00
  1.551459e+01    2.129404e+00
  1.554634e+01    2.009114e+00
  1.557809e+01    1.943952e+00
  1.560985e+01    1.857208e+00
  1.564160e+01    1.809004e+00
  1.567335e+01    1.803027e+00
  1.570510e+01    1.767635e+00
  1.573685e+01    1.724964e+00
  1.576860e+01    1.705523e+00
  1.580035e+01    1.758200e+00
  1.583210e+01    1.650310e+00
  1.586385e+01    1.681891e+00
  1.589561e+01    1.662236e+00
  1.592736e+01    1.662911e+00
  1.595911e+01    1.641430e+00
  1.599086e+01    1.635685e+00
  1.602261e+01    1.644484e+00
  1.605436e+01    1.640324e+00
  1.608611e+01    1.565670e+00
  1.611786e+01    1.612618e+00
  1.614961e+01    1.590634e+00
  1.618137e+01    1.586464e+00
  1.621312e+01    1.601174e+00
  1.624487e+01    1.552366e+00
  1.627662e+01    1.564633e+00
  1.630837e+01    1.530486e+00
  1.634012e+01    1.530157e+00
  1.637187e+01    1.548355e+00
  1.640362e+01    1.552663e+00
  1.643538e+01    1.546513e+00
  1.646713e+01    1.521134e+00
  1.649888e+01    1.523338e+00
  1.653063e+01    1.494449e+00
  1.656238e+01    1.514331e+00
  1.659413e+01    1.511648e+00
  1.662588e+01    1.484995e+00
  1.665763e+01    1.496592e+00
  1.668938e+01    1.508127e+00
  1.672114e+01    1.531556e+00
  1.675289e+01    1.479155e+00
  1.678464e+01    1.456413e+00
  1.681639e+01    1.448905e+00
  1.684814e+01    1.459338e+00
  1.687989e+01    1.492463e+00
  1.691164e+01    1.461089e+00
  1.694339e+01    1.456850e+00
  1.697514e+01    1.428746e+00
  1.700690e+01    1.451925e+00
  1.703865e+01    1.455529e+00
  1.707040e+01    1.422719e+00
  1.710215e+01    1.431538e+00
  1.713390e+01    1.424065e+00
  1.716565e+01    1.397832e+00
  1.719740e+01    1.437527e+00
  1.722915e+01    1.427475e+00
  1.726091e+01    1.385004e+00
  1.729266e+01    1.416535e+00
  1.732441e+01    1.395992e+00
  1.735616e+01    1.386054e+00
  1.738791e+01    1.387748e+00
  1.741966e+01    1.386041e+00
  1.745141e+01    1.367127e+00
  1.748316e+01    1.357062e+00
  1.751491e+01    1.343595e+00
  1.754667e+01    1.373435e+00
  1.757842e+01    1.370609e+00
  1.761017e+01    1.332639e+00
  1.764192e+01    1.363092e+00
  1.767367e+01    1.373707e+00
  1.770542e+01    1.339134e+00
  1.773717e+01    1.309828e+00
  1.776892e+01    1.370499e+00
  1.780067e+01    1.360770e+00
  1.783243e+01    1.329500e+00
  1.786418e+01    1.314507e+00
  1.789593e+01    1.329948e+00
  1.792768e+01    1.330302e+00
  1.795943e+01    1.318868e+00
  1.799118e+01    1.295949e+00
  1.802293e+01    1.334189e+00
  1.805468e+01    1.286126e+00
  1.808643e+01    1.302674e+00
  1.811819e+01    1.279686e+00
  1.814994e+01    1.260941e+00
  1.818169e+01    1.277490e+00
  1.821344e+01    1.279205e+00
  1.824519e+01    1.308044e+00
  1.827694e+01    1.291558e+00
  1.830869e+01    1.285977e+00
  1.834044e+01    1.260879e+00
  1.837220e+01    1.272473e+00
  1.840395e+01    1.249612e+00
  1.843570e+01    1.228741e+00
  1.846745e+01    1.270984e+00
  1.849920e+01    1.257768e+00
  1.853095e+01    1.241139e+00
  1.856270e+01    1.264849e+00
  1.859445e+01    1.271894e+00
  1.862620e+01    1.248675e+00
  1.865796e+01    1.237567e+00
  1.868971e+01    1.224270e+00
  1.872146e+01    1.226963e+00
  1.875321e+01    1.245203e+00
  1.878496e+01    1.227389e+00
  1.881671e+01    1.240093e+00
  1.884846e+01    1.224420e+00
  1.888021e+01    1.209037e+00
  1.891196e+01    1.221817e+00
  1.894372e+01    1.227792e+00
  1.897547e+01    1.206461e+00
  1.900722e+01    1.222728e+00
  1.903897e+01    1.199101e+00
  1.907072e+01    1.215927e+00
  1.910247e+01    1.197214e+00
  1.913422e+01    1.192375e+00
  1.916597e+01    1.212355e+00
  1.919773e+01    1.173845e+00
  1.922948e+01    1.194959e+00
  1.926123e+01    1.186497e+00
  1.929298e+01    1.182490e+00
  1.932473e+01    1.170872e+00
  1.935648e+01    1.151678e+00
  1.938823e+01    1.178262e+00
  1.941998e+01    1.193618e+00
  1.945173e+01    1.168814e+00
  1.948349e+01    1.153395e+00
  1.951524e+01    1.191545e+00
  1.954699e+01    1.177372e+00
  1.957874e+01    1.157295e+00
  1.961049e+01    1.139341e+00
  1.964224e+01    1.133566e+00
  1.967399e+01    1.151750e+00
  1.970574e+01    1.171081e+00
  1.973749e+01    1.093859e+00
  1.976925e+01    1.148804e+00
  1.980100e+01    1.153417e+00
  1.983275e+01    1.122417e+00
  1.986450e+01    1.118489e+00
  1.989625e+01    1.117575e+00
  1.992800e+01    1.140611e+00
  1.995975e+01    1.123324e+00
  1.999150e+01    1.126257e+00
  2.002325e+01    1.116266e+00
  2.005501e+01    1.120277e+00
  2.008676e+01    1.126139e+00
  2.011851e+01    1.114991e+00
  2.015026e+01    1.122854e+00
  2.018201e+01    1.123888e+00
  2.021376e+01    1.093728e+00
  2.024551e+01    1.093806e+00
  2.027726e+01    1.097946e+00
  2.030902e+01    1.086686e+00
  2.034077e+01    1.112513e+00
  2.037252e+01    1.106822e+00
  2.040427e+01    1.072612e+00
  2.043602e+01    1.098236e+00
  2.046777e+01    1.083812e+00
  2.049952e+01    1.093542e+00
  2.053127e+01    1.096867e+00
  2.056302e+01    1.086694e+00
  2.059478e+01    1.099178e+00
  2.062653e+01    1.084049e+00
  2.065828e+01    1.103741e+00
  2.069003e+01    1.065068e+00
  2.072178e+01    1.075013e+00
  2.075353e+01    1.067899e+00
  2.078528e+01    1.091322e+00
  2.081703e+01    1.102333e+00
  2.084878e+01    1.098838e+00
  2.088054e+01    1.110219e+00
  2.091229e+01    1.093154e+00
  2.094404e+01    1.093630e+00
  2.097579e+01    1.088485e+00
  2.100754e+01    1.087430e+00
  2.103929e+01    1.066245e+00
  2.107104e+01    1.102033e+00
  2.110279e+01    1.087817e+00
  2.113455e+01    1.110978e+00
  2.116630e+01    1.078371e+00
  2.119805e+01    1.095740e+00
  2.122980e+01    1.114839e+00
  2.126155e+01    1.117676e+00
  2.129330e+01    1.126021e+00
  2.132505e+01    1.156948e+00
  2.135680e+01    1.158321e+00
  2.138855e+01    1.170120e+00
  2.142031e+01    1.210565e+00
  2.145206e+01    1.234514e+00
  2.148381e+01    1.257054e+00
  2.151556e+01    1.297650e+00
  2.154731e+01    1.372408e+00
  2.157906e+01    1.471712e+00
  2.161081e+01    1.579202e+00
  2.164256e+01    1.702803e+00
  2.167431e+01    1.985253e+00
  2.170607e+01    2.360052e+00
  2.173782e+01    2.936749e+00
  2.176957e+01    3.770318e+00
  2.180132e+01    5.024740e+00
  2.183307e+01    6.545711e+00
  2.186482e+01    8.165462e+00
  2.189657e+01    9.805675e+00
  2.192832e+01    1.054123e+01
  2.196007e+01    9.629951e+00
  2.199183e+01    7.458243e+00
  2.202358e+01    5.377474e+00
  2.205533e+01    3.919638e+00
  2.208708e+01    2.951511e+00
  2.211883e+01    2.392990e+00
  2.215058e+01    2.006943e+00
  2.218233e+01    1.749120e+00
  2.221408e+01    1.573196e+00
  2.224584e+01    1.449315e+00
  2.227759e+01    1.327154e+00
  2.230934e+01    1.252902e+00
  2.234109e+01    1.209659e+00
  2.237284e+01    1.171620e+00
  2.240459e+01    1.121254e+00
  2.243634e+01    1.093732e+00
  2.246809e+01    1.091998e+00
  2.249984e+01    1.053155e+00
  2.253160e+01    1.035962e+00
  2.256335e+01    1.025177e+00
  2.259510e+01    1.011382e+00
  2.262685e+01    9.748351e-01
  2.265860e+01    9.753178e-01
  2.269035e+01    9.714972e-01
  2.272210e+01    9.954954e-01
  2.275385e+01    9.713566e-01
  2.278560e+01    9.454415e-01
  2.281736e+01    9.380875e-01
  2.284911e+01    9.467769e-01
  2.288086e+01    9.197471e-01
  2.291261e+01    9.266532e-01
  2.294436e+01    9.293466e-01
  2.297611e+01    9.214078e-01
  2.300786e+01    9.153759e-01
  2.303961e+01    8.884776e-01
  2.307137e+01    9.025915e-01
  2.310312e+01    8.818156e-01
  2.313487e+01    8.842710e-01
  2.316662e+01    8.894821e-01
  2.319837e+01    8.792338e-01
  2.323012e+01    8.792460e-01
  2.326187e+01    8.755586e-01
  2.329362e+01    8.700286e-01
  2.332537e+01    8.731301e-01
  2.335713e+01    8.584322e-01
  2.338888e+01    8.768582e-01
  2.342063e+01    8.676117e-01
  2.345238e+01    8.474929e-01
  2.348413e+01    8.625429e-01
  2.351588e+01    8.507391e-01
  2.354763e+01    8.684688e-01
  2.357938e+01    8.629887e-01
  2.361113e+01    8.641300e-01
  2.364289e+01    8.325194e-01
  2.367464e+01    8.539032e-01
  2.370639e+01    8.402033e-01
  2.373814e+01    8.376976e-01
  2.376989e+01    8.059309e-01
  2.380164e+01    7.996258e-01
  2.383339e+01    8.160861e-01
  2.386514e+01    8.015565e-01
  2.389689e+01    8.100881e-01
  2.392865e+01    8.081026e-01
  2.396040e+01    8.076127e-01
  2.399215e+01    8.088080e-01
  2.402390e+01    7.820598e-01
  2.405565e+01    7.800146e-01
  2.408740e+01    7.743874e-01
  2.411915e+01    7.716574e-01
  2.415090e+01    7.751639e-01
  2.418266e+01    7.938332e-01
  2.421441e+01    7.737802e-01
  2.424616e+01    7.672960e-01
  2.427791e+01    7.658551e-01
  2.430966e+01    7.924567e-01
  2.434141e+01    7.985957e-01
  2.437316e+01    8.120565e-01
  2.440491e+01    7.947285e-01
  2.443666e+01    8.127227e-01
  2.446842e+01    7.923080e-01
  2.450017e+01    7.932876e-01
  2.453192e+01    7.979189e-01
  2.456367e+01    7.981576e-01
  2.459542e+01    7.834773e-01
  2.462717e+01    8.099832e-01
  2.465892e+01    7.884566e-01
  2.469067e+01    7.968045e-01
  2.472242e+01    8.088496e-01
  2.475418e+01    7.997497e-01
  2.478593e+01    7.975726e-01
  2.481768e+01    8.044776e-01
  2.484943e+01    7.932546e-01
  2.488118e+01    7.934301e-01
  2.491293e+01    7.994998e-01
  2.494468e+01    8.175644e-01
  2.497643e+01    8.067793e-01
  2.500819e+01    7.895749e-01
  2.503994e+01    8.247396e-01
  2.507169e+01    8.098909e-01
  2.510344e+01    8.123232e-01
  2.513519e+01    8.264816e-01
  2.516694e+01    8.497164e-01
  2.519869e+01    8.320255e-01
  2.523044e+01    8.373159e-01
  2.526219e+01    8.588627e-01
  2.529395e+01    8.667666e-01
  2.532570e+01    8.842975e-01
  2.535745e+01    8.940928e-01
  2.538920e+01    9.391391e-01
  2.542095e+01    9.344000e-01
  2.545270e+01    9.337530e-01
  2.548445e+01    9.697053e-01
  2.551620e+01    9.925231e-01
  2.554795e+01    1.011998e+00
  2.557971e+01    1.075184e+00
  2.561146e+01    1.119463e+00
  2.564321e+01    1.161918e+00
  2.567496e+01    1.280025e+00
  2.570671e+01    1.434032e+00
  2.573846e+01    1.628742e+00
  2.577021e+01    1.868981e+00
  2.580196e+01    2.316364e+00
  2.583371e+01    2.906914e+00
  2.586547e+01    3.841276e+00
  2.589722e+01    5.083904e+00
  2.592897e+01    6.532338e+00
  2.596072e+01    7.965212e+00
  2.599247e+01    8.682688e+00
  2.602422e+01    8.340927e+00
  2.605597e+01    6.730597e+00
  2.608772e+01    4.895684e+00
  2.611948e+01    3.552391e+00
  2.615123e+01    2.773251e+00
  2.618298e+01    2.218106e+00
  2.621473e+01    1.821052e+00
  2.624648e+01    1.573704e+00
  2.627823e+01    1.408710e+00
  2.630998e+01    1.265680e+00
  2.634173e+01    1.174796e+00
  2.637348e+01    1.123518e+00
  2.640524e+01    1.041151e+00
  2.643699e+01    1.024985e+00
  2.646874e+01    9.969534e-01
  2.650049e+01    9.887656e-01
  2.653224e+01    9.762803e-01
  2.656399e+01    9.642452e-01
  2.659574e+01    9.233440e-01
  2.662749e+01    9.248616e-01
  2.665924e+01    9.115756e-01
  2.669100e+01    8.908539e-01
  2.672275e+01    9.107066e-01
  2.675450e+01    8.974302e-01
  2.678625e+01    8.901264e-01
  2.681800e+01    9.170414e-01
  2.684975e+01    9.343768e-01
  2.688150e+01    9.315283e-01
  2.691325e+01    9.344084e-01
  2.694501e+01    9.403604e-01
  2.697676e+01    9.566138e-01
  2.700851e+01    1.008487e+00
  2.704026e+01    1.071083e+00
  2.707201e+01    1.144582e+00
  2.710376e+01    1.313874e+00
  2.713551e+01    1.469661e+00
  2.716726e+01    1.772949e+00
  2.719901e+01    2.139171e+00
  2.723077e+01    2.405303e+00
  2.726252e+01    2.471449e+00
  2.729427e+01    2.299620e+00
  2.732602e+01    1.956963e+00
  2.735777e+01    1.615334e+00
  2.738952e+01    1.364866e+00
  2.742127e+01    1.173790e+00
  2.745302e+01    1.096046e+00
  2.748477e+01    1.019625e+00
  2.751653e+01    9.774260e-01
  2.754828e+01    9.243487e-01
  2.758003e+01    9.081873e-01
  2.761178e+01    8.974562e-01
  2.764353e+01    8.816948e-01
  2.767528e+01    8.417655e-01
  2.770703e+01    8.479148e-01
  2.773878e+01    8.586584e-01
  2.777054e+01    8.228127e-01
  2.780229e+01    8.281245e-01
  2.783404e+01    8.225387e-01
  2.786579e+01    8.294726e-01
  2.789754e+01    8.164353e-01
  2.792929e+01    8.162712e-01
  2.796104e+01    8.076959e-01
  2.799279e+01    8.258772e-01
  2.802454e+01    7.966825e-01
  2.805630e+01    7.956992e-01
  2.808805e+01    7.796614e-01
  2.811980e+01    8.048130e-01
  2.815155e+01    7.762434e-01
  2.818330e+01    7.707636e-01
  2.821505e+01    7.467269e-01
  2.824680e+01    7.852806e-01
  2.827855e+01    7.692630e-01
  2.831030e+01    7.959867e-01
  2.834206e+01    7.938087e-01
  2.837381e+01    7.637607e-01
  2.840556e+01    7.796515e-01
  2.843731e+01    7.627609e-01
  2.846906e+01    7.770670e-01
  2.850081e+01    7.471226e-01
  2.853256e+01    7.633667e-01
  2.856431e+01    7.707192e-01
  2.859606e+01    7.869201e-01
  2.862782e+01    7.690923e-01
  2.865957e+01    7.603753e-01
  2.869132e+01    7.532331e-01
  2.872307e+01    7.541025e-01
  2.875482e+01    7.308185e-01
  2.878657e+01    7.767298e-01
  2.881832e+01    7.500433e-01
  2.885007e+01    7.563922e-01
  2.888183e+01    7.493591e-01
  2.891358e+01    7.512866e-01
  2.894533e+01    7.677360e-01
  2.897708e+01    7.327849e-01
  2.900883e+01    7.494038e-01
  2.904058e+01    7.315859e-01
  2.907233e+01    7.239357e-01
  2.910408e+01    7.672299e-01
  2.913583e+01    7.390879e-01
  2.916759e+01    7.446498e-01
  2.919934e+01    7.403621e-01
  2.923109e+01    7.362572e-01
  2.926284e+01    7.248623e-01
  2.929459e+01    7.193911e-01
  2.932634e+01    7.478405e-01
  2.935809e+01    7.560443e-01
  2.938984e+01    7.524589e-01
  2.942159e+01    7.279779e-01
  2.945335e+01    7.393622e-01
  2.948510e+01    7.267658e-01
  2.951685e+01    7.181584e-01
  2.954860e+01    7.270424e-01
  2.958035e+01    7.151184e-01
  2.961210e+01    7.261047e-01
  2.964385e+01    7.307301e-01
  2.967560e+01    7.163774e-01
  2.970736e+01    7.263629e-01
  2.973911e+01    7.259609e-01
  2.977086e+01    7.125383e-01
  2.980261e+01    7.363762e-01
  2.983436e+01    7.191219e-01
  2.986611e+01    7.082651e-01
  2.989786e+01    7.183571e-01
  2.992961e+01    7.317276e-01
  2.996136e+01    7.263954e-01
  2.999312e+01    7.274369e-01
  3.002487e+01    7.590416e-01
  3.005662e+01    7.293313e-01
  3.008837e+01    7.681456e-01
  3.012012e+01    7.615248e-01
  3.015187e+01    7.387934e-01
  3.018362e+01    7.269620e-01
  3.021537e+01    7.178559e-01
  3.024712e+01    7.057090e-01
  3.027888e+01    7.222312e-01
  3.031063e+01    7.275736e-01
  3.034238e+01    7.178855e-01
  3.037413e+01    7.018594e-01
  3.040588e+01    6.946656e-01
  3.043763e+01    7.392241e-01
  3.046938e+01    7.113476e-01
  3.050113e+01    7.133632e-01
  3.053288e+01    7.045263e-01
  3.056464e+01    7.326342e-01
  3.059639e+01    7.153751e-01
  3.062814e+01    7.173906e-01
  3.065989e+01    7.240137e-01
  3.069164e+01    7.148933e-01
  3.072339e+01    7.376574e-01
  3.075514e+01    7.147622e-01
  3.078689e+01    7.026932e-01
  3.081865e+01    7.178091e-01
  3.085040e+01    7.332994e-01
  3.088215e+01    7.069690e-01
  3.091390e+01    7.333346e-01
  3.094565e+01    7.235380e-01
  3.097740e+01    6.945276e-01
  3.100915e+01    7.379515e-01
  3.104090e+01    7.176996e-01
  3.107265e+01    7.272763e-01
  3.110441e+01    7.221236e-01
  3.113616e+01    7.382736e-01
  3.116791e+01    7.101455e-01
  3.119966e+01    7.509341e-01
  3.123141e+01    7.424886e-01
  3.126316e+01    7.411157e-01
  3.129491e+01    7.112784e-01
  3.132666e+01    7.145380e-01
  3.135841e+01    7.374176e-01
  3.139017e+01    7.757043e-01
  3.142192e+01    7.484110e-01
  3.145367e+01    7.547665e-01
  3.148542e+01    7.720027e-01
  3.151717e+01    7.564205e-01
  3.154892e+01    7.800564e-01
  3.158067e+01    7.804179e-01
  3.161242e+01    8.203413e-01
  3.164418e+01    8.507946e-01
  3.167593e+01    8.512824e-01
  3.170768e+01    9.150378e-01
  3.173943e+01    1.006478e+00
  3.177118e+01    1.106057e+00
  3.180293e+01    1.253006e+00
  3.183468e+01    1.478014e+00
  3.186643e+01    1.736688e+00
  3.189818e+01    2.123665e+00
  3.192994e+01    2.405027e+00
  3.196169e+01    2.474224e+00
  3.199344e+01    2.257254e+00
  3.202519e+01    1.909546e+00
  3.205694e+01    1.571564e+00
  3.208869e+01    1.278894e+00
  3.212044e+01    1.091773e+00
  3.215219e+01    1.015633e+00
  3.218394e+01    9.437283e-01
  3.221570e+01    8.795210e-01
  3.224745e+01    8.382862e-01
  3.227920e+01    8.009081e-01
  3.231095e+01    7.930929e-01
  3.234270e+01    8.084216e-01
  3.237445e+01    7.714159e-01
  3.240620e+01    7.686533e-01
  3.243795e+01    7.552158e-01
  3.246970e+01    7.312773e-01
  3.250146e+01    7.526463e-01
  3.253321e+01    7.336507e-01
  3.254908e+01    7.469608e-01