File: XRD/Activation ramp/2024-07-27_002_Ru-CGO-ex_Activtation_ramp_000002_data_000152.dat
# == pyFAI calibration ==
# Distance Sample to Detector: 0.4 m
# PONI: 9.750e-02, 1.135e-01 m
# Rotations: -0.000175 0.000000 -0.000000 rad
#
# == Fit2d calibration ==
# Distance Sample-beamCenter: 400.000 mm
# Center: x=1514.000, y=1300.000 pix
# Tilt: 0.010 deg  TiltPlanRot: 0.010 deg
#
# Detector Detector	 Spline= None	 PixelSize= 7.500e-05, 7.500e-05 m
#    Detector has a mask: False
#    Detector has a dark current: False
#    detector has a flat field: False
#
# Wavelength: 6.888e-11 m
# Mask applied: user provided
# Dark current applied: False
# Flat field applied: False
# Polarization factor: 0.99
# Normalization factor: 1.0
# --> /home/myspot/data/2024_07_Rosario/Ru-CGO-ex/2024-07-27_002_Ru-CGO-ex_Activtation_ramp_000002_data_000152.dat
#       q_nm^-1             I
  2.003187e-02    2.195846e-01
  5.178302e-02    1.662252e-01
  8.353417e-02    0.000000e+00
  1.152853e-01    4.352763e-02
  1.470365e-01    2.345889e-02
  1.787876e-01    6.001083e-02
  2.105388e-01    1.369661e-02
  2.422899e-01    1.592915e-02
  2.740411e-01    3.917024e-02
  3.057922e-01    3.932021e-02
  3.375433e-01    2.391198e-02
  3.692945e-01    3.575218e-02
  4.010456e-01    4.194634e-02
  4.327968e-01    3.091517e-02
  4.645479e-01    8.248577e-02
  4.962991e-01    1.389499e-02
  5.280502e-01    4.277511e-02
  5.598014e-01    1.839923e-02
  5.915525e-01    5.606107e-02
  6.233037e-01    2.304806e-02
  6.550548e-01    2.900123e-02
  6.868060e-01    3.154738e-02
  7.185571e-01    4.350184e-02
  7.503083e-01    3.600481e-02
  7.820594e-01    1.056627e-01
  8.138106e-01    2.413064e-01
  8.455617e-01    3.500436e-01
  8.773129e-01    4.812600e-01
  9.090640e-01    5.229384e-01
  9.408152e-01    7.341523e-01
  9.725663e-01    7.866089e-01
  1.004317e+00    1.036058e+00
  1.036069e+00    1.306808e+00
  1.067820e+00    1.318741e+00
  1.099571e+00    1.365506e+00
  1.131322e+00    1.369015e+00
  1.163073e+00    1.449284e+00
  1.194824e+00    1.536712e+00
  1.226575e+00    2.038998e+00
  1.258327e+00    2.215819e+00
  1.290078e+00    2.338192e+00
  1.321829e+00    2.480273e+00
  1.353580e+00    2.533294e+00
  1.385331e+00    2.448867e+00
  1.417082e+00    2.624200e+00
  1.448834e+00    2.681798e+00
  1.480585e+00    2.887643e+00
  1.512336e+00    2.930064e+00
  1.544087e+00    2.881257e+00
  1.575838e+00    3.021252e+00
  1.607589e+00    2.843372e+00
  1.639340e+00    2.977899e+00
  1.671092e+00    2.847594e+00
  1.702843e+00    2.711401e+00
  1.734594e+00    2.907267e+00
  1.766345e+00    2.752692e+00
  1.798096e+00    2.775194e+00
  1.829847e+00    2.771704e+00
  1.861598e+00    2.841210e+00
  1.893350e+00    2.583021e+00
  1.925101e+00    2.721840e+00
  1.956852e+00    2.659280e+00
  1.988603e+00    2.823355e+00
  2.020354e+00    2.699054e+00
  2.052105e+00    2.810588e+00
  2.083856e+00    2.712674e+00
  2.115608e+00    2.729548e+00
  2.147359e+00    2.747401e+00
  2.179110e+00    2.585523e+00
  2.210861e+00    2.652808e+00
  2.242612e+00    2.793590e+00
  2.274363e+00    2.817281e+00
  2.306115e+00    2.764473e+00
  2.337866e+00    2.761831e+00
  2.369617e+00    2.780586e+00
  2.401368e+00    2.714786e+00
  2.433119e+00    2.791574e+00
  2.464870e+00    2.855396e+00
  2.496621e+00    2.825028e+00
  2.528373e+00    2.832077e+00
  2.560124e+00    2.806308e+00
  2.591875e+00    2.880232e+00
  2.623626e+00    2.815780e+00
  2.655377e+00    2.771314e+00
  2.687128e+00    2.869219e+00
  2.718879e+00    2.803706e+00
  2.750631e+00    2.913523e+00
  2.782382e+00    2.902410e+00
  2.814133e+00    2.754525e+00
  2.845884e+00    2.798403e+00
  2.877635e+00    2.916970e+00
  2.909386e+00    2.914968e+00
  2.941137e+00    2.913811e+00
  2.972889e+00    2.883100e+00
  3.004640e+00    2.890240e+00
  3.036391e+00    2.923032e+00
  3.068142e+00    2.895981e+00
  3.099893e+00    2.958461e+00
  3.131644e+00    2.839418e+00
  3.163395e+00    3.038071e+00
  3.195147e+00    2.928933e+00
  3.226898e+00    3.010998e+00
  3.258649e+00    2.921505e+00
  3.290400e+00    3.025781e+00
  3.322151e+00    2.891143e+00
  3.353902e+00    2.897614e+00
  3.385654e+00    2.873413e+00
  3.417405e+00    2.999456e+00
  3.449156e+00    2.953937e+00
  3.480907e+00    2.918703e+00
  3.512658e+00    3.004925e+00
  3.544409e+00    3.004731e+00
  3.576160e+00    3.045148e+00
  3.607912e+00    3.008051e+00
  3.639663e+00    3.085155e+00
  3.671414e+00    2.994484e+00
  3.703165e+00    2.967771e+00
  3.734916e+00    2.975982e+00
  3.766667e+00    2.907087e+00
  3.798418e+00    3.047299e+00
  3.830170e+00    3.063673e+00
  3.861921e+00    3.047299e+00
  3.893672e+00    2.929560e+00
  3.925423e+00    3.093590e+00
  3.957174e+00    3.093816e+00
  3.988925e+00    2.947120e+00
  4.020676e+00    3.046084e+00
  4.052428e+00    3.039511e+00
  4.084179e+00    3.034132e+00
  4.115930e+00    3.098585e+00
  4.147681e+00    3.065064e+00
  4.179432e+00    3.061062e+00
  4.211183e+00    3.085515e+00
  4.242935e+00    3.019227e+00
  4.274686e+00    3.109771e+00
  4.306437e+00    3.107056e+00
  4.338188e+00    3.104877e+00
  4.369939e+00    3.117800e+00
  4.401690e+00    3.076367e+00
  4.433441e+00    3.087752e+00
  4.465193e+00    3.134303e+00
  4.496944e+00    3.070176e+00
  4.528695e+00    3.029010e+00
  4.560446e+00    3.062019e+00
  4.592197e+00    3.130500e+00
  4.623948e+00    3.082414e+00
  4.655699e+00    3.113852e+00
  4.687451e+00    3.086412e+00
  4.719202e+00    3.123867e+00
  4.750953e+00    3.217527e+00
  4.782704e+00    3.115756e+00
  4.814455e+00    3.083362e+00
  4.846206e+00    3.099030e+00
  4.877957e+00    3.093387e+00
  4.909709e+00    3.182449e+00
  4.941460e+00    3.064801e+00
  4.973211e+00    3.183541e+00
  5.004962e+00    3.119883e+00
  5.036713e+00    3.142462e+00
  5.068464e+00    3.129481e+00
  5.100216e+00    3.127592e+00
  5.131967e+00    3.223505e+00
  5.163718e+00    3.167189e+00
  5.195469e+00    3.127571e+00
  5.227220e+00    3.245335e+00
  5.258971e+00    3.172092e+00
  5.290722e+00    3.182462e+00
  5.322474e+00    3.099119e+00
  5.354225e+00    3.214562e+00
  5.385976e+00    3.199212e+00
  5.417727e+00    3.141669e+00
  5.449478e+00    3.029275e+00
  5.481229e+00    3.093735e+00
  5.512980e+00    3.078181e+00
  5.544732e+00    3.178539e+00
  5.576483e+00    3.074670e+00
  5.608234e+00    3.143114e+00
  5.639985e+00    3.136672e+00
  5.671736e+00    3.133068e+00
  5.703487e+00    3.136277e+00
  5.735238e+00    3.152993e+00
  5.766990e+00    3.032879e+00
  5.798741e+00    3.053946e+00
  5.830492e+00    3.089312e+00
  5.862243e+00    3.066534e+00
  5.893994e+00    3.111777e+00
  5.925745e+00    3.053403e+00
  5.957497e+00    3.060429e+00
  5.989248e+00    3.128234e+00
  6.020999e+00    3.061575e+00
  6.052750e+00    3.054651e+00
  6.084501e+00    3.015737e+00
  6.116252e+00    3.109948e+00
  6.148003e+00    3.132623e+00
  6.179755e+00    3.064247e+00
  6.211506e+00    3.085975e+00
  6.243257e+00    3.060444e+00
  6.275008e+00    3.089390e+00
  6.306759e+00    3.017030e+00
  6.338510e+00    3.074268e+00
  6.370261e+00    3.000409e+00
  6.402013e+00    3.047608e+00
  6.433764e+00    3.064433e+00
  6.465515e+00    3.061289e+00
  6.497266e+00    3.023890e+00
  6.529017e+00    3.012200e+00
  6.560768e+00    3.070163e+00
  6.592519e+00    3.021987e+00
  6.624271e+00    3.083834e+00
  6.656022e+00    3.097628e+00
  6.687773e+00    3.045414e+00
  6.719524e+00    3.047506e+00
  6.751275e+00    3.025773e+00
  6.783026e+00    3.046177e+00
  6.814777e+00    3.066436e+00
  6.846529e+00    3.018419e+00
  6.878280e+00    3.028191e+00
  6.910031e+00    3.027205e+00
  6.941782e+00    3.069940e+00
  6.973533e+00    3.078649e+00
  7.005284e+00    2.971280e+00
  7.037036e+00    2.967169e+00
  7.068787e+00    3.080523e+00
  7.100538e+00    2.954163e+00
  7.132289e+00    3.021364e+00
  7.164040e+00    3.054319e+00
  7.195791e+00    3.052681e+00
  7.227542e+00    3.004214e+00
  7.259294e+00    3.060545e+00
  7.291045e+00    3.016574e+00
  7.322796e+00    2.983841e+00
  7.354547e+00    3.034517e+00
  7.386298e+00    3.037852e+00
  7.418049e+00    2.951238e+00
  7.449800e+00    2.997650e+00
  7.481552e+00    2.997628e+00
  7.513303e+00    2.989631e+00
  7.545054e+00    3.007895e+00
  7.576805e+00    2.966094e+00
  7.608556e+00    3.003403e+00
  7.640307e+00    2.985033e+00
  7.672058e+00    2.986343e+00
  7.703810e+00    2.938532e+00
  7.735561e+00    2.930891e+00
  7.767312e+00    2.961503e+00
  7.799063e+00    2.958412e+00
  7.830814e+00    2.950941e+00
  7.862565e+00    2.915492e+00
  7.894317e+00    2.881718e+00
  7.926068e+00    2.981328e+00
  7.957819e+00    2.989803e+00
  7.989570e+00    2.951629e+00
  8.021321e+00    2.947525e+00
  8.053072e+00    2.925751e+00
  8.084823e+00    3.045372e+00
  8.116575e+00    2.964278e+00
  8.148326e+00    2.947139e+00
  8.180077e+00    3.004539e+00
  8.211828e+00    2.940813e+00
  8.243579e+00    2.949456e+00
  8.275330e+00    2.938063e+00
  8.307081e+00    2.933628e+00
  8.338833e+00    2.955337e+00
  8.370584e+00    2.944460e+00
  8.402335e+00    2.955685e+00
  8.434086e+00    2.956028e+00
  8.465837e+00    2.861137e+00
  8.497588e+00    2.901245e+00
  8.529339e+00    2.935422e+00
  8.561091e+00    2.906025e+00
  8.592842e+00    2.872641e+00
  8.624593e+00    2.868502e+00
  8.656344e+00    2.928837e+00
  8.688095e+00    2.879201e+00
  8.719846e+00    2.795971e+00
  8.751598e+00    2.905936e+00
  8.783349e+00    2.902708e+00
  8.815100e+00    2.882119e+00
  8.846851e+00    2.818102e+00
  8.878602e+00    2.840166e+00
  8.910353e+00    2.853038e+00
  8.942104e+00    2.900401e+00
  8.973856e+00    2.869031e+00
  9.005607e+00    2.893639e+00
  9.037358e+00    2.793963e+00
  9.069109e+00    2.864506e+00
  9.100860e+00    2.793579e+00
  9.132611e+00    2.790435e+00
  9.164362e+00    2.774526e+00
  9.196114e+00    2.714988e+00
  9.227865e+00    2.827336e+00
  9.259616e+00    2.846554e+00
  9.291367e+00    2.799863e+00
  9.323118e+00    2.834927e+00
  9.354869e+00    2.822149e+00
  9.386620e+00    2.804278e+00
  9.418372e+00    2.828417e+00
  9.450123e+00    2.807313e+00
  9.481874e+00    2.740097e+00
  9.513625e+00    2.805038e+00
  9.545376e+00    2.753101e+00
  9.577127e+00    2.779751e+00
  9.608878e+00    2.804124e+00
  9.640630e+00    2.796632e+00
  9.672381e+00    2.678890e+00
  9.704132e+00    2.758599e+00
  9.735883e+00    2.746182e+00
  9.767634e+00    2.702947e+00
  9.799385e+00    2.702912e+00
  9.831137e+00    2.750061e+00
  9.862888e+00    2.719899e+00
  9.894639e+00    2.716967e+00
  9.926390e+00    2.742727e+00
  9.958141e+00    2.730045e+00
  9.989892e+00    2.691601e+00
  1.002164e+01    2.681990e+00
  1.005339e+01    2.705825e+00
  1.008515e+01    2.656845e+00
  1.011690e+01    2.682772e+00
  1.014865e+01    2.695436e+00
  1.018040e+01    2.620430e+00
  1.021215e+01    2.625357e+00
  1.024390e+01    2.610841e+00
  1.027565e+01    2.644665e+00
  1.030740e+01    2.671672e+00
  1.033915e+01    2.598567e+00
  1.037091e+01    2.639427e+00
  1.040266e+01    2.661861e+00
  1.043441e+01    2.673328e+00
  1.046616e+01    2.580790e+00
  1.049791e+01    2.622423e+00
  1.052966e+01    2.624913e+00
  1.056141e+01    2.586141e+00
  1.059316e+01    2.573215e+00
  1.062492e+01    2.585490e+00
  1.065667e+01    2.610785e+00
  1.068842e+01    2.550587e+00
  1.072017e+01    2.551461e+00
  1.075192e+01    2.579571e+00
  1.078367e+01    2.557222e+00
  1.081542e+01    2.540411e+00
  1.084717e+01    2.551409e+00
  1.087892e+01    2.541316e+00
  1.091068e+01    2.531275e+00
  1.094243e+01    2.506005e+00
  1.097418e+01    2.549491e+00
  1.100593e+01    2.493173e+00
  1.103768e+01    2.508090e+00
  1.106943e+01    2.531020e+00
  1.110118e+01    2.542200e+00
  1.113293e+01    2.484513e+00
  1.116468e+01    2.478886e+00
  1.119644e+01    2.446960e+00
  1.122819e+01    2.455042e+00
  1.125994e+01    2.485367e+00
  1.129169e+01    2.454427e+00
  1.132344e+01    2.438539e+00
  1.135519e+01    2.429286e+00
  1.138694e+01    2.438105e+00
  1.141869e+01    2.493143e+00
  1.145045e+01    2.385103e+00
  1.148220e+01    2.433561e+00
  1.151395e+01    2.374360e+00
  1.154570e+01    2.388777e+00
  1.157745e+01    2.430363e+00
  1.160920e+01    2.405581e+00
  1.164095e+01    2.395261e+00
  1.167270e+01    2.396210e+00
  1.170445e+01    2.402260e+00
  1.173621e+01    2.324920e+00
  1.176796e+01    2.373119e+00
  1.179971e+01    2.338987e+00
  1.183146e+01    2.371340e+00
  1.186321e+01    2.381131e+00
  1.189496e+01    2.337776e+00
  1.192671e+01    2.417819e+00
  1.195846e+01    2.371365e+00
  1.199021e+01    2.319278e+00
  1.202197e+01    2.283811e+00
  1.205372e+01    2.337202e+00
  1.208547e+01    2.315871e+00
  1.211722e+01    2.363634e+00
  1.214897e+01    2.335293e+00
  1.218072e+01    2.320471e+00
  1.221247e+01    2.305265e+00
  1.224422e+01    2.342872e+00
  1.227597e+01    2.317958e+00
  1.230773e+01    2.305552e+00
  1.233948e+01    2.342474e+00
  1.237123e+01    2.298527e+00
  1.240298e+01    2.326672e+00
  1.243473e+01    2.412056e+00
  1.246648e+01    2.378585e+00
  1.249823e+01    2.347728e+00
  1.252998e+01    2.378796e+00
  1.256174e+01    2.383432e+00
  1.259349e+01    2.401575e+00
  1.262524e+01    2.436159e+00
  1.265699e+01    2.448697e+00
  1.268874e+01    2.478763e+00
  1.272049e+01    2.524401e+00
  1.275224e+01    2.613746e+00
  1.278399e+01    2.633490e+00
  1.281574e+01    2.740995e+00
  1.284750e+01    2.813560e+00
  1.287925e+01    3.004956e+00
  1.291100e+01    3.330948e+00
  1.294275e+01    3.767618e+00
  1.297450e+01    4.392452e+00
  1.300625e+01    5.523294e+00
  1.303800e+01    7.250536e+00
  1.306975e+01    9.643408e+00
  1.310150e+01    1.219956e+01
  1.313326e+01    1.462848e+01
  1.316501e+01    1.638238e+01
  1.319676e+01    1.637761e+01
  1.322851e+01    1.311736e+01
  1.326026e+01    9.470335e+00
  1.329201e+01    6.878505e+00
  1.332376e+01    5.247246e+00
  1.335551e+01    4.259319e+00
  1.338727e+01    3.629639e+00
  1.341902e+01    3.241685e+00
  1.345077e+01    2.910098e+00
  1.348252e+01    2.788383e+00
  1.351427e+01    2.596454e+00
  1.354602e+01    2.481320e+00
  1.357777e+01    2.448092e+00
  1.360952e+01    2.350425e+00
  1.364127e+01    2.325627e+00
  1.367303e+01    2.323246e+00
  1.370478e+01    2.236201e+00
  1.373653e+01    2.226515e+00
  1.376828e+01    2.220448e+00
  1.380003e+01    2.202026e+00
  1.383178e+01    2.139809e+00
  1.386353e+01    2.103182e+00
  1.389528e+01    2.126271e+00
  1.392703e+01    2.099626e+00
  1.395879e+01    2.065841e+00
  1.399054e+01    2.087978e+00
  1.402229e+01    2.060975e+00
  1.405404e+01    2.019743e+00
  1.408579e+01    2.022232e+00
  1.411754e+01    2.083507e+00
  1.414929e+01    2.053333e+00
  1.418104e+01    2.063112e+00
  1.421279e+01    2.012272e+00
  1.424455e+01    1.990496e+00
  1.427630e+01    2.010406e+00
  1.430805e+01    1.982328e+00
  1.433980e+01    2.012811e+00
  1.437155e+01    1.954316e+00
  1.440330e+01    1.958114e+00
  1.443505e+01    1.969469e+00
  1.446680e+01    1.925950e+00
  1.449856e+01    1.939680e+00
  1.453031e+01    1.972054e+00
  1.456206e+01    1.940228e+00
  1.459381e+01    1.921447e+00
  1.462556e+01    1.950354e+00
  1.465731e+01    1.921153e+00
  1.468906e+01    1.960451e+00
  1.472081e+01    1.941216e+00
  1.475256e+01    1.926097e+00
  1.478432e+01    1.915548e+00
  1.481607e+01    1.919341e+00
  1.484782e+01    1.931505e+00
  1.487957e+01    1.954888e+00
  1.491132e+01    1.983967e+00
  1.494307e+01    2.040327e+00
  1.497482e+01    2.103260e+00
  1.500657e+01    2.210825e+00
  1.503832e+01    2.329175e+00
  1.507008e+01    2.514140e+00
  1.510183e+01    2.920325e+00
  1.513358e+01    3.446845e+00
  1.516533e+01    4.251881e+00
  1.519708e+01    4.898973e+00
  1.522883e+01    5.434399e+00
  1.526058e+01    5.762329e+00
  1.529233e+01    5.379256e+00
  1.532409e+01    4.759524e+00
  1.535584e+01    3.685712e+00
  1.538759e+01    2.953667e+00
  1.541934e+01    2.596899e+00
  1.545109e+01    2.293309e+00
  1.548284e+01    2.138091e+00
  1.551459e+01    2.019789e+00
  1.554634e+01    1.920429e+00
  1.557809e+01    1.918446e+00
  1.560985e+01    1.842500e+00
  1.564160e+01    1.777827e+00
  1.567335e+01    1.778946e+00
  1.570510e+01    1.755458e+00
  1.573685e+01    1.730352e+00
  1.576860e+01    1.695224e+00
  1.580035e+01    1.714514e+00
  1.583210e+01    1.718853e+00
  1.586385e+01    1.651393e+00
  1.589561e+01    1.632868e+00
  1.592736e+01    1.665339e+00
  1.595911e+01    1.619344e+00
  1.599086e+01    1.709202e+00
  1.602261e+01    1.635252e+00
  1.605436e+01    1.592605e+00
  1.608611e+01    1.619819e+00
  1.611786e+01    1.574679e+00
  1.614961e+01    1.598060e+00
  1.618137e+01    1.571206e+00
  1.621312e+01    1.606442e+00
  1.624487e+01    1.589186e+00
  1.627662e+01    1.573243e+00
  1.630837e+01    1.574090e+00
  1.634012e+01    1.559338e+00
  1.637187e+01    1.527108e+00
  1.640362e+01    1.561755e+00
  1.643538e+01    1.533061e+00
  1.646713e+01    1.527150e+00
  1.649888e+01    1.504784e+00
  1.653063e+01    1.514818e+00
  1.656238e+01    1.503295e+00
  1.659413e+01    1.504118e+00
  1.662588e+01    1.495393e+00
  1.665763e+01    1.514985e+00
  1.668938e+01    1.499718e+00
  1.672114e+01    1.485587e+00
  1.675289e+01    1.465529e+00
  1.678464e+01    1.483384e+00
  1.681639e+01    1.496995e+00
  1.684814e+01    1.445839e+00
  1.687989e+01    1.481595e+00
  1.691164e+01    1.461783e+00
  1.694339e+01    1.451570e+00
  1.697514e+01    1.491458e+00
  1.700690e+01    1.432022e+00
  1.703865e+01    1.441934e+00
  1.707040e+01    1.463476e+00
  1.710215e+01    1.448822e+00
  1.713390e+01    1.452271e+00
  1.716565e+01    1.417534e+00
  1.719740e+01    1.427475e+00
  1.722915e+01    1.423164e+00
  1.726091e+01    1.440801e+00
  1.729266e+01    1.393309e+00
  1.732441e+01    1.401384e+00
  1.735616e+01    1.395915e+00
  1.738791e+01    1.411326e+00
  1.741966e+01    1.379891e+00
  1.745141e+01    1.431592e+00
  1.748316e+01    1.393242e+00
  1.751491e+01    1.376407e+00
  1.754667e+01    1.355083e+00
  1.757842e+01    1.359327e+00
  1.761017e+01    1.391094e+00
  1.764192e+01    1.346877e+00
  1.767367e+01    1.323034e+00
  1.770542e+01    1.349787e+00
  1.773717e+01    1.349789e+00
  1.776892e+01    1.348564e+00
  1.780067e+01    1.367736e+00
  1.783243e+01    1.322603e+00
  1.786418e+01    1.350167e+00
  1.789593e+01    1.329897e+00
  1.792768e+01    1.314546e+00
  1.795943e+01    1.288324e+00
  1.799118e+01    1.342564e+00
  1.802293e+01    1.318763e+00
  1.805468e+01    1.307871e+00
  1.808643e+01    1.320440e+00
  1.811819e+01    1.280921e+00
  1.814994e+01    1.319338e+00
  1.818169e+01    1.286130e+00
  1.821344e+01    1.299080e+00
  1.824519e+01    1.283299e+00
  1.827694e+01    1.264188e+00
  1.830869e+01    1.261557e+00
  1.834044e+01    1.287495e+00
  1.837220e+01    1.270680e+00
  1.840395e+01    1.284098e+00
  1.843570e+01    1.252885e+00
  1.846745e+01    1.264463e+00
  1.849920e+01    1.271449e+00
  1.853095e+01    1.272437e+00
  1.856270e+01    1.247132e+00
  1.859445e+01    1.237562e+00
  1.862620e+01    1.281929e+00
  1.865796e+01    1.214353e+00
  1.868971e+01    1.247166e+00
  1.872146e+01    1.236880e+00
  1.875321e+01    1.238968e+00
  1.878496e+01    1.219037e+00
  1.881671e+01    1.199807e+00
  1.884846e+01    1.230492e+00
  1.888021e+01    1.214649e+00
  1.891196e+01    1.235909e+00
  1.894372e+01    1.231270e+00
  1.897547e+01    1.199277e+00
  1.900722e+01    1.206871e+00
  1.903897e+01    1.220412e+00
  1.907072e+01    1.216611e+00
  1.910247e+01    1.200076e+00
  1.913422e+01    1.191396e+00
  1.916597e+01    1.226294e+00
  1.919773e+01    1.185791e+00
  1.922948e+01    1.187219e+00
  1.926123e+01    1.184278e+00
  1.929298e+01    1.182813e+00
  1.932473e+01    1.189426e+00
  1.935648e+01    1.190119e+00
  1.938823e+01    1.181597e+00
  1.941998e+01    1.184650e+00
  1.945173e+01    1.194440e+00
  1.948349e+01    1.205375e+00
  1.951524e+01    1.145270e+00
  1.954699e+01    1.166577e+00
  1.957874e+01    1.169020e+00
  1.961049e+01    1.137122e+00
  1.964224e+01    1.156715e+00
  1.967399e+01    1.158556e+00
  1.970574e+01    1.132369e+00
  1.973749e+01    1.149166e+00
  1.976925e+01    1.134212e+00
  1.980100e+01    1.159007e+00
  1.983275e+01    1.142428e+00
  1.986450e+01    1.131094e+00
  1.989625e+01    1.133071e+00
  1.992800e+01    1.116758e+00
  1.995975e+01    1.121069e+00
  1.999150e+01    1.129001e+00
  2.002325e+01    1.120382e+00
  2.005501e+01    1.142627e+00
  2.008676e+01    1.107876e+00
  2.011851e+01    1.125353e+00
  2.015026e+01    1.127797e+00
  2.018201e+01    1.124546e+00
  2.021376e+01    1.104425e+00
  2.024551e+01    1.099992e+00
  2.027726e+01    1.107461e+00
  2.030902e+01    1.116321e+00
  2.034077e+01    1.113278e+00
  2.037252e+01    1.106140e+00
  2.040427e+01    1.098665e+00
  2.043602e+01    1.136357e+00
  2.046777e+01    1.096451e+00
  2.049952e+01    1.084182e+00
  2.053127e+01    1.105501e+00
  2.056302e+01    1.104253e+00
  2.059478e+01    1.084566e+00
  2.062653e+01    1.101619e+00
  2.065828e+01    1.095532e+00
  2.069003e+01    1.082346e+00
  2.072178e+01    1.095315e+00
  2.075353e+01    1.063443e+00
  2.078528e+01    1.088942e+00
  2.081703e+01    1.074256e+00
  2.084878e+01    1.090913e+00
  2.088054e+01    1.089645e+00
  2.091229e+01    1.055358e+00
  2.094404e+01    1.090185e+00
  2.097579e+01    1.097715e+00
  2.100754e+01    1.098467e+00
  2.103929e+01    1.095230e+00
  2.107104e+01    1.085388e+00
  2.110279e+01    1.072107e+00
  2.113455e+01    1.100595e+00
  2.116630e+01    1.097653e+00
  2.119805e+01    1.115375e+00
  2.122980e+01    1.095853e+00
  2.126155e+01    1.096604e+00
  2.129330e+01    1.117092e+00
  2.132505e+01    1.154307e+00
  2.135680e+01    1.163848e+00
  2.138855e+01    1.170685e+00
  2.142031e+01    1.183793e+00
  2.145206e+01    1.221616e+00
  2.148381e+01    1.232501e+00
  2.151556e+01    1.294299e+00
  2.154731e+01    1.374047e+00
  2.157906e+01    1.483392e+00
  2.161081e+01    1.615154e+00
  2.164256e+01    1.824729e+00
  2.167431e+01    2.163324e+00
  2.170607e+01    2.650997e+00
  2.173782e+01    3.288102e+00
  2.176957e+01    4.383258e+00
  2.180132e+01    5.638625e+00
  2.183307e+01    6.945621e+00
  2.186482e+01    8.389332e+00
  2.189657e+01    9.205065e+00
  2.192832e+01    8.657012e+00
  2.196007e+01    6.869627e+00
  2.199183e+01    4.999323e+00
  2.202358e+01    3.673614e+00
  2.205533e+01    2.826121e+00
  2.208708e+01    2.291919e+00
  2.211883e+01    1.892489e+00
  2.215058e+01    1.650730e+00
  2.218233e+01    1.531601e+00
  2.221408e+01    1.365615e+00
  2.224584e+01    1.301051e+00
  2.227759e+01    1.223328e+00
  2.230934e+01    1.160639e+00
  2.234109e+01    1.138881e+00
  2.237284e+01    1.118145e+00
  2.240459e+01    1.081146e+00
  2.243634e+01    1.078633e+00
  2.246809e+01    1.046450e+00
  2.249984e+01    1.037385e+00
  2.253160e+01    1.012310e+00
  2.256335e+01    1.005923e+00
  2.259510e+01    9.910013e-01
  2.262685e+01    9.656482e-01
  2.265860e+01    9.644824e-01
  2.269035e+01    9.467723e-01
  2.272210e+01    9.423507e-01
  2.275385e+01    9.366862e-01
  2.278560e+01    9.480655e-01
  2.281736e+01    9.356558e-01
  2.284911e+01    9.089504e-01
  2.288086e+01    9.040465e-01
  2.291261e+01    9.107702e-01
  2.294436e+01    9.100248e-01
  2.297611e+01    9.162975e-01
  2.300786e+01    9.202728e-01
  2.303961e+01    8.993928e-01
  2.307137e+01    9.045833e-01
  2.310312e+01    8.833609e-01
  2.313487e+01    8.646308e-01
  2.316662e+01    8.892519e-01
  2.319837e+01    8.835456e-01
  2.323012e+01    8.931713e-01
  2.326187e+01    8.490297e-01
  2.329362e+01    8.648230e-01
  2.332537e+01    8.638728e-01
  2.335713e+01    8.743785e-01
  2.338888e+01    8.683898e-01
  2.342063e+01    8.649926e-01
  2.345238e+01    8.599914e-01
  2.348413e+01    8.734248e-01
  2.351588e+01    8.547471e-01
  2.354763e+01    8.443968e-01
  2.357938e+01    8.467601e-01
  2.361113e+01    8.462009e-01
  2.364289e+01    8.457317e-01
  2.367464e+01    8.412768e-01
  2.370639e+01    8.423625e-01
  2.373814e+01    8.270609e-01
  2.376989e+01    8.310823e-01
  2.380164e+01    7.941186e-01
  2.383339e+01    8.181987e-01
  2.386514e+01    8.049101e-01
  2.389689e+01    8.108276e-01
  2.392865e+01    7.968107e-01
  2.396040e+01    7.778500e-01
  2.399215e+01    7.752702e-01
  2.402390e+01    8.054088e-01
  2.405565e+01    7.879598e-01
  2.408740e+01    7.925498e-01
  2.411915e+01    8.011194e-01
  2.415090e+01    7.938716e-01
  2.418266e+01    7.770999e-01
  2.421441e+01    7.898927e-01
  2.424616e+01    7.750079e-01
  2.427791e+01    7.925805e-01
  2.430966e+01    7.725708e-01
  2.434141e+01    7.857751e-01
  2.437316e+01    7.875808e-01
  2.440491e+01    7.701618e-01
  2.443666e+01    7.883412e-01
  2.446842e+01    8.007192e-01
  2.450017e+01    7.925517e-01
  2.453192e+01    7.949121e-01
  2.456367e+01    7.820737e-01
  2.459542e+01    7.862957e-01
  2.462717e+01    7.942051e-01
  2.465892e+01    7.946757e-01
  2.469067e+01    7.680610e-01
  2.472242e+01    8.014562e-01
  2.475418e+01    8.116423e-01
  2.478593e+01    7.843767e-01
  2.481768e+01    7.852252e-01
  2.484943e+01    7.842277e-01
  2.488118e+01    8.167259e-01
  2.491293e+01    7.883506e-01
  2.494468e+01    7.914003e-01
  2.497643e+01    7.969322e-01
  2.500819e+01    8.022235e-01
  2.503994e+01    8.115923e-01
  2.507169e+01    8.241188e-01
  2.510344e+01    8.116198e-01
  2.513519e+01    8.107126e-01
  2.516694e+01    8.332566e-01
  2.519869e+01    8.440918e-01
  2.523044e+01    8.267698e-01
  2.526219e+01    8.710567e-01
  2.529395e+01    8.811669e-01
  2.532570e+01    8.741348e-01
  2.535745e+01    8.886226e-01
  2.538920e+01    9.167413e-01
  2.542095e+01    9.109994e-01
  2.545270e+01    9.599835e-01
  2.548445e+01    9.485786e-01
  2.551620e+01    9.849804e-01
  2.554795e+01    1.027883e+00
  2.557971e+01    1.086919e+00
  2.561146e+01    1.158927e+00
  2.564321e+01    1.239146e+00
  2.567496e+01    1.350149e+00
  2.570671e+01    1.533454e+00
  2.573846e+01    1.750925e+00
  2.577021e+01    2.151761e+00
  2.580196e+01    2.688757e+00
  2.583371e+01    3.478101e+00
  2.586547e+01    4.541139e+00
  2.589722e+01    5.748221e+00
  2.592897e+01    6.874091e+00
  2.596072e+01    7.514633e+00
  2.599247e+01    7.102001e+00
  2.602422e+01    5.828657e+00
  2.605597e+01    4.289366e+00
  2.608772e+01    3.107912e+00
  2.611948e+01    2.440818e+00
  2.615123e+01    1.963040e+00
  2.618298e+01    1.652121e+00
  2.621473e+01    1.470231e+00
  2.624648e+01    1.307751e+00
  2.627823e+01    1.196411e+00
  2.630998e+01    1.121848e+00
  2.634173e+01    1.065268e+00
  2.637348e+01    1.005055e+00
  2.640524e+01    9.750275e-01
  2.643699e+01    9.672220e-01
  2.646874e+01    9.367155e-01
  2.650049e+01    9.252355e-01
  2.653224e+01    9.255837e-01
  2.656399e+01    9.119337e-01
  2.659574e+01    9.204261e-01
  2.662749e+01    8.810165e-01
  2.665924e+01    8.612272e-01
  2.669100e+01    8.658000e-01
  2.672275e+01    8.678205e-01
  2.675450e+01    8.828709e-01
  2.678625e+01    8.930073e-01
  2.681800e+01    8.826488e-01
  2.684975e+01    8.875858e-01
  2.688150e+01    9.231123e-01
  2.691325e+01    9.205406e-01
  2.694501e+01    9.361281e-01
  2.697676e+01    9.786727e-01
  2.700851e+01    1.022141e+00
  2.704026e+01    1.132451e+00
  2.707201e+01    1.218286e+00
  2.710376e+01    1.397325e+00
  2.713551e+01    1.639805e+00
  2.716726e+01    1.907948e+00
  2.719901e+01    2.172551e+00
  2.723077e+01    2.229636e+00
  2.726252e+01    2.079059e+00
  2.729427e+01    1.759949e+00
  2.732602e+01    1.443129e+00
  2.735777e+01    1.270349e+00
  2.738952e+01    1.137780e+00
  2.742127e+01    1.030707e+00
  2.745302e+01    9.807544e-01
  2.748477e+01    9.424276e-01
  2.751653e+01    9.228885e-01
  2.754828e+01    8.601703e-01
  2.758003e+01    8.597228e-01
  2.761178e+01    8.531111e-01
  2.764353e+01    8.363293e-01
  2.767528e+01    8.377971e-01
  2.770703e+01    8.356378e-01
  2.773878e+01    8.192554e-01
  2.777054e+01    8.015766e-01
  2.780229e+01    8.180339e-01
  2.783404e+01    8.228149e-01
  2.786579e+01    7.949474e-01
  2.789754e+01    7.873655e-01
  2.792929e+01    8.067524e-01
  2.796104e+01    7.919844e-01
  2.799279e+01    7.907960e-01
  2.802454e+01    7.924038e-01
  2.805630e+01    7.988360e-01
  2.808805e+01    7.718086e-01
  2.811980e+01    7.875953e-01
  2.815155e+01    7.732724e-01
  2.818330e+01    7.949046e-01
  2.821505e+01    7.827706e-01
  2.824680e+01    7.668545e-01
  2.827855e+01    7.552544e-01
  2.831030e+01    7.796018e-01
  2.834206e+01    7.751033e-01
  2.837381e+01    7.956630e-01
  2.840556e+01    7.613946e-01
  2.843731e+01    7.452754e-01
  2.846906e+01    7.524732e-01
  2.850081e+01    7.578587e-01
  2.853256e+01    7.858118e-01
  2.856431e+01    7.593291e-01
  2.859606e+01    7.667601e-01
  2.862782e+01    7.758765e-01
  2.865957e+01    7.526096e-01
  2.869132e+01    7.493773e-01
  2.872307e+01    7.631921e-01
  2.875482e+01    7.531656e-01
  2.878657e+01    7.691007e-01
  2.881832e+01    7.428119e-01
  2.885007e+01    7.630680e-01
  2.888183e+01    7.350002e-01
  2.891358e+01    7.420564e-01
  2.894533e+01    7.643403e-01
  2.897708e+01    7.361588e-01
  2.900883e+01    7.342829e-01
  2.904058e+01    7.402346e-01
  2.907233e+01    7.485253e-01
  2.910408e+01    7.674271e-01
  2.913583e+01    7.328159e-01
  2.916759e+01    7.548340e-01
  2.919934e+01    7.385538e-01
  2.923109e+01    7.457640e-01
  2.926284e+01    7.330989e-01
  2.929459e+01    7.218140e-01
  2.932634e+01    7.339510e-01
  2.935809e+01    7.207718e-01
  2.938984e+01    7.387466e-01
  2.942159e+01    7.141973e-01
  2.945335e+01    7.097355e-01
  2.948510e+01    7.470078e-01
  2.951685e+01    7.260972e-01
  2.954860e+01    7.383508e-01
  2.958035e+01    7.314427e-01
  2.961210e+01    7.299262e-01
  2.964385e+01    7.388343e-01
  2.967560e+01    7.242721e-01
  2.970736e+01    7.059027e-01
  2.973911e+01    7.355278e-01
  2.977086e+01    7.202804e-01
  2.980261e+01    7.300152e-01
  2.983436e+01    7.284686e-01
  2.986611e+01    7.385878e-01
  2.989786e+01    7.174495e-01
  2.992961e+01    7.399030e-01
  2.996136e+01    7.199506e-01
  2.999312e+01    7.190632e-01
  3.002487e+01    7.314397e-01
  3.005662e+01    7.300203e-01
  3.008837e+01    7.501813e-01
  3.012012e+01    7.262182e-01
  3.015187e+01    7.236122e-01
  3.018362e+01    7.152321e-01
  3.021537e+01    7.082936e-01
  3.024712e+01    7.271622e-01
  3.027888e+01    7.017880e-01
  3.031063e+01    7.017031e-01
  3.034238e+01    7.153392e-01
  3.037413e+01    7.256621e-01
  3.040588e+01    7.208452e-01
  3.043763e+01    7.210183e-01
  3.046938e+01    6.989794e-01
  3.050113e+01    7.117472e-01
  3.053288e+01    7.048459e-01
  3.056464e+01    6.951399e-01
  3.059639e+01    7.174463e-01
  3.062814e+01    7.175236e-01
  3.065989e+01    7.165183e-01
  3.069164e+01    7.411642e-01
  3.072339e+01    7.062746e-01
  3.075514e+01    7.012120e-01
  3.078689e+01    7.374467e-01
  3.081865e+01    7.181777e-01
  3.085040e+01    7.276544e-01
  3.088215e+01    7.232997e-01
  3.091390e+01    7.022080e-01
  3.094565e+01    7.202458e-01
  3.097740e+01    7.184294e-01
  3.100915e+01    7.196547e-01
  3.104090e+01    7.441409e-01
  3.107265e+01    7.374191e-01
  3.110441e+01    7.049285e-01
  3.113616e+01    7.386940e-01
  3.116791e+01    7.421585e-01
  3.119966e+01    7.086130e-01
  3.123141e+01    7.170525e-01
  3.126316e+01    7.099098e-01
  3.129491e+01    7.313667e-01
  3.132666e+01    7.391756e-01
  3.135841e+01    7.514668e-01
  3.139017e+01    7.389850e-01
  3.142192e+01    7.436607e-01
  3.145367e+01    7.489725e-01
  3.148542e+01    7.700469e-01
  3.151717e+01    7.861796e-01
  3.154892e+01    7.897654e-01
  3.158067e+01    8.046794e-01
  3.161242e+01    8.269525e-01
  3.164418e+01    8.755084e-01
  3.167593e+01    9.072644e-01
  3.170768e+01    9.977251e-01
  3.173943e+01    1.060343e+00
  3.177118e+01    1.238791e+00
  3.180293e+01    1.394340e+00
  3.183468e+01    1.696144e+00
  3.186643e+01    1.969436e+00
  3.189818e+01    2.194819e+00
  3.192994e+01    2.174185e+00
  3.196169e+01    1.930285e+00
  3.199344e+01    1.612302e+00
  3.202519e+01    1.366472e+00
  3.205694e+01    1.137059e+00
  3.208869e+01    1.011753e+00
  3.212044e+01    9.203055e-01
  3.215219e+01    8.689216e-01
  3.218394e+01    8.207443e-01
  3.221570e+01    7.995875e-01
  3.224745e+01    7.841245e-01
  3.227920e+01    7.742358e-01
  3.231095e+01    7.451336e-01
  3.234270e+01    7.417390e-01
  3.237445e+01    7.579405e-01
  3.240620e+01    7.542413e-01
  3.243795e+01    7.344378e-01
  3.246970e+01    7.207775e-01
  3.250146e+01    7.066579e-01
  3.253321e+01    7.204285e-01
  3.254908e+01    7.340686e-01