File: XRD/Activation ramp/2024-07-27_002_Ru-CGO-ex_Activtation_ramp_000002_data_000056.dat
# == pyFAI calibration ==
# Distance Sample to Detector: 0.4 m
# PONI: 9.750e-02, 1.135e-01 m
# Rotations: -0.000175 0.000000 -0.000000 rad
#
# == Fit2d calibration ==
# Distance Sample-beamCenter: 400.000 mm
# Center: x=1514.000, y=1300.000 pix
# Tilt: 0.010 deg  TiltPlanRot: 0.010 deg
#
# Detector Detector	 Spline= None	 PixelSize= 7.500e-05, 7.500e-05 m
#    Detector has a mask: False
#    Detector has a dark current: False
#    detector has a flat field: False
#
# Wavelength: 6.888e-11 m
# Mask applied: user provided
# Dark current applied: False
# Flat field applied: False
# Polarization factor: 0.99
# Normalization factor: 1.0
# --> /home/myspot/data/2024_07_Rosario/Ru-CGO-ex/2024-07-27_002_Ru-CGO-ex_Activtation_ramp_000002_data_000056.dat
#       q_nm^-1             I
  2.003187e-02    2.226973e-02
  5.178302e-02    1.911028e-02
  8.353417e-02    5.903666e-02
  1.152853e-01    9.459435e-02
  1.470365e-01    5.335853e-02
  1.787876e-01    6.460106e-03
  2.105388e-01    3.854195e-02
  2.422899e-01    2.013612e-02
  2.740411e-01    5.035514e-02
  3.057922e-01    1.922199e-02
  3.375433e-01    3.632091e-02
  3.692945e-01    5.778630e-02
  4.010456e-01    4.227583e-02
  4.327968e-01    1.979314e-02
  4.645479e-01    4.246541e-02
  4.962991e-01    6.906993e-03
  5.280502e-01    8.031137e-02
  5.598014e-01    3.592329e-02
  5.915525e-01    4.991258e-02
  6.233037e-01    4.278054e-02
  6.550548e-01    2.852283e-02
  6.868060e-01    4.599611e-02
  7.185571e-01    4.679234e-02
  7.503083e-01    2.329903e-02
  7.820594e-01    1.024299e-01
  8.138106e-01    1.896209e-01
  8.455617e-01    3.020857e-01
  8.773129e-01    3.774938e-01
  9.090640e-01    5.642187e-01
  9.408152e-01    7.684658e-01
  9.725663e-01    9.064617e-01
  1.004317e+00    1.082971e+00
  1.036069e+00    1.258995e+00
  1.067820e+00    1.306485e+00
  1.099571e+00    1.445091e+00
  1.131322e+00    1.368865e+00
  1.163073e+00    1.544785e+00
  1.194824e+00    1.610301e+00
  1.226575e+00    1.998715e+00
  1.258327e+00    2.356209e+00
  1.290078e+00    2.659125e+00
  1.321829e+00    2.626052e+00
  1.353580e+00    2.714711e+00
  1.385331e+00    2.743677e+00
  1.417082e+00    2.700395e+00
  1.448834e+00    2.739563e+00
  1.480585e+00    2.788148e+00
  1.512336e+00    2.878625e+00
  1.544087e+00    2.892873e+00
  1.575838e+00    2.902527e+00
  1.607589e+00    3.023569e+00
  1.639340e+00    2.942225e+00
  1.671092e+00    2.761035e+00
  1.702843e+00    2.891218e+00
  1.734594e+00    2.882733e+00
  1.766345e+00    2.804580e+00
  1.798096e+00    2.919029e+00
  1.829847e+00    2.917776e+00
  1.861598e+00    2.816179e+00
  1.893350e+00    2.771484e+00
  1.925101e+00    2.868070e+00
  1.956852e+00    2.788484e+00
  1.988603e+00    2.870795e+00
  2.020354e+00    2.782564e+00
  2.052105e+00    2.700490e+00
  2.083856e+00    2.720763e+00
  2.115608e+00    2.721772e+00
  2.147359e+00    2.727584e+00
  2.179110e+00    2.824914e+00
  2.210861e+00    2.742439e+00
  2.242612e+00    2.742009e+00
  2.274363e+00    2.812342e+00
  2.306115e+00    2.800821e+00
  2.337866e+00    2.779745e+00
  2.369617e+00    2.854138e+00
  2.401368e+00    2.731683e+00
  2.433119e+00    2.815094e+00
  2.464870e+00    2.900103e+00
  2.496621e+00    2.784726e+00
  2.528373e+00    2.839384e+00
  2.560124e+00    2.783304e+00
  2.591875e+00    2.892490e+00
  2.623626e+00    2.760649e+00
  2.655377e+00    2.796215e+00
  2.687128e+00    2.747496e+00
  2.718879e+00    2.782583e+00
  2.750631e+00    2.866581e+00
  2.782382e+00    2.862945e+00
  2.814133e+00    2.842525e+00
  2.845884e+00    2.838594e+00
  2.877635e+00    2.897331e+00
  2.909386e+00    2.858797e+00
  2.941137e+00    2.806933e+00
  2.972889e+00    2.913853e+00
  3.004640e+00    2.856984e+00
  3.036391e+00    2.900897e+00
  3.068142e+00    2.946624e+00
  3.099893e+00    2.891089e+00
  3.131644e+00    3.055001e+00
  3.163395e+00    2.916213e+00
  3.195147e+00    3.006248e+00
  3.226898e+00    2.908747e+00
  3.258649e+00    2.855262e+00
  3.290400e+00    2.840875e+00
  3.322151e+00    2.974573e+00
  3.353902e+00    3.029839e+00
  3.385654e+00    2.971195e+00
  3.417405e+00    2.973363e+00
  3.449156e+00    2.936857e+00
  3.480907e+00    2.866192e+00
  3.512658e+00    2.975345e+00
  3.544409e+00    2.974409e+00
  3.576160e+00    3.029063e+00
  3.607912e+00    2.997648e+00
  3.639663e+00    2.989775e+00
  3.671414e+00    3.039627e+00
  3.703165e+00    2.984934e+00
  3.734916e+00    3.074191e+00
  3.766667e+00    2.947008e+00
  3.798418e+00    2.981917e+00
  3.830170e+00    3.003308e+00
  3.861921e+00    3.049324e+00
  3.893672e+00    2.986351e+00
  3.925423e+00    3.063988e+00
  3.957174e+00    3.040460e+00
  3.988925e+00    2.979689e+00
  4.020676e+00    2.972425e+00
  4.052428e+00    3.030510e+00
  4.084179e+00    3.003543e+00
  4.115930e+00    3.027500e+00
  4.147681e+00    3.014603e+00
  4.179432e+00    2.910824e+00
  4.211183e+00    3.009404e+00
  4.242935e+00    3.030413e+00
  4.274686e+00    3.031611e+00
  4.306437e+00    3.073951e+00
  4.338188e+00    3.096042e+00
  4.369939e+00    3.114908e+00
  4.401690e+00    2.971484e+00
  4.433441e+00    3.090107e+00
  4.465193e+00    3.101981e+00
  4.496944e+00    3.107630e+00
  4.528695e+00    3.110337e+00
  4.560446e+00    3.164050e+00
  4.592197e+00    3.019424e+00
  4.623948e+00    3.149844e+00
  4.655699e+00    3.065430e+00
  4.687451e+00    3.140428e+00
  4.719202e+00    3.154081e+00
  4.750953e+00    3.208699e+00
  4.782704e+00    3.175401e+00
  4.814455e+00    3.154313e+00
  4.846206e+00    3.185166e+00
  4.877957e+00    3.110763e+00
  4.909709e+00    3.103602e+00
  4.941460e+00    3.093792e+00
  4.973211e+00    3.140032e+00
  5.004962e+00    3.024684e+00
  5.036713e+00    3.088753e+00
  5.068464e+00    3.122578e+00
  5.100216e+00    3.252248e+00
  5.131967e+00    3.031712e+00
  5.163718e+00    3.141771e+00
  5.195469e+00    3.121166e+00
  5.227220e+00    3.116128e+00
  5.258971e+00    3.135441e+00
  5.290722e+00    3.187849e+00
  5.322474e+00    3.087450e+00
  5.354225e+00    3.125811e+00
  5.385976e+00    3.164584e+00
  5.417727e+00    3.098052e+00
  5.449478e+00    3.089044e+00
  5.481229e+00    3.121721e+00
  5.512980e+00    3.092449e+00
  5.544732e+00    3.067870e+00
  5.576483e+00    3.016936e+00
  5.608234e+00    3.094479e+00
  5.639985e+00    3.097216e+00
  5.671736e+00    3.090969e+00
  5.703487e+00    3.069368e+00
  5.735238e+00    3.013432e+00
  5.766990e+00    3.150612e+00
  5.798741e+00    3.140852e+00
  5.830492e+00    3.090620e+00
  5.862243e+00    3.009243e+00
  5.893994e+00    2.964849e+00
  5.925745e+00    3.063575e+00
  5.957497e+00    3.015506e+00
  5.989248e+00    3.076473e+00
  6.020999e+00    3.067548e+00
  6.052750e+00    2.998772e+00
  6.084501e+00    2.983587e+00
  6.116252e+00    2.999140e+00
  6.148003e+00    3.143406e+00
  6.179755e+00    3.049041e+00
  6.211506e+00    3.098961e+00
  6.243257e+00    3.107937e+00
  6.275008e+00    3.062073e+00
  6.306759e+00    3.036366e+00
  6.338510e+00    3.025363e+00
  6.370261e+00    3.069208e+00
  6.402013e+00    3.120059e+00
  6.433764e+00    3.057249e+00
  6.465515e+00    3.066316e+00
  6.497266e+00    3.011416e+00
  6.529017e+00    3.027440e+00
  6.560768e+00    3.042546e+00
  6.592519e+00    3.053568e+00
  6.624271e+00    3.082276e+00
  6.656022e+00    3.000535e+00
  6.687773e+00    2.977029e+00
  6.719524e+00    3.035584e+00
  6.751275e+00    3.038325e+00
  6.783026e+00    3.052039e+00
  6.814777e+00    2.975698e+00
  6.846529e+00    3.000888e+00
  6.878280e+00    3.004722e+00
  6.910031e+00    2.946565e+00
  6.941782e+00    3.049565e+00
  6.973533e+00    3.066189e+00
  7.005284e+00    2.997538e+00
  7.037036e+00    3.024275e+00
  7.068787e+00    3.021225e+00
  7.100538e+00    2.945630e+00
  7.132289e+00    3.063240e+00
  7.164040e+00    3.031994e+00
  7.195791e+00    3.064999e+00
  7.227542e+00    3.015908e+00
  7.259294e+00    3.034960e+00
  7.291045e+00    3.013341e+00
  7.322796e+00    3.027719e+00
  7.354547e+00    2.970574e+00
  7.386298e+00    3.026323e+00
  7.418049e+00    3.034773e+00
  7.449800e+00    2.934267e+00
  7.481552e+00    2.918309e+00
  7.513303e+00    2.950771e+00
  7.545054e+00    2.920352e+00
  7.576805e+00    2.923715e+00
  7.608556e+00    2.912729e+00
  7.640307e+00    2.914544e+00
  7.672058e+00    2.965933e+00
  7.703810e+00    2.915357e+00
  7.735561e+00    2.979533e+00
  7.767312e+00    2.946100e+00
  7.799063e+00    3.023111e+00
  7.830814e+00    2.947964e+00
  7.862565e+00    2.995435e+00
  7.894317e+00    2.958776e+00
  7.926068e+00    2.906937e+00
  7.957819e+00    2.970984e+00
  7.989570e+00    2.909644e+00
  8.021321e+00    2.963747e+00
  8.053072e+00    2.945648e+00
  8.084823e+00    2.951035e+00
  8.116575e+00    2.939360e+00
  8.148326e+00    2.950444e+00
  8.180077e+00    3.041726e+00
  8.211828e+00    2.989963e+00
  8.243579e+00    2.973621e+00
  8.275330e+00    2.915380e+00
  8.307081e+00    2.960240e+00
  8.338833e+00    2.898957e+00
  8.370584e+00    2.964002e+00
  8.402335e+00    2.912461e+00
  8.434086e+00    2.913396e+00
  8.465837e+00    2.870152e+00
  8.497588e+00    2.932200e+00
  8.529339e+00    2.911393e+00
  8.561091e+00    2.856869e+00
  8.592842e+00    2.849617e+00
  8.624593e+00    2.888401e+00
  8.656344e+00    2.917252e+00
  8.688095e+00    2.803574e+00
  8.719846e+00    2.914086e+00
  8.751598e+00    2.832295e+00
  8.783349e+00    2.867616e+00
  8.815100e+00    2.927807e+00
  8.846851e+00    2.863349e+00
  8.878602e+00    2.829741e+00
  8.910353e+00    2.873460e+00
  8.942104e+00    2.800201e+00
  8.973856e+00    2.815637e+00
  9.005607e+00    2.811002e+00
  9.037358e+00    2.842824e+00
  9.069109e+00    2.877535e+00
  9.100860e+00    2.786474e+00
  9.132611e+00    2.835405e+00
  9.164362e+00    2.835139e+00
  9.196114e+00    2.760981e+00
  9.227865e+00    2.792102e+00
  9.259616e+00    2.812452e+00
  9.291367e+00    2.826738e+00
  9.323118e+00    2.780215e+00
  9.354869e+00    2.743920e+00
  9.386620e+00    2.724495e+00
  9.418372e+00    2.779927e+00
  9.450123e+00    2.804236e+00
  9.481874e+00    2.780201e+00
  9.513625e+00    2.715237e+00
  9.545376e+00    2.775757e+00
  9.577127e+00    2.773733e+00
  9.608878e+00    2.792817e+00
  9.640630e+00    2.805511e+00
  9.672381e+00    2.760257e+00
  9.704132e+00    2.777395e+00
  9.735883e+00    2.777813e+00
  9.767634e+00    2.722100e+00
  9.799385e+00    2.769534e+00
  9.831137e+00    2.739846e+00
  9.862888e+00    2.665308e+00
  9.894639e+00    2.682921e+00
  9.926390e+00    2.702188e+00
  9.958141e+00    2.667431e+00
  9.989892e+00    2.656123e+00
  1.002164e+01    2.669658e+00
  1.005339e+01    2.741048e+00
  1.008515e+01    2.663763e+00
  1.011690e+01    2.694846e+00
  1.014865e+01    2.673638e+00
  1.018040e+01    2.668877e+00
  1.021215e+01    2.594812e+00
  1.024390e+01    2.662801e+00
  1.027565e+01    2.632272e+00
  1.030740e+01    2.677587e+00
  1.033915e+01    2.666698e+00
  1.037091e+01    2.599815e+00
  1.040266e+01    2.596485e+00
  1.043441e+01    2.631841e+00
  1.046616e+01    2.618355e+00
  1.049791e+01    2.636084e+00
  1.052966e+01    2.571151e+00
  1.056141e+01    2.623747e+00
  1.059316e+01    2.539062e+00
  1.062492e+01    2.588748e+00
  1.065667e+01    2.559431e+00
  1.068842e+01    2.602926e+00
  1.072017e+01    2.559131e+00
  1.075192e+01    2.516233e+00
  1.078367e+01    2.563947e+00
  1.081542e+01    2.528595e+00
  1.084717e+01    2.526561e+00
  1.087892e+01    2.477734e+00
  1.091068e+01    2.476579e+00
  1.094243e+01    2.510048e+00
  1.097418e+01    2.552355e+00
  1.100593e+01    2.501187e+00
  1.103768e+01    2.509116e+00
  1.106943e+01    2.475355e+00
  1.110118e+01    2.527989e+00
  1.113293e+01    2.487249e+00
  1.116468e+01    2.467202e+00
  1.119644e+01    2.452193e+00
  1.122819e+01    2.486746e+00
  1.125994e+01    2.433603e+00
  1.129169e+01    2.468981e+00
  1.132344e+01    2.505845e+00
  1.135519e+01    2.420026e+00
  1.138694e+01    2.439799e+00
  1.141869e+01    2.456802e+00
  1.145045e+01    2.422024e+00
  1.148220e+01    2.448149e+00
  1.151395e+01    2.405101e+00
  1.154570e+01    2.418376e+00
  1.157745e+01    2.412895e+00
  1.160920e+01    2.385503e+00
  1.164095e+01    2.373726e+00
  1.167270e+01    2.411342e+00
  1.170445e+01    2.401517e+00
  1.173621e+01    2.366080e+00
  1.176796e+01    2.359947e+00
  1.179971e+01    2.392507e+00
  1.183146e+01    2.408843e+00
  1.186321e+01    2.411477e+00
  1.189496e+01    2.385161e+00
  1.192671e+01    2.359279e+00
  1.195846e+01    2.340052e+00
  1.199021e+01    2.344930e+00
  1.202197e+01    2.342833e+00
  1.205372e+01    2.315790e+00
  1.208547e+01    2.337459e+00
  1.211722e+01    2.304706e+00
  1.214897e+01    2.323832e+00
  1.218072e+01    2.323231e+00
  1.221247e+01    2.322592e+00
  1.224422e+01    2.297050e+00
  1.227597e+01    2.317914e+00
  1.230773e+01    2.311977e+00
  1.233948e+01    2.369476e+00
  1.237123e+01    2.308965e+00
  1.240298e+01    2.350661e+00
  1.243473e+01    2.336534e+00
  1.246648e+01    2.370741e+00
  1.249823e+01    2.344877e+00
  1.252998e+01    2.384387e+00
  1.256174e+01    2.351443e+00
  1.259349e+01    2.429334e+00
  1.262524e+01    2.432498e+00
  1.265699e+01    2.407633e+00
  1.268874e+01    2.487759e+00
  1.272049e+01    2.480945e+00
  1.275224e+01    2.599464e+00
  1.278399e+01    2.622479e+00
  1.281574e+01    2.704902e+00
  1.284750e+01    2.882144e+00
  1.287925e+01    3.069243e+00
  1.291100e+01    3.269204e+00
  1.294275e+01    3.669710e+00
  1.297450e+01    4.352270e+00
  1.300625e+01    5.251340e+00
  1.303800e+01    6.821854e+00
  1.306975e+01    9.310222e+00
  1.310150e+01    1.212203e+01
  1.313326e+01    1.509771e+01
  1.316501e+01    1.757203e+01
  1.319676e+01    1.916014e+01
  1.322851e+01    1.697807e+01
  1.326026e+01    1.256676e+01
  1.329201e+01    8.954927e+00
  1.332376e+01    6.582203e+00
  1.335551e+01    5.100541e+00
  1.338727e+01    4.206753e+00
  1.341902e+01    3.574763e+00
  1.345077e+01    3.252212e+00
  1.348252e+01    2.957504e+00
  1.351427e+01    2.795120e+00
  1.354602e+01    2.619461e+00
  1.357777e+01    2.540590e+00
  1.360952e+01    2.456398e+00
  1.364127e+01    2.346969e+00
  1.367303e+01    2.320754e+00
  1.370478e+01    2.301841e+00
  1.373653e+01    2.270032e+00
  1.376828e+01    2.222720e+00
  1.380003e+01    2.179368e+00
  1.383178e+01    2.191653e+00
  1.386353e+01    2.155205e+00
  1.389528e+01    2.140836e+00
  1.392703e+01    2.124770e+00
  1.395879e+01    2.059110e+00
  1.399054e+01    2.087895e+00
  1.402229e+01    2.047795e+00
  1.405404e+01    2.034014e+00
  1.408579e+01    2.014187e+00
  1.411754e+01    1.995758e+00
  1.414929e+01    2.004420e+00
  1.418104e+01    2.023210e+00
  1.421279e+01    2.039129e+00
  1.424455e+01    1.998178e+00
  1.427630e+01    1.957167e+00
  1.430805e+01    2.002796e+00
  1.433980e+01    1.943948e+00
  1.437155e+01    1.977844e+00
  1.440330e+01    1.955935e+00
  1.443505e+01    1.924221e+00
  1.446680e+01    1.981172e+00
  1.449856e+01    1.966532e+00
  1.453031e+01    1.942296e+00
  1.456206e+01    1.926915e+00
  1.459381e+01    1.939372e+00
  1.462556e+01    1.949938e+00
  1.465731e+01    1.950239e+00
  1.468906e+01    1.921908e+00
  1.472081e+01    1.880891e+00
  1.475256e+01    1.927073e+00
  1.478432e+01    1.925086e+00
  1.481607e+01    1.921169e+00
  1.484782e+01    1.936867e+00
  1.487957e+01    1.981179e+00
  1.491132e+01    1.996623e+00
  1.494307e+01    2.036971e+00
  1.497482e+01    2.056510e+00
  1.500657e+01    2.157712e+00
  1.503832e+01    2.286248e+00
  1.507008e+01    2.507439e+00
  1.510183e+01    2.815481e+00
  1.513358e+01    3.289944e+00
  1.516533e+01    4.046226e+00
  1.519708e+01    4.852830e+00
  1.522883e+01    5.645601e+00
  1.526058e+01    6.222129e+00
  1.529233e+01    6.381553e+00
  1.532409e+01    5.753373e+00
  1.535584e+01    4.668632e+00
  1.538759e+01    3.614338e+00
  1.541934e+01    2.956758e+00
  1.545109e+01    2.581569e+00
  1.548284e+01    2.288592e+00
  1.551459e+01    2.136595e+00
  1.554634e+01    2.014707e+00
  1.557809e+01    1.943874e+00
  1.560985e+01    1.888811e+00
  1.564160e+01    1.823015e+00
  1.567335e+01    1.836649e+00
  1.570510e+01    1.759412e+00
  1.573685e+01    1.749687e+00
  1.576860e+01    1.742428e+00
  1.580035e+01    1.720324e+00
  1.583210e+01    1.707332e+00
  1.586385e+01    1.655504e+00
  1.589561e+01    1.691149e+00
  1.592736e+01    1.668651e+00
  1.595911e+01    1.601087e+00
  1.599086e+01    1.662655e+00
  1.602261e+01    1.656851e+00
  1.605436e+01    1.628735e+00
  1.608611e+01    1.614318e+00
  1.611786e+01    1.583402e+00
  1.614961e+01    1.555970e+00
  1.618137e+01    1.587263e+00
  1.621312e+01    1.560936e+00
  1.624487e+01    1.534810e+00
  1.627662e+01    1.579491e+00
  1.630837e+01    1.576841e+00
  1.634012e+01    1.574821e+00
  1.637187e+01    1.559889e+00
  1.640362e+01    1.564866e+00
  1.643538e+01    1.518329e+00
  1.646713e+01    1.514436e+00
  1.649888e+01    1.524269e+00
  1.653063e+01    1.530194e+00
  1.656238e+01    1.499677e+00
  1.659413e+01    1.478792e+00
  1.662588e+01    1.507693e+00
  1.665763e+01    1.513469e+00
  1.668938e+01    1.497536e+00
  1.672114e+01    1.523933e+00
  1.675289e+01    1.478438e+00
  1.678464e+01    1.473646e+00
  1.681639e+01    1.462288e+00
  1.684814e+01    1.474004e+00
  1.687989e+01    1.476123e+00
  1.691164e+01    1.473053e+00
  1.694339e+01    1.458235e+00
  1.697514e+01    1.448491e+00
  1.700690e+01    1.437366e+00
  1.703865e+01    1.440312e+00
  1.707040e+01    1.416588e+00
  1.710215e+01    1.451685e+00
  1.713390e+01    1.430407e+00
  1.716565e+01    1.404358e+00
  1.719740e+01    1.414252e+00
  1.722915e+01    1.431917e+00
  1.726091e+01    1.394802e+00
  1.729266e+01    1.412346e+00
  1.732441e+01    1.413324e+00
  1.735616e+01    1.392436e+00
  1.738791e+01    1.371212e+00
  1.741966e+01    1.390386e+00
  1.745141e+01    1.427104e+00
  1.748316e+01    1.393651e+00
  1.751491e+01    1.392701e+00
  1.754667e+01    1.352786e+00
  1.757842e+01    1.362069e+00
  1.761017e+01    1.362010e+00
  1.764192e+01    1.361408e+00
  1.767367e+01    1.333215e+00
  1.770542e+01    1.349680e+00
  1.773717e+01    1.324089e+00
  1.776892e+01    1.338972e+00
  1.780067e+01    1.345597e+00
  1.783243e+01    1.326532e+00
  1.786418e+01    1.343139e+00
  1.789593e+01    1.321240e+00
  1.792768e+01    1.337246e+00
  1.795943e+01    1.306038e+00
  1.799118e+01    1.324782e+00
  1.802293e+01    1.318324e+00
  1.805468e+01    1.302343e+00
  1.808643e+01    1.322691e+00
  1.811819e+01    1.320381e+00
  1.814994e+01    1.282644e+00
  1.818169e+01    1.283432e+00
  1.821344e+01    1.266715e+00
  1.824519e+01    1.288859e+00
  1.827694e+01    1.254865e+00
  1.830869e+01    1.275921e+00
  1.834044e+01    1.271910e+00
  1.837220e+01    1.290270e+00
  1.840395e+01    1.260959e+00
  1.843570e+01    1.300900e+00
  1.846745e+01    1.278057e+00
  1.849920e+01    1.263257e+00
  1.853095e+01    1.241299e+00
  1.856270e+01    1.260013e+00
  1.859445e+01    1.250435e+00
  1.862620e+01    1.237990e+00
  1.865796e+01    1.286509e+00
  1.868971e+01    1.245118e+00
  1.872146e+01    1.245244e+00
  1.875321e+01    1.242626e+00
  1.878496e+01    1.221607e+00
  1.881671e+01    1.225530e+00
  1.884846e+01    1.220807e+00
  1.888021e+01    1.252556e+00
  1.891196e+01    1.202895e+00
  1.894372e+01    1.239088e+00
  1.897547e+01    1.218199e+00
  1.900722e+01    1.223705e+00
  1.903897e+01    1.202821e+00
  1.907072e+01    1.217751e+00
  1.910247e+01    1.200973e+00
  1.913422e+01    1.219151e+00
  1.916597e+01    1.196707e+00
  1.919773e+01    1.219785e+00
  1.922948e+01    1.168842e+00
  1.926123e+01    1.180804e+00
  1.929298e+01    1.157735e+00
  1.932473e+01    1.195543e+00
  1.935648e+01    1.211161e+00
  1.938823e+01    1.179895e+00
  1.941998e+01    1.179354e+00
  1.945173e+01    1.147448e+00
  1.948349e+01    1.175899e+00
  1.951524e+01    1.200196e+00
  1.954699e+01    1.185168e+00
  1.957874e+01    1.157361e+00
  1.961049e+01    1.168456e+00
  1.964224e+01    1.165648e+00
  1.967399e+01    1.145340e+00
  1.970574e+01    1.134071e+00
  1.973749e+01    1.128030e+00
  1.976925e+01    1.160406e+00
  1.980100e+01    1.144711e+00
  1.983275e+01    1.157589e+00
  1.986450e+01    1.153804e+00
  1.989625e+01    1.113683e+00
  1.992800e+01    1.152327e+00
  1.995975e+01    1.136216e+00
  1.999150e+01    1.151354e+00
  2.002325e+01    1.132292e+00
  2.005501e+01    1.125345e+00
  2.008676e+01    1.145656e+00
  2.011851e+01    1.141194e+00
  2.015026e+01    1.113279e+00
  2.018201e+01    1.105018e+00
  2.021376e+01    1.115281e+00
  2.024551e+01    1.106591e+00
  2.027726e+01    1.124951e+00
  2.030902e+01    1.133947e+00
  2.034077e+01    1.126709e+00
  2.037252e+01    1.117171e+00
  2.040427e+01    1.123077e+00
  2.043602e+01    1.123209e+00
  2.046777e+01    1.089900e+00
  2.049952e+01    1.073666e+00
  2.053127e+01    1.105531e+00
  2.056302e+01    1.082987e+00
  2.059478e+01    1.093169e+00
  2.062653e+01    1.083730e+00
  2.065828e+01    1.119106e+00
  2.069003e+01    1.097594e+00
  2.072178e+01    1.100722e+00
  2.075353e+01    1.089292e+00
  2.078528e+01    1.101970e+00
  2.081703e+01    1.086066e+00
  2.084878e+01    1.098098e+00
  2.088054e+01    1.093631e+00
  2.091229e+01    1.097870e+00
  2.094404e+01    1.085582e+00
  2.097579e+01    1.075579e+00
  2.100754e+01    1.076884e+00
  2.103929e+01    1.080615e+00
  2.107104e+01    1.098212e+00
  2.110279e+01    1.090305e+00
  2.113455e+01    1.084831e+00
  2.116630e+01    1.097679e+00
  2.119805e+01    1.132474e+00
  2.122980e+01    1.091981e+00
  2.126155e+01    1.143541e+00
  2.129330e+01    1.126960e+00
  2.132505e+01    1.139282e+00
  2.135680e+01    1.171708e+00
  2.138855e+01    1.180545e+00
  2.142031e+01    1.199006e+00
  2.145206e+01    1.230332e+00
  2.148381e+01    1.257668e+00
  2.151556e+01    1.279997e+00
  2.154731e+01    1.380264e+00
  2.157906e+01    1.454454e+00
  2.161081e+01    1.566586e+00
  2.164256e+01    1.730865e+00
  2.167431e+01    1.990766e+00
  2.170607e+01    2.347415e+00
  2.173782e+01    2.954442e+00
  2.176957e+01    3.829349e+00
  2.180132e+01    5.084577e+00
  2.183307e+01    6.560642e+00
  2.186482e+01    8.148362e+00
  2.189657e+01    9.816157e+00
  2.192832e+01    1.064168e+01
  2.196007e+01    9.578438e+00
  2.199183e+01    7.442740e+00
  2.202358e+01    5.301342e+00
  2.205533e+01    3.866575e+00
  2.208708e+01    2.926530e+00
  2.211883e+01    2.355280e+00
  2.215058e+01    1.968242e+00
  2.218233e+01    1.739630e+00
  2.221408e+01    1.546103e+00
  2.224584e+01    1.411946e+00
  2.227759e+01    1.333839e+00
  2.230934e+01    1.240562e+00
  2.234109e+01    1.253694e+00
  2.237284e+01    1.149720e+00
  2.240459e+01    1.130787e+00
  2.243634e+01    1.130639e+00
  2.246809e+01    1.089307e+00
  2.249984e+01    1.061089e+00
  2.253160e+01    9.969664e-01
  2.256335e+01    1.032450e+00
  2.259510e+01    1.008205e+00
  2.262685e+01    9.908583e-01
  2.265860e+01    1.002126e+00
  2.269035e+01    9.938631e-01
  2.272210e+01    9.637068e-01
  2.275385e+01    9.512307e-01
  2.278560e+01    9.456068e-01
  2.281736e+01    9.599087e-01
  2.284911e+01    9.322563e-01
  2.288086e+01    9.252279e-01
  2.291261e+01    9.340826e-01
  2.294436e+01    9.032343e-01
  2.297611e+01    9.205436e-01
  2.300786e+01    9.101425e-01
  2.303961e+01    9.103354e-01
  2.307137e+01    9.117237e-01
  2.310312e+01    8.909830e-01
  2.313487e+01    9.004530e-01
  2.316662e+01    8.870476e-01
  2.319837e+01    8.912345e-01
  2.323012e+01    8.904539e-01
  2.326187e+01    8.566024e-01
  2.329362e+01    8.882465e-01
  2.332537e+01    8.773543e-01
  2.335713e+01    8.628950e-01
  2.338888e+01    8.722616e-01
  2.342063e+01    8.604323e-01
  2.345238e+01    8.846403e-01
  2.348413e+01    8.483228e-01
  2.351588e+01    8.405655e-01
  2.354763e+01    8.604202e-01
  2.357938e+01    8.624060e-01
  2.361113e+01    8.449276e-01
  2.364289e+01    8.508835e-01
  2.367464e+01    8.532832e-01
  2.370639e+01    8.320571e-01
  2.373814e+01    8.191100e-01
  2.376989e+01    8.354888e-01
  2.380164e+01    8.119294e-01
  2.383339e+01    7.952532e-01
  2.386514e+01    8.133816e-01
  2.389689e+01    8.236197e-01
  2.392865e+01    8.084310e-01
  2.396040e+01    8.015728e-01
  2.399215e+01    7.979750e-01
  2.402390e+01    7.931377e-01
  2.405565e+01    7.977713e-01
  2.408740e+01    7.921370e-01
  2.411915e+01    8.008907e-01
  2.415090e+01    7.784759e-01
  2.418266e+01    7.771246e-01
  2.421441e+01    7.669140e-01
  2.424616e+01    7.815332e-01
  2.427791e+01    8.106724e-01
  2.430966e+01    8.166665e-01
  2.434141e+01    8.074288e-01
  2.437316e+01    8.039571e-01
  2.440491e+01    7.893071e-01
  2.443666e+01    7.892626e-01
  2.446842e+01    7.998978e-01
  2.450017e+01    7.872673e-01
  2.453192e+01    7.776420e-01
  2.456367e+01    7.935095e-01
  2.459542e+01    7.867956e-01
  2.462717e+01    7.800603e-01
  2.465892e+01    7.946228e-01
  2.469067e+01    8.116204e-01
  2.472242e+01    7.902426e-01
  2.475418e+01    7.804243e-01
  2.478593e+01    7.899384e-01
  2.481768e+01    7.924240e-01
  2.484943e+01    8.208445e-01
  2.488118e+01    7.874763e-01
  2.491293e+01    8.136818e-01
  2.494468e+01    8.105347e-01
  2.497643e+01    8.032631e-01
  2.500819e+01    8.053436e-01
  2.503994e+01    8.069159e-01
  2.507169e+01    8.357210e-01
  2.510344e+01    8.404537e-01
  2.513519e+01    8.188789e-01
  2.516694e+01    8.252218e-01
  2.519869e+01    8.549357e-01
  2.523044e+01    8.589108e-01
  2.526219e+01    8.727286e-01
  2.529395e+01    8.801892e-01
  2.532570e+01    8.987159e-01
  2.535745e+01    8.910286e-01
  2.538920e+01    9.251740e-01
  2.542095e+01    9.104416e-01
  2.545270e+01    9.219505e-01
  2.548445e+01    9.522660e-01
  2.551620e+01    9.751286e-01
  2.554795e+01    1.051693e+00
  2.557971e+01    1.087991e+00
  2.561146e+01    1.088285e+00
  2.564321e+01    1.185787e+00
  2.567496e+01    1.299676e+00
  2.570671e+01    1.420430e+00
  2.573846e+01    1.605731e+00
  2.577021e+01    1.882100e+00
  2.580196e+01    2.287403e+00
  2.583371e+01    2.939962e+00
  2.586547e+01    3.848511e+00
  2.589722e+01    5.099342e+00
  2.592897e+01    6.616607e+00
  2.596072e+01    7.996139e+00
  2.599247e+01    8.733100e+00
  2.602422e+01    8.197105e+00
  2.605597e+01    6.543355e+00
  2.608772e+01    4.914418e+00
  2.611948e+01    3.599604e+00
  2.615123e+01    2.719852e+00
  2.618298e+01    2.207434e+00
  2.621473e+01    1.792596e+00
  2.624648e+01    1.555261e+00
  2.627823e+01    1.374345e+00
  2.630998e+01    1.267594e+00
  2.634173e+01    1.168776e+00
  2.637348e+01    1.099058e+00
  2.640524e+01    1.041631e+00
  2.643699e+01    1.035287e+00
  2.646874e+01    1.002712e+00
  2.650049e+01    9.687985e-01
  2.653224e+01    9.736499e-01
  2.656399e+01    9.466394e-01
  2.659574e+01    9.526789e-01
  2.662749e+01    9.309164e-01
  2.665924e+01    9.371367e-01
  2.669100e+01    9.423485e-01
  2.672275e+01    9.226134e-01
  2.675450e+01    9.358076e-01
  2.678625e+01    9.237312e-01
  2.681800e+01    9.255677e-01
  2.684975e+01    9.108963e-01
  2.688150e+01    9.395815e-01
  2.691325e+01    9.457461e-01
  2.694501e+01    9.400275e-01
  2.697676e+01    9.763551e-01
  2.700851e+01    1.029665e+00
  2.704026e+01    1.085075e+00
  2.707201e+01    1.160392e+00
  2.710376e+01    1.290230e+00
  2.713551e+01    1.519898e+00
  2.716726e+01    1.777038e+00
  2.719901e+01    2.106603e+00
  2.723077e+01    2.409197e+00
  2.726252e+01    2.499320e+00
  2.729427e+01    2.311828e+00
  2.732602e+01    1.973135e+00
  2.735777e+01    1.624690e+00
  2.738952e+01    1.386286e+00
  2.742127e+01    1.218522e+00
  2.745302e+01    1.104147e+00
  2.748477e+01    1.044394e+00
  2.751653e+01    9.826752e-01
  2.754828e+01    9.387016e-01
  2.758003e+01    9.072486e-01
  2.761178e+01    8.908106e-01
  2.764353e+01    8.646794e-01
  2.767528e+01    8.420746e-01
  2.770703e+01    8.595681e-01
  2.773878e+01    8.666818e-01
  2.777054e+01    8.356830e-01
  2.780229e+01    8.508178e-01
  2.783404e+01    8.313304e-01
  2.786579e+01    8.328628e-01
  2.789754e+01    8.114384e-01
  2.792929e+01    8.329868e-01
  2.796104e+01    8.167598e-01
  2.799279e+01    8.014734e-01
  2.802454e+01    8.120197e-01
  2.805630e+01    7.976254e-01
  2.808805e+01    7.964262e-01
  2.811980e+01    8.068261e-01
  2.815155e+01    7.846643e-01
  2.818330e+01    7.925313e-01
  2.821505e+01    7.827891e-01
  2.824680e+01    7.910363e-01
  2.827855e+01    7.985070e-01
  2.831030e+01    7.911209e-01
  2.834206e+01    7.796160e-01
  2.837381e+01    7.915892e-01
  2.840556e+01    7.839423e-01
  2.843731e+01    7.879568e-01
  2.846906e+01    7.824185e-01
  2.850081e+01    7.803198e-01
  2.853256e+01    7.818670e-01
  2.856431e+01    7.706972e-01
  2.859606e+01    7.547594e-01
  2.862782e+01    7.733715e-01
  2.865957e+01    7.739885e-01
  2.869132e+01    7.563787e-01
  2.872307e+01    7.803662e-01
  2.875482e+01    7.810255e-01
  2.878657e+01    7.584499e-01
  2.881832e+01    7.560154e-01
  2.885007e+01    7.651695e-01
  2.888183e+01    7.242752e-01
  2.891358e+01    7.603213e-01
  2.894533e+01    7.729833e-01
  2.897708e+01    7.503067e-01
  2.900883e+01    7.303228e-01
  2.904058e+01    7.642156e-01
  2.907233e+01    7.318226e-01
  2.910408e+01    7.582694e-01
  2.913583e+01    7.429687e-01
  2.916759e+01    7.491317e-01
  2.919934e+01    7.525520e-01
  2.923109e+01    7.671223e-01
  2.926284e+01    7.631355e-01
  2.929459e+01    7.400517e-01
  2.932634e+01    7.477151e-01
  2.935809e+01    7.633108e-01
  2.938984e+01    7.432089e-01
  2.942159e+01    7.348846e-01
  2.945335e+01    7.292172e-01
  2.948510e+01    7.292407e-01
  2.951685e+01    7.313622e-01
  2.954860e+01    7.474029e-01
  2.958035e+01    7.433681e-01
  2.961210e+01    7.193989e-01
  2.964385e+01    7.447408e-01
  2.967560e+01    7.316342e-01
  2.970736e+01    7.229539e-01
  2.973911e+01    7.300808e-01
  2.977086e+01    7.597842e-01
  2.980261e+01    7.320935e-01
  2.983436e+01    7.446415e-01
  2.986611e+01    7.467695e-01
  2.989786e+01    7.146361e-01
  2.992961e+01    7.216760e-01
  2.996136e+01    7.041617e-01
  2.999312e+01    7.472509e-01
  3.002487e+01    7.271423e-01
  3.005662e+01    7.522081e-01
  3.008837e+01    7.486014e-01
  3.012012e+01    7.057035e-01
  3.015187e+01    7.243243e-01
  3.018362e+01    7.237363e-01
  3.021537e+01    7.363514e-01
  3.024712e+01    7.216631e-01
  3.027888e+01    7.254561e-01
  3.031063e+01    6.947441e-01
  3.034238e+01    7.256460e-01
  3.037413e+01    7.254834e-01
  3.040588e+01    7.097464e-01
  3.043763e+01    7.031543e-01
  3.046938e+01    7.165720e-01
  3.050113e+01    7.129570e-01
  3.053288e+01    7.245026e-01
  3.056464e+01    7.095905e-01
  3.059639e+01    7.181022e-01
  3.062814e+01    7.349215e-01
  3.065989e+01    7.144614e-01
  3.069164e+01    6.956737e-01
  3.072339e+01    7.223111e-01
  3.075514e+01    7.189035e-01
  3.078689e+01    7.027719e-01
  3.081865e+01    7.305841e-01
  3.085040e+01    7.269456e-01
  3.088215e+01    7.289871e-01
  3.091390e+01    7.254400e-01
  3.094565e+01    7.280532e-01
  3.097740e+01    7.253472e-01
  3.100915e+01    7.225875e-01
  3.104090e+01    7.033194e-01
  3.107265e+01    7.340584e-01
  3.110441e+01    7.234681e-01
  3.113616e+01    7.120823e-01
  3.116791e+01    7.278471e-01
  3.119966e+01    7.370703e-01
  3.123141e+01    7.240971e-01
  3.126316e+01    7.386432e-01
  3.129491e+01    7.470908e-01
  3.132666e+01    7.355942e-01
  3.135841e+01    7.507288e-01
  3.139017e+01    7.318728e-01
  3.142192e+01    7.698079e-01
  3.145367e+01    7.481154e-01
  3.148542e+01    7.637216e-01
  3.151717e+01    7.882398e-01
  3.154892e+01    8.235314e-01
  3.158067e+01    8.063894e-01
  3.161242e+01    8.291522e-01
  3.164418e+01    8.548514e-01
  3.167593e+01    8.829879e-01
  3.170768e+01    9.317294e-01
  3.173943e+01    9.999692e-01
  3.177118e+01    1.103252e+00
  3.180293e+01    1.222716e+00
  3.183468e+01    1.489748e+00
  3.186643e+01    1.773501e+00
  3.189818e+01    2.091700e+00
  3.192994e+01    2.439952e+00
  3.196169e+01    2.460515e+00
  3.199344e+01    2.283371e+00
  3.202519e+01    1.930987e+00
  3.205694e+01    1.538688e+00
  3.208869e+01    1.258486e+00
  3.212044e+01    1.098885e+00
  3.215219e+01    1.008922e+00
  3.218394e+01    9.411703e-01
  3.221570e+01    8.808736e-01
  3.224745e+01    8.483889e-01
  3.227920e+01    8.133787e-01
  3.231095e+01    7.579972e-01
  3.234270e+01    7.834871e-01
  3.237445e+01    7.545905e-01
  3.240620e+01    7.704992e-01
  3.243795e+01    7.605405e-01
  3.246970e+01    7.404607e-01
  3.250146e+01    7.587790e-01
  3.253321e+01    7.210917e-01
  3.254908e+01    7.275703e-01