File: XRD/Activation ramp/2024-07-27_002_Ru-CGO-ex_Activtation_ramp_000002_data_000126.dat
# == pyFAI calibration ==
# Distance Sample to Detector: 0.4 m
# PONI: 9.750e-02, 1.135e-01 m
# Rotations: -0.000175 0.000000 -0.000000 rad
#
# == Fit2d calibration ==
# Distance Sample-beamCenter: 400.000 mm
# Center: x=1514.000, y=1300.000 pix
# Tilt: 0.010 deg  TiltPlanRot: 0.010 deg
#
# Detector Detector	 Spline= None	 PixelSize= 7.500e-05, 7.500e-05 m
#    Detector has a mask: False
#    Detector has a dark current: False
#    detector has a flat field: False
#
# Wavelength: 6.888e-11 m
# Mask applied: user provided
# Dark current applied: False
# Flat field applied: False
# Polarization factor: 0.99
# Normalization factor: 1.0
# --> /home/myspot/data/2024_07_Rosario/Ru-CGO-ex/2024-07-27_002_Ru-CGO-ex_Activtation_ramp_000002_data_000126.dat
#       q_nm^-1             I
  2.003187e-02    0.000000e+00
  5.178302e-02    0.000000e+00
  8.353417e-02    4.769202e-02
  1.152853e-01    7.466205e-02
  1.470365e-01    4.956730e-02
  1.787876e-01    3.646586e-02
  2.105388e-01    5.030093e-02
  2.422899e-01    4.843175e-02
  2.740411e-01    7.412448e-02
  3.057922e-01    6.413957e-02
  3.375433e-01    3.837034e-02
  3.692945e-01    4.899392e-02
  4.010456e-01    3.485361e-02
  4.327968e-01    7.538786e-02
  4.645479e-01    4.735973e-02
  4.962991e-01    4.377523e-02
  5.280502e-01    4.670494e-02
  5.598014e-01    4.200174e-02
  5.915525e-01    5.361859e-02
  6.233037e-01    2.536833e-02
  6.550548e-01    3.013147e-02
  6.868060e-01    4.484809e-02
  7.185571e-01    5.707069e-02
  7.503083e-01    6.246747e-02
  7.820594e-01    9.350514e-02
  8.138106e-01    2.016913e-01
  8.455617e-01    2.934541e-01
  8.773129e-01    4.053676e-01
  9.090640e-01    5.318752e-01
  9.408152e-01    5.987937e-01
  9.725663e-01    8.160250e-01
  1.004317e+00    1.030228e+00
  1.036069e+00    1.216278e+00
  1.067820e+00    1.298614e+00
  1.099571e+00    1.377233e+00
  1.131322e+00    1.441190e+00
  1.163073e+00    1.492641e+00
  1.194824e+00    1.635668e+00
  1.226575e+00    2.068852e+00
  1.258327e+00    2.203620e+00
  1.290078e+00    2.440213e+00
  1.321829e+00    2.574882e+00
  1.353580e+00    2.541579e+00
  1.385331e+00    2.590510e+00
  1.417082e+00    2.693924e+00
  1.448834e+00    2.713963e+00
  1.480585e+00    2.730669e+00
  1.512336e+00    2.771832e+00
  1.544087e+00    2.889735e+00
  1.575838e+00    3.026059e+00
  1.607589e+00    2.756015e+00
  1.639340e+00    2.882789e+00
  1.671092e+00    2.821794e+00
  1.702843e+00    2.735055e+00
  1.734594e+00    2.784250e+00
  1.766345e+00    2.775936e+00
  1.798096e+00    2.657724e+00
  1.829847e+00    2.716693e+00
  1.861598e+00    2.742394e+00
  1.893350e+00    2.839649e+00
  1.925101e+00    2.819629e+00
  1.956852e+00    2.793739e+00
  1.988603e+00    2.632819e+00
  2.020354e+00    2.634677e+00
  2.052105e+00    2.748561e+00
  2.083856e+00    2.717113e+00
  2.115608e+00    2.750775e+00
  2.147359e+00    2.782257e+00
  2.179110e+00    2.697317e+00
  2.210861e+00    2.766618e+00
  2.242612e+00    2.626258e+00
  2.274363e+00    2.786294e+00
  2.306115e+00    2.802324e+00
  2.337866e+00    2.901466e+00
  2.369617e+00    2.825495e+00
  2.401368e+00    2.782716e+00
  2.433119e+00    2.773076e+00
  2.464870e+00    2.860558e+00
  2.496621e+00    2.869153e+00
  2.528373e+00    2.765846e+00
  2.560124e+00    2.789232e+00
  2.591875e+00    2.841156e+00
  2.623626e+00    2.855183e+00
  2.655377e+00    2.767404e+00
  2.687128e+00    2.846140e+00
  2.718879e+00    2.814850e+00
  2.750631e+00    2.757586e+00
  2.782382e+00    2.783974e+00
  2.814133e+00    2.735806e+00
  2.845884e+00    2.705413e+00
  2.877635e+00    2.854822e+00
  2.909386e+00    2.900774e+00
  2.941137e+00    2.837243e+00
  2.972889e+00    2.881941e+00
  3.004640e+00    2.814991e+00
  3.036391e+00    2.909635e+00
  3.068142e+00    2.854077e+00
  3.099893e+00    2.799534e+00
  3.131644e+00    2.895424e+00
  3.163395e+00    2.814438e+00
  3.195147e+00    2.984381e+00
  3.226898e+00    2.930831e+00
  3.258649e+00    2.890710e+00
  3.290400e+00    2.849608e+00
  3.322151e+00    2.993644e+00
  3.353902e+00    2.896098e+00
  3.385654e+00    2.913761e+00
  3.417405e+00    2.905979e+00
  3.449156e+00    2.957922e+00
  3.480907e+00    2.907438e+00
  3.512658e+00    3.024293e+00
  3.544409e+00    2.932941e+00
  3.576160e+00    2.944703e+00
  3.607912e+00    2.995498e+00
  3.639663e+00    2.970741e+00
  3.671414e+00    2.965628e+00
  3.703165e+00    3.085826e+00
  3.734916e+00    2.972109e+00
  3.766667e+00    2.938508e+00
  3.798418e+00    2.940373e+00
  3.830170e+00    2.925113e+00
  3.861921e+00    2.919808e+00
  3.893672e+00    2.984273e+00
  3.925423e+00    2.986567e+00
  3.957174e+00    2.970448e+00
  3.988925e+00    2.988904e+00
  4.020676e+00    2.963558e+00
  4.052428e+00    2.927684e+00
  4.084179e+00    2.955920e+00
  4.115930e+00    2.946025e+00
  4.147681e+00    2.945543e+00
  4.179432e+00    2.993153e+00
  4.211183e+00    3.067204e+00
  4.242935e+00    3.045929e+00
  4.274686e+00    3.086258e+00
  4.306437e+00    2.982369e+00
  4.338188e+00    2.922155e+00
  4.369939e+00    3.021547e+00
  4.401690e+00    3.050992e+00
  4.433441e+00    3.151699e+00
  4.465193e+00    3.081737e+00
  4.496944e+00    3.162396e+00
  4.528695e+00    3.041819e+00
  4.560446e+00    3.062104e+00
  4.592197e+00    3.130978e+00
  4.623948e+00    3.078584e+00
  4.655699e+00    3.077488e+00
  4.687451e+00    3.096216e+00
  4.719202e+00    3.186163e+00
  4.750953e+00    3.149410e+00
  4.782704e+00    3.066564e+00
  4.814455e+00    3.084464e+00
  4.846206e+00    3.042366e+00
  4.877957e+00    3.175122e+00
  4.909709e+00    3.022329e+00
  4.941460e+00    3.180702e+00
  4.973211e+00    3.116179e+00
  5.004962e+00    3.031748e+00
  5.036713e+00    3.079442e+00
  5.068464e+00    3.143437e+00
  5.100216e+00    3.052879e+00
  5.131967e+00    3.163296e+00
  5.163718e+00    3.086006e+00
  5.195469e+00    3.086657e+00
  5.227220e+00    3.083442e+00
  5.258971e+00    3.182329e+00
  5.290722e+00    3.100250e+00
  5.322474e+00    3.101829e+00
  5.354225e+00    3.118084e+00
  5.385976e+00    3.136833e+00
  5.417727e+00    3.156084e+00
  5.449478e+00    3.076026e+00
  5.481229e+00    2.978776e+00
  5.512980e+00    3.052279e+00
  5.544732e+00    3.032532e+00
  5.576483e+00    3.118059e+00
  5.608234e+00    3.030726e+00
  5.639985e+00    2.992450e+00
  5.671736e+00    3.100090e+00
  5.703487e+00    3.143126e+00
  5.735238e+00    2.980136e+00
  5.766990e+00    3.044515e+00
  5.798741e+00    3.016163e+00
  5.830492e+00    3.034552e+00
  5.862243e+00    3.002614e+00
  5.893994e+00    2.959376e+00
  5.925745e+00    2.901747e+00
  5.957497e+00    2.933708e+00
  5.989248e+00    2.971453e+00
  6.020999e+00    3.006494e+00
  6.052750e+00    3.031353e+00
  6.084501e+00    3.080816e+00
  6.116252e+00    3.059578e+00
  6.148003e+00    3.113593e+00
  6.179755e+00    3.109178e+00
  6.211506e+00    3.029804e+00
  6.243257e+00    3.082500e+00
  6.275008e+00    3.019493e+00
  6.306759e+00    3.015465e+00
  6.338510e+00    3.024999e+00
  6.370261e+00    2.966512e+00
  6.402013e+00    3.074719e+00
  6.433764e+00    2.983055e+00
  6.465515e+00    3.046459e+00
  6.497266e+00    3.042474e+00
  6.529017e+00    2.964747e+00
  6.560768e+00    3.041442e+00
  6.592519e+00    2.978288e+00
  6.624271e+00    3.055149e+00
  6.656022e+00    2.971258e+00
  6.687773e+00    2.998017e+00
  6.719524e+00    2.946204e+00
  6.751275e+00    2.950116e+00
  6.783026e+00    2.985996e+00
  6.814777e+00    2.987679e+00
  6.846529e+00    3.035124e+00
  6.878280e+00    3.063457e+00
  6.910031e+00    2.991915e+00
  6.941782e+00    2.995694e+00
  6.973533e+00    3.037125e+00
  7.005284e+00    3.062876e+00
  7.037036e+00    2.853743e+00
  7.068787e+00    2.941258e+00
  7.100538e+00    3.006580e+00
  7.132289e+00    2.964467e+00
  7.164040e+00    3.027322e+00
  7.195791e+00    2.948802e+00
  7.227542e+00    3.007177e+00
  7.259294e+00    2.965124e+00
  7.291045e+00    2.969479e+00
  7.322796e+00    2.960590e+00
  7.354547e+00    2.942742e+00
  7.386298e+00    3.001108e+00
  7.418049e+00    2.951474e+00
  7.449800e+00    2.955983e+00
  7.481552e+00    2.931786e+00
  7.513303e+00    3.000584e+00
  7.545054e+00    2.940406e+00
  7.576805e+00    2.900425e+00
  7.608556e+00    2.978809e+00
  7.640307e+00    2.981222e+00
  7.672058e+00    2.902506e+00
  7.703810e+00    2.962743e+00
  7.735561e+00    2.919181e+00
  7.767312e+00    2.905292e+00
  7.799063e+00    2.895593e+00
  7.830814e+00    2.936831e+00
  7.862565e+00    2.893276e+00
  7.894317e+00    2.960826e+00
  7.926068e+00    2.896032e+00
  7.957819e+00    2.841096e+00
  7.989570e+00    2.818605e+00
  8.021321e+00    2.929002e+00
  8.053072e+00    2.895231e+00
  8.084823e+00    2.949298e+00
  8.116575e+00    2.913892e+00
  8.148326e+00    2.848316e+00
  8.180077e+00    2.952524e+00
  8.211828e+00    2.932040e+00
  8.243579e+00    2.985452e+00
  8.275330e+00    2.916739e+00
  8.307081e+00    2.947459e+00
  8.338833e+00    2.877869e+00
  8.370584e+00    2.850334e+00
  8.402335e+00    2.873992e+00
  8.434086e+00    2.857836e+00
  8.465837e+00    2.857934e+00
  8.497588e+00    2.836999e+00
  8.529339e+00    2.902795e+00
  8.561091e+00    2.836844e+00
  8.592842e+00    2.855124e+00
  8.624593e+00    2.908798e+00
  8.656344e+00    2.857825e+00
  8.688095e+00    2.870596e+00
  8.719846e+00    2.812907e+00
  8.751598e+00    2.791428e+00
  8.783349e+00    2.745002e+00
  8.815100e+00    2.844105e+00
  8.846851e+00    2.846963e+00
  8.878602e+00    2.807752e+00
  8.910353e+00    2.869791e+00
  8.942104e+00    2.815559e+00
  8.973856e+00    2.829834e+00
  9.005607e+00    2.780234e+00
  9.037358e+00    2.786393e+00
  9.069109e+00    2.821073e+00
  9.100860e+00    2.808243e+00
  9.132611e+00    2.796688e+00
  9.164362e+00    2.763935e+00
  9.196114e+00    2.775064e+00
  9.227865e+00    2.804605e+00
  9.259616e+00    2.689865e+00
  9.291367e+00    2.711763e+00
  9.323118e+00    2.732255e+00
  9.354869e+00    2.751272e+00
  9.386620e+00    2.678834e+00
  9.418372e+00    2.703297e+00
  9.450123e+00    2.644886e+00
  9.481874e+00    2.668500e+00
  9.513625e+00    2.749064e+00
  9.545376e+00    2.784188e+00
  9.577127e+00    2.732503e+00
  9.608878e+00    2.705075e+00
  9.640630e+00    2.763094e+00
  9.672381e+00    2.746531e+00
  9.704132e+00    2.727483e+00
  9.735883e+00    2.721848e+00
  9.767634e+00    2.679011e+00
  9.799385e+00    2.684874e+00
  9.831137e+00    2.670435e+00
  9.862888e+00    2.636698e+00
  9.894639e+00    2.704341e+00
  9.926390e+00    2.740684e+00
  9.958141e+00    2.689622e+00
  9.989892e+00    2.643919e+00
  1.002164e+01    2.654576e+00
  1.005339e+01    2.621634e+00
  1.008515e+01    2.668655e+00
  1.011690e+01    2.611542e+00
  1.014865e+01    2.688150e+00
  1.018040e+01    2.633419e+00
  1.021215e+01    2.566486e+00
  1.024390e+01    2.610284e+00
  1.027565e+01    2.646646e+00
  1.030740e+01    2.606256e+00
  1.033915e+01    2.591001e+00
  1.037091e+01    2.590709e+00
  1.040266e+01    2.639216e+00
  1.043441e+01    2.584788e+00
  1.046616e+01    2.599009e+00
  1.049791e+01    2.562477e+00
  1.052966e+01    2.576325e+00
  1.056141e+01    2.543231e+00
  1.059316e+01    2.502185e+00
  1.062492e+01    2.522975e+00
  1.065667e+01    2.521300e+00
  1.068842e+01    2.498549e+00
  1.072017e+01    2.488954e+00
  1.075192e+01    2.514928e+00
  1.078367e+01    2.458897e+00
  1.081542e+01    2.505105e+00
  1.084717e+01    2.546813e+00
  1.087892e+01    2.521121e+00
  1.091068e+01    2.506501e+00
  1.094243e+01    2.511798e+00
  1.097418e+01    2.519297e+00
  1.100593e+01    2.438438e+00
  1.103768e+01    2.425519e+00
  1.106943e+01    2.467439e+00
  1.110118e+01    2.444612e+00
  1.113293e+01    2.479609e+00
  1.116468e+01    2.463276e+00
  1.119644e+01    2.481539e+00
  1.122819e+01    2.460772e+00
  1.125994e+01    2.417941e+00
  1.129169e+01    2.463722e+00
  1.132344e+01    2.447090e+00
  1.135519e+01    2.412997e+00
  1.138694e+01    2.411258e+00
  1.141869e+01    2.328959e+00
  1.145045e+01    2.379787e+00
  1.148220e+01    2.325355e+00
  1.151395e+01    2.354741e+00
  1.154570e+01    2.384957e+00
  1.157745e+01    2.397746e+00
  1.160920e+01    2.371223e+00
  1.164095e+01    2.344848e+00
  1.167270e+01    2.353846e+00
  1.170445e+01    2.349926e+00
  1.173621e+01    2.318943e+00
  1.176796e+01    2.337787e+00
  1.179971e+01    2.337598e+00
  1.183146e+01    2.358010e+00
  1.186321e+01    2.297110e+00
  1.189496e+01    2.328564e+00
  1.192671e+01    2.352237e+00
  1.195846e+01    2.311164e+00
  1.199021e+01    2.305834e+00
  1.202197e+01    2.322782e+00
  1.205372e+01    2.318405e+00
  1.208547e+01    2.339679e+00
  1.211722e+01    2.295272e+00
  1.214897e+01    2.309254e+00
  1.218072e+01    2.277988e+00
  1.221247e+01    2.301419e+00
  1.224422e+01    2.310645e+00
  1.227597e+01    2.307040e+00
  1.230773e+01    2.284129e+00
  1.233948e+01    2.341869e+00
  1.237123e+01    2.281904e+00
  1.240298e+01    2.309572e+00
  1.243473e+01    2.286651e+00
  1.246648e+01    2.348499e+00
  1.249823e+01    2.319937e+00
  1.252998e+01    2.377466e+00
  1.256174e+01    2.304679e+00
  1.259349e+01    2.341028e+00
  1.262524e+01    2.362649e+00
  1.265699e+01    2.441329e+00
  1.268874e+01    2.420749e+00
  1.272049e+01    2.482556e+00
  1.275224e+01    2.538873e+00
  1.278399e+01    2.640638e+00
  1.281574e+01    2.677565e+00
  1.284750e+01    2.851317e+00
  1.287925e+01    3.023070e+00
  1.291100e+01    3.265540e+00
  1.294275e+01    3.695750e+00
  1.297450e+01    4.419909e+00
  1.300625e+01    5.374399e+00
  1.303800e+01    7.125603e+00
  1.306975e+01    9.560350e+00
  1.310150e+01    1.204824e+01
  1.313326e+01    1.464286e+01
  1.316501e+01    1.661841e+01
  1.319676e+01    1.706122e+01
  1.322851e+01    1.405656e+01
  1.326026e+01    1.023720e+01
  1.329201e+01    7.222032e+00
  1.332376e+01    5.447490e+00
  1.335551e+01    4.446202e+00
  1.338727e+01    3.738625e+00
  1.341902e+01    3.328811e+00
  1.345077e+01    3.027216e+00
  1.348252e+01    2.814978e+00
  1.351427e+01    2.598011e+00
  1.354602e+01    2.522748e+00
  1.357777e+01    2.473951e+00
  1.360952e+01    2.382206e+00
  1.364127e+01    2.313418e+00
  1.367303e+01    2.292807e+00
  1.370478e+01    2.240139e+00
  1.373653e+01    2.195333e+00
  1.376828e+01    2.201099e+00
  1.380003e+01    2.156254e+00
  1.383178e+01    2.127227e+00
  1.386353e+01    2.102576e+00
  1.389528e+01    2.099500e+00
  1.392703e+01    2.096125e+00
  1.395879e+01    2.021788e+00
  1.399054e+01    2.054050e+00
  1.402229e+01    1.995380e+00
  1.405404e+01    2.040118e+00
  1.408579e+01    1.986848e+00
  1.411754e+01    2.014556e+00
  1.414929e+01    1.979276e+00
  1.418104e+01    1.971466e+00
  1.421279e+01    1.972376e+00
  1.424455e+01    1.963805e+00
  1.427630e+01    1.981651e+00
  1.430805e+01    1.933238e+00
  1.433980e+01    1.929906e+00
  1.437155e+01    1.939770e+00
  1.440330e+01    1.912244e+00
  1.443505e+01    1.912208e+00
  1.446680e+01    1.890184e+00
  1.449856e+01    1.866192e+00
  1.453031e+01    1.962390e+00
  1.456206e+01    1.912185e+00
  1.459381e+01    1.937511e+00
  1.462556e+01    1.884464e+00
  1.465731e+01    1.919701e+00
  1.468906e+01    1.908184e+00
  1.472081e+01    1.877690e+00
  1.475256e+01    1.913098e+00
  1.478432e+01    1.909300e+00
  1.481607e+01    1.884751e+00
  1.484782e+01    1.904762e+00
  1.487957e+01    1.934034e+00
  1.491132e+01    1.952888e+00
  1.494307e+01    1.992285e+00
  1.497482e+01    2.053564e+00
  1.500657e+01    2.107283e+00
  1.503832e+01    2.270292e+00
  1.507008e+01    2.495132e+00
  1.510183e+01    2.846574e+00
  1.513358e+01    3.445399e+00
  1.516533e+01    4.147368e+00
  1.519708e+01    4.886693e+00
  1.522883e+01    5.435492e+00
  1.526058e+01    5.879451e+00
  1.529233e+01    5.705382e+00
  1.532409e+01    4.943445e+00
  1.535584e+01    3.889534e+00
  1.538759e+01    3.098550e+00
  1.541934e+01    2.636458e+00
  1.545109e+01    2.358665e+00
  1.548284e+01    2.161184e+00
  1.551459e+01    2.031146e+00
  1.554634e+01    1.921695e+00
  1.557809e+01    1.840999e+00
  1.560985e+01    1.800358e+00
  1.564160e+01    1.786100e+00
  1.567335e+01    1.750485e+00
  1.570510e+01    1.705778e+00
  1.573685e+01    1.696123e+00
  1.576860e+01    1.685259e+00
  1.580035e+01    1.670545e+00
  1.583210e+01    1.652408e+00
  1.586385e+01    1.658697e+00
  1.589561e+01    1.624924e+00
  1.592736e+01    1.643297e+00
  1.595911e+01    1.579459e+00
  1.599086e+01    1.586356e+00
  1.602261e+01    1.618287e+00
  1.605436e+01    1.586711e+00
  1.608611e+01    1.597177e+00
  1.611786e+01    1.566351e+00
  1.614961e+01    1.557560e+00
  1.618137e+01    1.592342e+00
  1.621312e+01    1.577239e+00
  1.624487e+01    1.532750e+00
  1.627662e+01    1.539543e+00
  1.630837e+01    1.543999e+00
  1.634012e+01    1.535730e+00
  1.637187e+01    1.565567e+00
  1.640362e+01    1.492276e+00
  1.643538e+01    1.518500e+00
  1.646713e+01    1.512471e+00
  1.649888e+01    1.491340e+00
  1.653063e+01    1.486098e+00
  1.656238e+01    1.432436e+00
  1.659413e+01    1.525359e+00
  1.662588e+01    1.473300e+00
  1.665763e+01    1.482995e+00
  1.668938e+01    1.478039e+00
  1.672114e+01    1.452878e+00
  1.675289e+01    1.463746e+00
  1.678464e+01    1.454074e+00
  1.681639e+01    1.457034e+00
  1.684814e+01    1.423345e+00
  1.687989e+01    1.442077e+00
  1.691164e+01    1.442653e+00
  1.694339e+01    1.437719e+00
  1.697514e+01    1.438493e+00
  1.700690e+01    1.420778e+00
  1.703865e+01    1.413934e+00
  1.707040e+01    1.443810e+00
  1.710215e+01    1.415628e+00
  1.713390e+01    1.423432e+00
  1.716565e+01    1.369521e+00
  1.719740e+01    1.418426e+00
  1.722915e+01    1.375835e+00
  1.726091e+01    1.376550e+00
  1.729266e+01    1.364916e+00
  1.732441e+01    1.362901e+00
  1.735616e+01    1.357094e+00
  1.738791e+01    1.365643e+00
  1.741966e+01    1.335882e+00
  1.745141e+01    1.355023e+00
  1.748316e+01    1.358195e+00
  1.751491e+01    1.367284e+00
  1.754667e+01    1.352015e+00
  1.757842e+01    1.355024e+00
  1.761017e+01    1.329270e+00
  1.764192e+01    1.334010e+00
  1.767367e+01    1.342529e+00
  1.770542e+01    1.347782e+00
  1.773717e+01    1.320192e+00
  1.776892e+01    1.341376e+00
  1.780067e+01    1.286737e+00
  1.783243e+01    1.285936e+00
  1.786418e+01    1.300153e+00
  1.789593e+01    1.318900e+00
  1.792768e+01    1.285064e+00
  1.795943e+01    1.272445e+00
  1.799118e+01    1.284566e+00
  1.802293e+01    1.293106e+00
  1.805468e+01    1.300134e+00
  1.808643e+01    1.303492e+00
  1.811819e+01    1.294615e+00
  1.814994e+01    1.277593e+00
  1.818169e+01    1.275508e+00
  1.821344e+01    1.274841e+00
  1.824519e+01    1.245461e+00
  1.827694e+01    1.257288e+00
  1.830869e+01    1.273168e+00
  1.834044e+01    1.238631e+00
  1.837220e+01    1.244358e+00
  1.840395e+01    1.269320e+00
  1.843570e+01    1.234614e+00
  1.846745e+01    1.251828e+00
  1.849920e+01    1.237178e+00
  1.853095e+01    1.240128e+00
  1.856270e+01    1.228838e+00
  1.859445e+01    1.233512e+00
  1.862620e+01    1.238758e+00
  1.865796e+01    1.208905e+00
  1.868971e+01    1.213817e+00
  1.872146e+01    1.213457e+00
  1.875321e+01    1.205541e+00
  1.878496e+01    1.230466e+00
  1.881671e+01    1.177668e+00
  1.884846e+01    1.236042e+00
  1.888021e+01    1.180003e+00
  1.891196e+01    1.183064e+00
  1.894372e+01    1.182384e+00
  1.897547e+01    1.203702e+00
  1.900722e+01    1.179284e+00
  1.903897e+01    1.184980e+00
  1.907072e+01    1.196014e+00
  1.910247e+01    1.205756e+00
  1.913422e+01    1.150432e+00
  1.916597e+01    1.182243e+00
  1.919773e+01    1.183462e+00
  1.922948e+01    1.180879e+00
  1.926123e+01    1.185612e+00
  1.929298e+01    1.178087e+00
  1.932473e+01    1.154827e+00
  1.935648e+01    1.149797e+00
  1.938823e+01    1.143797e+00
  1.941998e+01    1.147889e+00
  1.945173e+01    1.169600e+00
  1.948349e+01    1.156831e+00
  1.951524e+01    1.144125e+00
  1.954699e+01    1.156578e+00
  1.957874e+01    1.160261e+00
  1.961049e+01    1.138915e+00
  1.964224e+01    1.145458e+00
  1.967399e+01    1.155431e+00
  1.970574e+01    1.138104e+00
  1.973749e+01    1.154646e+00
  1.976925e+01    1.131842e+00
  1.980100e+01    1.136515e+00
  1.983275e+01    1.101282e+00
  1.986450e+01    1.129084e+00
  1.989625e+01    1.111790e+00
  1.992800e+01    1.116590e+00
  1.995975e+01    1.105578e+00
  1.999150e+01    1.108879e+00
  2.002325e+01    1.104421e+00
  2.005501e+01    1.113775e+00
  2.008676e+01    1.091735e+00
  2.011851e+01    1.100856e+00
  2.015026e+01    1.105371e+00
  2.018201e+01    1.094248e+00
  2.021376e+01    1.103122e+00
  2.024551e+01    1.079191e+00
  2.027726e+01    1.083708e+00
  2.030902e+01    1.090604e+00
  2.034077e+01    1.101944e+00
  2.037252e+01    1.066604e+00
  2.040427e+01    1.091358e+00
  2.043602e+01    1.084978e+00
  2.046777e+01    1.097842e+00
  2.049952e+01    1.085203e+00
  2.053127e+01    1.081247e+00
  2.056302e+01    1.100571e+00
  2.059478e+01    1.109491e+00
  2.062653e+01    1.095768e+00
  2.065828e+01    1.097438e+00
  2.069003e+01    1.069663e+00
  2.072178e+01    1.082490e+00
  2.075353e+01    1.061226e+00
  2.078528e+01    1.054078e+00
  2.081703e+01    1.062902e+00
  2.084878e+01    1.067216e+00
  2.088054e+01    1.075843e+00
  2.091229e+01    1.062575e+00
  2.094404e+01    1.089481e+00
  2.097579e+01    1.085291e+00
  2.100754e+01    1.064216e+00
  2.103929e+01    1.071798e+00
  2.107104e+01    1.084477e+00
  2.110279e+01    1.086477e+00
  2.113455e+01    1.083674e+00
  2.116630e+01    1.089936e+00
  2.119805e+01    1.100883e+00
  2.122980e+01    1.098495e+00
  2.126155e+01    1.130705e+00
  2.129330e+01    1.110035e+00
  2.132505e+01    1.114939e+00
  2.135680e+01    1.129414e+00
  2.138855e+01    1.174656e+00
  2.142031e+01    1.182924e+00
  2.145206e+01    1.203370e+00
  2.148381e+01    1.244827e+00
  2.151556e+01    1.287564e+00
  2.154731e+01    1.373222e+00
  2.157906e+01    1.455189e+00
  2.161081e+01    1.585260e+00
  2.164256e+01    1.779734e+00
  2.167431e+01    2.077198e+00
  2.170607e+01    2.535000e+00
  2.173782e+01    3.143775e+00
  2.176957e+01    4.194647e+00
  2.180132e+01    5.415602e+00
  2.183307e+01    6.800128e+00
  2.186482e+01    8.290215e+00
  2.189657e+01    9.381588e+00
  2.192832e+01    9.203365e+00
  2.196007e+01    7.527236e+00
  2.199183e+01    5.527545e+00
  2.202358e+01    4.003769e+00
  2.205533e+01    3.030956e+00
  2.208708e+01    2.384606e+00
  2.211883e+01    2.002695e+00
  2.215058e+01    1.752964e+00
  2.218233e+01    1.529559e+00
  2.221408e+01    1.413460e+00
  2.224584e+01    1.329432e+00
  2.227759e+01    1.217850e+00
  2.230934e+01    1.192755e+00
  2.234109e+01    1.140463e+00
  2.237284e+01    1.107756e+00
  2.240459e+01    1.062108e+00
  2.243634e+01    1.043534e+00
  2.246809e+01    1.034256e+00
  2.249984e+01    1.046303e+00
  2.253160e+01    1.019965e+00
  2.256335e+01    9.986183e-01
  2.259510e+01    9.564978e-01
  2.262685e+01    9.600518e-01
  2.265860e+01    9.747953e-01
  2.269035e+01    9.378379e-01
  2.272210e+01    9.592605e-01
  2.275385e+01    9.349589e-01
  2.278560e+01    9.510740e-01
  2.281736e+01    9.481511e-01
  2.284911e+01    9.096045e-01
  2.288086e+01    9.255581e-01
  2.291261e+01    8.869581e-01
  2.294436e+01    8.933895e-01
  2.297611e+01    9.003935e-01
  2.300786e+01    8.936856e-01
  2.303961e+01    8.731539e-01
  2.307137e+01    9.072323e-01
  2.310312e+01    8.792885e-01
  2.313487e+01    8.868877e-01
  2.316662e+01    9.067194e-01
  2.319837e+01    8.710502e-01
  2.323012e+01    8.563746e-01
  2.326187e+01    8.542486e-01
  2.329362e+01    8.605081e-01
  2.332537e+01    8.550171e-01
  2.335713e+01    8.507887e-01
  2.338888e+01    8.339611e-01
  2.342063e+01    8.475991e-01
  2.345238e+01    8.414126e-01
  2.348413e+01    8.359228e-01
  2.351588e+01    8.524503e-01
  2.354763e+01    8.285151e-01
  2.357938e+01    8.201936e-01
  2.361113e+01    8.320646e-01
  2.364289e+01    8.393488e-01
  2.367464e+01    8.335069e-01
  2.370639e+01    8.313944e-01
  2.373814e+01    7.975990e-01
  2.376989e+01    8.172750e-01
  2.380164e+01    8.054562e-01
  2.383339e+01    7.986878e-01
  2.386514e+01    8.111864e-01
  2.389689e+01    7.907552e-01
  2.392865e+01    7.675839e-01
  2.396040e+01    7.909024e-01
  2.399215e+01    8.027525e-01
  2.402390e+01    7.710613e-01
  2.405565e+01    7.729278e-01
  2.408740e+01    7.840949e-01
  2.411915e+01    7.807433e-01
  2.415090e+01    7.814707e-01
  2.418266e+01    7.820218e-01
  2.421441e+01    7.732604e-01
  2.424616e+01    7.622416e-01
  2.427791e+01    7.798523e-01
  2.430966e+01    7.878749e-01
  2.434141e+01    7.579358e-01
  2.437316e+01    7.847660e-01
  2.440491e+01    7.740268e-01
  2.443666e+01    7.762200e-01
  2.446842e+01    7.943162e-01
  2.450017e+01    7.780707e-01
  2.453192e+01    7.899531e-01
  2.456367e+01    8.010753e-01
  2.459542e+01    7.831029e-01
  2.462717e+01    7.926333e-01
  2.465892e+01    7.944375e-01
  2.469067e+01    7.855070e-01
  2.472242e+01    7.970269e-01
  2.475418e+01    7.907062e-01
  2.478593e+01    7.905572e-01
  2.481768e+01    7.980062e-01
  2.484943e+01    7.870513e-01
  2.488118e+01    7.819232e-01
  2.491293e+01    8.097723e-01
  2.494468e+01    7.983093e-01
  2.497643e+01    8.000656e-01
  2.500819e+01    7.883388e-01
  2.503994e+01    7.843056e-01
  2.507169e+01    8.177154e-01
  2.510344e+01    7.865198e-01
  2.513519e+01    8.270215e-01
  2.516694e+01    8.132409e-01
  2.519869e+01    8.365459e-01
  2.523044e+01    8.336545e-01
  2.526219e+01    8.492010e-01
  2.529395e+01    8.571954e-01
  2.532570e+01    8.649522e-01
  2.535745e+01    9.003636e-01
  2.538920e+01    9.104927e-01
  2.542095e+01    9.253584e-01
  2.545270e+01    9.189195e-01
  2.548445e+01    9.232154e-01
  2.551620e+01    9.852607e-01
  2.554795e+01    1.003778e+00
  2.557971e+01    1.049003e+00
  2.561146e+01    1.139115e+00
  2.564321e+01    1.213905e+00
  2.567496e+01    1.334707e+00
  2.570671e+01    1.487600e+00
  2.573846e+01    1.688824e+00
  2.577021e+01    2.038547e+00
  2.580196e+01    2.542177e+00
  2.583371e+01    3.331698e+00
  2.586547e+01    4.338032e+00
  2.589722e+01    5.635986e+00
  2.592897e+01    6.846608e+00
  2.596072e+01    7.699487e+00
  2.599247e+01    7.558191e+00
  2.602422e+01    6.363440e+00
  2.605597e+01    4.802534e+00
  2.608772e+01    3.466826e+00
  2.611948e+01    2.648654e+00
  2.615123e+01    2.116410e+00
  2.618298e+01    1.748973e+00
  2.621473e+01    1.510357e+00
  2.624648e+01    1.352890e+00
  2.627823e+01    1.238986e+00
  2.630998e+01    1.113734e+00
  2.634173e+01    1.070105e+00
  2.637348e+01    1.022030e+00
  2.640524e+01    9.969367e-01
  2.643699e+01    9.599569e-01
  2.646874e+01    9.478957e-01
  2.650049e+01    9.504201e-01
  2.653224e+01    9.273373e-01
  2.656399e+01    9.188536e-01
  2.659574e+01    9.055763e-01
  2.662749e+01    9.011407e-01
  2.665924e+01    8.836620e-01
  2.669100e+01    9.067328e-01
  2.672275e+01    8.903413e-01
  2.675450e+01    8.744885e-01
  2.678625e+01    8.998249e-01
  2.681800e+01    8.870618e-01
  2.684975e+01    8.977247e-01
  2.688150e+01    8.984580e-01
  2.691325e+01    9.112478e-01
  2.694501e+01    9.623854e-01
  2.697676e+01    9.648050e-01
  2.700851e+01    1.020131e+00
  2.704026e+01    1.096523e+00
  2.707201e+01    1.210455e+00
  2.710376e+01    1.392663e+00
  2.713551e+01    1.590194e+00
  2.716726e+01    1.882190e+00
  2.719901e+01    2.169616e+00
  2.723077e+01    2.320443e+00
  2.726252e+01    2.191213e+00
  2.729427e+01    1.907885e+00
  2.732602e+01    1.528736e+00
  2.735777e+01    1.319624e+00
  2.738952e+01    1.165888e+00
  2.742127e+01    1.066589e+00
  2.745302e+01    1.008809e+00
  2.748477e+01    9.586545e-01
  2.751653e+01    9.168710e-01
  2.754828e+01    8.850341e-01
  2.758003e+01    8.691016e-01
  2.761178e+01    8.541934e-01
  2.764353e+01    8.372157e-01
  2.767528e+01    8.312033e-01
  2.770703e+01    8.140103e-01
  2.773878e+01    8.118003e-01
  2.777054e+01    8.373012e-01
  2.780229e+01    8.056836e-01
  2.783404e+01    8.204767e-01
  2.786579e+01    8.060537e-01
  2.789754e+01    7.863055e-01
  2.792929e+01    7.767423e-01
  2.796104e+01    7.962431e-01
  2.799279e+01    7.855938e-01
  2.802454e+01    7.688152e-01
  2.805630e+01    7.994649e-01
  2.808805e+01    7.709321e-01
  2.811980e+01    7.731600e-01
  2.815155e+01    7.653531e-01
  2.818330e+01    7.810006e-01
  2.821505e+01    7.575670e-01
  2.824680e+01    7.700626e-01
  2.827855e+01    7.681258e-01
  2.831030e+01    7.706572e-01
  2.834206e+01    7.867604e-01
  2.837381e+01    7.611716e-01
  2.840556e+01    7.385854e-01
  2.843731e+01    7.316502e-01
  2.846906e+01    7.473065e-01
  2.850081e+01    7.686923e-01
  2.853256e+01    7.448211e-01
  2.856431e+01    7.810654e-01
  2.859606e+01    7.586846e-01
  2.862782e+01    7.388349e-01
  2.865957e+01    7.558689e-01
  2.869132e+01    7.361031e-01
  2.872307e+01    7.455360e-01
  2.875482e+01    7.696884e-01
  2.878657e+01    7.404760e-01
  2.881832e+01    7.284905e-01
  2.885007e+01    7.278942e-01
  2.888183e+01    7.287230e-01
  2.891358e+01    7.390730e-01
  2.894533e+01    7.531553e-01
  2.897708e+01    7.501100e-01
  2.900883e+01    7.224428e-01
  2.904058e+01    7.261980e-01
  2.907233e+01    7.461083e-01
  2.910408e+01    7.425146e-01
  2.913583e+01    7.311467e-01
  2.916759e+01    7.358158e-01
  2.919934e+01    7.351755e-01
  2.923109e+01    7.252941e-01
  2.926284e+01    7.256445e-01
  2.929459e+01    7.081380e-01
  2.932634e+01    7.263517e-01
  2.935809e+01    7.232844e-01
  2.938984e+01    7.166430e-01
  2.942159e+01    7.135341e-01
  2.945335e+01    7.187152e-01
  2.948510e+01    7.356195e-01
  2.951685e+01    7.187859e-01
  2.954860e+01    7.023821e-01
  2.958035e+01    7.113777e-01
  2.961210e+01    7.217244e-01
  2.964385e+01    7.172913e-01
  2.967560e+01    7.289959e-01
  2.970736e+01    7.274614e-01
  2.973911e+01    6.976820e-01
  2.977086e+01    7.207730e-01
  2.980261e+01    7.133089e-01
  2.983436e+01    7.271080e-01
  2.986611e+01    7.078131e-01
  2.989786e+01    7.079142e-01
  2.992961e+01    7.077394e-01
  2.996136e+01    7.248317e-01
  2.999312e+01    7.367522e-01
  3.002487e+01    7.101237e-01
  3.005662e+01    7.348093e-01
  3.008837e+01    7.165086e-01
  3.012012e+01    7.179947e-01
  3.015187e+01    7.123218e-01
  3.018362e+01    6.992438e-01
  3.021537e+01    6.951877e-01
  3.024712e+01    7.284769e-01
  3.027888e+01    6.984772e-01
  3.031063e+01    7.211363e-01
  3.034238e+01    7.060025e-01
  3.037413e+01    7.015826e-01
  3.040588e+01    6.991954e-01
  3.043763e+01    7.065740e-01
  3.046938e+01    6.896712e-01
  3.050113e+01    7.007652e-01
  3.053288e+01    7.051687e-01
  3.056464e+01    7.079620e-01
  3.059639e+01    6.823652e-01
  3.062814e+01    7.104658e-01
  3.065989e+01    6.876289e-01
  3.069164e+01    6.890013e-01
  3.072339e+01    7.111207e-01
  3.075514e+01    7.009922e-01
  3.078689e+01    7.061573e-01
  3.081865e+01    6.826131e-01
  3.085040e+01    7.023149e-01
  3.088215e+01    7.003550e-01
  3.091390e+01    7.163335e-01
  3.094565e+01    7.246479e-01
  3.097740e+01    7.177544e-01
  3.100915e+01    6.985391e-01
  3.104090e+01    6.940615e-01
  3.107265e+01    7.120982e-01
  3.110441e+01    7.339652e-01
  3.113616e+01    7.297678e-01
  3.116791e+01    7.379116e-01
  3.119966e+01    7.215531e-01
  3.123141e+01    7.074214e-01
  3.126316e+01    7.116766e-01
  3.129491e+01    7.476567e-01
  3.132666e+01    7.402709e-01
  3.135841e+01    7.288243e-01
  3.139017e+01    7.398237e-01
  3.142192e+01    7.453226e-01
  3.145367e+01    7.738919e-01
  3.148542e+01    7.662870e-01
  3.151717e+01    7.515770e-01
  3.154892e+01    7.763550e-01
  3.158067e+01    8.080235e-01
  3.161242e+01    8.254092e-01
  3.164418e+01    8.406262e-01
  3.167593e+01    8.864272e-01
  3.170768e+01    9.528399e-01
  3.173943e+01    1.005605e+00
  3.177118e+01    1.150139e+00
  3.180293e+01    1.375544e+00
  3.183468e+01    1.631809e+00
  3.186643e+01    1.923995e+00
  3.189818e+01    2.184687e+00
  3.192994e+01    2.272183e+00
  3.196169e+01    2.083468e+00
  3.199344e+01    1.767077e+00
  3.202519e+01    1.451872e+00
  3.205694e+01    1.222589e+00
  3.208869e+01    1.033240e+00
  3.212044e+01    9.502550e-01
  3.215219e+01    9.062843e-01
  3.218394e+01    8.678097e-01
  3.221570e+01    8.248749e-01
  3.224745e+01    7.732404e-01
  3.227920e+01    7.846509e-01
  3.231095e+01    7.729945e-01
  3.234270e+01    7.767943e-01
  3.237445e+01    7.302855e-01
  3.240620e+01    7.527190e-01
  3.243795e+01    7.273558e-01
  3.246970e+01    7.428396e-01
  3.250146e+01    7.062781e-01
  3.253321e+01    7.082626e-01
  3.254908e+01    7.351834e-01