File: XRD/Activation ramp/cleaned_data.txt
q_nm^-1             I
2.003187e-02    0.000000e+00
5.178302e-02    4.781393e-02
8.353417e-02    1.295205e-01
1.152853e-01    7.603302e-02
1.470365e-01    4.984014e-02
1.787876e-01    1.211619e-02
2.105388e-01    7.628351e-03
2.422899e-01    7.643035e-02
2.740411e-01    5.734052e-02
3.057922e-01    3.617424e-02
3.375433e-01    3.857280e-02
3.692945e-01    4.173624e-02
4.010456e-01    1.582505e-02
4.327968e-01    2.480845e-02
4.645479e-01    4.742662e-02
4.962991e-01    5.498847e-02
5.280502e-01    4.359586e-02
5.598014e-01    4.877447e-02
5.915525e-01    4.815349e-02
6.233037e-01    2.879350e-02
6.550548e-01    4.904598e-02
6.868060e-01    2.188308e-02
7.185571e-01    1.937806e-02
7.503083e-01    3.157799e-02
7.820594e-01    1.291993e-01
8.138106e-01    2.087432e-01
8.455617e-01    3.241640e-01
8.773129e-01    4.434958e-01
9.090640e-01    5.455952e-01
9.408152e-01    6.812738e-01
9.725663e-01    7.858205e-01
1.004317e+00    9.365116e-01
1.036069e+00    1.301914e+00
1.067820e+00    1.296571e+00
1.099571e+00    1.313456e+00
1.131322e+00    1.394027e+00
1.163073e+00    1.442773e+00
1.194824e+00    1.460895e+00
1.226575e+00    1.896995e+00
1.258327e+00    2.216603e+00
1.290078e+00    2.206539e+00
1.321829e+00    2.416273e+00
1.353580e+00    2.523986e+00
1.385331e+00    2.492553e+00
1.417082e+00    2.426569e+00
1.448834e+00    2.709204e+00
1.480585e+00    2.774373e+00
1.512336e+00    2.870951e+00
1.544087e+00    2.764727e+00
1.575838e+00    2.759542e+00
1.607589e+00    2.851999e+00
1.639340e+00    2.843737e+00
1.671092e+00    2.780640e+00
1.702843e+00    2.816250e+00
1.734594e+00    2.718206e+00
1.766345e+00    2.743152e+00
1.798096e+00    2.752375e+00
1.829847e+00    2.728832e+00
1.861598e+00    2.676559e+00
1.893350e+00    2.791174e+00
1.925101e+00    2.694974e+00
1.956852e+00    2.797048e+00
1.988603e+00    2.665971e+00
2.020354e+00    2.793596e+00
2.052105e+00    2.736112e+00
2.083856e+00    2.762761e+00
2.115608e+00    2.698038e+00
2.147359e+00    2.665178e+00
2.179110e+00    2.796076e+00
2.210861e+00    2.704377e+00
2.242612e+00    2.698726e+00
2.274363e+00    2.673575e+00
2.306115e+00    2.681596e+00
2.337866e+00    2.682086e+00
2.369617e+00    2.620591e+00
2.401368e+00    2.743674e+00
2.433119e+00    2.774554e+00
2.464870e+00    2.871616e+00
2.496621e+00    2.722455e+00
2.528373e+00    2.811741e+00
2.560124e+00    2.861148e+00
2.591875e+00    2.780657e+00
2.623626e+00    2.784012e+00
2.655377e+00    2.780931e+00
2.687128e+00    2.865590e+00
2.718879e+00    2.772011e+00
2.750631e+00    2.824833e+00
2.782382e+00    2.908028e+00
2.814133e+00    2.881547e+00
2.845884e+00    2.831745e+00
2.877635e+00    2.851678e+00
2.909386e+00    2.824304e+00
2.941137e+00    2.835034e+00
2.972889e+00    2.888175e+00
3.004640e+00    2.977634e+00
3.036391e+00    2.860433e+00
3.068142e+00    2.887524e+00
3.099893e+00    2.969017e+00
3.131644e+00    2.970553e+00
3.163395e+00    2.896747e+00
3.195147e+00    2.990744e+00
3.226898e+00    2.971080e+00
3.258649e+00    2.991480e+00
3.290400e+00    2.932006e+00
3.322151e+00    3.002283e+00
3.353902e+00    2.966541e+00
3.385654e+00    2.929894e+00
3.417405e+00    2.947450e+00
3.449156e+00    2.857626e+00
3.480907e+00    2.866730e+00
3.512658e+00    2.873886e+00
3.544409e+00    2.880877e+00
3.576160e+00    3.007144e+00
3.607912e+00    3.030733e+00
3.639663e+00    2.996377e+00
3.671414e+00    3.071001e+00
3.703165e+00    3.095904e+00
3.734916e+00    3.019445e+00
3.766667e+00    2.990063e+00
3.798418e+00    2.951684e+00
3.830170e+00    2.990576e+00
3.861921e+00    2.984480e+00
3.893672e+00    3.042349e+00
3.925423e+00    3.081644e+00
3.957174e+00    3.101947e+00
3.988925e+00    3.080039e+00
4.020676e+00    3.025285e+00
4.052428e+00    3.048547e+00
4.084179e+00    3.014019e+00
4.115930e+00    2.972560e+00
4.147681e+00    3.054697e+00
4.179432e+00    3.081645e+00
4.211183e+00    3.015236e+00
4.242935e+00    3.035920e+00
4.274686e+00    3.059234e+00
4.306437e+00    3.007593e+00
4.338188e+00    3.045166e+00
4.369939e+00    3.169236e+00
4.401690e+00    3.104146e+00
4.433441e+00    3.026813e+00
4.465193e+00    3.046229e+00
4.496944e+00    3.108503e+00
4.528695e+00    2.971219e+00
4.560446e+00    3.084297e+00
4.592197e+00    3.111174e+00
4.623948e+00    3.161799e+00
4.655699e+00    3.126919e+00
4.687451e+00    3.069607e+00
4.719202e+00    3.161957e+00
4.750953e+00    3.311993e+00
4.782704e+00    3.203767e+00
4.814455e+00    3.122807e+00
4.846206e+00    3.134158e+00
4.877957e+00    3.135107e+00
4.909709e+00    3.193027e+00
4.941460e+00    3.153361e+00
4.973211e+00    3.129612e+00
5.004962e+00    3.144760e+00
5.036713e+00    3.121455e+00
5.068464e+00    3.090736e+00
5.100216e+00    3.146046e+00
5.131967e+00    3.100552e+00
5.163718e+00    3.125844e+00
5.195469e+00    3.138530e+00
5.227220e+00    3.109613e+00
5.258971e+00    3.090678e+00
5.290722e+00    3.123849e+00
5.322474e+00    3.155691e+00
5.354225e+00    3.129153e+00
5.385976e+00    3.241885e+00
5.417727e+00    3.098029e+00
5.449478e+00    3.077453e+00
5.481229e+00    3.064080e+00
5.512980e+00    3.059628e+00
5.544732e+00    2.978802e+00
5.576483e+00    3.065278e+00
5.608234e+00    3.108132e+00
5.639985e+00    3.014993e+00
5.671736e+00    3.090684e+00
5.703487e+00    3.005149e+00
5.735238e+00    3.071850e+00
5.766990e+00    3.034187e+00
5.798741e+00    3.085348e+00
5.830492e+00    3.066674e+00
5.862243e+00    3.057456e+00
5.893994e+00    2.991441e+00
5.925745e+00    3.036094e+00
5.957497e+00    3.100397e+00
5.989248e+00    3.112101e+00
6.020999e+00    3.063257e+00
6.052750e+00    3.042274e+00
6.084501e+00    3.064080e+00
6.116252e+00    3.104571e+00
6.148003e+00    3.029650e+00
6.179755e+00    3.146602e+00
6.211506e+00    3.072469e+00
6.243257e+00    3.066407e+00
6.275008e+00    3.040504e+00
6.306759e+00    3.141218e+00
6.338510e+00    3.070903e+00
6.370261e+00    3.067115e+00
6.402013e+00    3.054740e+00
6.433764e+00    3.061619e+00
6.465515e+00    3.052611e+00
6.497266e+00    3.066449e+00
6.529017e+00    2.965082e+00
6.560768e+00    3.081136e+00
6.592519e+00    3.002162e+00
6.624271e+00    3.041865e+00
6.656022e+00    2.972017e+00
6.687773e+00    3.160798e+00
6.719524e+00    2.973930e+00
6.751275e+00    3.021645e+00
6.783026e+00    3.051658e+00
6.814777e+00    3.110986e+00
6.846529e+00    2.997548e+00
6.878280e+00    3.070865e+00
6.910031e+00    3.018191e+00
6.941782e+00    2.989076e+00
6.973533e+00    2.990614e+00
7.005284e+00    3.056392e+00
7.037036e+00    3.048087e+00
7.068787e+00    3.032252e+00
7.100538e+00    3.050289e+00
7.132289e+00    3.004482e+00
7.164040e+00    3.065273e+00
7.195791e+00    3.114261e+00
7.227542e+00    2.991298e+00
7.259294e+00    2.992473e+00
7.291045e+00    3.034985e+00
7.322796e+00    3.027359e+00
7.354547e+00    3.070100e+00
7.386298e+00    2.983613e+00
7.418049e+00    3.007389e+00
7.449800e+00    2.997117e+00
7.481552e+00    3.014642e+00
7.513303e+00    3.020754e+00
7.545054e+00    2.927302e+00
7.576805e+00    3.025521e+00
7.608556e+00    3.014118e+00
7.640307e+00    2.979539e+00
7.672058e+00    2.984325e+00
7.703810e+00    3.006973e+00
7.735561e+00    2.997066e+00
7.767312e+00    2.976183e+00
7.799063e+00    2.930451e+00
7.830814e+00    2.950637e+00
7.862565e+00    2.999171e+00
7.894317e+00    2.958380e+00
7.926068e+00    2.994252e+00
7.957819e+00    2.932033e+00
7.989570e+00    3.002737e+00
8.021321e+00    2.933203e+00
8.053072e+00    2.894312e+00
8.084823e+00    2.972662e+00
8.116575e+00    2.957399e+00
8.148326e+00    2.923312e+00
8.180077e+00    2.969536e+00
8.211828e+00    2.966012e+00
8.243579e+00    2.972086e+00
8.275330e+00    2.946385e+00
8.307081e+00    2.941464e+00
8.338833e+00    2.895876e+00
8.370584e+00    2.894039e+00
8.402335e+00    2.936115e+00
8.434086e+00    2.928977e+00
8.465837e+00    2.892386e+00
8.497588e+00    2.905306e+00
8.529339e+00    2.883676e+00
8.561091e+00    2.890350e+00
8.592842e+00    2.890695e+00
8.624593e+00    2.884585e+00
8.656344e+00    2.899905e+00
8.688095e+00    2.827817e+00
8.719846e+00    2.829603e+00
8.751598e+00    2.811068e+00
8.783349e+00    2.874356e+00
8.815100e+00    2.881135e+00
8.846851e+00    2.891079e+00
8.878602e+00    2.844709e+00
8.910353e+00    2.800138e+00
8.942104e+00    2.796989e+00
8.973856e+00    2.859103e+00
9.005607e+00    2.829652e+00
9.037358e+00    2.832625e+00
9.069109e+00    2.850304e+00
9.100860e+00    2.802027e+00
9.132611e+00    2.813800e+00
9.164362e+00    2.811950e+00
9.196114e+00    2.747348e+00
9.227865e+00    2.786866e+00
9.259616e+00    2.867639e+00
9.291367e+00    2.788432e+00
9.323118e+00    2.822388e+00
9.354869e+00    2.773710e+00
9.386620e+00    2.791601e+00
9.418372e+00    2.897717e+00
9.450123e+00    2.797695e+00
9.481874e+00    2.795070e+00
9.513625e+00    2.771622e+00
9.545376e+00    2.734275e+00
9.577127e+00    2.743321e+00
9.608878e+00    2.729862e+00
9.640630e+00    2.712115e+00
9.672381e+00    2.809983e+00
9.704132e+00    2.747416e+00
9.735883e+00    2.735339e+00
9.767634e+00    2.726884e+00
9.799385e+00    2.723619e+00
9.831137e+00    2.721547e+00
9.862888e+00    2.664666e+00
9.894639e+00    2.662169e+00
9.926390e+00    2.681797e+00
9.958141e+00    2.699185e+00
9.989892e+00    2.678463e+00
1.002164e+01    2.692404e+00
1.005339e+01    2.635934e+00
1.008515e+01    2.625530e+00
1.011690e+01    2.601237e+00
1.014865e+01    2.695945e+00
1.018040e+01    2.631624e+00
1.021215e+01    2.617309e+00
1.024390e+01    2.594052e+00
1.027565e+01    2.629772e+00
1.030740e+01    2.646656e+00
1.033915e+01    2.612930e+00
1.037091e+01    2.592567e+00
1.040266e+01    2.606676e+00
1.043441e+01    2.548111e+00
1.046616e+01    2.574031e+00
1.049791e+01    2.653669e+00
1.052966e+01    2.641559e+00
1.056141e+01    2.643991e+00
1.059316e+01    2.637044e+00
1.062492e+01    2.602552e+00
1.065667e+01    2.588038e+00
1.068842e+01    2.597816e+00
1.072017e+01    2.605957e+00
1.075192e+01    2.508612e+00
1.078367e+01    2.548121e+00
1.081542e+01    2.535056e+00
1.084717e+01    2.537822e+00
1.087892e+01    2.499107e+00
1.091068e+01    2.545021e+00
1.094243e+01    2.478788e+00
1.097418e+01    2.508056e+00
1.100593e+01    2.530271e+00
1.103768e+01    2.479257e+00
1.106943e+01    2.503002e+00
1.110118e+01    2.484035e+00
1.113293e+01    2.468295e+00
1.116468e+01    2.484010e+00
1.119644e+01    2.481873e+00
1.122819e+01    2.497682e+00
1.125994e+01    2.457644e+00
1.129169e+01    2.437844e+00
1.132344e+01    2.478057e+00
1.135519e+01    2.418025e+00
1.138694e+01    2.464262e+00
1.141869e+01    2.483161e+00
1.145045e+01    2.407681e+00
1.148220e+01    2.422201e+00
1.151395e+01    2.420135e+00
1.154570e+01    2.400338e+00
1.157745e+01    2.407599e+00
1.160920e+01    2.353726e+00
1.164095e+01    2.375289e+00
1.167270e+01    2.370788e+00
1.170445e+01    2.354710e+00
1.173621e+01    2.411201e+00
1.176796e+01    2.391274e+00
1.179971e+01    2.385518e+00
1.183146e+01    2.376867e+00
1.186321e+01    2.334353e+00
1.189496e+01    2.369163e+00
1.192671e+01    2.347732e+00
1.195846e+01    2.402266e+00
1.199021e+01    2.345550e+00
1.202197e+01    2.379460e+00
1.205372e+01    2.346245e+00
1.208547e+01    2.308621e+00
1.211722e+01    2.312897e+00
1.214897e+01    2.337415e+00
1.218072e+01    2.326579e+00
1.221247e+01    2.318387e+00
1.224422e+01    2.357684e+00
1.227597e+01    2.312892e+00
1.230773e+01    2.364385e+00
1.233948e+01    2.314167e+00
1.237123e+01    2.301505e+00
1.240298e+01    2.359872e+00
1.243473e+01    2.361018e+00
1.246648e+01    2.337270e+00
1.249823e+01    2.323112e+00
1.252998e+01    2.400090e+00
1.256174e+01    2.354491e+00
1.259349e+01    2.363382e+00
1.262524e+01    2.428835e+00
1.265699e+01    2.433209e+00
1.268874e+01    2.462487e+00
1.272049e+01    2.468111e+00
1.275224e+01    2.543670e+00
1.278399e+01    2.608928e+00
1.281574e+01    2.707348e+00
1.284750e+01    2.794659e+00
1.287925e+01    2.982881e+00
1.291100e+01    3.210648e+00
1.294275e+01    3.665901e+00
1.297450e+01    4.338957e+00
1.300625e+01    5.438916e+00
1.303800e+01    7.130883e+00
1.306975e+01    9.403390e+00
1.310150e+01    1.197552e+01
1.313326e+01    1.394532e+01
1.316501e+01    1.569390e+01
1.319676e+01    1.511517e+01
1.322851e+01    1.207896e+01
1.326026e+01    8.545643e+00
1.329201e+01    6.356159e+00
1.332376e+01    4.879714e+00
1.335551e+01    4.032429e+00
1.338727e+01    3.510226e+00
1.341902e+01    3.182266e+00
1.345077e+01    2.845991e+00
1.348252e+01    2.667659e+00
1.351427e+01    2.569532e+00
1.354602e+01    2.455281e+00
1.357777e+01    2.362099e+00
1.360952e+01    2.354064e+00
1.364127e+01    2.286359e+00
1.367303e+01    2.276408e+00
1.370478e+01    2.196157e+00
1.373653e+01    2.178690e+00
1.376828e+01    2.168087e+00
1.380003e+01    2.154878e+00
1.383178e+01    2.103220e+00
1.386353e+01    2.105325e+00
1.389528e+01    2.103086e+00
1.392703e+01    2.089365e+00
1.395879e+01    2.101090e+00
1.399054e+01    2.022777e+00
1.402229e+01    2.024579e+00
1.405404e+01    2.037923e+00
1.408579e+01    2.019361e+00
1.411754e+01    2.035579e+00
1.414929e+01    2.028548e+00
1.418104e+01    1.982515e+00
1.421279e+01    1.971007e+00
1.424455e+01    2.012183e+00
1.427630e+01    2.007571e+00
1.430805e+01    1.957451e+00
1.433980e+01    1.956226e+00
1.437155e+01    1.955405e+00
1.440330e+01    1.976586e+00
1.443505e+01    1.950469e+00
1.446680e+01    1.929729e+00
1.449856e+01    1.920958e+00
1.453031e+01    1.918189e+00
1.456206e+01    1.877620e+00
1.459381e+01    1.937460e+00
1.462556e+01    1.946449e+00
1.465731e+01    1.932460e+00
1.468906e+01    1.940499e+00
1.472081e+01    1.900288e+00
1.475256e+01    1.929353e+00
1.478432e+01    1.868855e+00
1.481607e+01    1.937546e+00
1.484782e+01    1.956937e+00
1.487957e+01    1.928577e+00
1.491132e+01    1.974658e+00
1.494307e+01    2.018235e+00
1.497482e+01    2.053466e+00
1.500657e+01    2.163295e+00
1.503832e+01    2.307670e+00
1.507008e+01    2.521458e+00
1.510183e+01    2.884326e+00
1.513358e+01    3.446543e+00
1.516533e+01    4.172754e+00
1.519708e+01    4.784528e+00
1.522883e+01    5.273974e+00
1.526058e+01    5.448327e+00
1.529233e+01    5.197436e+00
1.532409e+01    4.388974e+00
1.535584e+01    3.430313e+00
1.538759e+01    2.833778e+00
1.541934e+01    2.437213e+00
1.545109e+01    2.237001e+00
1.548284e+01    2.097022e+00
1.551459e+01    1.986187e+00
1.554634e+01    1.901153e+00
1.557809e+01    1.852301e+00
1.560985e+01    1.817396e+00
1.564160e+01    1.750186e+00
1.567335e+01    1.770495e+00
1.570510e+01    1.719009e+00
1.573685e+01    1.689756e+00
1.576860e+01    1.663810e+00
1.580035e+01    1.664875e+00
1.583210e+01    1.666235e+00
1.586385e+01    1.690596e+00
1.589561e+01    1.626199e+00
1.592736e+01    1.659490e+00
1.595911e+01    1.649840e+00
1.599086e+01    1.608781e+00
1.602261e+01    1.632025e+00
1.605436e+01    1.634617e+00
1.608611e+01    1.587475e+00
1.611786e+01    1.568315e+00
1.614961e+01    1.591184e+00
1.618137e+01    1.577057e+00
1.621312e+01    1.589381e+00
1.624487e+01    1.555822e+00
1.627662e+01    1.578775e+00
1.630837e+01    1.552440e+00
1.634012e+01    1.556948e+00
1.637187e+01    1.563791e+00
1.640362e+01    1.552642e+00
1.643538e+01    1.539893e+00
1.646713e+01    1.532740e+00
1.649888e+01    1.514629e+00
1.653063e+01    1.544674e+00
1.656238e+01    1.498820e+00
1.659413e+01    1.482634e+00
1.662588e+01    1.500690e+00
1.665763e+01    1.509019e+00
1.668938e+01    1.507947e+00
1.672114e+01    1.489294e+00
1.675289e+01    1.445463e+00
1.678464e+01    1.504102e+00
1.681639e+01    1.473963e+00
1.684814e+01    1.453150e+00
1.687989e+01    1.443976e+00
1.691164e+01    1.466411e+00
1.694339e+01    1.448324e+00
1.697514e+01    1.427933e+00
1.700690e+01    1.440761e+00
1.703865e+01    1.438147e+00
1.707040e+01    1.427980e+00
1.710215e+01    1.464653e+00
1.713390e+01    1.430054e+00
1.716565e+01    1.364851e+00
1.719740e+01    1.415551e+00
1.722915e+01    1.414684e+00
1.726091e+01    1.377064e+00
1.729266e+01    1.409871e+00
1.732441e+01    1.387286e+00
1.735616e+01    1.388924e+00
1.738791e+01    1.368024e+00
1.741966e+01    1.360995e+00
1.745141e+01    1.379849e+00
1.748316e+01    1.371167e+00
1.751491e+01    1.355211e+00
1.754667e+01    1.335296e+00
1.757842e+01    1.362702e+00
1.761017e+01    1.349129e+00
1.764192e+01    1.375380e+00
1.767367e+01    1.352360e+00
1.770542e+01    1.341336e+00
1.773717e+01    1.357396e+00
1.776892e+01    1.339635e+00
1.780067e+01    1.302728e+00
1.783243e+01    1.338957e+00
1.786418e+01    1.309277e+00
1.789593e+01    1.339970e+00
1.792768e+01    1.324771e+00
1.795943e+01    1.312595e+00
1.799118e+01    1.305261e+00
1.802293e+01    1.294413e+00
1.805468e+01    1.312805e+00
1.808643e+01    1.310380e+00
1.811819e+01    1.286321e+00
1.814994e+01    1.307125e+00
1.818169e+01    1.312505e+00
1.821344e+01    1.279421e+00
1.824519e+01    1.278728e+00
1.827694e+01    1.280398e+00
1.830869e+01    1.300107e+00
1.834044e+01    1.277751e+00
1.837220e+01    1.246124e+00
1.840395e+01    1.265660e+00
1.843570e+01    1.266268e+00
1.846745e+01    1.250368e+00
1.849920e+01    1.241860e+00
1.853095e+01    1.263086e+00
1.856270e+01    1.255250e+00
1.859445e+01    1.240827e+00
1.862620e+01    1.247560e+00
1.865796e+01    1.224182e+00
1.868971e+01    1.227613e+00
1.872146e+01    1.243055e+00
1.875321e+01    1.234392e+00
1.878496e+01    1.234985e+00
1.881671e+01    1.250121e+00
1.884846e+01    1.215623e+00
1.888021e+01    1.221289e+00
1.891196e+01    1.220006e+00
1.894372e+01    1.189931e+00
1.897547e+01    1.217514e+00
1.900722e+01    1.193813e+00
1.903897e+01    1.190608e+00
1.907072e+01    1.181932e+00
1.910247e+01    1.214693e+00
1.913422e+01    1.205601e+00
1.916597e+01    1.216471e+00
1.919773e+01    1.234749e+00
1.922948e+01    1.190821e+00
1.926123e+01    1.163861e+00
1.929298e+01    1.187849e+00
1.932473e+01    1.174586e+00
1.935648e+01    1.159742e+00
1.938823e+01    1.187363e+00
1.941998e+01    1.159634e+00
1.945173e+01    1.142326e+00
1.948349e+01    1.165117e+00
1.951524e+01    1.164910e+00
1.954699e+01    1.175451e+00
1.957874e+01    1.147045e+00
1.961049e+01    1.138932e+00
1.964224e+01    1.177624e+00
1.967399e+01    1.135944e+00
1.970574e+01    1.144536e+00
1.973749e+01    1.124091e+00
1.976925e+01    1.125443e+00
1.980100e+01    1.139187e+00
1.983275e+01    1.164292e+00
1.986450e+01    1.098727e+00
1.989625e+01    1.130994e+00
1.992800e+01    1.110143e+00
1.995975e+01    1.121722e+00
1.999150e+01    1.117213e+00
2.002325e+01    1.115183e+00
2.005501e+01    1.117584e+00
2.008676e+01    1.090329e+00
2.011851e+01    1.105071e+00
2.015026e+01    1.114456e+00
2.018201e+01    1.096166e+00
2.021376e+01    1.085732e+00
2.024551e+01    1.094559e+00
2.027726e+01    1.086958e+00
2.030902e+01    1.117047e+00
2.034077e+01    1.109453e+00
2.037252e+01    1.076557e+00
2.040427e+01    1.092784e+00
2.043602e+01    1.076061e+00
2.046777e+01    1.061412e+00
2.049952e+01    1.064315e+00
2.053127e+01    1.080042e+00
2.056302e+01    1.086983e+00
2.059478e+01    1.080953e+00
2.062653e+01    1.075687e+00
2.065828e+01    1.049485e+00
2.069003e+01    1.084160e+00
2.072178e+01    1.077342e+00
2.075353e+01    1.074953e+00
2.078528e+01    1.072963e+00
2.081703e+01    1.080086e+00
2.084878e+01    1.067547e+00
2.088054e+01    1.098772e+00
2.091229e+01    1.115122e+00
2.094404e+01    1.101482e+00
2.097579e+01    1.089104e+00
2.100754e+01    1.077993e+00
2.103929e+01    1.074998e+00
2.107104e+01    1.079789e+00
2.110279e+01    1.078278e+00
2.113455e+01    1.072240e+00
2.116630e+01    1.085727e+00
2.119805e+01    1.111820e+00
2.122980e+01    1.089117e+00
2.126155e+01    1.089038e+00
2.129330e+01    1.122989e+00
2.132505e+01    1.120674e+00
2.135680e+01    1.101835e+00
2.138855e+01    1.152580e+00
2.142031e+01    1.200577e+00
2.145206e+01    1.214137e+00
2.148381e+01    1.247053e+00
2.151556e+01    1.320363e+00
2.154731e+01    1.403727e+00
2.157906e+01    1.452712e+00
2.161081e+01    1.636249e+00
2.164256e+01    1.796280e+00
2.167431e+01    2.138208e+00
2.170607e+01    2.629707e+00
2.173782e+01    3.326600e+00
2.176957e+01    4.361455e+00
2.180132e+01    5.530906e+00
2.183307e+01    6.870201e+00
2.186482e+01    8.045855e+00
2.189657e+01    8.727844e+00
2.192832e+01    8.027383e+00
2.196007e+01    6.282183e+00
2.199183e+01    4.612477e+00
2.202358e+01    3.337972e+00
2.205533e+01    2.604508e+00
2.208708e+01    2.144038e+00
2.211883e+01    1.824672e+00
2.215058e+01    1.604601e+00
2.218233e+01    1.451075e+00
2.221408e+01    1.336958e+00
2.224584e+01    1.267619e+00
2.227759e+01    1.185808e+00
2.230934e+01    1.132966e+00
2.234109e+01    1.129867e+00
2.237284e+01    1.082583e+00
2.240459e+01    1.082076e+00
2.243634e+01    1.034049e+00
2.246809e+01    1.017363e+00
2.249984e+01    1.026016e+00
2.253160e+01    9.995981e-01
2.256335e+01    9.867625e-01
2.259510e+01    9.750134e-01
2.262685e+01    9.794362e-01
2.265860e+01    9.717847e-01
2.269035e+01    9.577191e-01
2.272210e+01    9.205765e-01
2.275385e+01    9.257249e-01
2.278560e+01    9.331415e-01
2.281736e+01    9.056605e-01
2.284911e+01    9.400440e-01
2.288086e+01    8.976753e-01
2.291261e+01    9.033841e-01
2.294436e+01    9.207376e-01
2.297611e+01    8.823021e-01
2.300786e+01    9.217112e-01
2.303961e+01    8.713557e-01
2.307137e+01    8.819064e-01
2.310312e+01    9.119462e-01
2.313487e+01    8.913077e-01
2.316662e+01    8.860521e-01
2.319837e+01    8.950618e-01
2.323012e+01    8.851467e-01
2.326187e+01    8.633472e-01
2.329362e+01    8.368579e-01
2.332537e+01    8.556931e-01
2.335713e+01    8.523771e-01
2.338888e+01    8.539875e-01
2.342063e+01    8.465052e-01
2.345238e+01    8.586664e-01
2.348413e+01    8.452212e-01
2.351588e+01    8.627887e-01
2.354763e+01    8.426231e-01
2.357938e+01    8.327510e-01
2.361113e+01    8.522303e-01
2.364289e+01    8.352382e-01
2.367464e+01    8.219200e-01
2.370639e+01    8.290388e-01
2.373814e+01    8.002968e-01
2.376989e+01    8.141736e-01
2.380164e+01    7.971353e-01
2.383339e+01    7.901619e-01
2.386514e+01    8.043461e-01
2.389689e+01    8.095163e-01
2.392865e+01    7.995312e-01
2.396040e+01    7.633179e-01
2.399215e+01    7.953772e-01
2.402390e+01    7.658475e-01
2.405565e+01    7.882975e-01
2.408740e+01    7.591334e-01
2.411915e+01    7.719140e-01
2.415090e+01    7.997141e-01
2.418266e+01    7.968234e-01
2.421441e+01    7.788715e-01
2.424616e+01    8.010979e-01
2.427791e+01    7.584757e-01
2.430966e+01    7.927807e-01
2.434141e+01    7.852605e-01
2.437316e+01    7.950679e-01
2.440491e+01    7.933415e-01
2.443666e+01    7.898514e-01
2.446842e+01    7.816925e-01
2.450017e+01    7.935048e-01
2.453192e+01    7.924033e-01
2.456367e+01    7.816663e-01
2.459542e+01    7.820715e-01
2.462717e+01    7.823109e-01
2.465892e+01    7.748275e-01
2.469067e+01    7.706717e-01
2.472242e+01    7.822956e-01
2.475418e+01    8.006115e-01
2.478593e+01    8.071815e-01
2.481768e+01    7.737652e-01
2.484943e+01    7.765057e-01
2.488118e+01    7.876365e-01
2.491293e+01    8.019577e-01
2.494468e+01    7.997696e-01
2.497643e+01    8.079358e-01
2.500819e+01    8.134134e-01
2.503994e+01    7.880169e-01
2.507169e+01    7.966330e-01
2.510344e+01    8.216866e-01
2.513519e+01    7.946398e-01
2.516694e+01    8.357472e-01
2.519869e+01    8.209286e-01
2.523044e+01    8.405012e-01
2.526219e+01    8.485209e-01
2.529395e+01    8.402857e-01
2.532570e+01    8.727514e-01
2.535745e+01    8.805411e-01
2.538920e+01    8.877080e-01
2.542095e+01    8.983650e-01
2.545270e+01    9.292064e-01
2.548445e+01    9.463164e-01
2.551620e+01    9.515359e-01
2.554795e+01    1.008098e+00
2.557971e+01    1.070007e+00
2.561146e+01    1.139159e+00
2.564321e+01    1.196581e+00
2.567496e+01    1.326222e+00
2.570671e+01    1.527900e+00
2.573846e+01    1.756314e+00
2.577021e+01    2.125158e+00
2.580196e+01    2.738164e+00
2.583371e+01    3.538585e+00
2.586547e+01    4.502082e+00
2.589722e+01    5.641891e+00
2.592897e+01    6.664378e+00
2.596072e+01    7.070298e+00
2.599247e+01    6.397477e+00
2.602422e+01    5.099787e+00
2.605597e+01    3.738286e+00
2.608772e+01    2.844414e+00
2.611948e+01    2.224572e+00
2.615123e+01    1.821399e+00
2.618298e+01    1.555527e+00
2.621473e+01    1.364712e+00
2.624648e+01    1.246330e+00
2.627823e+01    1.135188e+00
2.630998e+01    1.056470e+00
2.634173e+01    1.062575e+00
2.637348e+01    9.682795e-01
2.640524e+01    9.343736e-01
2.643699e+01    9.508316e-01
2.646874e+01    9.216429e-01
2.650049e+01    9.042550e-01
2.653224e+01    9.017445e-01
2.656399e+01    8.944667e-01
2.659574e+01    8.844353e-01
2.662749e+01    8.955728e-01
2.665924e+01    8.697373e-01
2.669100e+01    8.780413e-01
2.672275e+01    8.909332e-01
2.675450e+01    8.558173e-01
2.678625e+01    8.776937e-01
2.681800e+01    8.840449e-01
2.684975e+01    9.069886e-01
2.688150e+01    8.918663e-01
2.691325e+01    9.196869e-01
2.694501e+01    9.391322e-01
2.697676e+01    9.815169e-01
2.700851e+01    1.020515e+00
2.704026e+01    1.094528e+00
2.707201e+01    1.225916e+00
2.710376e+01    1.400333e+00
2.713551e+01    1.660788e+00
2.716726e+01    1.895613e+00
2.719901e+01    2.093106e+00
2.723077e+01    2.110206e+00
2.726252e+01    1.881469e+00
2.729427e+01    1.606316e+00
2.732602e+01    1.353787e+00
2.735777e+01    1.154133e+00
2.738952e+01    1.067819e+00
2.742127e+01    9.839054e-01
2.745302e+01    9.410588e-01
2.748477e+01    8.850456e-01
2.751653e+01    8.834251e-01
2.754828e+01    8.377809e-01
2.758003e+01    8.637043e-01
2.761178e+01    8.466026e-01
2.764353e+01    8.224354e-01
2.767528e+01    8.009012e-01
2.770703e+01    8.008825e-01
2.773878e+01    7.995239e-01
2.777054e+01    7.966477e-01
2.780229e+01    7.738671e-01
2.783404e+01    7.994601e-01
2.786579e+01    8.002316e-01
2.789754e+01    7.897761e-01
2.792929e+01    7.910562e-01
2.796104e+01    8.040633e-01
2.799279e+01    7.702206e-01
2.802454e+01    7.803179e-01
2.805630e+01    7.709629e-01
2.808805e+01    7.722890e-01
2.811980e+01    7.634141e-01
2.815155e+01    7.680795e-01
2.818330e+01    7.747405e-01
2.821505e+01    7.670200e-01
2.824680e+01    7.516162e-01
2.827855e+01    7.469644e-01
2.831030e+01    7.595947e-01
2.834206e+01    7.698525e-01
2.837381e+01    7.564018e-01
2.840556e+01    7.516319e-01
2.843731e+01    7.556152e-01
2.846906e+01    7.513216e-01
2.850081e+01    7.441170e-01
2.853256e+01    7.375901e-01
2.856431e+01    7.658862e-01
2.859606e+01    7.470777e-01
2.862782e+01    7.506566e-01
2.865957e+01    7.313403e-01
2.869132e+01    7.368706e-01
2.872307e+01    7.444237e-01
2.875482e+01    7.443039e-01
2.878657e+01    7.426727e-01
2.881832e+01    7.500182e-01
2.885007e+01    7.488345e-01
2.888183e+01    7.323774e-01
2.891358e+01    7.362173e-01
2.894533e+01    7.332428e-01
2.897708e+01    7.198504e-01
2.900883e+01    7.121082e-01
2.904058e+01    7.256605e-01
2.907233e+01    7.219462e-01
2.910408e+01    7.187119e-01
2.913583e+01    7.445105e-01
2.916759e+01    7.397291e-01
2.919934e+01    7.239595e-01
2.923109e+01    7.354587e-01
2.926284e+01    7.212517e-01
2.929459e+01    7.206056e-01
2.932634e+01    7.096926e-01
2.935809e+01    7.236781e-01
2.938984e+01    7.474966e-01
2.942159e+01    7.221860e-01
2.945335e+01    7.213660e-01
2.948510e+01    7.341452e-01
2.951685e+01    7.208005e-01
2.954860e+01    7.289156e-01
2.958035e+01    7.285395e-01
2.961210e+01    6.951993e-01
2.964385e+01    7.511276e-01
2.967560e+01    6.952195e-01
2.970736e+01    7.107869e-01
2.973911e+01    7.049522e-01
2.977086e+01    7.382160e-01
2.980261e+01    7.254375e-01
2.983436e+01    7.242659e-01
2.986611e+01    7.061126e-01
2.989786e+01    7.038605e-01
2.992961e+01    7.143163e-01
2.996136e+01    7.062165e-01
2.999312e+01    7.211881e-01
3.002487e+01    7.441303e-01
3.005662e+01    7.073169e-01
3.008837e+01    7.116478e-01
3.012012e+01    6.980304e-01
3.015187e+01    7.079445e-01
3.018362e+01    7.278842e-01
3.021537e+01    7.010823e-01
3.024712e+01    7.107037e-01
3.027888e+01    7.081184e-01
3.031063e+01    7.027135e-01
3.034238e+01    6.982666e-01
3.037413e+01    6.913387e-01
3.040588e+01    7.209516e-01
3.043763e+01    7.132752e-01
3.046938e+01    6.931093e-01
3.050113e+01    7.186872e-01
3.053288e+01    6.966184e-01
3.056464e+01    7.080808e-01
3.059639e+01    6.987564e-01
3.062814e+01    7.179393e-01
3.065989e+01    7.002593e-01
3.069164e+01    6.854771e-01
3.072339e+01    6.951763e-01
3.075514e+01    6.991907e-01
3.078689e+01    7.043954e-01
3.081865e+01    7.156762e-01
3.085040e+01    6.864151e-01
3.088215e+01    6.986293e-01
3.091390e+01    7.040610e-01
3.094565e+01    7.096244e-01
3.097740e+01    7.065707e-01
3.100915e+01    7.029125e-01
3.104090e+01    6.808829e-01
3.107265e+01    7.199426e-01
3.110441e+01    7.197437e-01
3.113616e+01    7.319477e-01
3.116791e+01    7.167576e-01
3.119966e+01    7.392692e-01
3.123141e+01    7.130374e-01
3.126316e+01    7.054617e-01
3.129491e+01    7.072546e-01
3.132666e+01    7.142484e-01
3.135841e+01    7.199311e-01
3.139017e+01    7.394276e-01
3.142192e+01    7.382134e-01
3.145367e+01    7.080852e-01
3.148542e+01    7.663797e-01
3.151717e+01    7.573150e-01
3.154892e+01    7.721178e-01
3.158067e+01    8.104432e-01
3.161242e+01    8.141170e-01
3.164418e+01    8.472525e-01
3.167593e+01    8.950490e-01
3.170768e+01    9.762420e-01
3.173943e+01    1.075299e+00
3.177118e+01    1.197979e+00
3.180293e+01    1.393438e+00
3.183468e+01    1.666041e+00
3.186643e+01    1.953909e+00
3.189818e+01    2.093499e+00
3.192994e+01    2.010939e+00
3.196169e+01    1.797729e+00
3.199344e+01    1.486244e+00
3.202519e+01    1.238611e+00
3.205694e+01    1.108428e+00
3.208869e+01    9.745572e-01
3.212044e+01    8.976648e-01
3.215219e+01    8.374807e-01
3.218394e+01    8.320267e-01
3.221570e+01    7.873430e-01
3.224745e+01    7.679464e-01
3.227920e+01    7.876167e-01
3.231095e+01    7.286224e-01
3.234270e+01    7.199184e-01
3.237445e+01    7.097675e-01
3.240620e+01    7.035354e-01
3.243795e+01    7.119554e-01
3.246970e+01    7.152893e-01
3.250146e+01    7.004387e-01
3.253321e+01    7.183758e-01
3.254908e+01    7.120280e-01