File: XRD/Reaction conditions/2024-07-27_003_Ru-CGO-ex_Reaction_dwell_000023_data_000134.dat
# == pyFAI calibration ==
# Distance Sample to Detector: 0.4 m
# PONI: 9.750e-02, 1.135e-01 m
# Rotations: -0.000175 0.000000 -0.000000 rad
#
# == Fit2d calibration ==
# Distance Sample-beamCenter: 400.000 mm
# Center: x=1514.000, y=1300.000 pix
# Tilt: 0.010 deg  TiltPlanRot: 0.010 deg
#
# Detector Detector	 Spline= None	 PixelSize= 7.500e-05, 7.500e-05 m
#    Detector has a mask: False
#    Detector has a dark current: False
#    detector has a flat field: False
#
# Wavelength: 6.888e-11 m
# Mask applied: user provided
# Dark current applied: False
# Flat field applied: False
# Polarization factor: 0.99
# Normalization factor: 1.0
# --> /home/myspot/data/2024_07_Rosario/Ru-CGO-ex/2024-07-27_003_Ru-CGO-ex_Reaction_dwell_000023_data_000134.dat
#       q_nm^-1             I
  2.003187e-02    0.000000e+00
  5.178302e-02    2.670345e-02
  8.353417e-02    3.042189e-01
  1.152853e-01    1.652648e-01
  1.470365e-01    3.849707e-02
  1.787876e-01    2.896995e-02
  2.105388e-01    1.128333e-01
  2.422899e-01    1.987016e-02
  2.740411e-01    6.078158e-02
  3.057922e-01    2.761095e-02
  3.375433e-01    1.085509e-02
  3.692945e-01    3.790498e-02
  4.010456e-01    4.041916e-02
  4.327968e-01    2.848386e-02
  4.645479e-01    3.593591e-02
  4.962991e-01    6.747660e-02
  5.280502e-01    5.379041e-02
  5.598014e-01    5.636020e-02
  5.915525e-01    4.155394e-02
  6.233037e-01    4.607523e-02
  6.550548e-01    5.721840e-02
  6.868060e-01    4.418700e-02
  7.185571e-01    4.286997e-02
  7.503083e-01    3.443840e-02
  7.820594e-01    1.389286e-01
  8.138106e-01    2.668343e-01
  8.455617e-01    3.833906e-01
  8.773129e-01    4.691572e-01
  9.090640e-01    6.040126e-01
  9.408152e-01    9.044634e-01
  9.725663e-01    1.023609e+00
  1.004317e+00    1.194227e+00
  1.036069e+00    1.336211e+00
  1.067820e+00    1.509196e+00
  1.099571e+00    1.543078e+00
  1.131322e+00    1.559244e+00
  1.163073e+00    1.768848e+00
  1.194824e+00    1.900054e+00
  1.226575e+00    2.074981e+00
  1.258327e+00    2.404941e+00
  1.290078e+00    2.604124e+00
  1.321829e+00    2.657669e+00
  1.353580e+00    2.905854e+00
  1.385331e+00    2.767705e+00
  1.417082e+00    2.935280e+00
  1.448834e+00    2.935015e+00
  1.480585e+00    3.203260e+00
  1.512336e+00    3.095639e+00
  1.544087e+00    3.193913e+00
  1.575838e+00    3.282495e+00
  1.607589e+00    3.171632e+00
  1.639340e+00    3.010949e+00
  1.671092e+00    3.147881e+00
  1.702843e+00    3.061329e+00
  1.734594e+00    3.091040e+00
  1.766345e+00    3.074976e+00
  1.798096e+00    2.990138e+00
  1.829847e+00    3.077966e+00
  1.861598e+00    3.180660e+00
  1.893350e+00    3.030766e+00
  1.925101e+00    2.999044e+00
  1.956852e+00    3.115628e+00
  1.988603e+00    3.017265e+00
  2.020354e+00    3.061013e+00
  2.052105e+00    3.016284e+00
  2.083856e+00    3.136244e+00
  2.115608e+00    2.995045e+00
  2.147359e+00    3.160088e+00
  2.179110e+00    3.214678e+00
  2.210861e+00    3.167145e+00
  2.242612e+00    3.144403e+00
  2.274363e+00    3.067190e+00
  2.306115e+00    3.232587e+00
  2.337866e+00    3.267962e+00
  2.369617e+00    3.225241e+00
  2.401368e+00    3.130691e+00
  2.433119e+00    3.132847e+00
  2.464870e+00    3.164942e+00
  2.496621e+00    3.215404e+00
  2.528373e+00    3.223532e+00
  2.560124e+00    3.255913e+00
  2.591875e+00    3.140866e+00
  2.623626e+00    3.241359e+00
  2.655377e+00    3.311101e+00
  2.687128e+00    3.238113e+00
  2.718879e+00    3.212862e+00
  2.750631e+00    3.323912e+00
  2.782382e+00    3.255480e+00
  2.814133e+00    3.076687e+00
  2.845884e+00    3.274383e+00
  2.877635e+00    3.253702e+00
  2.909386e+00    3.375806e+00
  2.941137e+00    3.286481e+00
  2.972889e+00    3.285276e+00
  3.004640e+00    3.257984e+00
  3.036391e+00    3.324402e+00
  3.068142e+00    3.315877e+00
  3.099893e+00    3.451150e+00
  3.131644e+00    3.393154e+00
  3.163395e+00    3.448864e+00
  3.195147e+00    3.291097e+00
  3.226898e+00    3.386339e+00
  3.258649e+00    3.391309e+00
  3.290400e+00    3.323800e+00
  3.322151e+00    3.483118e+00
  3.353902e+00    3.469957e+00
  3.385654e+00    3.347144e+00
  3.417405e+00    3.411976e+00
  3.449156e+00    3.508320e+00
  3.480907e+00    3.382535e+00
  3.512658e+00    3.472005e+00
  3.544409e+00    3.522686e+00
  3.576160e+00    3.403171e+00
  3.607912e+00    3.575088e+00
  3.639663e+00    3.510658e+00
  3.671414e+00    3.603288e+00
  3.703165e+00    3.530169e+00
  3.734916e+00    3.427583e+00
  3.766667e+00    3.491675e+00
  3.798418e+00    3.560596e+00
  3.830170e+00    3.585418e+00
  3.861921e+00    3.487799e+00
  3.893672e+00    3.493211e+00
  3.925423e+00    3.503912e+00
  3.957174e+00    3.544936e+00
  3.988925e+00    3.603986e+00
  4.020676e+00    3.580802e+00
  4.052428e+00    3.503809e+00
  4.084179e+00    3.460938e+00
  4.115930e+00    3.603601e+00
  4.147681e+00    3.606673e+00
  4.179432e+00    3.586604e+00
  4.211183e+00    3.548454e+00
  4.242935e+00    3.586756e+00
  4.274686e+00    3.592012e+00
  4.306437e+00    3.605210e+00
  4.338188e+00    3.638557e+00
  4.369939e+00    3.500247e+00
  4.401690e+00    3.555954e+00
  4.433441e+00    3.660533e+00
  4.465193e+00    3.662335e+00
  4.496944e+00    3.560036e+00
  4.528695e+00    3.656030e+00
  4.560446e+00    3.635288e+00
  4.592197e+00    3.572977e+00
  4.623948e+00    3.749408e+00
  4.655699e+00    3.492601e+00
  4.687451e+00    3.603354e+00
  4.719202e+00    3.616008e+00
  4.750953e+00    3.551528e+00
  4.782704e+00    3.551484e+00
  4.814455e+00    3.606232e+00
  4.846206e+00    3.610872e+00
  4.877957e+00    3.678380e+00
  4.909709e+00    3.731506e+00
  4.941460e+00    3.681461e+00
  4.973211e+00    3.657137e+00
  5.004962e+00    3.584703e+00
  5.036713e+00    3.667574e+00
  5.068464e+00    3.588526e+00
  5.100216e+00    3.648896e+00
  5.131967e+00    3.733968e+00
  5.163718e+00    3.724625e+00
  5.195469e+00    3.643366e+00
  5.227220e+00    3.671271e+00
  5.258971e+00    3.677439e+00
  5.290722e+00    3.697720e+00
  5.322474e+00    3.659017e+00
  5.354225e+00    3.648088e+00
  5.385976e+00    3.677837e+00
  5.417727e+00    3.623600e+00
  5.449478e+00    3.592611e+00
  5.481229e+00    3.558928e+00
  5.512980e+00    3.676801e+00
  5.544732e+00    3.613005e+00
  5.576483e+00    3.585743e+00
  5.608234e+00    3.652926e+00
  5.639985e+00    3.594187e+00
  5.671736e+00    3.551313e+00
  5.703487e+00    3.536217e+00
  5.735238e+00    3.593823e+00
  5.766990e+00    3.590519e+00
  5.798741e+00    3.658377e+00
  5.830492e+00    3.561282e+00
  5.862243e+00    3.579185e+00
  5.893994e+00    3.580383e+00
  5.925745e+00    3.503053e+00
  5.957497e+00    3.536510e+00
  5.989248e+00    3.557696e+00
  6.020999e+00    3.508652e+00
  6.052750e+00    3.529866e+00
  6.084501e+00    3.600605e+00
  6.116252e+00    3.590257e+00
  6.148003e+00    3.621688e+00
  6.179755e+00    3.611374e+00
  6.211506e+00    3.559030e+00
  6.243257e+00    3.636206e+00
  6.275008e+00    3.517522e+00
  6.306759e+00    3.544391e+00
  6.338510e+00    3.555468e+00
  6.370261e+00    3.559973e+00
  6.402013e+00    3.590798e+00
  6.433764e+00    3.534131e+00
  6.465515e+00    3.625113e+00
  6.497266e+00    3.522692e+00
  6.529017e+00    3.532004e+00
  6.560768e+00    3.534207e+00
  6.592519e+00    3.482086e+00
  6.624271e+00    3.567306e+00
  6.656022e+00    3.482943e+00
  6.687773e+00    3.388139e+00
  6.719524e+00    3.564144e+00
  6.751275e+00    3.557566e+00
  6.783026e+00    3.582194e+00
  6.814777e+00    3.527132e+00
  6.846529e+00    3.433565e+00
  6.878280e+00    3.556237e+00
  6.910031e+00    3.614520e+00
  6.941782e+00    3.554382e+00
  6.973533e+00    3.558592e+00
  7.005284e+00    3.582052e+00
  7.037036e+00    3.501202e+00
  7.068787e+00    3.515534e+00
  7.100538e+00    3.499079e+00
  7.132289e+00    3.511752e+00
  7.164040e+00    3.490412e+00
  7.195791e+00    3.531670e+00
  7.227542e+00    3.467151e+00
  7.259294e+00    3.446473e+00
  7.291045e+00    3.563622e+00
  7.322796e+00    3.519615e+00
  7.354547e+00    3.511510e+00
  7.386298e+00    3.551353e+00
  7.418049e+00    3.479386e+00
  7.449800e+00    3.505688e+00
  7.481552e+00    3.479164e+00
  7.513303e+00    3.566294e+00
  7.545054e+00    3.524900e+00
  7.576805e+00    3.531155e+00
  7.608556e+00    3.449266e+00
  7.640307e+00    3.432896e+00
  7.672058e+00    3.396935e+00
  7.703810e+00    3.480806e+00
  7.735561e+00    3.452426e+00
  7.767312e+00    3.416000e+00
  7.799063e+00    3.415394e+00
  7.830814e+00    3.438001e+00
  7.862565e+00    3.401257e+00
  7.894317e+00    3.374214e+00
  7.926068e+00    3.439564e+00
  7.957819e+00    3.363969e+00
  7.989570e+00    3.398711e+00
  8.021321e+00    3.374619e+00
  8.053072e+00    3.391206e+00
  8.084823e+00    3.479759e+00
  8.116575e+00    3.425578e+00
  8.148326e+00    3.498759e+00
  8.180077e+00    3.470071e+00
  8.211828e+00    3.409898e+00
  8.243579e+00    3.398841e+00
  8.275330e+00    3.387111e+00
  8.307081e+00    3.399323e+00
  8.338833e+00    3.402752e+00
  8.370584e+00    3.375950e+00
  8.402335e+00    3.360579e+00
  8.434086e+00    3.420779e+00
  8.465837e+00    3.385467e+00
  8.497588e+00    3.416186e+00
  8.529339e+00    3.424324e+00
  8.561091e+00    3.327836e+00
  8.592842e+00    3.380324e+00
  8.624593e+00    3.358846e+00
  8.656344e+00    3.342652e+00
  8.688095e+00    3.372202e+00
  8.719846e+00    3.362193e+00
  8.751598e+00    3.300972e+00
  8.783349e+00    3.325935e+00
  8.815100e+00    3.372334e+00
  8.846851e+00    3.321274e+00
  8.878602e+00    3.318791e+00
  8.910353e+00    3.323385e+00
  8.942104e+00    3.258988e+00
  8.973856e+00    3.368917e+00
  9.005607e+00    3.306913e+00
  9.037358e+00    3.262786e+00
  9.069109e+00    3.313539e+00
  9.100860e+00    3.299779e+00
  9.132611e+00    3.248602e+00
  9.164362e+00    3.257658e+00
  9.196114e+00    3.296926e+00
  9.227865e+00    3.174917e+00
  9.259616e+00    3.242486e+00
  9.291367e+00    3.246585e+00
  9.323118e+00    3.270701e+00
  9.354869e+00    3.287634e+00
  9.386620e+00    3.227261e+00
  9.418372e+00    3.202322e+00
  9.450123e+00    3.186718e+00
  9.481874e+00    3.209975e+00
  9.513625e+00    3.246946e+00
  9.545376e+00    3.291981e+00
  9.577127e+00    3.192568e+00
  9.608878e+00    3.231714e+00
  9.640630e+00    3.258980e+00
  9.672381e+00    3.196633e+00
  9.704132e+00    3.228463e+00
  9.735883e+00    3.187834e+00
  9.767634e+00    3.163562e+00
  9.799385e+00    3.176030e+00
  9.831137e+00    3.159202e+00
  9.862888e+00    3.180613e+00
  9.894639e+00    3.208164e+00
  9.926390e+00    3.129800e+00
  9.958141e+00    3.226411e+00
  9.989892e+00    3.085405e+00
  1.002164e+01    3.125020e+00
  1.005339e+01    3.137929e+00
  1.008515e+01    3.032640e+00
  1.011690e+01    3.182298e+00
  1.014865e+01    3.187491e+00
  1.018040e+01    3.088739e+00
  1.021215e+01    3.085114e+00
  1.024390e+01    3.076788e+00
  1.027565e+01    3.019082e+00
  1.030740e+01    3.058669e+00
  1.033915e+01    2.992689e+00
  1.037091e+01    3.008162e+00
  1.040266e+01    3.081263e+00
  1.043441e+01    3.013718e+00
  1.046616e+01    3.013729e+00
  1.049791e+01    3.032692e+00
  1.052966e+01    3.048678e+00
  1.056141e+01    2.973897e+00
  1.059316e+01    3.050675e+00
  1.062492e+01    3.030987e+00
  1.065667e+01    2.969881e+00
  1.068842e+01    2.960879e+00
  1.072017e+01    3.012074e+00
  1.075192e+01    2.972523e+00
  1.078367e+01    2.995224e+00
  1.081542e+01    2.923082e+00
  1.084717e+01    2.947743e+00
  1.087892e+01    2.928290e+00
  1.091068e+01    2.936775e+00
  1.094243e+01    2.916101e+00
  1.097418e+01    2.931568e+00
  1.100593e+01    2.893464e+00
  1.103768e+01    2.953861e+00
  1.106943e+01    2.920150e+00
  1.110118e+01    2.842255e+00
  1.113293e+01    2.866918e+00
  1.116468e+01    2.962339e+00
  1.119644e+01    2.898610e+00
  1.122819e+01    2.957193e+00
  1.125994e+01    2.815900e+00
  1.129169e+01    2.803946e+00
  1.132344e+01    2.863395e+00
  1.135519e+01    2.881732e+00
  1.138694e+01    2.811748e+00
  1.141869e+01    2.764868e+00
  1.145045e+01    2.801172e+00
  1.148220e+01    2.829529e+00
  1.151395e+01    2.812015e+00
  1.154570e+01    2.833341e+00
  1.157745e+01    2.829211e+00
  1.160920e+01    2.773504e+00
  1.164095e+01    2.828417e+00
  1.167270e+01    2.740365e+00
  1.170445e+01    2.764132e+00
  1.173621e+01    2.817267e+00
  1.176796e+01    2.700803e+00
  1.179971e+01    2.732831e+00
  1.183146e+01    2.745161e+00
  1.186321e+01    2.739086e+00
  1.189496e+01    2.715059e+00
  1.192671e+01    2.732538e+00
  1.195846e+01    2.722562e+00
  1.199021e+01    2.728030e+00
  1.202197e+01    2.705324e+00
  1.205372e+01    2.700128e+00
  1.208547e+01    2.715720e+00
  1.211722e+01    2.697587e+00
  1.214897e+01    2.669570e+00
  1.218072e+01    2.689256e+00
  1.221247e+01    2.676725e+00
  1.224422e+01    2.642346e+00
  1.227597e+01    2.708099e+00
  1.230773e+01    2.710736e+00
  1.233948e+01    2.695793e+00
  1.237123e+01    2.706002e+00
  1.240298e+01    2.678545e+00
  1.243473e+01    2.700166e+00
  1.246648e+01    2.721401e+00
  1.249823e+01    2.722817e+00
  1.252998e+01    2.731705e+00
  1.256174e+01    2.696500e+00
  1.259349e+01    2.703458e+00
  1.262524e+01    2.769915e+00
  1.265699e+01    2.776613e+00
  1.268874e+01    2.888027e+00
  1.272049e+01    2.913067e+00
  1.275224e+01    2.881404e+00
  1.278399e+01    2.979427e+00
  1.281574e+01    3.127141e+00
  1.284750e+01    3.243484e+00
  1.287925e+01    3.386922e+00
  1.291100e+01    3.643352e+00
  1.294275e+01    4.154870e+00
  1.297450e+01    4.777718e+00
  1.300625e+01    5.930947e+00
  1.303800e+01    7.698463e+00
  1.306975e+01    1.016406e+01
  1.310150e+01    1.276583e+01
  1.313326e+01    1.475731e+01
  1.316501e+01    1.616382e+01
  1.319676e+01    1.567420e+01
  1.322851e+01    1.259241e+01
  1.326026e+01    9.027898e+00
  1.329201e+01    6.807913e+00
  1.332376e+01    5.333247e+00
  1.335551e+01    4.500591e+00
  1.338727e+01    3.870614e+00
  1.341902e+01    3.504411e+00
  1.345077e+01    3.195568e+00
  1.348252e+01    3.067110e+00
  1.351427e+01    2.931944e+00
  1.354602e+01    2.852792e+00
  1.357777e+01    2.754537e+00
  1.360952e+01    2.695825e+00
  1.364127e+01    2.658184e+00
  1.367303e+01    2.603048e+00
  1.370478e+01    2.604608e+00
  1.373653e+01    2.516210e+00
  1.376828e+01    2.519718e+00
  1.380003e+01    2.460197e+00
  1.383178e+01    2.476437e+00
  1.386353e+01    2.456720e+00
  1.389528e+01    2.439809e+00
  1.392703e+01    2.411957e+00
  1.395879e+01    2.403610e+00
  1.399054e+01    2.357331e+00
  1.402229e+01    2.358606e+00
  1.405404e+01    2.369856e+00
  1.408579e+01    2.324857e+00
  1.411754e+01    2.333741e+00
  1.414929e+01    2.315538e+00
  1.418104e+01    2.263256e+00
  1.421279e+01    2.270475e+00
  1.424455e+01    2.259675e+00
  1.427630e+01    2.299723e+00
  1.430805e+01    2.296762e+00
  1.433980e+01    2.259901e+00
  1.437155e+01    2.221281e+00
  1.440330e+01    2.242270e+00
  1.443505e+01    2.281587e+00
  1.446680e+01    2.200115e+00
  1.449856e+01    2.172062e+00
  1.453031e+01    2.223271e+00
  1.456206e+01    2.209446e+00
  1.459381e+01    2.219524e+00
  1.462556e+01    2.211495e+00
  1.465731e+01    2.192915e+00
  1.468906e+01    2.191250e+00
  1.472081e+01    2.167636e+00
  1.475256e+01    2.190175e+00
  1.478432e+01    2.220589e+00
  1.481607e+01    2.208910e+00
  1.484782e+01    2.191117e+00
  1.487957e+01    2.237906e+00
  1.491132e+01    2.280860e+00
  1.494307e+01    2.334047e+00
  1.497482e+01    2.345263e+00
  1.500657e+01    2.414776e+00
  1.503832e+01    2.577549e+00
  1.507008e+01    2.859151e+00
  1.510183e+01    3.177941e+00
  1.513358e+01    3.800577e+00
  1.516533e+01    4.554005e+00
  1.519708e+01    5.116611e+00
  1.522883e+01    5.632662e+00
  1.526058e+01    5.815588e+00
  1.529233e+01    5.497672e+00
  1.532409e+01    4.646816e+00
  1.535584e+01    3.790735e+00
  1.538759e+01    3.148315e+00
  1.541934e+01    2.769018e+00
  1.545109e+01    2.530638e+00
  1.548284e+01    2.345279e+00
  1.551459e+01    2.244888e+00
  1.554634e+01    2.183744e+00
  1.557809e+01    2.137206e+00
  1.560985e+01    2.091111e+00
  1.564160e+01    2.055110e+00
  1.567335e+01    2.013517e+00
  1.570510e+01    2.001483e+00
  1.573685e+01    1.967588e+00
  1.576860e+01    1.996490e+00
  1.580035e+01    1.973144e+00
  1.583210e+01    1.914948e+00
  1.586385e+01    1.907216e+00
  1.589561e+01    1.941831e+00
  1.592736e+01    1.913257e+00
  1.595911e+01    1.925177e+00
  1.599086e+01    1.908488e+00
  1.602261e+01    1.855886e+00
  1.605436e+01    1.859918e+00
  1.608611e+01    1.823239e+00
  1.611786e+01    1.853254e+00
  1.614961e+01    1.828922e+00
  1.618137e+01    1.886548e+00
  1.621312e+01    1.848594e+00
  1.624487e+01    1.808787e+00
  1.627662e+01    1.806544e+00
  1.630837e+01    1.806057e+00
  1.634012e+01    1.796477e+00
  1.637187e+01    1.771448e+00
  1.640362e+01    1.807831e+00
  1.643538e+01    1.737814e+00
  1.646713e+01    1.755189e+00
  1.649888e+01    1.798729e+00
  1.653063e+01    1.742602e+00
  1.656238e+01    1.746423e+00
  1.659413e+01    1.757564e+00
  1.662588e+01    1.713070e+00
  1.665763e+01    1.774813e+00
  1.668938e+01    1.715163e+00
  1.672114e+01    1.741731e+00
  1.675289e+01    1.724107e+00
  1.678464e+01    1.748677e+00
  1.681639e+01    1.744433e+00
  1.684814e+01    1.751976e+00
  1.687989e+01    1.653935e+00
  1.691164e+01    1.732673e+00
  1.694339e+01    1.681302e+00
  1.697514e+01    1.682788e+00
  1.700690e+01    1.656692e+00
  1.703865e+01    1.691955e+00
  1.707040e+01    1.657127e+00
  1.710215e+01    1.662539e+00
  1.713390e+01    1.657907e+00
  1.716565e+01    1.620939e+00
  1.719740e+01    1.607176e+00
  1.722915e+01    1.599684e+00
  1.726091e+01    1.648874e+00
  1.729266e+01    1.641266e+00
  1.732441e+01    1.629227e+00
  1.735616e+01    1.612292e+00
  1.738791e+01    1.614103e+00
  1.741966e+01    1.608222e+00
  1.745141e+01    1.590258e+00
  1.748316e+01    1.566501e+00
  1.751491e+01    1.586820e+00
  1.754667e+01    1.574949e+00
  1.757842e+01    1.585798e+00
  1.761017e+01    1.608085e+00
  1.764192e+01    1.582417e+00
  1.767367e+01    1.546270e+00
  1.770542e+01    1.566603e+00
  1.773717e+01    1.567646e+00
  1.776892e+01    1.526665e+00
  1.780067e+01    1.591435e+00
  1.783243e+01    1.562541e+00
  1.786418e+01    1.539439e+00
  1.789593e+01    1.543386e+00
  1.792768e+01    1.542324e+00
  1.795943e+01    1.521598e+00
  1.799118e+01    1.526031e+00
  1.802293e+01    1.528485e+00
  1.805468e+01    1.526603e+00
  1.808643e+01    1.508564e+00
  1.811819e+01    1.516799e+00
  1.814994e+01    1.489138e+00
  1.818169e+01    1.468161e+00
  1.821344e+01    1.496546e+00
  1.824519e+01    1.497390e+00
  1.827694e+01    1.464426e+00
  1.830869e+01    1.477574e+00
  1.834044e+01    1.446769e+00
  1.837220e+01    1.477918e+00
  1.840395e+01    1.461789e+00
  1.843570e+01    1.465989e+00
  1.846745e+01    1.438204e+00
  1.849920e+01    1.417097e+00
  1.853095e+01    1.437893e+00
  1.856270e+01    1.456197e+00
  1.859445e+01    1.424130e+00
  1.862620e+01    1.423793e+00
  1.865796e+01    1.449947e+00
  1.868971e+01    1.435773e+00
  1.872146e+01    1.420150e+00
  1.875321e+01    1.418663e+00
  1.878496e+01    1.423746e+00
  1.881671e+01    1.426050e+00
  1.884846e+01    1.422798e+00
  1.888021e+01    1.403878e+00
  1.891196e+01    1.418910e+00
  1.894372e+01    1.422059e+00
  1.897547e+01    1.400681e+00
  1.900722e+01    1.403210e+00
  1.903897e+01    1.386972e+00
  1.907072e+01    1.382925e+00
  1.910247e+01    1.392640e+00
  1.913422e+01    1.377377e+00
  1.916597e+01    1.367248e+00
  1.919773e+01    1.381322e+00
  1.922948e+01    1.365754e+00
  1.926123e+01    1.351798e+00
  1.929298e+01    1.351937e+00
  1.932473e+01    1.339734e+00
  1.935648e+01    1.351779e+00
  1.938823e+01    1.335999e+00
  1.941998e+01    1.359290e+00
  1.945173e+01    1.313048e+00
  1.948349e+01    1.347374e+00
  1.951524e+01    1.305205e+00
  1.954699e+01    1.345482e+00
  1.957874e+01    1.315125e+00
  1.961049e+01    1.325514e+00
  1.964224e+01    1.273103e+00
  1.967399e+01    1.314157e+00
  1.970574e+01    1.288241e+00
  1.973749e+01    1.284156e+00
  1.976925e+01    1.334515e+00
  1.980100e+01    1.298025e+00
  1.983275e+01    1.271250e+00
  1.986450e+01    1.304703e+00
  1.989625e+01    1.267259e+00
  1.992800e+01    1.321245e+00
  1.995975e+01    1.263129e+00
  1.999150e+01    1.287166e+00
  2.002325e+01    1.292932e+00
  2.005501e+01    1.280350e+00
  2.008676e+01    1.274747e+00
  2.011851e+01    1.293095e+00
  2.015026e+01    1.277872e+00
  2.018201e+01    1.279279e+00
  2.021376e+01    1.277737e+00
  2.024551e+01    1.252641e+00
  2.027726e+01    1.251899e+00
  2.030902e+01    1.242597e+00
  2.034077e+01    1.273547e+00
  2.037252e+01    1.233235e+00
  2.040427e+01    1.260683e+00
  2.043602e+01    1.226514e+00
  2.046777e+01    1.239925e+00
  2.049952e+01    1.250206e+00
  2.053127e+01    1.242013e+00
  2.056302e+01    1.235329e+00
  2.059478e+01    1.240331e+00
  2.062653e+01    1.240741e+00
  2.065828e+01    1.220835e+00
  2.069003e+01    1.228793e+00
  2.072178e+01    1.231790e+00
  2.075353e+01    1.240627e+00
  2.078528e+01    1.216049e+00
  2.081703e+01    1.206042e+00
  2.084878e+01    1.240714e+00
  2.088054e+01    1.245313e+00
  2.091229e+01    1.203980e+00
  2.094404e+01    1.235569e+00
  2.097579e+01    1.204999e+00
  2.100754e+01    1.210374e+00
  2.103929e+01    1.265270e+00
  2.107104e+01    1.221634e+00
  2.110279e+01    1.235254e+00
  2.113455e+01    1.214038e+00
  2.116630e+01    1.207831e+00
  2.119805e+01    1.238737e+00
  2.122980e+01    1.242425e+00
  2.126155e+01    1.247290e+00
  2.129330e+01    1.270680e+00
  2.132505e+01    1.269796e+00
  2.135680e+01    1.291417e+00
  2.138855e+01    1.322495e+00
  2.142031e+01    1.324462e+00
  2.145206e+01    1.367991e+00
  2.148381e+01    1.388107e+00
  2.151556e+01    1.442592e+00
  2.154731e+01    1.498656e+00
  2.157906e+01    1.608455e+00
  2.161081e+01    1.743765e+00
  2.164256e+01    1.974700e+00
  2.167431e+01    2.319578e+00
  2.170607e+01    2.815508e+00
  2.173782e+01    3.545270e+00
  2.176957e+01    4.587394e+00
  2.180132e+01    5.852634e+00
  2.183307e+01    7.144548e+00
  2.186482e+01    8.311747e+00
  2.189657e+01    8.938817e+00
  2.192832e+01    8.260333e+00
  2.196007e+01    6.616777e+00
  2.199183e+01    4.884903e+00
  2.202358e+01    3.649922e+00
  2.205533e+01    2.865698e+00
  2.208708e+01    2.348080e+00
  2.211883e+01    2.003683e+00
  2.215058e+01    1.759090e+00
  2.218233e+01    1.617968e+00
  2.221408e+01    1.487269e+00
  2.224584e+01    1.434479e+00
  2.227759e+01    1.357020e+00
  2.230934e+01    1.287529e+00
  2.234109e+01    1.261036e+00
  2.237284e+01    1.234698e+00
  2.240459e+01    1.208609e+00
  2.243634e+01    1.182108e+00
  2.246809e+01    1.185605e+00
  2.249984e+01    1.166382e+00
  2.253160e+01    1.162262e+00
  2.256335e+01    1.133805e+00
  2.259510e+01    1.088998e+00
  2.262685e+01    1.093980e+00
  2.265860e+01    1.089958e+00
  2.269035e+01    1.098239e+00
  2.272210e+01    1.077240e+00
  2.275385e+01    1.094373e+00
  2.278560e+01    1.054084e+00
  2.281736e+01    1.051529e+00
  2.284911e+01    1.051229e+00
  2.288086e+01    1.027508e+00
  2.291261e+01    1.030380e+00
  2.294436e+01    1.036110e+00
  2.297611e+01    1.049577e+00
  2.300786e+01    1.034835e+00
  2.303961e+01    1.011432e+00
  2.307137e+01    1.033906e+00
  2.310312e+01    1.009898e+00
  2.313487e+01    9.993346e-01
  2.316662e+01    9.929529e-01
  2.319837e+01    9.945484e-01
  2.323012e+01    1.018900e+00
  2.326187e+01    9.987338e-01
  2.329362e+01    9.821376e-01
  2.332537e+01    9.989046e-01
  2.335713e+01    9.860086e-01
  2.338888e+01    9.850324e-01
  2.342063e+01    9.709460e-01
  2.345238e+01    9.832967e-01
  2.348413e+01    9.724845e-01
  2.351588e+01    9.752440e-01
  2.354763e+01    9.781143e-01
  2.357938e+01    9.601837e-01
  2.361113e+01    9.673337e-01
  2.364289e+01    9.313227e-01
  2.367464e+01    9.630852e-01
  2.370639e+01    9.518784e-01
  2.373814e+01    9.427783e-01
  2.376989e+01    9.350551e-01
  2.380164e+01    9.361578e-01
  2.383339e+01    9.225312e-01
  2.386514e+01    8.957072e-01
  2.389689e+01    8.995570e-01
  2.392865e+01    9.144654e-01
  2.396040e+01    9.000295e-01
  2.399215e+01    8.902012e-01
  2.402390e+01    9.023053e-01
  2.405565e+01    9.096476e-01
  2.408740e+01    8.938388e-01
  2.411915e+01    8.802578e-01
  2.415090e+01    8.800144e-01
  2.418266e+01    8.976815e-01
  2.421441e+01    8.913998e-01
  2.424616e+01    8.773467e-01
  2.427791e+01    8.876786e-01
  2.430966e+01    8.808193e-01
  2.434141e+01    8.892378e-01
  2.437316e+01    8.957160e-01
  2.440491e+01    8.980300e-01
  2.443666e+01    8.764980e-01
  2.446842e+01    8.750755e-01
  2.450017e+01    8.868192e-01
  2.453192e+01    8.766763e-01
  2.456367e+01    8.830267e-01
  2.459542e+01    8.910112e-01
  2.462717e+01    8.748420e-01
  2.465892e+01    8.996384e-01
  2.469067e+01    8.996501e-01
  2.472242e+01    8.892136e-01
  2.475418e+01    8.756039e-01
  2.478593e+01    8.751414e-01
  2.481768e+01    8.790786e-01
  2.484943e+01    8.796069e-01
  2.488118e+01    8.941292e-01
  2.491293e+01    8.806272e-01
  2.494468e+01    9.010105e-01
  2.497643e+01    9.114455e-01
  2.500819e+01    8.916674e-01
  2.503994e+01    8.964158e-01
  2.507169e+01    9.190727e-01
  2.510344e+01    9.124331e-01
  2.513519e+01    9.071898e-01
  2.516694e+01    9.333302e-01
  2.519869e+01    9.216675e-01
  2.523044e+01    9.336234e-01
  2.526219e+01    9.658183e-01
  2.529395e+01    9.482514e-01
  2.532570e+01    9.547728e-01
  2.535745e+01    9.917053e-01
  2.538920e+01    9.809495e-01
  2.542095e+01    9.901829e-01
  2.545270e+01    1.007594e+00
  2.548445e+01    1.032831e+00
  2.551620e+01    1.061515e+00
  2.554795e+01    1.126182e+00
  2.557971e+01    1.160063e+00
  2.561146e+01    1.222904e+00
  2.564321e+01    1.294526e+00
  2.567496e+01    1.433526e+00
  2.570671e+01    1.584700e+00
  2.573846e+01    1.840859e+00
  2.577021e+01    2.246392e+00
  2.580196e+01    2.810026e+00
  2.583371e+01    3.612193e+00
  2.586547e+01    4.695568e+00
  2.589722e+01    5.811095e+00
  2.592897e+01    6.739148e+00
  2.596072e+01    7.106194e+00
  2.599247e+01    6.576126e+00
  2.602422e+01    5.290716e+00
  2.605597e+01    3.998696e+00
  2.608772e+01    3.008685e+00
  2.611948e+01    2.357426e+00
  2.615123e+01    1.932980e+00
  2.618298e+01    1.677325e+00
  2.621473e+01    1.479456e+00
  2.624648e+01    1.355555e+00
  2.627823e+01    1.254973e+00
  2.630998e+01    1.192885e+00
  2.634173e+01    1.128492e+00
  2.637348e+01    1.090731e+00
  2.640524e+01    1.058571e+00
  2.643699e+01    1.033813e+00
  2.646874e+01    1.022374e+00
  2.650049e+01    1.039516e+00
  2.653224e+01    1.009253e+00
  2.656399e+01    9.940317e-01
  2.659574e+01    9.657921e-01
  2.662749e+01    9.788471e-01
  2.665924e+01    9.622288e-01
  2.669100e+01    9.508099e-01
  2.672275e+01    9.709650e-01
  2.675450e+01    9.658667e-01
  2.678625e+01    9.997205e-01
  2.681800e+01    9.686553e-01
  2.684975e+01    9.849048e-01
  2.688150e+01    9.870596e-01
  2.691325e+01    1.022751e+00
  2.694501e+01    1.016540e+00
  2.697676e+01    1.033573e+00
  2.700851e+01    1.116483e+00
  2.704026e+01    1.185802e+00
  2.707201e+01    1.307108e+00
  2.710376e+01    1.509616e+00
  2.713551e+01    1.697161e+00
  2.716726e+01    1.978219e+00
  2.719901e+01    2.156692e+00
  2.723077e+01    2.138924e+00
  2.726252e+01    1.990380e+00
  2.729427e+01    1.697608e+00
  2.732602e+01    1.470370e+00
  2.735777e+01    1.290309e+00
  2.738952e+01    1.163124e+00
  2.742127e+01    1.093638e+00
  2.745302e+01    1.033851e+00
  2.748477e+01    9.914691e-01
  2.751653e+01    9.675285e-01
  2.754828e+01    9.766338e-01
  2.758003e+01    9.527153e-01
  2.761178e+01    9.532989e-01
  2.764353e+01    9.363686e-01
  2.767528e+01    9.275798e-01
  2.770703e+01    9.207085e-01
  2.773878e+01    8.991293e-01
  2.777054e+01    9.015433e-01
  2.780229e+01    8.743070e-01
  2.783404e+01    9.063135e-01
  2.786579e+01    8.826696e-01
  2.789754e+01    8.728127e-01
  2.792929e+01    8.931799e-01
  2.796104e+01    8.358417e-01
  2.799279e+01    8.835471e-01
  2.802454e+01    8.694324e-01
  2.805630e+01    8.679944e-01
  2.808805e+01    8.448363e-01
  2.811980e+01    8.405796e-01
  2.815155e+01    8.477343e-01
  2.818330e+01    8.589815e-01
  2.821505e+01    8.537676e-01
  2.824680e+01    8.642982e-01
  2.827855e+01    8.695855e-01
  2.831030e+01    8.415875e-01
  2.834206e+01    8.356972e-01
  2.837381e+01    8.607740e-01
  2.840556e+01    8.556321e-01
  2.843731e+01    8.390613e-01
  2.846906e+01    8.340793e-01
  2.850081e+01    8.447031e-01
  2.853256e+01    8.524975e-01
  2.856431e+01    8.450052e-01
  2.859606e+01    8.370539e-01
  2.862782e+01    8.267831e-01
  2.865957e+01    8.129084e-01
  2.869132e+01    8.551387e-01
  2.872307e+01    8.418382e-01
  2.875482e+01    8.154501e-01
  2.878657e+01    8.283777e-01
  2.881832e+01    8.364877e-01
  2.885007e+01    8.005173e-01
  2.888183e+01    8.154076e-01
  2.891358e+01    8.222227e-01
  2.894533e+01    8.247470e-01
  2.897708e+01    8.194163e-01
  2.900883e+01    8.131133e-01
  2.904058e+01    8.289635e-01
  2.907233e+01    8.179579e-01
  2.910408e+01    8.181072e-01
  2.913583e+01    7.996356e-01
  2.916759e+01    8.313887e-01
  2.919934e+01    7.999068e-01
  2.923109e+01    7.977587e-01
  2.926284e+01    8.187317e-01
  2.929459e+01    8.108374e-01
  2.932634e+01    8.332638e-01
  2.935809e+01    7.976472e-01
  2.938984e+01    8.123879e-01
  2.942159e+01    7.972197e-01
  2.945335e+01    8.044610e-01
  2.948510e+01    8.124310e-01
  2.951685e+01    8.013291e-01
  2.954860e+01    8.131123e-01
  2.958035e+01    7.777838e-01
  2.961210e+01    8.047384e-01
  2.964385e+01    8.097223e-01
  2.967560e+01    8.248292e-01
  2.970736e+01    8.008292e-01
  2.973911e+01    8.101617e-01
  2.977086e+01    8.118337e-01
  2.980261e+01    7.919979e-01
  2.983436e+01    8.034884e-01
  2.986611e+01    7.940866e-01
  2.989786e+01    7.853893e-01
  2.992961e+01    7.935377e-01
  2.996136e+01    8.102344e-01
  2.999312e+01    8.119068e-01
  3.002487e+01    8.103783e-01
  3.005662e+01    8.096457e-01
  3.008837e+01    8.199900e-01
  3.012012e+01    7.875982e-01
  3.015187e+01    8.143817e-01
  3.018362e+01    7.962223e-01
  3.021537e+01    7.770168e-01
  3.024712e+01    7.825140e-01
  3.027888e+01    7.947063e-01
  3.031063e+01    7.860211e-01
  3.034238e+01    7.875966e-01
  3.037413e+01    8.035248e-01
  3.040588e+01    7.750526e-01
  3.043763e+01    7.960570e-01
  3.046938e+01    7.776577e-01
  3.050113e+01    7.778486e-01
  3.053288e+01    7.756059e-01
  3.056464e+01    7.732016e-01
  3.059639e+01    7.786165e-01
  3.062814e+01    7.729366e-01
  3.065989e+01    7.959123e-01
  3.069164e+01    7.886859e-01
  3.072339e+01    7.965470e-01
  3.075514e+01    7.871061e-01
  3.078689e+01    7.797549e-01
  3.081865e+01    7.796172e-01
  3.085040e+01    8.077815e-01
  3.088215e+01    7.791470e-01
  3.091390e+01    7.941277e-01
  3.094565e+01    7.757719e-01
  3.097740e+01    7.888501e-01
  3.100915e+01    7.880441e-01
  3.104090e+01    7.885845e-01
  3.107265e+01    7.880118e-01
  3.110441e+01    7.989040e-01
  3.113616e+01    7.589792e-01
  3.116791e+01    7.964849e-01
  3.119966e+01    7.962769e-01
  3.123141e+01    7.932711e-01
  3.126316e+01    8.438759e-01
  3.129491e+01    7.907397e-01
  3.132666e+01    7.920625e-01
  3.135841e+01    8.184748e-01
  3.139017e+01    8.128299e-01
  3.142192e+01    8.240782e-01
  3.145367e+01    8.315036e-01
  3.148542e+01    8.149867e-01
  3.151717e+01    8.432621e-01
  3.154892e+01    8.493793e-01
  3.158067e+01    8.416678e-01
  3.161242e+01    9.065257e-01
  3.164418e+01    9.033757e-01
  3.167593e+01    9.738159e-01
  3.170768e+01    1.048987e+00
  3.173943e+01    1.121037e+00
  3.177118e+01    1.262376e+00
  3.180293e+01    1.492198e+00
  3.183468e+01    1.692123e+00
  3.186643e+01    1.926018e+00
  3.189818e+01    2.063082e+00
  3.192994e+01    2.008936e+00
  3.196169e+01    1.821941e+00
  3.199344e+01    1.560546e+00
  3.202519e+01    1.344003e+00
  3.205694e+01    1.175168e+00
  3.208869e+01    1.042822e+00
  3.212044e+01    9.897190e-01
  3.215219e+01    9.303026e-01
  3.218394e+01    8.837845e-01
  3.221570e+01    8.595556e-01
  3.224745e+01    8.517869e-01
  3.227920e+01    8.345020e-01
  3.231095e+01    7.850467e-01
  3.234270e+01    8.025802e-01
  3.237445e+01    8.011081e-01
  3.240620e+01    8.064043e-01
  3.243795e+01    7.937216e-01
  3.246970e+01    7.964540e-01
  3.250146e+01    7.497950e-01
  3.253321e+01    7.782149e-01
  3.254908e+01    7.825356e-01