File: XRD/Reaction conditions/2024-07-27_003_Ru-CGO-ex_Reaction_dwell_000023_data_000095.dat
# == pyFAI calibration ==
# Distance Sample to Detector: 0.4 m
# PONI: 9.750e-02, 1.135e-01 m
# Rotations: -0.000175 0.000000 -0.000000 rad
#
# == Fit2d calibration ==
# Distance Sample-beamCenter: 400.000 mm
# Center: x=1514.000, y=1300.000 pix
# Tilt: 0.010 deg  TiltPlanRot: 0.010 deg
#
# Detector Detector	 Spline= None	 PixelSize= 7.500e-05, 7.500e-05 m
#    Detector has a mask: False
#    Detector has a dark current: False
#    detector has a flat field: False
#
# Wavelength: 6.888e-11 m
# Mask applied: user provided
# Dark current applied: False
# Flat field applied: False
# Polarization factor: 0.99
# Normalization factor: 1.0
# --> /home/myspot/data/2024_07_Rosario/Ru-CGO-ex/2024-07-27_003_Ru-CGO-ex_Reaction_dwell_000023_data_000095.dat
#       q_nm^-1             I
  2.003187e-02    2.226973e-02
  5.178302e-02    1.659433e-01
  8.353417e-02    5.005689e-02
  1.152853e-01    1.798156e-02
  1.470365e-01    2.769839e-02
  1.787876e-01    1.522264e-02
  2.105388e-01    2.526130e-02
  2.422899e-01    3.184851e-02
  2.740411e-01    5.185358e-02
  3.057922e-01    6.590253e-02
  3.375433e-01    1.850997e-02
  3.692945e-01    4.615647e-02
  4.010456e-01    4.631381e-02
  4.327968e-01    2.592941e-02
  4.645479e-01    6.224196e-02
  4.962991e-01    1.498209e-02
  5.280502e-01    1.978365e-02
  5.598014e-01    6.992694e-02
  5.915525e-01    7.191934e-02
  6.233037e-01    3.711136e-02
  6.550548e-01    6.148944e-02
  6.868060e-01    3.487468e-02
  7.185571e-01    2.371921e-02
  7.503083e-01    6.885870e-02
  7.820594e-01    1.127304e-01
  8.138106e-01    2.753633e-01
  8.455617e-01    3.708733e-01
  8.773129e-01    4.881426e-01
  9.090640e-01    6.839046e-01
  9.408152e-01    8.478083e-01
  9.725663e-01    1.049120e+00
  1.004317e+00    1.195102e+00
  1.036069e+00    1.398909e+00
  1.067820e+00    1.589903e+00
  1.099571e+00    1.563205e+00
  1.131322e+00    1.657939e+00
  1.163073e+00    1.534762e+00
  1.194824e+00    1.873129e+00
  1.226575e+00    2.276706e+00
  1.258327e+00    2.421756e+00
  1.290078e+00    2.645123e+00
  1.321829e+00    2.786374e+00
  1.353580e+00    2.701225e+00
  1.385331e+00    2.643528e+00
  1.417082e+00    2.914409e+00
  1.448834e+00    2.929126e+00
  1.480585e+00    3.172010e+00
  1.512336e+00    2.945875e+00
  1.544087e+00    3.134191e+00
  1.575838e+00    3.071127e+00
  1.607589e+00    3.199381e+00
  1.639340e+00    3.136235e+00
  1.671092e+00    2.995677e+00
  1.702843e+00    3.207440e+00
  1.734594e+00    3.121147e+00
  1.766345e+00    3.043339e+00
  1.798096e+00    3.005107e+00
  1.829847e+00    3.176961e+00
  1.861598e+00    3.102179e+00
  1.893350e+00    3.030656e+00
  1.925101e+00    3.081239e+00
  1.956852e+00    3.097766e+00
  1.988603e+00    3.052548e+00
  2.020354e+00    3.039150e+00
  2.052105e+00    3.156730e+00
  2.083856e+00    3.116312e+00
  2.115608e+00    3.087690e+00
  2.147359e+00    3.111811e+00
  2.179110e+00    3.196670e+00
  2.210861e+00    3.118036e+00
  2.242612e+00    3.174713e+00
  2.274363e+00    3.079369e+00
  2.306115e+00    3.198925e+00
  2.337866e+00    3.144843e+00
  2.369617e+00    3.256804e+00
  2.401368e+00    3.105965e+00
  2.433119e+00    3.193583e+00
  2.464870e+00    3.173431e+00
  2.496621e+00    3.251700e+00
  2.528373e+00    3.323277e+00
  2.560124e+00    3.142046e+00
  2.591875e+00    3.185372e+00
  2.623626e+00    3.221117e+00
  2.655377e+00    3.268989e+00
  2.687128e+00    3.238977e+00
  2.718879e+00    3.241445e+00
  2.750631e+00    3.318331e+00
  2.782382e+00    3.225144e+00
  2.814133e+00    3.260675e+00
  2.845884e+00    3.224412e+00
  2.877635e+00    3.295556e+00
  2.909386e+00    3.223869e+00
  2.941137e+00    3.220729e+00
  2.972889e+00    3.383133e+00
  3.004640e+00    3.422430e+00
  3.036391e+00    3.400200e+00
  3.068142e+00    3.358654e+00
  3.099893e+00    3.278802e+00
  3.131644e+00    3.270590e+00
  3.163395e+00    3.462078e+00
  3.195147e+00    3.301078e+00
  3.226898e+00    3.432276e+00
  3.258649e+00    3.388199e+00
  3.290400e+00    3.401021e+00
  3.322151e+00    3.325276e+00
  3.353902e+00    3.298652e+00
  3.385654e+00    3.295312e+00
  3.417405e+00    3.451844e+00
  3.449156e+00    3.429940e+00
  3.480907e+00    3.391160e+00
  3.512658e+00    3.431747e+00
  3.544409e+00    3.485908e+00
  3.576160e+00    3.533437e+00
  3.607912e+00    3.397732e+00
  3.639663e+00    3.403991e+00
  3.671414e+00    3.531858e+00
  3.703165e+00    3.530657e+00
  3.734916e+00    3.384991e+00
  3.766667e+00    3.523954e+00
  3.798418e+00    3.509485e+00
  3.830170e+00    3.483156e+00
  3.861921e+00    3.440097e+00
  3.893672e+00    3.506606e+00
  3.925423e+00    3.582578e+00
  3.957174e+00    3.566939e+00
  3.988925e+00    3.510472e+00
  4.020676e+00    3.555782e+00
  4.052428e+00    3.601919e+00
  4.084179e+00    3.457441e+00
  4.115930e+00    3.506361e+00
  4.147681e+00    3.489735e+00
  4.179432e+00    3.601807e+00
  4.211183e+00    3.520669e+00
  4.242935e+00    3.585456e+00
  4.274686e+00    3.580450e+00
  4.306437e+00    3.572742e+00
  4.338188e+00    3.510823e+00
  4.369939e+00    3.574655e+00
  4.401690e+00    3.585077e+00
  4.433441e+00    3.576933e+00
  4.465193e+00    3.508841e+00
  4.496944e+00    3.602729e+00
  4.528695e+00    3.652822e+00
  4.560446e+00    3.682213e+00
  4.592197e+00    3.653259e+00
  4.623948e+00    3.592350e+00
  4.655699e+00    3.603339e+00
  4.687451e+00    3.635938e+00
  4.719202e+00    3.617853e+00
  4.750953e+00    3.663324e+00
  4.782704e+00    3.625859e+00
  4.814455e+00    3.710367e+00
  4.846206e+00    3.624228e+00
  4.877957e+00    3.603899e+00
  4.909709e+00    3.601841e+00
  4.941460e+00    3.561080e+00
  4.973211e+00    3.644653e+00
  5.004962e+00    3.618670e+00
  5.036713e+00    3.692622e+00
  5.068464e+00    3.581851e+00
  5.100216e+00    3.746922e+00
  5.131967e+00    3.675856e+00
  5.163718e+00    3.691930e+00
  5.195469e+00    3.664352e+00
  5.227220e+00    3.663876e+00
  5.258971e+00    3.670674e+00
  5.290722e+00    3.637998e+00
  5.322474e+00    3.688396e+00
  5.354225e+00    3.674484e+00
  5.385976e+00    3.652265e+00
  5.417727e+00    3.623239e+00
  5.449478e+00    3.670449e+00
  5.481229e+00    3.567846e+00
  5.512980e+00    3.595327e+00
  5.544732e+00    3.564396e+00
  5.576483e+00    3.609561e+00
  5.608234e+00    3.642520e+00
  5.639985e+00    3.650536e+00
  5.671736e+00    3.647667e+00
  5.703487e+00    3.629754e+00
  5.735238e+00    3.588187e+00
  5.766990e+00    3.613009e+00
  5.798741e+00    3.619352e+00
  5.830492e+00    3.543525e+00
  5.862243e+00    3.581910e+00
  5.893994e+00    3.496958e+00
  5.925745e+00    3.600725e+00
  5.957497e+00    3.509618e+00
  5.989248e+00    3.570380e+00
  6.020999e+00    3.613121e+00
  6.052750e+00    3.519344e+00
  6.084501e+00    3.588347e+00
  6.116252e+00    3.572755e+00
  6.148003e+00    3.602301e+00
  6.179755e+00    3.568099e+00
  6.211506e+00    3.504053e+00
  6.243257e+00    3.562395e+00
  6.275008e+00    3.541243e+00
  6.306759e+00    3.541908e+00
  6.338510e+00    3.590367e+00
  6.370261e+00    3.573218e+00
  6.402013e+00    3.569826e+00
  6.433764e+00    3.531989e+00
  6.465515e+00    3.590862e+00
  6.497266e+00    3.684409e+00
  6.529017e+00    3.506518e+00
  6.560768e+00    3.620416e+00
  6.592519e+00    3.613633e+00
  6.624271e+00    3.564909e+00
  6.656022e+00    3.620981e+00
  6.687773e+00    3.528506e+00
  6.719524e+00    3.528867e+00
  6.751275e+00    3.570206e+00
  6.783026e+00    3.519519e+00
  6.814777e+00    3.549282e+00
  6.846529e+00    3.579846e+00
  6.878280e+00    3.532749e+00
  6.910031e+00    3.550966e+00
  6.941782e+00    3.521819e+00
  6.973533e+00    3.519313e+00
  7.005284e+00    3.560109e+00
  7.037036e+00    3.626362e+00
  7.068787e+00    3.498835e+00
  7.100538e+00    3.459201e+00
  7.132289e+00    3.497363e+00
  7.164040e+00    3.546543e+00
  7.195791e+00    3.557209e+00
  7.227542e+00    3.508024e+00
  7.259294e+00    3.592742e+00
  7.291045e+00    3.508218e+00
  7.322796e+00    3.524446e+00
  7.354547e+00    3.487116e+00
  7.386298e+00    3.465566e+00
  7.418049e+00    3.474208e+00
  7.449800e+00    3.540047e+00
  7.481552e+00    3.418266e+00
  7.513303e+00    3.469656e+00
  7.545054e+00    3.512743e+00
  7.576805e+00    3.545409e+00
  7.608556e+00    3.466778e+00
  7.640307e+00    3.438908e+00
  7.672058e+00    3.474673e+00
  7.703810e+00    3.409632e+00
  7.735561e+00    3.426388e+00
  7.767312e+00    3.575411e+00
  7.799063e+00    3.468475e+00
  7.830814e+00    3.443120e+00
  7.862565e+00    3.370915e+00
  7.894317e+00    3.425810e+00
  7.926068e+00    3.472949e+00
  7.957819e+00    3.433339e+00
  7.989570e+00    3.431436e+00
  8.021321e+00    3.388125e+00
  8.053072e+00    3.412367e+00
  8.084823e+00    3.469608e+00
  8.116575e+00    3.476819e+00
  8.148326e+00    3.446028e+00
  8.180077e+00    3.452465e+00
  8.211828e+00    3.497125e+00
  8.243579e+00    3.457309e+00
  8.275330e+00    3.392674e+00
  8.307081e+00    3.354124e+00
  8.338833e+00    3.409991e+00
  8.370584e+00    3.425337e+00
  8.402335e+00    3.420425e+00
  8.434086e+00    3.380141e+00
  8.465837e+00    3.376638e+00
  8.497588e+00    3.396184e+00
  8.529339e+00    3.391672e+00
  8.561091e+00    3.356420e+00
  8.592842e+00    3.406870e+00
  8.624593e+00    3.374279e+00
  8.656344e+00    3.378460e+00
  8.688095e+00    3.350181e+00
  8.719846e+00    3.402504e+00
  8.751598e+00    3.326863e+00
  8.783349e+00    3.346970e+00
  8.815100e+00    3.311522e+00
  8.846851e+00    3.337385e+00
  8.878602e+00    3.293080e+00
  8.910353e+00    3.325318e+00
  8.942104e+00    3.257325e+00
  8.973856e+00    3.259972e+00
  9.005607e+00    3.299390e+00
  9.037358e+00    3.319988e+00
  9.069109e+00    3.266013e+00
  9.100860e+00    3.276234e+00
  9.132611e+00    3.266411e+00
  9.164362e+00    3.203939e+00
  9.196114e+00    3.327217e+00
  9.227865e+00    3.282892e+00
  9.259616e+00    3.275873e+00
  9.291367e+00    3.273463e+00
  9.323118e+00    3.196932e+00
  9.354869e+00    3.183827e+00
  9.386620e+00    3.236905e+00
  9.418372e+00    3.144097e+00
  9.450123e+00    3.210883e+00
  9.481874e+00    3.178224e+00
  9.513625e+00    3.216664e+00
  9.545376e+00    3.189862e+00
  9.577127e+00    3.159452e+00
  9.608878e+00    3.228329e+00
  9.640630e+00    3.230868e+00
  9.672381e+00    3.198592e+00
  9.704132e+00    3.169363e+00
  9.735883e+00    3.179570e+00
  9.767634e+00    3.159406e+00
  9.799385e+00    3.146033e+00
  9.831137e+00    3.162428e+00
  9.862888e+00    3.213846e+00
  9.894639e+00    3.109671e+00
  9.926390e+00    3.175253e+00
  9.958141e+00    3.073095e+00
  9.989892e+00    3.180278e+00
  1.002164e+01    3.073181e+00
  1.005339e+01    3.139317e+00
  1.008515e+01    3.096856e+00
  1.011690e+01    3.042627e+00
  1.014865e+01    3.097992e+00
  1.018040e+01    3.082181e+00
  1.021215e+01    3.076667e+00
  1.024390e+01    3.043007e+00
  1.027565e+01    2.999810e+00
  1.030740e+01    2.972064e+00
  1.033915e+01    3.010632e+00
  1.037091e+01    3.071720e+00
  1.040266e+01    3.009840e+00
  1.043441e+01    3.114317e+00
  1.046616e+01    2.977246e+00
  1.049791e+01    3.001686e+00
  1.052966e+01    3.002446e+00
  1.056141e+01    3.001848e+00
  1.059316e+01    3.007673e+00
  1.062492e+01    2.999959e+00
  1.065667e+01    2.980272e+00
  1.068842e+01    2.941214e+00
  1.072017e+01    2.949294e+00
  1.075192e+01    2.928668e+00
  1.078367e+01    2.970863e+00
  1.081542e+01    2.874868e+00
  1.084717e+01    2.934158e+00
  1.087892e+01    2.853032e+00
  1.091068e+01    2.873506e+00
  1.094243e+01    2.908961e+00
  1.097418e+01    2.972223e+00
  1.100593e+01    2.916812e+00
  1.103768e+01    2.888654e+00
  1.106943e+01    2.912652e+00
  1.110118e+01    2.904762e+00
  1.113293e+01    2.879240e+00
  1.116468e+01    2.872030e+00
  1.119644e+01    2.837698e+00
  1.122819e+01    2.837405e+00
  1.125994e+01    2.854868e+00
  1.129169e+01    2.898756e+00
  1.132344e+01    2.837640e+00
  1.135519e+01    2.849628e+00
  1.138694e+01    2.847148e+00
  1.141869e+01    2.830179e+00
  1.145045e+01    2.799969e+00
  1.148220e+01    2.735827e+00
  1.151395e+01    2.822140e+00
  1.154570e+01    2.752813e+00
  1.157745e+01    2.792924e+00
  1.160920e+01    2.813605e+00
  1.164095e+01    2.772187e+00
  1.167270e+01    2.763675e+00
  1.170445e+01    2.759818e+00
  1.173621e+01    2.819535e+00
  1.176796e+01    2.751863e+00
  1.179971e+01    2.720250e+00
  1.183146e+01    2.738884e+00
  1.186321e+01    2.736913e+00
  1.189496e+01    2.741302e+00
  1.192671e+01    2.673031e+00
  1.195846e+01    2.711511e+00
  1.199021e+01    2.690556e+00
  1.202197e+01    2.708908e+00
  1.205372e+01    2.743340e+00
  1.208547e+01    2.681746e+00
  1.211722e+01    2.682860e+00
  1.214897e+01    2.691916e+00
  1.218072e+01    2.703317e+00
  1.221247e+01    2.697674e+00
  1.224422e+01    2.711864e+00
  1.227597e+01    2.696560e+00
  1.230773e+01    2.701426e+00
  1.233948e+01    2.648644e+00
  1.237123e+01    2.743556e+00
  1.240298e+01    2.679000e+00
  1.243473e+01    2.730542e+00
  1.246648e+01    2.685821e+00
  1.249823e+01    2.701195e+00
  1.252998e+01    2.698138e+00
  1.256174e+01    2.678220e+00
  1.259349e+01    2.795219e+00
  1.262524e+01    2.706284e+00
  1.265699e+01    2.789674e+00
  1.268874e+01    2.830614e+00
  1.272049e+01    2.864769e+00
  1.275224e+01    2.875491e+00
  1.278399e+01    2.941575e+00
  1.281574e+01    2.996742e+00
  1.284750e+01    3.188923e+00
  1.287925e+01    3.363672e+00
  1.291100e+01    3.593749e+00
  1.294275e+01    4.096205e+00
  1.297450e+01    4.783155e+00
  1.300625e+01    5.820184e+00
  1.303800e+01    7.595421e+00
  1.306975e+01    1.006842e+01
  1.310150e+01    1.261473e+01
  1.313326e+01    1.472973e+01
  1.316501e+01    1.619755e+01
  1.319676e+01    1.546496e+01
  1.322851e+01    1.246878e+01
  1.326026e+01    9.110519e+00
  1.329201e+01    6.775192e+00
  1.332376e+01    5.341893e+00
  1.335551e+01    4.420866e+00
  1.338727e+01    3.862799e+00
  1.341902e+01    3.458511e+00
  1.345077e+01    3.200446e+00
  1.348252e+01    3.136715e+00
  1.351427e+01    2.893109e+00
  1.354602e+01    2.802477e+00
  1.357777e+01    2.721106e+00
  1.360952e+01    2.686060e+00
  1.364127e+01    2.612672e+00
  1.367303e+01    2.583439e+00
  1.370478e+01    2.538986e+00
  1.373653e+01    2.550751e+00
  1.376828e+01    2.502253e+00
  1.380003e+01    2.469786e+00
  1.383178e+01    2.496136e+00
  1.386353e+01    2.400677e+00
  1.389528e+01    2.409482e+00
  1.392703e+01    2.358995e+00
  1.395879e+01    2.393791e+00
  1.399054e+01    2.412339e+00
  1.402229e+01    2.414273e+00
  1.405404e+01    2.350511e+00
  1.408579e+01    2.314497e+00
  1.411754e+01    2.293820e+00
  1.414929e+01    2.322259e+00
  1.418104e+01    2.377044e+00
  1.421279e+01    2.287683e+00
  1.424455e+01    2.278199e+00
  1.427630e+01    2.298181e+00
  1.430805e+01    2.271589e+00
  1.433980e+01    2.254782e+00
  1.437155e+01    2.215634e+00
  1.440330e+01    2.230093e+00
  1.443505e+01    2.216096e+00
  1.446680e+01    2.252829e+00
  1.449856e+01    2.235971e+00
  1.453031e+01    2.239902e+00
  1.456206e+01    2.221070e+00
  1.459381e+01    2.258753e+00
  1.462556e+01    2.220561e+00
  1.465731e+01    2.198493e+00
  1.468906e+01    2.197050e+00
  1.472081e+01    2.226472e+00
  1.475256e+01    2.231009e+00
  1.478432e+01    2.206676e+00
  1.481607e+01    2.207336e+00
  1.484782e+01    2.174744e+00
  1.487957e+01    2.219551e+00
  1.491132e+01    2.223909e+00
  1.494307e+01    2.321314e+00
  1.497482e+01    2.328440e+00
  1.500657e+01    2.468278e+00
  1.503832e+01    2.612095e+00
  1.507008e+01    2.787048e+00
  1.510183e+01    3.220490e+00
  1.513358e+01    3.834628e+00
  1.516533e+01    4.532352e+00
  1.519708e+01    5.195653e+00
  1.522883e+01    5.593173e+00
  1.526058e+01    5.837111e+00
  1.529233e+01    5.441309e+00
  1.532409e+01    4.582987e+00
  1.535584e+01    3.760947e+00
  1.538759e+01    3.163917e+00
  1.541934e+01    2.784170e+00
  1.545109e+01    2.513558e+00
  1.548284e+01    2.335821e+00
  1.551459e+01    2.296724e+00
  1.554634e+01    2.144521e+00
  1.557809e+01    2.131747e+00
  1.560985e+01    2.084856e+00
  1.564160e+01    2.055241e+00
  1.567335e+01    2.009131e+00
  1.570510e+01    1.992349e+00
  1.573685e+01    1.973333e+00
  1.576860e+01    1.927899e+00
  1.580035e+01    1.905792e+00
  1.583210e+01    1.920735e+00
  1.586385e+01    1.894136e+00
  1.589561e+01    1.941205e+00
  1.592736e+01    1.879683e+00
  1.595911e+01    1.886540e+00
  1.599086e+01    1.899903e+00
  1.602261e+01    1.904137e+00
  1.605436e+01    1.873405e+00
  1.608611e+01    1.875678e+00
  1.611786e+01    1.854836e+00
  1.614961e+01    1.839414e+00
  1.618137e+01    1.831012e+00
  1.621312e+01    1.815105e+00
  1.624487e+01    1.820347e+00
  1.627662e+01    1.786334e+00
  1.630837e+01    1.786447e+00
  1.634012e+01    1.805898e+00
  1.637187e+01    1.779803e+00
  1.640362e+01    1.753951e+00
  1.643538e+01    1.786582e+00
  1.646713e+01    1.748373e+00
  1.649888e+01    1.761412e+00
  1.653063e+01    1.745497e+00
  1.656238e+01    1.720845e+00
  1.659413e+01    1.729394e+00
  1.662588e+01    1.687854e+00
  1.665763e+01    1.715300e+00
  1.668938e+01    1.692019e+00
  1.672114e+01    1.682278e+00
  1.675289e+01    1.736230e+00
  1.678464e+01    1.706841e+00
  1.681639e+01    1.721179e+00
  1.684814e+01    1.687110e+00
  1.687989e+01    1.660855e+00
  1.691164e+01    1.666296e+00
  1.694339e+01    1.712607e+00
  1.697514e+01    1.694991e+00
  1.700690e+01    1.661778e+00
  1.703865e+01    1.674703e+00
  1.707040e+01    1.678706e+00
  1.710215e+01    1.673367e+00
  1.713390e+01    1.613074e+00
  1.716565e+01    1.672997e+00
  1.719740e+01    1.621332e+00
  1.722915e+01    1.636721e+00
  1.726091e+01    1.600308e+00
  1.729266e+01    1.633380e+00
  1.732441e+01    1.572181e+00
  1.735616e+01    1.612616e+00
  1.738791e+01    1.616506e+00
  1.741966e+01    1.570434e+00
  1.745141e+01    1.600892e+00
  1.748316e+01    1.573497e+00
  1.751491e+01    1.589063e+00
  1.754667e+01    1.564273e+00
  1.757842e+01    1.531322e+00
  1.761017e+01    1.594924e+00
  1.764192e+01    1.543794e+00
  1.767367e+01    1.564541e+00
  1.770542e+01    1.562136e+00
  1.773717e+01    1.548911e+00
  1.776892e+01    1.538126e+00
  1.780067e+01    1.539349e+00
  1.783243e+01    1.582829e+00
  1.786418e+01    1.567184e+00
  1.789593e+01    1.517083e+00
  1.792768e+01    1.493161e+00
  1.795943e+01    1.484185e+00
  1.799118e+01    1.487867e+00
  1.802293e+01    1.503844e+00
  1.805468e+01    1.486345e+00
  1.808643e+01    1.537281e+00
  1.811819e+01    1.471830e+00
  1.814994e+01    1.479332e+00
  1.818169e+01    1.505959e+00
  1.821344e+01    1.480871e+00
  1.824519e+01    1.485983e+00
  1.827694e+01    1.508700e+00
  1.830869e+01    1.484593e+00
  1.834044e+01    1.462588e+00
  1.837220e+01    1.444181e+00
  1.840395e+01    1.479072e+00
  1.843570e+01    1.436052e+00
  1.846745e+01    1.454962e+00
  1.849920e+01    1.442050e+00
  1.853095e+01    1.457932e+00
  1.856270e+01    1.446153e+00
  1.859445e+01    1.477971e+00
  1.862620e+01    1.437589e+00
  1.865796e+01    1.437873e+00
  1.868971e+01    1.441026e+00
  1.872146e+01    1.412932e+00
  1.875321e+01    1.413884e+00
  1.878496e+01    1.412997e+00
  1.881671e+01    1.408151e+00
  1.884846e+01    1.413140e+00
  1.888021e+01    1.418592e+00
  1.891196e+01    1.396149e+00
  1.894372e+01    1.360882e+00
  1.897547e+01    1.386133e+00
  1.900722e+01    1.393627e+00
  1.903897e+01    1.363567e+00
  1.907072e+01    1.352793e+00
  1.910247e+01    1.379123e+00
  1.913422e+01    1.373140e+00
  1.916597e+01    1.366712e+00
  1.919773e+01    1.379381e+00
  1.922948e+01    1.351493e+00
  1.926123e+01    1.359477e+00
  1.929298e+01    1.363519e+00
  1.932473e+01    1.332028e+00
  1.935648e+01    1.313554e+00
  1.938823e+01    1.350570e+00
  1.941998e+01    1.323802e+00
  1.945173e+01    1.344183e+00
  1.948349e+01    1.334446e+00
  1.951524e+01    1.318327e+00
  1.954699e+01    1.329905e+00
  1.957874e+01    1.330867e+00
  1.961049e+01    1.291244e+00
  1.964224e+01    1.349787e+00
  1.967399e+01    1.290450e+00
  1.970574e+01    1.307325e+00
  1.973749e+01    1.325889e+00
  1.976925e+01    1.282185e+00
  1.980100e+01    1.309785e+00
  1.983275e+01    1.286973e+00
  1.986450e+01    1.279023e+00
  1.989625e+01    1.290751e+00
  1.992800e+01    1.268695e+00
  1.995975e+01    1.299566e+00
  1.999150e+01    1.271001e+00
  2.002325e+01    1.277930e+00
  2.005501e+01    1.254290e+00
  2.008676e+01    1.293376e+00
  2.011851e+01    1.268699e+00
  2.015026e+01    1.276391e+00
  2.018201e+01    1.280245e+00
  2.021376e+01    1.268056e+00
  2.024551e+01    1.271801e+00
  2.027726e+01    1.245722e+00
  2.030902e+01    1.273602e+00
  2.034077e+01    1.253301e+00
  2.037252e+01    1.259931e+00
  2.040427e+01    1.270152e+00
  2.043602e+01    1.245528e+00
  2.046777e+01    1.241631e+00
  2.049952e+01    1.240714e+00
  2.053127e+01    1.239043e+00
  2.056302e+01    1.251761e+00
  2.059478e+01    1.235052e+00
  2.062653e+01    1.213157e+00
  2.065828e+01    1.221158e+00
  2.069003e+01    1.214869e+00
  2.072178e+01    1.214844e+00
  2.075353e+01    1.239542e+00
  2.078528e+01    1.203917e+00
  2.081703e+01    1.209615e+00
  2.084878e+01    1.245103e+00
  2.088054e+01    1.227976e+00
  2.091229e+01    1.204677e+00
  2.094404e+01    1.235150e+00
  2.097579e+01    1.221309e+00
  2.100754e+01    1.209448e+00
  2.103929e+01    1.224305e+00
  2.107104e+01    1.243547e+00
  2.110279e+01    1.227801e+00
  2.113455e+01    1.233657e+00
  2.116630e+01    1.229542e+00
  2.119805e+01    1.223119e+00
  2.122980e+01    1.251819e+00
  2.126155e+01    1.227629e+00
  2.129330e+01    1.245371e+00
  2.132505e+01    1.259115e+00
  2.135680e+01    1.282675e+00
  2.138855e+01    1.290178e+00
  2.142031e+01    1.347417e+00
  2.145206e+01    1.331884e+00
  2.148381e+01    1.390712e+00
  2.151556e+01    1.455346e+00
  2.154731e+01    1.498569e+00
  2.157906e+01    1.608945e+00
  2.161081e+01    1.760070e+00
  2.164256e+01    1.960073e+00
  2.167431e+01    2.270543e+00
  2.170607e+01    2.766003e+00
  2.173782e+01    3.521255e+00
  2.176957e+01    4.488746e+00
  2.180132e+01    5.756064e+00
  2.183307e+01    7.015066e+00
  2.186482e+01    8.313743e+00
  2.189657e+01    8.885251e+00
  2.192832e+01    8.275004e+00
  2.196007e+01    6.579262e+00
  2.199183e+01    4.918514e+00
  2.202358e+01    3.606949e+00
  2.205533e+01    2.870456e+00
  2.208708e+01    2.357546e+00
  2.211883e+01    1.965747e+00
  2.215058e+01    1.732400e+00
  2.218233e+01    1.627704e+00
  2.221408e+01    1.499499e+00
  2.224584e+01    1.427442e+00
  2.227759e+01    1.383440e+00
  2.230934e+01    1.294308e+00
  2.234109e+01    1.241977e+00
  2.237284e+01    1.246963e+00
  2.240459e+01    1.204108e+00
  2.243634e+01    1.192845e+00
  2.246809e+01    1.171689e+00
  2.249984e+01    1.141957e+00
  2.253160e+01    1.138860e+00
  2.256335e+01    1.127540e+00
  2.259510e+01    1.091867e+00
  2.262685e+01    1.106785e+00
  2.265860e+01    1.101448e+00
  2.269035e+01    1.089260e+00
  2.272210e+01    1.066874e+00
  2.275385e+01    1.077386e+00
  2.278560e+01    1.051662e+00
  2.281736e+01    1.039206e+00
  2.284911e+01    1.060124e+00
  2.288086e+01    1.019451e+00
  2.291261e+01    1.063757e+00
  2.294436e+01    1.023776e+00
  2.297611e+01    1.020833e+00
  2.300786e+01    1.010895e+00
  2.303961e+01    1.015701e+00
  2.307137e+01    1.003097e+00
  2.310312e+01    1.008966e+00
  2.313487e+01    1.004709e+00
  2.316662e+01    1.015187e+00
  2.319837e+01    9.855983e-01
  2.323012e+01    9.902272e-01
  2.326187e+01    9.825502e-01
  2.329362e+01    9.942201e-01
  2.332537e+01    9.762702e-01
  2.335713e+01    9.725194e-01
  2.338888e+01    9.736972e-01
  2.342063e+01    9.580733e-01
  2.345238e+01    9.576236e-01
  2.348413e+01    9.595966e-01
  2.351588e+01    9.603769e-01
  2.354763e+01    9.750026e-01
  2.357938e+01    9.574602e-01
  2.361113e+01    9.622952e-01
  2.364289e+01    9.466855e-01
  2.367464e+01    9.529862e-01
  2.370639e+01    9.594485e-01
  2.373814e+01    9.539098e-01
  2.376989e+01    9.223798e-01
  2.380164e+01    9.254081e-01
  2.383339e+01    9.096425e-01
  2.386514e+01    9.182794e-01
  2.389689e+01    8.919857e-01
  2.392865e+01    9.198076e-01
  2.396040e+01    9.059862e-01
  2.399215e+01    9.024816e-01
  2.402390e+01    8.961423e-01
  2.405565e+01    8.861050e-01
  2.408740e+01    9.216524e-01
  2.411915e+01    8.762525e-01
  2.415090e+01    8.731767e-01
  2.418266e+01    8.737778e-01
  2.421441e+01    9.043357e-01
  2.424616e+01    8.815535e-01
  2.427791e+01    8.852150e-01
  2.430966e+01    8.996285e-01
  2.434141e+01    8.869920e-01
  2.437316e+01    9.018007e-01
  2.440491e+01    8.751683e-01
  2.443666e+01    8.870279e-01
  2.446842e+01    8.930544e-01
  2.450017e+01    8.863883e-01
  2.453192e+01    8.808631e-01
  2.456367e+01    8.906571e-01
  2.459542e+01    8.819866e-01
  2.462717e+01    8.667251e-01
  2.465892e+01    8.861387e-01
  2.469067e+01    8.846381e-01
  2.472242e+01    8.831167e-01
  2.475418e+01    9.020520e-01
  2.478593e+01    8.683415e-01
  2.481768e+01    8.972694e-01
  2.484943e+01    8.999433e-01
  2.488118e+01    9.044698e-01
  2.491293e+01    8.726729e-01
  2.494468e+01    9.196327e-01
  2.497643e+01    9.054733e-01
  2.500819e+01    8.907925e-01
  2.503994e+01    8.983631e-01
  2.507169e+01    8.857887e-01
  2.510344e+01    8.841285e-01
  2.513519e+01    8.964254e-01
  2.516694e+01    9.180019e-01
  2.519869e+01    9.568495e-01
  2.523044e+01    9.284563e-01
  2.526219e+01    9.456627e-01
  2.529395e+01    9.313555e-01
  2.532570e+01    9.761850e-01
  2.535745e+01    9.599342e-01
  2.538920e+01    9.955406e-01
  2.542095e+01    1.040532e+00
  2.545270e+01    1.027692e+00
  2.548445e+01    1.040752e+00
  2.551620e+01    1.078908e+00
  2.554795e+01    1.117202e+00
  2.557971e+01    1.153552e+00
  2.561146e+01    1.219481e+00
  2.564321e+01    1.315601e+00
  2.567496e+01    1.419825e+00
  2.570671e+01    1.583570e+00
  2.573846e+01    1.821294e+00
  2.577021e+01    2.221493e+00
  2.580196e+01    2.774922e+00
  2.583371e+01    3.572994e+00
  2.586547e+01    4.653652e+00
  2.589722e+01    5.803938e+00
  2.592897e+01    6.691462e+00
  2.596072e+01    7.119185e+00
  2.599247e+01    6.550819e+00
  2.602422e+01    5.340146e+00
  2.605597e+01    4.021124e+00
  2.608772e+01    3.027315e+00
  2.611948e+01    2.377312e+00
  2.615123e+01    1.943639e+00
  2.618298e+01    1.650829e+00
  2.621473e+01    1.490433e+00
  2.624648e+01    1.363112e+00
  2.627823e+01    1.252714e+00
  2.630998e+01    1.181758e+00
  2.634173e+01    1.113434e+00
  2.637348e+01    1.096053e+00
  2.640524e+01    1.055569e+00
  2.643699e+01    1.015899e+00
  2.646874e+01    1.011304e+00
  2.650049e+01    1.010500e+00
  2.653224e+01    9.985381e-01
  2.656399e+01    9.657237e-01
  2.659574e+01    1.001889e+00
  2.662749e+01    9.711992e-01
  2.665924e+01    9.694161e-01
  2.669100e+01    9.665177e-01
  2.672275e+01    9.477965e-01
  2.675450e+01    9.565699e-01
  2.678625e+01    9.823323e-01
  2.681800e+01    9.782861e-01
  2.684975e+01    9.766762e-01
  2.688150e+01    9.754630e-01
  2.691325e+01    1.014307e+00
  2.694501e+01    1.021918e+00
  2.697676e+01    1.069753e+00
  2.700851e+01    1.127433e+00
  2.704026e+01    1.189849e+00
  2.707201e+01    1.343397e+00
  2.710376e+01    1.447054e+00
  2.713551e+01    1.698845e+00
  2.716726e+01    1.948519e+00
  2.719901e+01    2.128571e+00
  2.723077e+01    2.165090e+00
  2.726252e+01    1.956412e+00
  2.729427e+01    1.676063e+00
  2.732602e+01    1.421479e+00
  2.735777e+01    1.279847e+00
  2.738952e+01    1.170109e+00
  2.742127e+01    1.105628e+00
  2.745302e+01    1.035777e+00
  2.748477e+01    9.974445e-01
  2.751653e+01    9.850067e-01
  2.754828e+01    9.527631e-01
  2.758003e+01    9.442543e-01
  2.761178e+01    9.256281e-01
  2.764353e+01    9.172835e-01
  2.767528e+01    9.256136e-01
  2.770703e+01    8.974051e-01
  2.773878e+01    8.752171e-01
  2.777054e+01    8.890114e-01
  2.780229e+01    8.924299e-01
  2.783404e+01    8.783985e-01
  2.786579e+01    9.035645e-01
  2.789754e+01    8.772377e-01
  2.792929e+01    8.638676e-01
  2.796104e+01    8.766932e-01
  2.799279e+01    8.644281e-01
  2.802454e+01    8.563950e-01
  2.805630e+01    8.861085e-01
  2.808805e+01    8.736429e-01
  2.811980e+01    8.393222e-01
  2.815155e+01    8.614771e-01
  2.818330e+01    8.435931e-01
  2.821505e+01    8.581437e-01
  2.824680e+01    8.275654e-01
  2.827855e+01    8.308980e-01
  2.831030e+01    8.545915e-01
  2.834206e+01    8.405877e-01
  2.837381e+01    8.660030e-01
  2.840556e+01    8.577707e-01
  2.843731e+01    8.349254e-01
  2.846906e+01    8.279667e-01
  2.850081e+01    8.290002e-01
  2.853256e+01    8.176221e-01
  2.856431e+01    8.371774e-01
  2.859606e+01    8.430425e-01
  2.862782e+01    8.399931e-01
  2.865957e+01    8.412111e-01
  2.869132e+01    8.377229e-01
  2.872307e+01    8.281088e-01
  2.875482e+01    8.132372e-01
  2.878657e+01    8.437887e-01
  2.881832e+01    8.084703e-01
  2.885007e+01    8.055476e-01
  2.888183e+01    8.079405e-01
  2.891358e+01    8.030245e-01
  2.894533e+01    8.155337e-01
  2.897708e+01    8.119894e-01
  2.900883e+01    8.239070e-01
  2.904058e+01    7.927755e-01
  2.907233e+01    8.142914e-01
  2.910408e+01    8.256483e-01
  2.913583e+01    8.118647e-01
  2.916759e+01    8.217230e-01
  2.919934e+01    8.258209e-01
  2.923109e+01    8.307028e-01
  2.926284e+01    8.059433e-01
  2.929459e+01    8.006185e-01
  2.932634e+01    8.102917e-01
  2.935809e+01    7.778625e-01
  2.938984e+01    7.782158e-01
  2.942159e+01    8.017871e-01
  2.945335e+01    8.121641e-01
  2.948510e+01    8.072026e-01
  2.951685e+01    8.049870e-01
  2.954860e+01    7.825605e-01
  2.958035e+01    8.073220e-01
  2.961210e+01    8.087278e-01
  2.964385e+01    7.944628e-01
  2.967560e+01    8.032733e-01
  2.970736e+01    8.231645e-01
  2.973911e+01    7.870617e-01
  2.977086e+01    7.911897e-01
  2.980261e+01    7.876939e-01
  2.983436e+01    8.062461e-01
  2.986611e+01    8.007343e-01
  2.989786e+01    8.015618e-01
  2.992961e+01    7.931600e-01
  2.996136e+01    7.865046e-01
  2.999312e+01    7.903832e-01
  3.002487e+01    8.396909e-01
  3.005662e+01    7.989416e-01
  3.008837e+01    8.143460e-01
  3.012012e+01    7.969557e-01
  3.015187e+01    7.736863e-01
  3.018362e+01    7.752815e-01
  3.021537e+01    7.759056e-01
  3.024712e+01    7.840716e-01
  3.027888e+01    7.854395e-01
  3.031063e+01    7.869219e-01
  3.034238e+01    7.928665e-01
  3.037413e+01    7.798768e-01
  3.040588e+01    7.875245e-01
  3.043763e+01    7.809076e-01
  3.046938e+01    7.683882e-01
  3.050113e+01    7.852579e-01
  3.053288e+01    7.872297e-01
  3.056464e+01    7.825410e-01
  3.059639e+01    7.866054e-01
  3.062814e+01    7.943807e-01
  3.065989e+01    7.808052e-01
  3.069164e+01    7.498330e-01
  3.072339e+01    7.990391e-01
  3.075514e+01    7.880078e-01
  3.078689e+01    7.838920e-01
  3.081865e+01    7.897249e-01
  3.085040e+01    7.941020e-01
  3.088215e+01    7.842987e-01
  3.091390e+01    7.671051e-01
  3.094565e+01    7.933113e-01
  3.097740e+01    7.965880e-01
  3.100915e+01    7.698948e-01
  3.104090e+01    7.789505e-01
  3.107265e+01    7.836601e-01
  3.110441e+01    7.772399e-01
  3.113616e+01    7.815914e-01
  3.116791e+01    7.805184e-01
  3.119966e+01    8.076755e-01
  3.123141e+01    8.296733e-01
  3.126316e+01    8.109485e-01
  3.129491e+01    8.022780e-01
  3.132666e+01    8.077274e-01
  3.135841e+01    8.360699e-01
  3.139017e+01    8.009641e-01
  3.142192e+01    7.944789e-01
  3.145367e+01    8.237996e-01
  3.148542e+01    8.333801e-01
  3.151717e+01    8.356194e-01
  3.154892e+01    8.687003e-01
  3.158067e+01    8.533900e-01
  3.161242e+01    8.792155e-01
  3.164418e+01    9.291282e-01
  3.167593e+01    9.620644e-01
  3.170768e+01    9.873787e-01
  3.173943e+01    1.127457e+00
  3.177118e+01    1.268041e+00
  3.180293e+01    1.425929e+00
  3.183468e+01    1.668821e+00
  3.186643e+01    1.938198e+00
  3.189818e+01    2.077566e+00
  3.192994e+01    2.049685e+00
  3.196169e+01    1.821607e+00
  3.199344e+01    1.547937e+00
  3.202519e+01    1.304371e+00
  3.205694e+01    1.174355e+00
  3.208869e+01    1.068910e+00
  3.212044e+01    9.779999e-01
  3.215219e+01    9.139032e-01
  3.218394e+01    8.733777e-01
  3.221570e+01    8.530537e-01
  3.224745e+01    8.358833e-01
  3.227920e+01    8.012363e-01
  3.231095e+01    8.367819e-01
  3.234270e+01    7.934906e-01
  3.237445e+01    7.759098e-01
  3.240620e+01    7.989788e-01
  3.243795e+01    7.890922e-01
  3.246970e+01    7.814546e-01
  3.250146e+01    7.759517e-01
  3.253321e+01    7.804434e-01
  3.254908e+01    7.855651e-01