File: XRD/Reaction conditions/2024-07-27_003_Ru-CGO-ex_Reaction_dwell_000023_data_000169.dat
# == pyFAI calibration ==
# Distance Sample to Detector: 0.4 m
# PONI: 9.750e-02, 1.135e-01 m
# Rotations: -0.000175 0.000000 -0.000000 rad
#
# == Fit2d calibration ==
# Distance Sample-beamCenter: 400.000 mm
# Center: x=1514.000, y=1300.000 pix
# Tilt: 0.010 deg  TiltPlanRot: 0.010 deg
#
# Detector Detector	 Spline= None	 PixelSize= 7.500e-05, 7.500e-05 m
#    Detector has a mask: False
#    Detector has a dark current: False
#    detector has a flat field: False
#
# Wavelength: 6.888e-11 m
# Mask applied: user provided
# Dark current applied: False
# Flat field applied: False
# Polarization factor: 0.99
# Normalization factor: 1.0
# --> /home/myspot/data/2024_07_Rosario/Ru-CGO-ex/2024-07-27_003_Ru-CGO-ex_Reaction_dwell_000023_data_000169.dat
#       q_nm^-1             I
  2.003187e-02    0.000000e+00
  5.178302e-02    1.237004e-01
  8.353417e-02    2.270156e-01
  1.152853e-01    6.970998e-02
  1.470365e-01    4.085775e-02
  1.787876e-01    1.442434e-02
  2.105388e-01    6.412052e-02
  2.422899e-01    6.371594e-02
  2.740411e-01    2.414741e-02
  3.057922e-01    4.392048e-02
  3.375433e-01    2.591840e-02
  3.692945e-01    1.338247e-02
  4.010456e-01    6.640551e-02
  4.327968e-01    3.032211e-02
  4.645479e-01    4.797468e-02
  4.962991e-01    6.043532e-02
  5.280502e-01    2.107284e-02
  5.598014e-01    1.963461e-02
  5.915525e-01    3.749632e-02
  6.233037e-01    4.900609e-02
  6.550548e-01    2.001850e-02
  6.868060e-01    2.971898e-02
  7.185571e-01    4.125907e-02
  7.503083e-01    5.040061e-02
  7.820594e-01    1.407832e-01
  8.138106e-01    2.917120e-01
  8.455617e-01    4.418660e-01
  8.773129e-01    4.787338e-01
  9.090640e-01    6.669399e-01
  9.408152e-01    8.807278e-01
  9.725663e-01    1.055325e+00
  1.004317e+00    1.269839e+00
  1.036069e+00    1.278706e+00
  1.067820e+00    1.460004e+00
  1.099571e+00    1.453889e+00
  1.131322e+00    1.602532e+00
  1.163073e+00    1.656588e+00
  1.194824e+00    1.705141e+00
  1.226575e+00    2.255994e+00
  1.258327e+00    2.634645e+00
  1.290078e+00    2.642492e+00
  1.321829e+00    2.703133e+00
  1.353580e+00    2.677122e+00
  1.385331e+00    2.841811e+00
  1.417082e+00    2.878461e+00
  1.448834e+00    2.927753e+00
  1.480585e+00    3.090693e+00
  1.512336e+00    2.955849e+00
  1.544087e+00    3.110637e+00
  1.575838e+00    3.160733e+00
  1.607589e+00    3.184817e+00
  1.639340e+00    3.049875e+00
  1.671092e+00    3.054943e+00
  1.702843e+00    3.179332e+00
  1.734594e+00    3.153315e+00
  1.766345e+00    3.063459e+00
  1.798096e+00    3.026827e+00
  1.829847e+00    2.959805e+00
  1.861598e+00    3.050231e+00
  1.893350e+00    3.022624e+00
  1.925101e+00    3.106627e+00
  1.956852e+00    3.167886e+00
  1.988603e+00    3.044129e+00
  2.020354e+00    2.928793e+00
  2.052105e+00    3.105053e+00
  2.083856e+00    3.065882e+00
  2.115608e+00    2.961536e+00
  2.147359e+00    3.049515e+00
  2.179110e+00    2.966349e+00
  2.210861e+00    3.006289e+00
  2.242612e+00    3.128150e+00
  2.274363e+00    3.063005e+00
  2.306115e+00    3.142569e+00
  2.337866e+00    3.189711e+00
  2.369617e+00    3.092099e+00
  2.401368e+00    3.195493e+00
  2.433119e+00    3.073157e+00
  2.464870e+00    3.223449e+00
  2.496621e+00    3.196933e+00
  2.528373e+00    3.173193e+00
  2.560124e+00    3.168241e+00
  2.591875e+00    3.150320e+00
  2.623626e+00    3.234974e+00
  2.655377e+00    3.153818e+00
  2.687128e+00    3.199795e+00
  2.718879e+00    3.137161e+00
  2.750631e+00    3.325324e+00
  2.782382e+00    3.213388e+00
  2.814133e+00    3.197850e+00
  2.845884e+00    3.192544e+00
  2.877635e+00    3.271764e+00
  2.909386e+00    3.356141e+00
  2.941137e+00    3.378662e+00
  2.972889e+00    3.254262e+00
  3.004640e+00    3.241685e+00
  3.036391e+00    3.387155e+00
  3.068142e+00    3.303475e+00
  3.099893e+00    3.336477e+00
  3.131644e+00    3.319813e+00
  3.163395e+00    3.342161e+00
  3.195147e+00    3.406596e+00
  3.226898e+00    3.453315e+00
  3.258649e+00    3.372968e+00
  3.290400e+00    3.408590e+00
  3.322151e+00    3.364653e+00
  3.353902e+00    3.400699e+00
  3.385654e+00    3.367419e+00
  3.417405e+00    3.382146e+00
  3.449156e+00    3.363796e+00
  3.480907e+00    3.492490e+00
  3.512658e+00    3.488986e+00
  3.544409e+00    3.469918e+00
  3.576160e+00    3.399116e+00
  3.607912e+00    3.431898e+00
  3.639663e+00    3.465059e+00
  3.671414e+00    3.353842e+00
  3.703165e+00    3.441107e+00
  3.734916e+00    3.407424e+00
  3.766667e+00    3.584973e+00
  3.798418e+00    3.306482e+00
  3.830170e+00    3.448043e+00
  3.861921e+00    3.466987e+00
  3.893672e+00    3.388495e+00
  3.925423e+00    3.513594e+00
  3.957174e+00    3.516062e+00
  3.988925e+00    3.480386e+00
  4.020676e+00    3.491308e+00
  4.052428e+00    3.514495e+00
  4.084179e+00    3.439416e+00
  4.115930e+00    3.598092e+00
  4.147681e+00    3.498182e+00
  4.179432e+00    3.503061e+00
  4.211183e+00    3.529223e+00
  4.242935e+00    3.522647e+00
  4.274686e+00    3.578174e+00
  4.306437e+00    3.612390e+00
  4.338188e+00    3.528924e+00
  4.369939e+00    3.605860e+00
  4.401690e+00    3.437163e+00
  4.433441e+00    3.510740e+00
  4.465193e+00    3.612960e+00
  4.496944e+00    3.541616e+00
  4.528695e+00    3.554924e+00
  4.560446e+00    3.519952e+00
  4.592197e+00    3.629179e+00
  4.623948e+00    3.642828e+00
  4.655699e+00    3.549422e+00
  4.687451e+00    3.623128e+00
  4.719202e+00    3.564218e+00
  4.750953e+00    3.540497e+00
  4.782704e+00    3.483993e+00
  4.814455e+00    3.606900e+00
  4.846206e+00    3.608889e+00
  4.877957e+00    3.594940e+00
  4.909709e+00    3.545788e+00
  4.941460e+00    3.633355e+00
  4.973211e+00    3.701400e+00
  5.004962e+00    3.571752e+00
  5.036713e+00    3.592720e+00
  5.068464e+00    3.497679e+00
  5.100216e+00    3.638125e+00
  5.131967e+00    3.637124e+00
  5.163718e+00    3.577822e+00
  5.195469e+00    3.644333e+00
  5.227220e+00    3.551570e+00
  5.258971e+00    3.693401e+00
  5.290722e+00    3.655277e+00
  5.322474e+00    3.594138e+00
  5.354225e+00    3.683478e+00
  5.385976e+00    3.636490e+00
  5.417727e+00    3.645832e+00
  5.449478e+00    3.531335e+00
  5.481229e+00    3.568551e+00
  5.512980e+00    3.640593e+00
  5.544732e+00    3.597827e+00
  5.576483e+00    3.627713e+00
  5.608234e+00    3.546649e+00
  5.639985e+00    3.597673e+00
  5.671736e+00    3.624283e+00
  5.703487e+00    3.496925e+00
  5.735238e+00    3.546421e+00
  5.766990e+00    3.560741e+00
  5.798741e+00    3.475759e+00
  5.830492e+00    3.399852e+00
  5.862243e+00    3.580411e+00
  5.893994e+00    3.442395e+00
  5.925745e+00    3.464837e+00
  5.957497e+00    3.481341e+00
  5.989248e+00    3.412325e+00
  6.020999e+00    3.537648e+00
  6.052750e+00    3.553768e+00
  6.084501e+00    3.580943e+00
  6.116252e+00    3.494884e+00
  6.148003e+00    3.460739e+00
  6.179755e+00    3.514868e+00
  6.211506e+00    3.545635e+00
  6.243257e+00    3.470804e+00
  6.275008e+00    3.464012e+00
  6.306759e+00    3.484757e+00
  6.338510e+00    3.611499e+00
  6.370261e+00    3.529021e+00
  6.402013e+00    3.518732e+00
  6.433764e+00    3.606319e+00
  6.465515e+00    3.493067e+00
  6.497266e+00    3.561038e+00
  6.529017e+00    3.521883e+00
  6.560768e+00    3.590133e+00
  6.592519e+00    3.535004e+00
  6.624271e+00    3.523435e+00
  6.656022e+00    3.525912e+00
  6.687773e+00    3.470139e+00
  6.719524e+00    3.489612e+00
  6.751275e+00    3.487853e+00
  6.783026e+00    3.613055e+00
  6.814777e+00    3.445227e+00
  6.846529e+00    3.485946e+00
  6.878280e+00    3.538740e+00
  6.910031e+00    3.431059e+00
  6.941782e+00    3.457586e+00
  6.973533e+00    3.475256e+00
  7.005284e+00    3.520422e+00
  7.037036e+00    3.550136e+00
  7.068787e+00    3.518133e+00
  7.100538e+00    3.473693e+00
  7.132289e+00    3.441110e+00
  7.164040e+00    3.469743e+00
  7.195791e+00    3.449944e+00
  7.227542e+00    3.502901e+00
  7.259294e+00    3.551169e+00
  7.291045e+00    3.446358e+00
  7.322796e+00    3.424249e+00
  7.354547e+00    3.505908e+00
  7.386298e+00    3.465412e+00
  7.418049e+00    3.420035e+00
  7.449800e+00    3.460381e+00
  7.481552e+00    3.410640e+00
  7.513303e+00    3.378221e+00
  7.545054e+00    3.379278e+00
  7.576805e+00    3.417744e+00
  7.608556e+00    3.491802e+00
  7.640307e+00    3.465325e+00
  7.672058e+00    3.373956e+00
  7.703810e+00    3.406928e+00
  7.735561e+00    3.392673e+00
  7.767312e+00    3.432437e+00
  7.799063e+00    3.375193e+00
  7.830814e+00    3.370868e+00
  7.862565e+00    3.335084e+00
  7.894317e+00    3.427114e+00
  7.926068e+00    3.403395e+00
  7.957819e+00    3.312969e+00
  7.989570e+00    3.322195e+00
  8.021321e+00    3.408612e+00
  8.053072e+00    3.353707e+00
  8.084823e+00    3.420228e+00
  8.116575e+00    3.443649e+00
  8.148326e+00    3.440559e+00
  8.180077e+00    3.418437e+00
  8.211828e+00    3.417112e+00
  8.243579e+00    3.405823e+00
  8.275330e+00    3.362320e+00
  8.307081e+00    3.404949e+00
  8.338833e+00    3.324919e+00
  8.370584e+00    3.395152e+00
  8.402335e+00    3.382361e+00
  8.434086e+00    3.354661e+00
  8.465837e+00    3.373239e+00
  8.497588e+00    3.362518e+00
  8.529339e+00    3.336828e+00
  8.561091e+00    3.318741e+00
  8.592842e+00    3.347888e+00
  8.624593e+00    3.335322e+00
  8.656344e+00    3.337770e+00
  8.688095e+00    3.316866e+00
  8.719846e+00    3.293324e+00
  8.751598e+00    3.308670e+00
  8.783349e+00    3.275807e+00
  8.815100e+00    3.234141e+00
  8.846851e+00    3.243950e+00
  8.878602e+00    3.277241e+00
  8.910353e+00    3.244064e+00
  8.942104e+00    3.281659e+00
  8.973856e+00    3.307181e+00
  9.005607e+00    3.274507e+00
  9.037358e+00    3.188861e+00
  9.069109e+00    3.308524e+00
  9.100860e+00    3.245995e+00
  9.132611e+00    3.189147e+00
  9.164362e+00    3.212051e+00
  9.196114e+00    3.245668e+00
  9.227865e+00    3.194429e+00
  9.259616e+00    3.216917e+00
  9.291367e+00    3.193726e+00
  9.323118e+00    3.200970e+00
  9.354869e+00    3.166375e+00
  9.386620e+00    3.182502e+00
  9.418372e+00    3.171218e+00
  9.450123e+00    3.134575e+00
  9.481874e+00    3.175361e+00
  9.513625e+00    3.234664e+00
  9.545376e+00    3.135093e+00
  9.577127e+00    3.199262e+00
  9.608878e+00    3.162447e+00
  9.640630e+00    3.123352e+00
  9.672381e+00    3.164834e+00
  9.704132e+00    3.160129e+00
  9.735883e+00    3.164692e+00
  9.767634e+00    3.137805e+00
  9.799385e+00    3.096160e+00
  9.831137e+00    3.110345e+00
  9.862888e+00    3.122082e+00
  9.894639e+00    3.131955e+00
  9.926390e+00    3.106973e+00
  9.958141e+00    3.111081e+00
  9.989892e+00    3.110714e+00
  1.002164e+01    3.140668e+00
  1.005339e+01    3.107207e+00
  1.008515e+01    3.041658e+00
  1.011690e+01    3.051630e+00
  1.014865e+01    3.005278e+00
  1.018040e+01    3.030226e+00
  1.021215e+01    3.040434e+00
  1.024390e+01    3.008818e+00
  1.027565e+01    3.060779e+00
  1.030740e+01    3.058587e+00
  1.033915e+01    3.010075e+00
  1.037091e+01    3.003354e+00
  1.040266e+01    2.974402e+00
  1.043441e+01    3.016615e+00
  1.046616e+01    3.003911e+00
  1.049791e+01    2.944383e+00
  1.052966e+01    2.954811e+00
  1.056141e+01    2.943662e+00
  1.059316e+01    2.986464e+00
  1.062492e+01    2.959502e+00
  1.065667e+01    2.886443e+00
  1.068842e+01    2.971678e+00
  1.072017e+01    2.905255e+00
  1.075192e+01    2.913381e+00
  1.078367e+01    2.896472e+00
  1.081542e+01    2.851183e+00
  1.084717e+01    2.918250e+00
  1.087892e+01    2.925532e+00
  1.091068e+01    2.894641e+00
  1.094243e+01    2.838251e+00
  1.097418e+01    2.876676e+00
  1.100593e+01    2.901395e+00
  1.103768e+01    2.873512e+00
  1.106943e+01    2.874896e+00
  1.110118e+01    2.881036e+00
  1.113293e+01    2.858460e+00
  1.116468e+01    2.895462e+00
  1.119644e+01    2.832333e+00
  1.122819e+01    2.823900e+00
  1.125994e+01    2.792344e+00
  1.129169e+01    2.811847e+00
  1.132344e+01    2.834673e+00
  1.135519e+01    2.775458e+00
  1.138694e+01    2.810511e+00
  1.141869e+01    2.801420e+00
  1.145045e+01    2.786151e+00
  1.148220e+01    2.811609e+00
  1.151395e+01    2.808272e+00
  1.154570e+01    2.788722e+00
  1.157745e+01    2.717081e+00
  1.160920e+01    2.715724e+00
  1.164095e+01    2.742801e+00
  1.167270e+01    2.720735e+00
  1.170445e+01    2.792648e+00
  1.173621e+01    2.748718e+00
  1.176796e+01    2.725215e+00
  1.179971e+01    2.736041e+00
  1.183146e+01    2.719850e+00
  1.186321e+01    2.681121e+00
  1.189496e+01    2.679546e+00
  1.192671e+01    2.717868e+00
  1.195846e+01    2.721881e+00
  1.199021e+01    2.630532e+00
  1.202197e+01    2.692418e+00
  1.205372e+01    2.659099e+00
  1.208547e+01    2.650488e+00
  1.211722e+01    2.661692e+00
  1.214897e+01    2.679120e+00
  1.218072e+01    2.652723e+00
  1.221247e+01    2.649248e+00
  1.224422e+01    2.644893e+00
  1.227597e+01    2.619860e+00
  1.230773e+01    2.664585e+00
  1.233948e+01    2.651786e+00
  1.237123e+01    2.638283e+00
  1.240298e+01    2.653094e+00
  1.243473e+01    2.641568e+00
  1.246648e+01    2.694384e+00
  1.249823e+01    2.657903e+00
  1.252998e+01    2.656430e+00
  1.256174e+01    2.711919e+00
  1.259349e+01    2.714111e+00
  1.262524e+01    2.700855e+00
  1.265699e+01    2.781055e+00
  1.268874e+01    2.785921e+00
  1.272049e+01    2.861094e+00
  1.275224e+01    2.830629e+00
  1.278399e+01    2.922526e+00
  1.281574e+01    3.020966e+00
  1.284750e+01    3.216022e+00
  1.287925e+01    3.350449e+00
  1.291100e+01    3.646768e+00
  1.294275e+01    4.061415e+00
  1.297450e+01    4.639630e+00
  1.300625e+01    5.785649e+00
  1.303800e+01    7.560633e+00
  1.306975e+01    1.012554e+01
  1.310150e+01    1.250545e+01
  1.313326e+01    1.463632e+01
  1.316501e+01    1.593771e+01
  1.319676e+01    1.533646e+01
  1.322851e+01    1.229853e+01
  1.326026e+01    8.918356e+00
  1.329201e+01    6.692791e+00
  1.332376e+01    5.252998e+00
  1.335551e+01    4.373364e+00
  1.338727e+01    3.743392e+00
  1.341902e+01    3.425700e+00
  1.345077e+01    3.133743e+00
  1.348252e+01    3.018455e+00
  1.351427e+01    2.879969e+00
  1.354602e+01    2.840114e+00
  1.357777e+01    2.741017e+00
  1.360952e+01    2.621323e+00
  1.364127e+01    2.559149e+00
  1.367303e+01    2.604564e+00
  1.370478e+01    2.505445e+00
  1.373653e+01    2.488152e+00
  1.376828e+01    2.465126e+00
  1.380003e+01    2.468030e+00
  1.383178e+01    2.420786e+00
  1.386353e+01    2.395626e+00
  1.389528e+01    2.396122e+00
  1.392703e+01    2.395034e+00
  1.395879e+01    2.360898e+00
  1.399054e+01    2.307848e+00
  1.402229e+01    2.314234e+00
  1.405404e+01    2.307671e+00
  1.408579e+01    2.310014e+00
  1.411754e+01    2.314852e+00
  1.414929e+01    2.266095e+00
  1.418104e+01    2.280008e+00
  1.421279e+01    2.309153e+00
  1.424455e+01    2.273348e+00
  1.427630e+01    2.251075e+00
  1.430805e+01    2.269103e+00
  1.433980e+01    2.307448e+00
  1.437155e+01    2.235998e+00
  1.440330e+01    2.245151e+00
  1.443505e+01    2.214815e+00
  1.446680e+01    2.248994e+00
  1.449856e+01    2.230496e+00
  1.453031e+01    2.206077e+00
  1.456206e+01    2.200854e+00
  1.459381e+01    2.188453e+00
  1.462556e+01    2.232229e+00
  1.465731e+01    2.191292e+00
  1.468906e+01    2.197786e+00
  1.472081e+01    2.158391e+00
  1.475256e+01    2.167418e+00
  1.478432e+01    2.204087e+00
  1.481607e+01    2.174062e+00
  1.484782e+01    2.193460e+00
  1.487957e+01    2.219582e+00
  1.491132e+01    2.252969e+00
  1.494307e+01    2.247355e+00
  1.497482e+01    2.310056e+00
  1.500657e+01    2.447261e+00
  1.503832e+01    2.547028e+00
  1.507008e+01    2.797469e+00
  1.510183e+01    3.162397e+00
  1.513358e+01    3.710566e+00
  1.516533e+01    4.457929e+00
  1.519708e+01    5.137244e+00
  1.522883e+01    5.521880e+00
  1.526058e+01    5.684408e+00
  1.529233e+01    5.392977e+00
  1.532409e+01    4.585733e+00
  1.535584e+01    3.703011e+00
  1.538759e+01    3.103467e+00
  1.541934e+01    2.757125e+00
  1.545109e+01    2.480889e+00
  1.548284e+01    2.323306e+00
  1.551459e+01    2.200766e+00
  1.554634e+01    2.161822e+00
  1.557809e+01    2.082013e+00
  1.560985e+01    2.055658e+00
  1.564160e+01    2.055968e+00
  1.567335e+01    2.027319e+00
  1.570510e+01    1.963434e+00
  1.573685e+01    2.029923e+00
  1.576860e+01    1.935003e+00
  1.580035e+01    1.904422e+00
  1.583210e+01    1.905226e+00
  1.586385e+01    1.877500e+00
  1.589561e+01    1.879566e+00
  1.592736e+01    1.843996e+00
  1.595911e+01    1.890928e+00
  1.599086e+01    1.879623e+00
  1.602261e+01    1.860622e+00
  1.605436e+01    1.810127e+00
  1.608611e+01    1.850078e+00
  1.611786e+01    1.841373e+00
  1.614961e+01    1.832826e+00
  1.618137e+01    1.788375e+00
  1.621312e+01    1.823205e+00
  1.624487e+01    1.797458e+00
  1.627662e+01    1.777550e+00
  1.630837e+01    1.798137e+00
  1.634012e+01    1.773939e+00
  1.637187e+01    1.746272e+00
  1.640362e+01    1.737427e+00
  1.643538e+01    1.775833e+00
  1.646713e+01    1.748621e+00
  1.649888e+01    1.754102e+00
  1.653063e+01    1.728841e+00
  1.656238e+01    1.710334e+00
  1.659413e+01    1.735763e+00
  1.662588e+01    1.695482e+00
  1.665763e+01    1.690551e+00
  1.668938e+01    1.691810e+00
  1.672114e+01    1.674181e+00
  1.675289e+01    1.702067e+00
  1.678464e+01    1.687785e+00
  1.681639e+01    1.693896e+00
  1.684814e+01    1.676174e+00
  1.687989e+01    1.655919e+00
  1.691164e+01    1.664069e+00
  1.694339e+01    1.666349e+00
  1.697514e+01    1.679035e+00
  1.700690e+01    1.663616e+00
  1.703865e+01    1.630624e+00
  1.707040e+01    1.644543e+00
  1.710215e+01    1.691767e+00
  1.713390e+01    1.640664e+00
  1.716565e+01    1.624373e+00
  1.719740e+01    1.626856e+00
  1.722915e+01    1.621620e+00
  1.726091e+01    1.620601e+00
  1.729266e+01    1.596549e+00
  1.732441e+01    1.585153e+00
  1.735616e+01    1.609772e+00
  1.738791e+01    1.563023e+00
  1.741966e+01    1.586303e+00
  1.745141e+01    1.592704e+00
  1.748316e+01    1.568612e+00
  1.751491e+01    1.601390e+00
  1.754667e+01    1.588451e+00
  1.757842e+01    1.539549e+00
  1.761017e+01    1.534155e+00
  1.764192e+01    1.554994e+00
  1.767367e+01    1.550245e+00
  1.770542e+01    1.551933e+00
  1.773717e+01    1.532528e+00
  1.776892e+01    1.536708e+00
  1.780067e+01    1.488978e+00
  1.783243e+01    1.531383e+00
  1.786418e+01    1.519477e+00
  1.789593e+01    1.501029e+00
  1.792768e+01    1.496982e+00
  1.795943e+01    1.494519e+00
  1.799118e+01    1.486284e+00
  1.802293e+01    1.507497e+00
  1.805468e+01    1.476193e+00
  1.808643e+01    1.489475e+00
  1.811819e+01    1.499618e+00
  1.814994e+01    1.468758e+00
  1.818169e+01    1.462664e+00
  1.821344e+01    1.451927e+00
  1.824519e+01    1.493440e+00
  1.827694e+01    1.467248e+00
  1.830869e+01    1.462062e+00
  1.834044e+01    1.436817e+00
  1.837220e+01    1.440257e+00
  1.840395e+01    1.420786e+00
  1.843570e+01    1.453754e+00
  1.846745e+01    1.402791e+00
  1.849920e+01    1.436384e+00
  1.853095e+01    1.416611e+00
  1.856270e+01    1.397438e+00
  1.859445e+01    1.406995e+00
  1.862620e+01    1.392144e+00
  1.865796e+01    1.427907e+00
  1.868971e+01    1.386195e+00
  1.872146e+01    1.373721e+00
  1.875321e+01    1.382512e+00
  1.878496e+01    1.380052e+00
  1.881671e+01    1.408006e+00
  1.884846e+01    1.395680e+00
  1.888021e+01    1.368035e+00
  1.891196e+01    1.390200e+00
  1.894372e+01    1.375983e+00
  1.897547e+01    1.362697e+00
  1.900722e+01    1.376041e+00
  1.903897e+01    1.384606e+00
  1.907072e+01    1.379569e+00
  1.910247e+01    1.364346e+00
  1.913422e+01    1.369974e+00
  1.916597e+01    1.344838e+00
  1.919773e+01    1.328892e+00
  1.922948e+01    1.347568e+00
  1.926123e+01    1.336301e+00
  1.929298e+01    1.360844e+00
  1.932473e+01    1.331946e+00
  1.935648e+01    1.342098e+00
  1.938823e+01    1.337406e+00
  1.941998e+01    1.331089e+00
  1.945173e+01    1.334862e+00
  1.948349e+01    1.332722e+00
  1.951524e+01    1.318506e+00
  1.954699e+01    1.311910e+00
  1.957874e+01    1.325770e+00
  1.961049e+01    1.306234e+00
  1.964224e+01    1.300897e+00
  1.967399e+01    1.299621e+00
  1.970574e+01    1.311012e+00
  1.973749e+01    1.296700e+00
  1.976925e+01    1.286253e+00
  1.980100e+01    1.294002e+00
  1.983275e+01    1.283168e+00
  1.986450e+01    1.313990e+00
  1.989625e+01    1.267548e+00
  1.992800e+01    1.266824e+00
  1.995975e+01    1.262141e+00
  1.999150e+01    1.284894e+00
  2.002325e+01    1.285219e+00
  2.005501e+01    1.270363e+00
  2.008676e+01    1.252041e+00
  2.011851e+01    1.240829e+00
  2.015026e+01    1.268044e+00
  2.018201e+01    1.245831e+00
  2.021376e+01    1.238810e+00
  2.024551e+01    1.234816e+00
  2.027726e+01    1.262396e+00
  2.030902e+01    1.225002e+00
  2.034077e+01    1.229652e+00
  2.037252e+01    1.224219e+00
  2.040427e+01    1.245018e+00
  2.043602e+01    1.219418e+00
  2.046777e+01    1.244056e+00
  2.049952e+01    1.231888e+00
  2.053127e+01    1.232233e+00
  2.056302e+01    1.207024e+00
  2.059478e+01    1.233730e+00
  2.062653e+01    1.224544e+00
  2.065828e+01    1.215781e+00
  2.069003e+01    1.237155e+00
  2.072178e+01    1.194556e+00
  2.075353e+01    1.192214e+00
  2.078528e+01    1.208362e+00
  2.081703e+01    1.242492e+00
  2.084878e+01    1.208244e+00
  2.088054e+01    1.224893e+00
  2.091229e+01    1.215664e+00
  2.094404e+01    1.221423e+00
  2.097579e+01    1.210255e+00
  2.100754e+01    1.194962e+00
  2.103929e+01    1.185753e+00
  2.107104e+01    1.186693e+00
  2.110279e+01    1.216550e+00
  2.113455e+01    1.198746e+00
  2.116630e+01    1.230800e+00
  2.119805e+01    1.219664e+00
  2.122980e+01    1.236172e+00
  2.126155e+01    1.231651e+00
  2.129330e+01    1.250798e+00
  2.132505e+01    1.272784e+00
  2.135680e+01    1.263746e+00
  2.138855e+01    1.279436e+00
  2.142031e+01    1.314852e+00
  2.145206e+01    1.360123e+00
  2.148381e+01    1.364244e+00
  2.151556e+01    1.396928e+00
  2.154731e+01    1.495378e+00
  2.157906e+01    1.591820e+00
  2.161081e+01    1.741602e+00
  2.164256e+01    1.931412e+00
  2.167431e+01    2.246036e+00
  2.170607e+01    2.717889e+00
  2.173782e+01    3.492263e+00
  2.176957e+01    4.550818e+00
  2.180132e+01    5.782988e+00
  2.183307e+01    7.062996e+00
  2.186482e+01    8.264559e+00
  2.189657e+01    8.735463e+00
  2.192832e+01    8.141125e+00
  2.196007e+01    6.486784e+00
  2.199183e+01    4.826798e+00
  2.202358e+01    3.576026e+00
  2.205533e+01    2.816234e+00
  2.208708e+01    2.318986e+00
  2.211883e+01    1.978661e+00
  2.215058e+01    1.723646e+00
  2.218233e+01    1.597068e+00
  2.221408e+01    1.467339e+00
  2.224584e+01    1.357257e+00
  2.227759e+01    1.335211e+00
  2.230934e+01    1.287702e+00
  2.234109e+01    1.239035e+00
  2.237284e+01    1.182922e+00
  2.240459e+01    1.199814e+00
  2.243634e+01    1.164148e+00
  2.246809e+01    1.150555e+00
  2.249984e+01    1.141399e+00
  2.253160e+01    1.131087e+00
  2.256335e+01    1.107163e+00
  2.259510e+01    1.086851e+00
  2.262685e+01    1.083608e+00
  2.265860e+01    1.076733e+00
  2.269035e+01    1.044087e+00
  2.272210e+01    1.065268e+00
  2.275385e+01    1.044794e+00
  2.278560e+01    1.045821e+00
  2.281736e+01    1.065050e+00
  2.284911e+01    1.042330e+00
  2.288086e+01    1.052240e+00
  2.291261e+01    1.034622e+00
  2.294436e+01    1.016844e+00
  2.297611e+01    1.034151e+00
  2.300786e+01    1.027152e+00
  2.303961e+01    1.023214e+00
  2.307137e+01    1.001204e+00
  2.310312e+01    1.000857e+00
  2.313487e+01    1.015103e+00
  2.316662e+01    9.884389e-01
  2.319837e+01    9.541970e-01
  2.323012e+01    9.855345e-01
  2.326187e+01    9.738598e-01
  2.329362e+01    9.851119e-01
  2.332537e+01    9.670768e-01
  2.335713e+01    9.714165e-01
  2.338888e+01    9.706467e-01
  2.342063e+01    9.675018e-01
  2.345238e+01    9.735587e-01
  2.348413e+01    9.525145e-01
  2.351588e+01    9.458030e-01
  2.354763e+01    9.476556e-01
  2.357938e+01    9.567652e-01
  2.361113e+01    9.316568e-01
  2.364289e+01    9.454874e-01
  2.367464e+01    9.345257e-01
  2.370639e+01    9.313559e-01
  2.373814e+01    9.148659e-01
  2.376989e+01    9.178631e-01
  2.380164e+01    9.209013e-01
  2.383339e+01    9.115631e-01
  2.386514e+01    9.003105e-01
  2.389689e+01    8.894510e-01
  2.392865e+01    8.852363e-01
  2.396040e+01    9.247075e-01
  2.399215e+01    8.720414e-01
  2.402390e+01    8.798515e-01
  2.405565e+01    8.809217e-01
  2.408740e+01    8.761947e-01
  2.411915e+01    8.727977e-01
  2.415090e+01    8.749446e-01
  2.418266e+01    8.795260e-01
  2.421441e+01    8.526815e-01
  2.424616e+01    8.801278e-01
  2.427791e+01    8.672358e-01
  2.430966e+01    8.875452e-01
  2.434141e+01    8.670027e-01
  2.437316e+01    8.788912e-01
  2.440491e+01    8.894187e-01
  2.443666e+01    8.791019e-01
  2.446842e+01    8.899850e-01
  2.450017e+01    8.889241e-01
  2.453192e+01    8.912433e-01
  2.456367e+01    8.953850e-01
  2.459542e+01    8.797074e-01
  2.462717e+01    8.727950e-01
  2.465892e+01    8.703941e-01
  2.469067e+01    8.777358e-01
  2.472242e+01    8.900230e-01
  2.475418e+01    9.019481e-01
  2.478593e+01    8.750534e-01
  2.481768e+01    8.786535e-01
  2.484943e+01    8.780021e-01
  2.488118e+01    8.929610e-01
  2.491293e+01    8.707436e-01
  2.494468e+01    8.786801e-01
  2.497643e+01    8.658986e-01
  2.500819e+01    8.825864e-01
  2.503994e+01    8.858239e-01
  2.507169e+01    9.009302e-01
  2.510344e+01    8.914426e-01
  2.513519e+01    9.149249e-01
  2.516694e+01    8.954063e-01
  2.519869e+01    9.252121e-01
  2.523044e+01    9.426523e-01
  2.526219e+01    9.297889e-01
  2.529395e+01    9.381954e-01
  2.532570e+01    9.539568e-01
  2.535745e+01    9.712037e-01
  2.538920e+01    9.697217e-01
  2.542095e+01    1.004561e+00
  2.545270e+01    9.964393e-01
  2.548445e+01    1.040865e+00
  2.551620e+01    1.054334e+00
  2.554795e+01    1.098945e+00
  2.557971e+01    1.126433e+00
  2.561146e+01    1.172704e+00
  2.564321e+01    1.276996e+00
  2.567496e+01    1.382333e+00
  2.570671e+01    1.567637e+00
  2.573846e+01    1.807752e+00
  2.577021e+01    2.208068e+00
  2.580196e+01    2.778557e+00
  2.583371e+01    3.589755e+00
  2.586547e+01    4.609336e+00
  2.589722e+01    5.712789e+00
  2.592897e+01    6.630259e+00
  2.596072e+01    7.006351e+00
  2.599247e+01    6.450383e+00
  2.602422e+01    5.186339e+00
  2.605597e+01    3.925063e+00
  2.608772e+01    2.961863e+00
  2.611948e+01    2.345445e+00
  2.615123e+01    1.904354e+00
  2.618298e+01    1.655352e+00
  2.621473e+01    1.463087e+00
  2.624648e+01    1.317713e+00
  2.627823e+01    1.227244e+00
  2.630998e+01    1.147693e+00
  2.634173e+01    1.103318e+00
  2.637348e+01    1.086323e+00
  2.640524e+01    1.034574e+00
  2.643699e+01    1.026355e+00
  2.646874e+01    1.021116e+00
  2.650049e+01    1.008207e+00
  2.653224e+01    9.758407e-01
  2.656399e+01    9.797752e-01
  2.659574e+01    9.822999e-01
  2.662749e+01    9.898630e-01
  2.665924e+01    9.598514e-01
  2.669100e+01    9.665502e-01
  2.672275e+01    9.538354e-01
  2.675450e+01    9.580988e-01
  2.678625e+01    9.562024e-01
  2.681800e+01    9.814137e-01
  2.684975e+01    9.647489e-01
  2.688150e+01    9.714993e-01
  2.691325e+01    9.918650e-01
  2.694501e+01    1.044871e+00
  2.697676e+01    1.070884e+00
  2.700851e+01    1.100629e+00
  2.704026e+01    1.198932e+00
  2.707201e+01    1.291804e+00
  2.710376e+01    1.473903e+00
  2.713551e+01    1.703779e+00
  2.716726e+01    1.937003e+00
  2.719901e+01    2.130679e+00
  2.723077e+01    2.096598e+00
  2.726252e+01    1.942273e+00
  2.729427e+01    1.687005e+00
  2.732602e+01    1.430641e+00
  2.735777e+01    1.263245e+00
  2.738952e+01    1.143064e+00
  2.742127e+01    1.087168e+00
  2.745302e+01    1.051499e+00
  2.748477e+01    9.795984e-01
  2.751653e+01    9.478590e-01
  2.754828e+01    9.359273e-01
  2.758003e+01    9.163931e-01
  2.761178e+01    9.093808e-01
  2.764353e+01    9.264882e-01
  2.767528e+01    8.919934e-01
  2.770703e+01    8.993216e-01
  2.773878e+01    8.609540e-01
  2.777054e+01    8.447070e-01
  2.780229e+01    8.661624e-01
  2.783404e+01    8.913026e-01
  2.786579e+01    8.760524e-01
  2.789754e+01    8.764696e-01
  2.792929e+01    8.707613e-01
  2.796104e+01    8.620406e-01
  2.799279e+01    8.468603e-01
  2.802454e+01    8.548390e-01
  2.805630e+01    8.497966e-01
  2.808805e+01    8.266528e-01
  2.811980e+01    8.330787e-01
  2.815155e+01    8.518947e-01
  2.818330e+01    8.489229e-01
  2.821505e+01    8.705198e-01
  2.824680e+01    8.473301e-01
  2.827855e+01    8.347025e-01
  2.831030e+01    8.427129e-01
  2.834206e+01    8.194122e-01
  2.837381e+01    8.483061e-01
  2.840556e+01    8.245838e-01
  2.843731e+01    8.107414e-01
  2.846906e+01    8.079480e-01
  2.850081e+01    8.093108e-01
  2.853256e+01    8.276825e-01
  2.856431e+01    8.213105e-01
  2.859606e+01    8.446777e-01
  2.862782e+01    8.112847e-01
  2.865957e+01    8.275573e-01
  2.869132e+01    8.265498e-01
  2.872307e+01    8.175056e-01
  2.875482e+01    8.297960e-01
  2.878657e+01    8.360823e-01
  2.881832e+01    8.163835e-01
  2.885007e+01    8.034983e-01
  2.888183e+01    7.944957e-01
  2.891358e+01    8.025115e-01
  2.894533e+01    8.134490e-01
  2.897708e+01    8.053654e-01
  2.900883e+01    8.260445e-01
  2.904058e+01    7.951735e-01
  2.907233e+01    8.005632e-01
  2.910408e+01    7.833842e-01
  2.913583e+01    8.044284e-01
  2.916759e+01    8.061326e-01
  2.919934e+01    8.184782e-01
  2.923109e+01    8.005196e-01
  2.926284e+01    8.139205e-01
  2.929459e+01    8.075092e-01
  2.932634e+01    7.988487e-01
  2.935809e+01    7.996987e-01
  2.938984e+01    7.997156e-01
  2.942159e+01    7.804121e-01
  2.945335e+01    8.255384e-01
  2.948510e+01    7.848089e-01
  2.951685e+01    7.784290e-01
  2.954860e+01    7.982070e-01
  2.958035e+01    7.924289e-01
  2.961210e+01    7.980102e-01
  2.964385e+01    7.874492e-01
  2.967560e+01    7.898081e-01
  2.970736e+01    7.732099e-01
  2.973911e+01    8.005060e-01
  2.977086e+01    8.029701e-01
  2.980261e+01    7.764944e-01
  2.983436e+01    7.706040e-01
  2.986611e+01    7.762370e-01
  2.989786e+01    7.742863e-01
  2.992961e+01    7.731900e-01
  2.996136e+01    7.906957e-01
  2.999312e+01    7.970880e-01
  3.002487e+01    8.133214e-01
  3.005662e+01    8.100110e-01
  3.008837e+01    8.027115e-01
  3.012012e+01    8.027139e-01
  3.015187e+01    8.061186e-01
  3.018362e+01    7.925357e-01
  3.021537e+01    7.663040e-01
  3.024712e+01    7.944390e-01
  3.027888e+01    7.873241e-01
  3.031063e+01    7.707692e-01
  3.034238e+01    7.813712e-01
  3.037413e+01    7.930002e-01
  3.040588e+01    7.799095e-01
  3.043763e+01    7.770154e-01
  3.046938e+01    7.817613e-01
  3.050113e+01    7.780137e-01
  3.053288e+01    7.554725e-01
  3.056464e+01    7.715358e-01
  3.059639e+01    7.632432e-01
  3.062814e+01    7.713529e-01
  3.065989e+01    7.841272e-01
  3.069164e+01    7.854667e-01
  3.072339e+01    7.814035e-01
  3.075514e+01    7.763628e-01
  3.078689e+01    7.711792e-01
  3.081865e+01    7.697417e-01
  3.085040e+01    7.485606e-01
  3.088215e+01    7.803996e-01
  3.091390e+01    7.462049e-01
  3.094565e+01    7.721323e-01
  3.097740e+01    7.713909e-01
  3.100915e+01    7.757964e-01
  3.104090e+01    7.586650e-01
  3.107265e+01    7.866275e-01
  3.110441e+01    7.626429e-01
  3.113616e+01    7.618451e-01
  3.116791e+01    7.844756e-01
  3.119966e+01    7.846672e-01
  3.123141e+01    7.836781e-01
  3.126316e+01    7.853356e-01
  3.129491e+01    7.830350e-01
  3.132666e+01    8.075480e-01
  3.135841e+01    8.046575e-01
  3.139017e+01    8.091491e-01
  3.142192e+01    8.100861e-01
  3.145367e+01    8.078917e-01
  3.148542e+01    8.336693e-01
  3.151717e+01    8.432198e-01
  3.154892e+01    8.436053e-01
  3.158067e+01    8.509900e-01
  3.161242e+01    8.783212e-01
  3.164418e+01    9.141095e-01
  3.167593e+01    9.621296e-01
  3.170768e+01    1.016758e+00
  3.173943e+01    1.089011e+00
  3.177118e+01    1.238478e+00
  3.180293e+01    1.431411e+00
  3.183468e+01    1.645759e+00
  3.186643e+01    1.905220e+00
  3.189818e+01    2.047988e+00
  3.192994e+01    1.975957e+00
  3.196169e+01    1.817095e+00
  3.199344e+01    1.508351e+00
  3.202519e+01    1.259020e+00
  3.205694e+01    1.145290e+00
  3.208869e+01    1.016371e+00
  3.212044e+01    9.652908e-01
  3.215219e+01    9.208823e-01
  3.218394e+01    8.614996e-01
  3.221570e+01    8.479640e-01
  3.224745e+01    8.204107e-01
  3.227920e+01    8.123154e-01
  3.231095e+01    8.043556e-01
  3.234270e+01    8.065573e-01
  3.237445e+01    7.962626e-01
  3.240620e+01    7.651377e-01
  3.243795e+01    7.997097e-01
  3.246970e+01    7.815908e-01
  3.250146e+01    7.580891e-01
  3.253321e+01    7.485692e-01
  3.254908e+01    7.435569e-01