File: XRD/Reaction conditions/2024-07-27_003_Ru-CGO-ex_Reaction_dwell_000023_data_000005.dat
# == pyFAI calibration ==
# Distance Sample to Detector: 0.4 m
# PONI: 9.750e-02, 1.135e-01 m
# Rotations: -0.000175 0.000000 -0.000000 rad
#
# == Fit2d calibration ==
# Distance Sample-beamCenter: 400.000 mm
# Center: x=1514.000, y=1300.000 pix
# Tilt: 0.010 deg  TiltPlanRot: 0.010 deg
#
# Detector Detector	 Spline= None	 PixelSize= 7.500e-05, 7.500e-05 m
#    Detector has a mask: False
#    Detector has a dark current: False
#    detector has a flat field: False
#
# Wavelength: 6.888e-11 m
# Mask applied: user provided
# Dark current applied: False
# Flat field applied: False
# Polarization factor: 0.99
# Normalization factor: 1.0
# --> /home/myspot/data/2024_07_Rosario/Ru-CGO-ex/2024-07-27_003_Ru-CGO-ex_Reaction_dwell_000023_data_000005.dat
#       q_nm^-1             I
  2.003187e-02    2.226973e-02
  5.178302e-02    9.298665e-02
  8.353417e-02    8.506045e-02
  1.152853e-01    6.282025e-02
  1.470365e-01    5.628098e-02
  1.787876e-01    5.760579e-02
  2.105388e-01    8.983809e-02
  2.422899e-01    5.094549e-02
  2.740411e-01    3.989833e-02
  3.057922e-01    3.236782e-02
  3.375433e-01    5.917241e-02
  3.692945e-01    5.266702e-02
  4.010456e-01    2.965219e-02
  4.327968e-01    3.691767e-02
  4.645479e-01    2.322354e-02
  4.962991e-01    2.742825e-02
  5.280502e-01    3.712701e-02
  5.598014e-01    3.197997e-02
  5.915525e-01    3.174764e-02
  6.233037e-01    2.768697e-02
  6.550548e-01    2.516925e-02
  6.868060e-01    3.247976e-02
  7.185571e-01    3.894122e-02
  7.503083e-01    6.346367e-02
  7.820594e-01    1.428696e-01
  8.138106e-01    2.179493e-01
  8.455617e-01    3.661260e-01
  8.773129e-01    5.342820e-01
  9.090640e-01    6.063228e-01
  9.408152e-01    7.530333e-01
  9.725663e-01    1.018221e+00
  1.004317e+00    1.123362e+00
  1.036069e+00    1.285490e+00
  1.067820e+00    1.433688e+00
  1.099571e+00    1.533187e+00
  1.131322e+00    1.697350e+00
  1.163073e+00    1.730080e+00
  1.194824e+00    1.766030e+00
  1.226575e+00    2.149109e+00
  1.258327e+00    2.476175e+00
  1.290078e+00    2.823383e+00
  1.321829e+00    2.773888e+00
  1.353580e+00    2.833561e+00
  1.385331e+00    2.800109e+00
  1.417082e+00    2.811820e+00
  1.448834e+00    2.902709e+00
  1.480585e+00    3.045500e+00
  1.512336e+00    3.110848e+00
  1.544087e+00    3.312773e+00
  1.575838e+00    3.169116e+00
  1.607589e+00    3.114719e+00
  1.639340e+00    3.098873e+00
  1.671092e+00    3.294379e+00
  1.702843e+00    3.072422e+00
  1.734594e+00    3.103704e+00
  1.766345e+00    3.207479e+00
  1.798096e+00    3.070636e+00
  1.829847e+00    3.091646e+00
  1.861598e+00    2.980430e+00
  1.893350e+00    2.898133e+00
  1.925101e+00    3.067537e+00
  1.956852e+00    3.129370e+00
  1.988603e+00    3.005282e+00
  2.020354e+00    3.141544e+00
  2.052105e+00    3.067670e+00
  2.083856e+00    3.201746e+00
  2.115608e+00    3.111398e+00
  2.147359e+00    3.187029e+00
  2.179110e+00    3.154037e+00
  2.210861e+00    3.066865e+00
  2.242612e+00    3.144684e+00
  2.274363e+00    3.023883e+00
  2.306115e+00    3.114644e+00
  2.337866e+00    3.108156e+00
  2.369617e+00    3.131237e+00
  2.401368e+00    3.071023e+00
  2.433119e+00    3.219743e+00
  2.464870e+00    3.159872e+00
  2.496621e+00    3.212436e+00
  2.528373e+00    3.182390e+00
  2.560124e+00    3.163625e+00
  2.591875e+00    3.211512e+00
  2.623626e+00    3.198184e+00
  2.655377e+00    3.303898e+00
  2.687128e+00    3.152202e+00
  2.718879e+00    3.197085e+00
  2.750631e+00    3.429332e+00
  2.782382e+00    3.275204e+00
  2.814133e+00    3.389828e+00
  2.845884e+00    3.342541e+00
  2.877635e+00    3.359165e+00
  2.909386e+00    3.319342e+00
  2.941137e+00    3.206608e+00
  2.972889e+00    3.342284e+00
  3.004640e+00    3.296338e+00
  3.036391e+00    3.337636e+00
  3.068142e+00    3.399399e+00
  3.099893e+00    3.395908e+00
  3.131644e+00    3.459278e+00
  3.163395e+00    3.301538e+00
  3.195147e+00    3.334146e+00
  3.226898e+00    3.432739e+00
  3.258649e+00    3.329341e+00
  3.290400e+00    3.368604e+00
  3.322151e+00    3.382155e+00
  3.353902e+00    3.402686e+00
  3.385654e+00    3.420292e+00
  3.417405e+00    3.345602e+00
  3.449156e+00    3.386234e+00
  3.480907e+00    3.337121e+00
  3.512658e+00    3.482215e+00
  3.544409e+00    3.461853e+00
  3.576160e+00    3.469531e+00
  3.607912e+00    3.511778e+00
  3.639663e+00    3.420838e+00
  3.671414e+00    3.520246e+00
  3.703165e+00    3.498101e+00
  3.734916e+00    3.408726e+00
  3.766667e+00    3.497241e+00
  3.798418e+00    3.457151e+00
  3.830170e+00    3.508133e+00
  3.861921e+00    3.506903e+00
  3.893672e+00    3.462488e+00
  3.925423e+00    3.619325e+00
  3.957174e+00    3.648440e+00
  3.988925e+00    3.553631e+00
  4.020676e+00    3.563726e+00
  4.052428e+00    3.585822e+00
  4.084179e+00    3.519459e+00
  4.115930e+00    3.587821e+00
  4.147681e+00    3.625726e+00
  4.179432e+00    3.486313e+00
  4.211183e+00    3.527120e+00
  4.242935e+00    3.630131e+00
  4.274686e+00    3.681038e+00
  4.306437e+00    3.614008e+00
  4.338188e+00    3.522486e+00
  4.369939e+00    3.604644e+00
  4.401690e+00    3.619435e+00
  4.433441e+00    3.550565e+00
  4.465193e+00    3.537749e+00
  4.496944e+00    3.575201e+00
  4.528695e+00    3.620633e+00
  4.560446e+00    3.617993e+00
  4.592197e+00    3.573192e+00
  4.623948e+00    3.605170e+00
  4.655699e+00    3.634171e+00
  4.687451e+00    3.653883e+00
  4.719202e+00    3.611891e+00
  4.750953e+00    3.670128e+00
  4.782704e+00    3.639675e+00
  4.814455e+00    3.624681e+00
  4.846206e+00    3.638999e+00
  4.877957e+00    3.690989e+00
  4.909709e+00    3.659172e+00
  4.941460e+00    3.668229e+00
  4.973211e+00    3.701765e+00
  5.004962e+00    3.716069e+00
  5.036713e+00    3.721455e+00
  5.068464e+00    3.606299e+00
  5.100216e+00    3.644933e+00
  5.131967e+00    3.640946e+00
  5.163718e+00    3.686350e+00
  5.195469e+00    3.659405e+00
  5.227220e+00    3.612089e+00
  5.258971e+00    3.693450e+00
  5.290722e+00    3.715123e+00
  5.322474e+00    3.683268e+00
  5.354225e+00    3.720715e+00
  5.385976e+00    3.681040e+00
  5.417727e+00    3.726783e+00
  5.449478e+00    3.603298e+00
  5.481229e+00    3.619510e+00
  5.512980e+00    3.733804e+00
  5.544732e+00    3.609812e+00
  5.576483e+00    3.609268e+00
  5.608234e+00    3.589293e+00
  5.639985e+00    3.639204e+00
  5.671736e+00    3.535000e+00
  5.703487e+00    3.659327e+00
  5.735238e+00    3.469229e+00
  5.766990e+00    3.535230e+00
  5.798741e+00    3.637085e+00
  5.830492e+00    3.596151e+00
  5.862243e+00    3.531450e+00
  5.893994e+00    3.558656e+00
  5.925745e+00    3.546721e+00
  5.957497e+00    3.546122e+00
  5.989248e+00    3.448060e+00
  6.020999e+00    3.547444e+00
  6.052750e+00    3.472915e+00
  6.084501e+00    3.580086e+00
  6.116252e+00    3.594821e+00
  6.148003e+00    3.551166e+00
  6.179755e+00    3.615579e+00
  6.211506e+00    3.650217e+00
  6.243257e+00    3.648682e+00
  6.275008e+00    3.568212e+00
  6.306759e+00    3.535326e+00
  6.338510e+00    3.545062e+00
  6.370261e+00    3.617198e+00
  6.402013e+00    3.552480e+00
  6.433764e+00    3.499147e+00
  6.465515e+00    3.531854e+00
  6.497266e+00    3.555278e+00
  6.529017e+00    3.535045e+00
  6.560768e+00    3.554699e+00
  6.592519e+00    3.606338e+00
  6.624271e+00    3.577055e+00
  6.656022e+00    3.622388e+00
  6.687773e+00    3.626252e+00
  6.719524e+00    3.572423e+00
  6.751275e+00    3.512747e+00
  6.783026e+00    3.485005e+00
  6.814777e+00    3.612071e+00
  6.846529e+00    3.566123e+00
  6.878280e+00    3.672328e+00
  6.910031e+00    3.499701e+00
  6.941782e+00    3.509836e+00
  6.973533e+00    3.513572e+00
  7.005284e+00    3.585810e+00
  7.037036e+00    3.561383e+00
  7.068787e+00    3.604437e+00
  7.100538e+00    3.532905e+00
  7.132289e+00    3.565682e+00
  7.164040e+00    3.583215e+00
  7.195791e+00    3.522081e+00
  7.227542e+00    3.528723e+00
  7.259294e+00    3.557486e+00
  7.291045e+00    3.485747e+00
  7.322796e+00    3.555736e+00
  7.354547e+00    3.541126e+00
  7.386298e+00    3.479991e+00
  7.418049e+00    3.588160e+00
  7.449800e+00    3.527013e+00
  7.481552e+00    3.414489e+00
  7.513303e+00    3.453543e+00
  7.545054e+00    3.498734e+00
  7.576805e+00    3.457164e+00
  7.608556e+00    3.475424e+00
  7.640307e+00    3.505669e+00
  7.672058e+00    3.402999e+00
  7.703810e+00    3.371630e+00
  7.735561e+00    3.458433e+00
  7.767312e+00    3.512299e+00
  7.799063e+00    3.466040e+00
  7.830814e+00    3.494539e+00
  7.862565e+00    3.394995e+00
  7.894317e+00    3.508406e+00
  7.926068e+00    3.426992e+00
  7.957819e+00    3.467081e+00
  7.989570e+00    3.460888e+00
  8.021321e+00    3.418559e+00
  8.053072e+00    3.368180e+00
  8.084823e+00    3.404789e+00
  8.116575e+00    3.440809e+00
  8.148326e+00    3.458437e+00
  8.180077e+00    3.458332e+00
  8.211828e+00    3.566222e+00
  8.243579e+00    3.438409e+00
  8.275330e+00    3.459504e+00
  8.307081e+00    3.457713e+00
  8.338833e+00    3.430884e+00
  8.370584e+00    3.364077e+00
  8.402335e+00    3.392444e+00
  8.434086e+00    3.303358e+00
  8.465837e+00    3.372219e+00
  8.497588e+00    3.372473e+00
  8.529339e+00    3.444434e+00
  8.561091e+00    3.400226e+00
  8.592842e+00    3.383555e+00
  8.624593e+00    3.348634e+00
  8.656344e+00    3.365638e+00
  8.688095e+00    3.294853e+00
  8.719846e+00    3.278077e+00
  8.751598e+00    3.374059e+00
  8.783349e+00    3.386401e+00
  8.815100e+00    3.321683e+00
  8.846851e+00    3.354815e+00
  8.878602e+00    3.361924e+00
  8.910353e+00    3.295976e+00
  8.942104e+00    3.327668e+00
  8.973856e+00    3.301214e+00
  9.005607e+00    3.252024e+00
  9.037358e+00    3.258041e+00
  9.069109e+00    3.310886e+00
  9.100860e+00    3.355926e+00
  9.132611e+00    3.267679e+00
  9.164362e+00    3.328041e+00
  9.196114e+00    3.298637e+00
  9.227865e+00    3.318332e+00
  9.259616e+00    3.191449e+00
  9.291367e+00    3.217525e+00
  9.323118e+00    3.275968e+00
  9.354869e+00    3.263933e+00
  9.386620e+00    3.163366e+00
  9.418372e+00    3.190290e+00
  9.450123e+00    3.160332e+00
  9.481874e+00    3.223469e+00
  9.513625e+00    3.244123e+00
  9.545376e+00    3.272152e+00
  9.577127e+00    3.263813e+00
  9.608878e+00    3.219413e+00
  9.640630e+00    3.125805e+00
  9.672381e+00    3.212533e+00
  9.704132e+00    3.137246e+00
  9.735883e+00    3.215422e+00
  9.767634e+00    3.148553e+00
  9.799385e+00    3.205752e+00
  9.831137e+00    3.119940e+00
  9.862888e+00    3.100453e+00
  9.894639e+00    3.155571e+00
  9.926390e+00    3.155643e+00
  9.958141e+00    3.132448e+00
  9.989892e+00    3.105330e+00
  1.002164e+01    3.100356e+00
  1.005339e+01    3.091450e+00
  1.008515e+01    3.086682e+00
  1.011690e+01    3.045023e+00
  1.014865e+01    3.121507e+00
  1.018040e+01    3.070147e+00
  1.021215e+01    3.113270e+00
  1.024390e+01    3.083505e+00
  1.027565e+01    3.006445e+00
  1.030740e+01    3.052217e+00
  1.033915e+01    3.104073e+00
  1.037091e+01    3.067031e+00
  1.040266e+01    3.061157e+00
  1.043441e+01    3.005656e+00
  1.046616e+01    3.021679e+00
  1.049791e+01    2.958809e+00
  1.052966e+01    3.006208e+00
  1.056141e+01    3.040271e+00
  1.059316e+01    2.995344e+00
  1.062492e+01    2.968349e+00
  1.065667e+01    3.023437e+00
  1.068842e+01    3.018332e+00
  1.072017e+01    3.025047e+00
  1.075192e+01    2.994332e+00
  1.078367e+01    2.922283e+00
  1.081542e+01    2.987677e+00
  1.084717e+01    2.936004e+00
  1.087892e+01    2.940624e+00
  1.091068e+01    2.890818e+00
  1.094243e+01    2.921713e+00
  1.097418e+01    2.866721e+00
  1.100593e+01    2.942045e+00
  1.103768e+01    2.913833e+00
  1.106943e+01    2.910754e+00
  1.110118e+01    2.909122e+00
  1.113293e+01    2.861596e+00
  1.116468e+01    2.840153e+00
  1.119644e+01    2.902874e+00
  1.122819e+01    2.976518e+00
  1.125994e+01    2.897847e+00
  1.129169e+01    2.884242e+00
  1.132344e+01    2.856059e+00
  1.135519e+01    2.834422e+00
  1.138694e+01    2.866061e+00
  1.141869e+01    2.868402e+00
  1.145045e+01    2.847006e+00
  1.148220e+01    2.804225e+00
  1.151395e+01    2.837620e+00
  1.154570e+01    2.796100e+00
  1.157745e+01    2.811491e+00
  1.160920e+01    2.724727e+00
  1.164095e+01    2.725795e+00
  1.167270e+01    2.820638e+00
  1.170445e+01    2.689555e+00
  1.173621e+01    2.694805e+00
  1.176796e+01    2.750477e+00
  1.179971e+01    2.808731e+00
  1.183146e+01    2.725461e+00
  1.186321e+01    2.722364e+00
  1.189496e+01    2.762061e+00
  1.192671e+01    2.722390e+00
  1.195846e+01    2.760360e+00
  1.199021e+01    2.713608e+00
  1.202197e+01    2.741232e+00
  1.205372e+01    2.707806e+00
  1.208547e+01    2.673569e+00
  1.211722e+01    2.726582e+00
  1.214897e+01    2.671097e+00
  1.218072e+01    2.665644e+00
  1.221247e+01    2.669214e+00
  1.224422e+01    2.672193e+00
  1.227597e+01    2.661170e+00
  1.230773e+01    2.696501e+00
  1.233948e+01    2.696994e+00
  1.237123e+01    2.680483e+00
  1.240298e+01    2.724512e+00
  1.243473e+01    2.711511e+00
  1.246648e+01    2.711596e+00
  1.249823e+01    2.712974e+00
  1.252998e+01    2.684807e+00
  1.256174e+01    2.727683e+00
  1.259349e+01    2.755700e+00
  1.262524e+01    2.795604e+00
  1.265699e+01    2.764163e+00
  1.268874e+01    2.829062e+00
  1.272049e+01    2.828876e+00
  1.275224e+01    2.866399e+00
  1.278399e+01    2.941740e+00
  1.281574e+01    3.074856e+00
  1.284750e+01    3.190309e+00
  1.287925e+01    3.371356e+00
  1.291100e+01    3.591042e+00
  1.294275e+01    4.084325e+00
  1.297450e+01    4.818193e+00
  1.300625e+01    5.847665e+00
  1.303800e+01    7.673368e+00
  1.306975e+01    1.009119e+01
  1.310150e+01    1.263752e+01
  1.313326e+01    1.470762e+01
  1.316501e+01    1.622226e+01
  1.319676e+01    1.550447e+01
  1.322851e+01    1.251916e+01
  1.326026e+01    9.106896e+00
  1.329201e+01    6.725486e+00
  1.332376e+01    5.288263e+00
  1.335551e+01    4.443416e+00
  1.338727e+01    3.904402e+00
  1.341902e+01    3.487193e+00
  1.345077e+01    3.237530e+00
  1.348252e+01    3.080073e+00
  1.351427e+01    2.930819e+00
  1.354602e+01    2.807452e+00
  1.357777e+01    2.769827e+00
  1.360952e+01    2.662785e+00
  1.364127e+01    2.632197e+00
  1.367303e+01    2.591385e+00
  1.370478e+01    2.547662e+00
  1.373653e+01    2.538175e+00
  1.376828e+01    2.564942e+00
  1.380003e+01    2.456299e+00
  1.383178e+01    2.497477e+00
  1.386353e+01    2.437471e+00
  1.389528e+01    2.394017e+00
  1.392703e+01    2.368991e+00
  1.395879e+01    2.415463e+00
  1.399054e+01    2.353851e+00
  1.402229e+01    2.358342e+00
  1.405404e+01    2.379467e+00
  1.408579e+01    2.321438e+00
  1.411754e+01    2.325255e+00
  1.414929e+01    2.279126e+00
  1.418104e+01    2.317765e+00
  1.421279e+01    2.294369e+00
  1.424455e+01    2.295714e+00
  1.427630e+01    2.284483e+00
  1.430805e+01    2.318626e+00
  1.433980e+01    2.270334e+00
  1.437155e+01    2.252401e+00
  1.440330e+01    2.274876e+00
  1.443505e+01    2.237571e+00
  1.446680e+01    2.234942e+00
  1.449856e+01    2.280496e+00
  1.453031e+01    2.248682e+00
  1.456206e+01    2.216400e+00
  1.459381e+01    2.231081e+00
  1.462556e+01    2.252593e+00
  1.465731e+01    2.257539e+00
  1.468906e+01    2.247210e+00
  1.472081e+01    2.205358e+00
  1.475256e+01    2.201546e+00
  1.478432e+01    2.191568e+00
  1.481607e+01    2.223319e+00
  1.484782e+01    2.211890e+00
  1.487957e+01    2.233513e+00
  1.491132e+01    2.257870e+00
  1.494307e+01    2.266750e+00
  1.497482e+01    2.414575e+00
  1.500657e+01    2.459345e+00
  1.503832e+01    2.579498e+00
  1.507008e+01    2.823967e+00
  1.510183e+01    3.167861e+00
  1.513358e+01    3.794325e+00
  1.516533e+01    4.497968e+00
  1.519708e+01    5.168767e+00
  1.522883e+01    5.519354e+00
  1.526058e+01    5.674908e+00
  1.529233e+01    5.495105e+00
  1.532409e+01    4.672068e+00
  1.535584e+01    3.733253e+00
  1.538759e+01    3.197427e+00
  1.541934e+01    2.793870e+00
  1.545109e+01    2.525418e+00
  1.548284e+01    2.363914e+00
  1.551459e+01    2.259901e+00
  1.554634e+01    2.189701e+00
  1.557809e+01    2.128653e+00
  1.560985e+01    2.084863e+00
  1.564160e+01    2.080578e+00
  1.567335e+01    2.032767e+00
  1.570510e+01    2.009902e+00
  1.573685e+01    1.958963e+00
  1.576860e+01    1.985314e+00
  1.580035e+01    1.944107e+00
  1.583210e+01    1.939409e+00
  1.586385e+01    1.917258e+00
  1.589561e+01    1.896571e+00
  1.592736e+01    1.920721e+00
  1.595911e+01    1.902420e+00
  1.599086e+01    1.891639e+00
  1.602261e+01    1.866685e+00
  1.605436e+01    1.866269e+00
  1.608611e+01    1.854964e+00
  1.611786e+01    1.882870e+00
  1.614961e+01    1.851216e+00
  1.618137e+01    1.836926e+00
  1.621312e+01    1.792853e+00
  1.624487e+01    1.819935e+00
  1.627662e+01    1.840528e+00
  1.630837e+01    1.838367e+00
  1.634012e+01    1.811566e+00
  1.637187e+01    1.780841e+00
  1.640362e+01    1.791460e+00
  1.643538e+01    1.778862e+00
  1.646713e+01    1.780096e+00
  1.649888e+01    1.744690e+00
  1.653063e+01    1.773160e+00
  1.656238e+01    1.738201e+00
  1.659413e+01    1.746100e+00
  1.662588e+01    1.732368e+00
  1.665763e+01    1.715630e+00
  1.668938e+01    1.733346e+00
  1.672114e+01    1.744847e+00
  1.675289e+01    1.706174e+00
  1.678464e+01    1.718413e+00
  1.681639e+01    1.725664e+00
  1.684814e+01    1.692836e+00
  1.687989e+01    1.682300e+00
  1.691164e+01    1.716268e+00
  1.694339e+01    1.678036e+00
  1.697514e+01    1.699048e+00
  1.700690e+01    1.658957e+00
  1.703865e+01    1.668577e+00
  1.707040e+01    1.672715e+00
  1.710215e+01    1.665657e+00
  1.713390e+01    1.668113e+00
  1.716565e+01    1.626135e+00
  1.719740e+01    1.651144e+00
  1.722915e+01    1.661788e+00
  1.726091e+01    1.637978e+00
  1.729266e+01    1.627388e+00
  1.732441e+01    1.618899e+00
  1.735616e+01    1.609039e+00
  1.738791e+01    1.625500e+00
  1.741966e+01    1.584298e+00
  1.745141e+01    1.607596e+00
  1.748316e+01    1.597268e+00
  1.751491e+01    1.610366e+00
  1.754667e+01    1.574490e+00
  1.757842e+01    1.571402e+00
  1.761017e+01    1.591947e+00
  1.764192e+01    1.570733e+00
  1.767367e+01    1.538070e+00
  1.770542e+01    1.534651e+00
  1.773717e+01    1.549950e+00
  1.776892e+01    1.524731e+00
  1.780067e+01    1.517292e+00
  1.783243e+01    1.569460e+00
  1.786418e+01    1.515822e+00
  1.789593e+01    1.526012e+00
  1.792768e+01    1.532373e+00
  1.795943e+01    1.548534e+00
  1.799118e+01    1.517225e+00
  1.802293e+01    1.495124e+00
  1.805468e+01    1.515570e+00
  1.808643e+01    1.508169e+00
  1.811819e+01    1.506263e+00
  1.814994e+01    1.496142e+00
  1.818169e+01    1.473713e+00
  1.821344e+01    1.449909e+00
  1.824519e+01    1.489075e+00
  1.827694e+01    1.450849e+00
  1.830869e+01    1.448941e+00
  1.834044e+01    1.505698e+00
  1.837220e+01    1.447398e+00
  1.840395e+01    1.444753e+00
  1.843570e+01    1.425970e+00
  1.846745e+01    1.458571e+00
  1.849920e+01    1.472939e+00
  1.853095e+01    1.443653e+00
  1.856270e+01    1.426927e+00
  1.859445e+01    1.427592e+00
  1.862620e+01    1.430687e+00
  1.865796e+01    1.439885e+00
  1.868971e+01    1.446616e+00
  1.872146e+01    1.436495e+00
  1.875321e+01    1.417639e+00
  1.878496e+01    1.378893e+00
  1.881671e+01    1.448246e+00
  1.884846e+01    1.410040e+00
  1.888021e+01    1.404933e+00
  1.891196e+01    1.410123e+00
  1.894372e+01    1.439249e+00
  1.897547e+01    1.374207e+00
  1.900722e+01    1.386976e+00
  1.903897e+01    1.377073e+00
  1.907072e+01    1.395545e+00
  1.910247e+01    1.384659e+00
  1.913422e+01    1.386498e+00
  1.916597e+01    1.376938e+00
  1.919773e+01    1.370649e+00
  1.922948e+01    1.356434e+00
  1.926123e+01    1.376530e+00
  1.929298e+01    1.341753e+00
  1.932473e+01    1.357833e+00
  1.935648e+01    1.343161e+00
  1.938823e+01    1.350491e+00
  1.941998e+01    1.361248e+00
  1.945173e+01    1.352427e+00
  1.948349e+01    1.346584e+00
  1.951524e+01    1.336643e+00
  1.954699e+01    1.316157e+00
  1.957874e+01    1.350500e+00
  1.961049e+01    1.311386e+00
  1.964224e+01    1.340059e+00
  1.967399e+01    1.301334e+00
  1.970574e+01    1.328116e+00
  1.973749e+01    1.345310e+00
  1.976925e+01    1.317877e+00
  1.980100e+01    1.311017e+00
  1.983275e+01    1.322257e+00
  1.986450e+01    1.286349e+00
  1.989625e+01    1.288065e+00
  1.992800e+01    1.292830e+00
  1.995975e+01    1.290784e+00
  1.999150e+01    1.303471e+00
  2.002325e+01    1.281258e+00
  2.005501e+01    1.294745e+00
  2.008676e+01    1.288562e+00
  2.011851e+01    1.291842e+00
  2.015026e+01    1.291416e+00
  2.018201e+01    1.272308e+00
  2.021376e+01    1.267842e+00
  2.024551e+01    1.234733e+00
  2.027726e+01    1.262236e+00
  2.030902e+01    1.245732e+00
  2.034077e+01    1.257378e+00
  2.037252e+01    1.255249e+00
  2.040427e+01    1.261629e+00
  2.043602e+01    1.224396e+00
  2.046777e+01    1.268580e+00
  2.049952e+01    1.275450e+00
  2.053127e+01    1.282171e+00
  2.056302e+01    1.239163e+00
  2.059478e+01    1.222008e+00
  2.062653e+01    1.209006e+00
  2.065828e+01    1.245106e+00
  2.069003e+01    1.230972e+00
  2.072178e+01    1.230335e+00
  2.075353e+01    1.225497e+00
  2.078528e+01    1.267451e+00
  2.081703e+01    1.226521e+00
  2.084878e+01    1.236600e+00
  2.088054e+01    1.256479e+00
  2.091229e+01    1.240887e+00
  2.094404e+01    1.234888e+00
  2.097579e+01    1.238165e+00
  2.100754e+01    1.236615e+00
  2.103929e+01    1.245600e+00
  2.107104e+01    1.203813e+00
  2.110279e+01    1.222799e+00
  2.113455e+01    1.237516e+00
  2.116630e+01    1.231014e+00
  2.119805e+01    1.248371e+00
  2.122980e+01    1.239424e+00
  2.126155e+01    1.240871e+00
  2.129330e+01    1.260607e+00
  2.132505e+01    1.247835e+00
  2.135680e+01    1.271390e+00
  2.138855e+01    1.257710e+00
  2.142031e+01    1.312471e+00
  2.145206e+01    1.360134e+00
  2.148381e+01    1.411811e+00
  2.151556e+01    1.460378e+00
  2.154731e+01    1.510995e+00
  2.157906e+01    1.593551e+00
  2.161081e+01    1.748731e+00
  2.164256e+01    1.950418e+00
  2.167431e+01    2.286007e+00
  2.170607e+01    2.773464e+00
  2.173782e+01    3.468859e+00
  2.176957e+01    4.547219e+00
  2.180132e+01    5.780251e+00
  2.183307e+01    7.141253e+00
  2.186482e+01    8.327547e+00
  2.189657e+01    8.918906e+00
  2.192832e+01    8.235670e+00
  2.196007e+01    6.642289e+00
  2.199183e+01    4.889894e+00
  2.202358e+01    3.670468e+00
  2.205533e+01    2.827066e+00
  2.208708e+01    2.358797e+00
  2.211883e+01    2.009194e+00
  2.215058e+01    1.758180e+00
  2.218233e+01    1.622801e+00
  2.221408e+01    1.503061e+00
  2.224584e+01    1.392564e+00
  2.227759e+01    1.345922e+00
  2.230934e+01    1.287998e+00
  2.234109e+01    1.260473e+00
  2.237284e+01    1.226083e+00
  2.240459e+01    1.212184e+00
  2.243634e+01    1.187774e+00
  2.246809e+01    1.175925e+00
  2.249984e+01    1.144625e+00
  2.253160e+01    1.126422e+00
  2.256335e+01    1.137730e+00
  2.259510e+01    1.115860e+00
  2.262685e+01    1.087321e+00
  2.265860e+01    1.110029e+00
  2.269035e+01    1.079384e+00
  2.272210e+01    1.089808e+00
  2.275385e+01    1.065295e+00
  2.278560e+01    1.076742e+00
  2.281736e+01    1.057381e+00
  2.284911e+01    1.056860e+00
  2.288086e+01    1.050417e+00
  2.291261e+01    1.024721e+00
  2.294436e+01    1.012383e+00
  2.297611e+01    1.034731e+00
  2.300786e+01    1.003211e+00
  2.303961e+01    1.005460e+00
  2.307137e+01    9.775506e-01
  2.310312e+01    9.826059e-01
  2.313487e+01    1.002858e+00
  2.316662e+01    9.991202e-01
  2.319837e+01    1.008698e+00
  2.323012e+01    1.008186e+00
  2.326187e+01    9.935573e-01
  2.329362e+01    9.883553e-01
  2.332537e+01    9.897335e-01
  2.335713e+01    9.835881e-01
  2.338888e+01    9.701013e-01
  2.342063e+01    9.543017e-01
  2.345238e+01    9.569947e-01
  2.348413e+01    9.864932e-01
  2.351588e+01    9.795461e-01
  2.354763e+01    9.709995e-01
  2.357938e+01    9.628047e-01
  2.361113e+01    9.741300e-01
  2.364289e+01    9.476178e-01
  2.367464e+01    9.384256e-01
  2.370639e+01    9.264664e-01
  2.373814e+01    9.237242e-01
  2.376989e+01    9.253187e-01
  2.380164e+01    9.205720e-01
  2.383339e+01    9.071017e-01
  2.386514e+01    9.165340e-01
  2.389689e+01    9.068459e-01
  2.392865e+01    9.050515e-01
  2.396040e+01    9.173413e-01
  2.399215e+01    8.995664e-01
  2.402390e+01    9.189718e-01
  2.405565e+01    9.020452e-01
  2.408740e+01    8.963630e-01
  2.411915e+01    9.167194e-01
  2.415090e+01    9.055107e-01
  2.418266e+01    8.916489e-01
  2.421441e+01    8.933364e-01
  2.424616e+01    8.833822e-01
  2.427791e+01    8.929496e-01
  2.430966e+01    8.708416e-01
  2.434141e+01    9.046296e-01
  2.437316e+01    8.913472e-01
  2.440491e+01    9.064659e-01
  2.443666e+01    9.177514e-01
  2.446842e+01    9.011140e-01
  2.450017e+01    8.954116e-01
  2.453192e+01    9.128488e-01
  2.456367e+01    9.085392e-01
  2.459542e+01    8.835964e-01
  2.462717e+01    8.880491e-01
  2.465892e+01    8.932108e-01
  2.469067e+01    8.986456e-01
  2.472242e+01    8.876081e-01
  2.475418e+01    9.124523e-01
  2.478593e+01    9.068255e-01
  2.481768e+01    8.957557e-01
  2.484943e+01    9.044141e-01
  2.488118e+01    9.023782e-01
  2.491293e+01    8.784826e-01
  2.494468e+01    8.945136e-01
  2.497643e+01    9.116350e-01
  2.500819e+01    8.901442e-01
  2.503994e+01    8.967438e-01
  2.507169e+01    8.903579e-01
  2.510344e+01    9.097316e-01
  2.513519e+01    9.221736e-01
  2.516694e+01    8.939907e-01
  2.519869e+01    9.192881e-01
  2.523044e+01    9.478645e-01
  2.526219e+01    9.377614e-01
  2.529395e+01    9.487635e-01
  2.532570e+01    9.655337e-01
  2.535745e+01    9.608569e-01
  2.538920e+01    9.958972e-01
  2.542095e+01    1.004019e+00
  2.545270e+01    1.000375e+00
  2.548445e+01    1.038497e+00
  2.551620e+01    1.087038e+00
  2.554795e+01    1.107033e+00
  2.557971e+01    1.144771e+00
  2.561146e+01    1.207632e+00
  2.564321e+01    1.269090e+00
  2.567496e+01    1.383461e+00
  2.570671e+01    1.587049e+00
  2.573846e+01    1.819309e+00
  2.577021e+01    2.211761e+00
  2.580196e+01    2.761551e+00
  2.583371e+01    3.603714e+00
  2.586547e+01    4.613420e+00
  2.589722e+01    5.716893e+00
  2.592897e+01    6.695138e+00
  2.596072e+01    7.117768e+00
  2.599247e+01    6.514680e+00
  2.602422e+01    5.316863e+00
  2.605597e+01    4.022273e+00
  2.608772e+01    3.060934e+00
  2.611948e+01    2.360364e+00
  2.615123e+01    1.954633e+00
  2.618298e+01    1.713398e+00
  2.621473e+01    1.465506e+00
  2.624648e+01    1.347343e+00
  2.627823e+01    1.235972e+00
  2.630998e+01    1.182193e+00
  2.634173e+01    1.150074e+00
  2.637348e+01    1.093294e+00
  2.640524e+01    1.033967e+00
  2.643699e+01    1.028807e+00
  2.646874e+01    1.016503e+00
  2.650049e+01    1.009215e+00
  2.653224e+01    1.007867e+00
  2.656399e+01    9.918500e-01
  2.659574e+01    9.871683e-01
  2.662749e+01    9.737014e-01
  2.665924e+01    9.728480e-01
  2.669100e+01    9.744529e-01
  2.672275e+01    9.734634e-01
  2.675450e+01    9.696164e-01
  2.678625e+01    9.689877e-01
  2.681800e+01    9.820066e-01
  2.684975e+01    9.829719e-01
  2.688150e+01    9.787493e-01
  2.691325e+01    1.001003e+00
  2.694501e+01    1.015324e+00
  2.697676e+01    1.046491e+00
  2.700851e+01    1.137466e+00
  2.704026e+01    1.181461e+00
  2.707201e+01    1.308580e+00
  2.710376e+01    1.499678e+00
  2.713551e+01    1.717403e+00
  2.716726e+01    1.963448e+00
  2.719901e+01    2.133688e+00
  2.723077e+01    2.148349e+00
  2.726252e+01    1.952550e+00
  2.729427e+01    1.721174e+00
  2.732602e+01    1.464626e+00
  2.735777e+01    1.303803e+00
  2.738952e+01    1.165887e+00
  2.742127e+01    1.108568e+00
  2.745302e+01    1.053706e+00
  2.748477e+01    1.016842e+00
  2.751653e+01    9.867081e-01
  2.754828e+01    9.540361e-01
  2.758003e+01    9.395415e-01
  2.761178e+01    9.216944e-01
  2.764353e+01    9.198951e-01
  2.767528e+01    9.103895e-01
  2.770703e+01    8.951689e-01
  2.773878e+01    9.110045e-01
  2.777054e+01    8.709759e-01
  2.780229e+01    8.953429e-01
  2.783404e+01    8.899046e-01
  2.786579e+01    9.016445e-01
  2.789754e+01    8.943117e-01
  2.792929e+01    8.507261e-01
  2.796104e+01    8.601347e-01
  2.799279e+01    8.905074e-01
  2.802454e+01    8.764833e-01
  2.805630e+01    8.569967e-01
  2.808805e+01    8.720188e-01
  2.811980e+01    8.608506e-01
  2.815155e+01    8.594388e-01
  2.818330e+01    8.692676e-01
  2.821505e+01    8.491318e-01
  2.824680e+01    8.616031e-01
  2.827855e+01    8.403432e-01
  2.831030e+01    8.694208e-01
  2.834206e+01    8.237772e-01
  2.837381e+01    8.534829e-01
  2.840556e+01    8.519545e-01
  2.843731e+01    8.554604e-01
  2.846906e+01    8.606368e-01
  2.850081e+01    8.438055e-01
  2.853256e+01    8.631473e-01
  2.856431e+01    8.187004e-01
  2.859606e+01    8.543976e-01
  2.862782e+01    8.294832e-01
  2.865957e+01    8.338828e-01
  2.869132e+01    8.492227e-01
  2.872307e+01    8.363762e-01
  2.875482e+01    8.372596e-01
  2.878657e+01    8.220133e-01
  2.881832e+01    8.497149e-01
  2.885007e+01    8.309868e-01
  2.888183e+01    8.374583e-01
  2.891358e+01    8.392516e-01
  2.894533e+01    8.287188e-01
  2.897708e+01    8.320735e-01
  2.900883e+01    8.055741e-01
  2.904058e+01    8.164337e-01
  2.907233e+01    8.199868e-01
  2.910408e+01    8.115185e-01
  2.913583e+01    8.113432e-01
  2.916759e+01    8.200812e-01
  2.919934e+01    8.285744e-01
  2.923109e+01    8.192932e-01
  2.926284e+01    7.826428e-01
  2.929459e+01    7.791156e-01
  2.932634e+01    8.015741e-01
  2.935809e+01    8.018895e-01
  2.938984e+01    7.947368e-01
  2.942159e+01    8.175815e-01
  2.945335e+01    7.886690e-01
  2.948510e+01    8.111156e-01
  2.951685e+01    7.935694e-01
  2.954860e+01    7.943521e-01
  2.958035e+01    8.103920e-01
  2.961210e+01    8.157446e-01
  2.964385e+01    8.183993e-01
  2.967560e+01    8.009171e-01
  2.970736e+01    8.021906e-01
  2.973911e+01    7.992376e-01
  2.977086e+01    7.978374e-01
  2.980261e+01    7.968365e-01
  2.983436e+01    7.882252e-01
  2.986611e+01    7.946305e-01
  2.989786e+01    7.986098e-01
  2.992961e+01    7.971897e-01
  2.996136e+01    8.183568e-01
  2.999312e+01    8.141939e-01
  3.002487e+01    8.177394e-01
  3.005662e+01    8.279147e-01
  3.008837e+01    8.211206e-01
  3.012012e+01    8.091782e-01
  3.015187e+01    8.052198e-01
  3.018362e+01    7.821757e-01
  3.021537e+01    7.792244e-01
  3.024712e+01    7.854833e-01
  3.027888e+01    7.851561e-01
  3.031063e+01    7.829660e-01
  3.034238e+01    7.812512e-01
  3.037413e+01    7.816367e-01
  3.040588e+01    7.962445e-01
  3.043763e+01    7.865825e-01
  3.046938e+01    7.896933e-01
  3.050113e+01    7.807136e-01
  3.053288e+01    7.675360e-01
  3.056464e+01    7.855781e-01
  3.059639e+01    7.996722e-01
  3.062814e+01    7.861925e-01
  3.065989e+01    7.791329e-01
  3.069164e+01    7.773178e-01
  3.072339e+01    8.002563e-01
  3.075514e+01    7.766263e-01
  3.078689e+01    7.862370e-01
  3.081865e+01    7.884430e-01
  3.085040e+01    7.791683e-01
  3.088215e+01    8.005822e-01
  3.091390e+01    7.963277e-01
  3.094565e+01    7.880069e-01
  3.097740e+01    7.633396e-01
  3.100915e+01    7.700981e-01
  3.104090e+01    7.962584e-01
  3.107265e+01    7.849271e-01
  3.110441e+01    8.180895e-01
  3.113616e+01    7.855071e-01
  3.116791e+01    7.818049e-01
  3.119966e+01    8.070294e-01
  3.123141e+01    7.997059e-01
  3.126316e+01    7.769672e-01
  3.129491e+01    8.054207e-01
  3.132666e+01    8.280206e-01
  3.135841e+01    7.936571e-01
  3.139017e+01    8.117969e-01
  3.142192e+01    7.838562e-01
  3.145367e+01    8.216825e-01
  3.148542e+01    8.378878e-01
  3.151717e+01    8.300797e-01
  3.154892e+01    8.536025e-01
  3.158067e+01    8.532884e-01
  3.161242e+01    8.822542e-01
  3.164418e+01    9.206944e-01
  3.167593e+01    9.423197e-01
  3.170768e+01    1.000463e+00
  3.173943e+01    1.094911e+00
  3.177118e+01    1.241660e+00
  3.180293e+01    1.438439e+00
  3.183468e+01    1.670073e+00
  3.186643e+01    1.910616e+00
  3.189818e+01    2.070399e+00
  3.192994e+01    2.057923e+00
  3.196169e+01    1.808989e+00
  3.199344e+01    1.588731e+00
  3.202519e+01    1.345512e+00
  3.205694e+01    1.139661e+00
  3.208869e+01    1.057972e+00
  3.212044e+01    1.013194e+00
  3.215219e+01    9.171609e-01
  3.218394e+01    8.938406e-01
  3.221570e+01    8.622456e-01
  3.224745e+01    8.471674e-01
  3.227920e+01    8.196339e-01
  3.231095e+01    8.139164e-01
  3.234270e+01    8.101825e-01
  3.237445e+01    7.898002e-01
  3.240620e+01    7.945142e-01
  3.243795e+01    8.017179e-01
  3.246970e+01    7.812632e-01
  3.250146e+01    7.859480e-01
  3.253321e+01    7.759006e-01
  3.254908e+01    7.704696e-01