File: XRD/Reaction conditions/2024-07-27_003_Ru-CGO-ex_Reaction_dwell_000023_data_000008.dat
# == pyFAI calibration ==
# Distance Sample to Detector: 0.4 m
# PONI: 9.750e-02, 1.135e-01 m
# Rotations: -0.000175 0.000000 -0.000000 rad
#
# == Fit2d calibration ==
# Distance Sample-beamCenter: 400.000 mm
# Center: x=1514.000, y=1300.000 pix
# Tilt: 0.010 deg  TiltPlanRot: 0.010 deg
#
# Detector Detector	 Spline= None	 PixelSize= 7.500e-05, 7.500e-05 m
#    Detector has a mask: False
#    Detector has a dark current: False
#    detector has a flat field: False
#
# Wavelength: 6.888e-11 m
# Mask applied: user provided
# Dark current applied: False
# Flat field applied: False
# Polarization factor: 0.99
# Normalization factor: 1.0
# --> /home/myspot/data/2024_07_Rosario/Ru-CGO-ex/2024-07-27_003_Ru-CGO-ex_Reaction_dwell_000023_data_000008.dat
#       q_nm^-1             I
  2.003187e-02    0.000000e+00
  5.178302e-02    1.006013e-01
  8.353417e-02    2.928783e-01
  1.152853e-01    3.624409e-02
  1.470365e-01    0.000000e+00
  1.787876e-01    5.209163e-02
  2.105388e-01    7.274070e-02
  2.422899e-01    4.681326e-02
  2.740411e-01    5.725326e-02
  3.057922e-01    5.530381e-02
  3.375433e-01    3.115016e-02
  3.692945e-01    6.822591e-02
  4.010456e-01    8.055871e-02
  4.327968e-01    3.792185e-02
  4.645479e-01    6.720394e-02
  4.962991e-01    4.541735e-02
  5.280502e-01    3.869551e-02
  5.598014e-01    4.468040e-02
  5.915525e-01    5.746221e-02
  6.233037e-01    3.284807e-02
  6.550548e-01    3.118434e-02
  6.868060e-01    3.314741e-02
  7.185571e-01    3.979648e-02
  7.503083e-01    7.747342e-02
  7.820594e-01    1.051697e-01
  8.138106e-01    2.346423e-01
  8.455617e-01    3.236661e-01
  8.773129e-01    4.872724e-01
  9.090640e-01    6.087414e-01
  9.408152e-01    8.510383e-01
  9.725663e-01    1.003357e+00
  1.004317e+00    1.031887e+00
  1.036069e+00    1.418331e+00
  1.067820e+00    1.527723e+00
  1.099571e+00    1.540235e+00
  1.131322e+00    1.575561e+00
  1.163073e+00    1.698373e+00
  1.194824e+00    1.821823e+00
  1.226575e+00    2.284272e+00
  1.258327e+00    2.396313e+00
  1.290078e+00    2.694056e+00
  1.321829e+00    2.876135e+00
  1.353580e+00    2.697412e+00
  1.385331e+00    2.966094e+00
  1.417082e+00    2.906033e+00
  1.448834e+00    2.842119e+00
  1.480585e+00    3.113188e+00
  1.512336e+00    3.028431e+00
  1.544087e+00    3.252749e+00
  1.575838e+00    3.167557e+00
  1.607589e+00    3.113193e+00
  1.639340e+00    3.156844e+00
  1.671092e+00    3.133178e+00
  1.702843e+00    3.004334e+00
  1.734594e+00    3.051241e+00
  1.766345e+00    3.089133e+00
  1.798096e+00    3.071511e+00
  1.829847e+00    3.078355e+00
  1.861598e+00    3.021598e+00
  1.893350e+00    3.108686e+00
  1.925101e+00    3.165454e+00
  1.956852e+00    2.993123e+00
  1.988603e+00    2.956741e+00
  2.020354e+00    3.081787e+00
  2.052105e+00    3.109667e+00
  2.083856e+00    3.104683e+00
  2.115608e+00    3.046900e+00
  2.147359e+00    3.031445e+00
  2.179110e+00    3.034175e+00
  2.210861e+00    3.063548e+00
  2.242612e+00    3.089758e+00
  2.274363e+00    3.032037e+00
  2.306115e+00    3.149486e+00
  2.337866e+00    3.130373e+00
  2.369617e+00    3.122468e+00
  2.401368e+00    3.328427e+00
  2.433119e+00    3.223396e+00
  2.464870e+00    3.231699e+00
  2.496621e+00    3.164261e+00
  2.528373e+00    3.170859e+00
  2.560124e+00    3.116943e+00
  2.591875e+00    3.250301e+00
  2.623626e+00    3.271347e+00
  2.655377e+00    3.233074e+00
  2.687128e+00    3.248106e+00
  2.718879e+00    3.304630e+00
  2.750631e+00    3.201450e+00
  2.782382e+00    3.211929e+00
  2.814133e+00    3.273811e+00
  2.845884e+00    3.371408e+00
  2.877635e+00    3.346213e+00
  2.909386e+00    3.337350e+00
  2.941137e+00    3.275579e+00
  2.972889e+00    3.310645e+00
  3.004640e+00    3.265208e+00
  3.036391e+00    3.357381e+00
  3.068142e+00    3.463148e+00
  3.099893e+00    3.357811e+00
  3.131644e+00    3.418083e+00
  3.163395e+00    3.283873e+00
  3.195147e+00    3.406334e+00
  3.226898e+00    3.419066e+00
  3.258649e+00    3.274203e+00
  3.290400e+00    3.401971e+00
  3.322151e+00    3.422844e+00
  3.353902e+00    3.499573e+00
  3.385654e+00    3.446338e+00
  3.417405e+00    3.395331e+00
  3.449156e+00    3.354988e+00
  3.480907e+00    3.446294e+00
  3.512658e+00    3.455696e+00
  3.544409e+00    3.377329e+00
  3.576160e+00    3.484459e+00
  3.607912e+00    3.515103e+00
  3.639663e+00    3.568496e+00
  3.671414e+00    3.410561e+00
  3.703165e+00    3.526738e+00
  3.734916e+00    3.503676e+00
  3.766667e+00    3.399567e+00
  3.798418e+00    3.505962e+00
  3.830170e+00    3.449962e+00
  3.861921e+00    3.536419e+00
  3.893672e+00    3.516378e+00
  3.925423e+00    3.471896e+00
  3.957174e+00    3.567630e+00
  3.988925e+00    3.547196e+00
  4.020676e+00    3.465719e+00
  4.052428e+00    3.540365e+00
  4.084179e+00    3.474341e+00
  4.115930e+00    3.469388e+00
  4.147681e+00    3.553487e+00
  4.179432e+00    3.547472e+00
  4.211183e+00    3.578127e+00
  4.242935e+00    3.525426e+00
  4.274686e+00    3.624117e+00
  4.306437e+00    3.507466e+00
  4.338188e+00    3.573368e+00
  4.369939e+00    3.512616e+00
  4.401690e+00    3.540550e+00
  4.433441e+00    3.633564e+00
  4.465193e+00    3.602815e+00
  4.496944e+00    3.604607e+00
  4.528695e+00    3.634491e+00
  4.560446e+00    3.684252e+00
  4.592197e+00    3.657696e+00
  4.623948e+00    3.618206e+00
  4.655699e+00    3.657142e+00
  4.687451e+00    3.623287e+00
  4.719202e+00    3.621474e+00
  4.750953e+00    3.630753e+00
  4.782704e+00    3.522519e+00
  4.814455e+00    3.598659e+00
  4.846206e+00    3.692793e+00
  4.877957e+00    3.672507e+00
  4.909709e+00    3.546674e+00
  4.941460e+00    3.665816e+00
  4.973211e+00    3.656894e+00
  5.004962e+00    3.617970e+00
  5.036713e+00    3.673272e+00
  5.068464e+00    3.730990e+00
  5.100216e+00    3.607151e+00
  5.131967e+00    3.636974e+00
  5.163718e+00    3.575825e+00
  5.195469e+00    3.541827e+00
  5.227220e+00    3.685092e+00
  5.258971e+00    3.686109e+00
  5.290722e+00    3.582838e+00
  5.322474e+00    3.630560e+00
  5.354225e+00    3.685156e+00
  5.385976e+00    3.722161e+00
  5.417727e+00    3.675121e+00
  5.449478e+00    3.677099e+00
  5.481229e+00    3.644994e+00
  5.512980e+00    3.580421e+00
  5.544732e+00    3.638925e+00
  5.576483e+00    3.576288e+00
  5.608234e+00    3.546382e+00
  5.639985e+00    3.600956e+00
  5.671736e+00    3.585948e+00
  5.703487e+00    3.583187e+00
  5.735238e+00    3.580387e+00
  5.766990e+00    3.564765e+00
  5.798741e+00    3.515810e+00
  5.830492e+00    3.578023e+00
  5.862243e+00    3.586950e+00
  5.893994e+00    3.619709e+00
  5.925745e+00    3.545853e+00
  5.957497e+00    3.549359e+00
  5.989248e+00    3.430270e+00
  6.020999e+00    3.534717e+00
  6.052750e+00    3.580171e+00
  6.084501e+00    3.636061e+00
  6.116252e+00    3.592771e+00
  6.148003e+00    3.708414e+00
  6.179755e+00    3.663147e+00
  6.211506e+00    3.642237e+00
  6.243257e+00    3.541316e+00
  6.275008e+00    3.634336e+00
  6.306759e+00    3.630996e+00
  6.338510e+00    3.554137e+00
  6.370261e+00    3.588724e+00
  6.402013e+00    3.563176e+00
  6.433764e+00    3.634327e+00
  6.465515e+00    3.517356e+00
  6.497266e+00    3.556213e+00
  6.529017e+00    3.604114e+00
  6.560768e+00    3.577365e+00
  6.592519e+00    3.562031e+00
  6.624271e+00    3.589859e+00
  6.656022e+00    3.601244e+00
  6.687773e+00    3.637979e+00
  6.719524e+00    3.591391e+00
  6.751275e+00    3.556085e+00
  6.783026e+00    3.599913e+00
  6.814777e+00    3.510463e+00
  6.846529e+00    3.545898e+00
  6.878280e+00    3.588897e+00
  6.910031e+00    3.523460e+00
  6.941782e+00    3.524292e+00
  6.973533e+00    3.545564e+00
  7.005284e+00    3.524988e+00
  7.037036e+00    3.550828e+00
  7.068787e+00    3.516626e+00
  7.100538e+00    3.480448e+00
  7.132289e+00    3.576853e+00
  7.164040e+00    3.528212e+00
  7.195791e+00    3.511719e+00
  7.227542e+00    3.530297e+00
  7.259294e+00    3.582115e+00
  7.291045e+00    3.577695e+00
  7.322796e+00    3.515366e+00
  7.354547e+00    3.453893e+00
  7.386298e+00    3.498773e+00
  7.418049e+00    3.529717e+00
  7.449800e+00    3.543749e+00
  7.481552e+00    3.564197e+00
  7.513303e+00    3.458520e+00
  7.545054e+00    3.590890e+00
  7.576805e+00    3.503119e+00
  7.608556e+00    3.410557e+00
  7.640307e+00    3.518726e+00
  7.672058e+00    3.398609e+00
  7.703810e+00    3.500113e+00
  7.735561e+00    3.534886e+00
  7.767312e+00    3.454503e+00
  7.799063e+00    3.417199e+00
  7.830814e+00    3.433008e+00
  7.862565e+00    3.427889e+00
  7.894317e+00    3.466789e+00
  7.926068e+00    3.442955e+00
  7.957819e+00    3.415088e+00
  7.989570e+00    3.462117e+00
  8.021321e+00    3.405140e+00
  8.053072e+00    3.404992e+00
  8.084823e+00    3.366050e+00
  8.116575e+00    3.425202e+00
  8.148326e+00    3.527530e+00
  8.180077e+00    3.518091e+00
  8.211828e+00    3.454000e+00
  8.243579e+00    3.461413e+00
  8.275330e+00    3.397945e+00
  8.307081e+00    3.453681e+00
  8.338833e+00    3.421639e+00
  8.370584e+00    3.360379e+00
  8.402335e+00    3.359487e+00
  8.434086e+00    3.407368e+00
  8.465837e+00    3.325053e+00
  8.497588e+00    3.304899e+00
  8.529339e+00    3.369371e+00
  8.561091e+00    3.379933e+00
  8.592842e+00    3.388974e+00
  8.624593e+00    3.303534e+00
  8.656344e+00    3.340475e+00
  8.688095e+00    3.324456e+00
  8.719846e+00    3.358394e+00
  8.751598e+00    3.295947e+00
  8.783349e+00    3.331978e+00
  8.815100e+00    3.379306e+00
  8.846851e+00    3.315845e+00
  8.878602e+00    3.319041e+00
  8.910353e+00    3.308102e+00
  8.942104e+00    3.312330e+00
  8.973856e+00    3.329740e+00
  9.005607e+00    3.316870e+00
  9.037358e+00    3.273384e+00
  9.069109e+00    3.280897e+00
  9.100860e+00    3.258330e+00
  9.132611e+00    3.297880e+00
  9.164362e+00    3.295530e+00
  9.196114e+00    3.194310e+00
  9.227865e+00    3.195204e+00
  9.259616e+00    3.273932e+00
  9.291367e+00    3.229506e+00
  9.323118e+00    3.226183e+00
  9.354869e+00    3.283638e+00
  9.386620e+00    3.139402e+00
  9.418372e+00    3.179831e+00
  9.450123e+00    3.190129e+00
  9.481874e+00    3.198103e+00
  9.513625e+00    3.247692e+00
  9.545376e+00    3.219330e+00
  9.577127e+00    3.218600e+00
  9.608878e+00    3.157165e+00
  9.640630e+00    3.215467e+00
  9.672381e+00    3.166951e+00
  9.704132e+00    3.144733e+00
  9.735883e+00    3.221828e+00
  9.767634e+00    3.172667e+00
  9.799385e+00    3.241534e+00
  9.831137e+00    3.152570e+00
  9.862888e+00    3.141493e+00
  9.894639e+00    3.207420e+00
  9.926390e+00    3.100373e+00
  9.958141e+00    3.145637e+00
  9.989892e+00    3.115252e+00
  1.002164e+01    3.179024e+00
  1.005339e+01    3.117394e+00
  1.008515e+01    3.059618e+00
  1.011690e+01    3.071199e+00
  1.014865e+01    3.071856e+00
  1.018040e+01    3.060535e+00
  1.021215e+01    3.154690e+00
  1.024390e+01    3.062167e+00
  1.027565e+01    3.090775e+00
  1.030740e+01    3.058373e+00
  1.033915e+01    3.122264e+00
  1.037091e+01    2.978445e+00
  1.040266e+01    2.985307e+00
  1.043441e+01    2.989461e+00
  1.046616e+01    2.997874e+00
  1.049791e+01    3.046077e+00
  1.052966e+01    3.015388e+00
  1.056141e+01    3.030841e+00
  1.059316e+01    2.987340e+00
  1.062492e+01    3.006481e+00
  1.065667e+01    2.954089e+00
  1.068842e+01    3.014495e+00
  1.072017e+01    2.988132e+00
  1.075192e+01    3.006431e+00
  1.078367e+01    2.948987e+00
  1.081542e+01    2.944738e+00
  1.084717e+01    2.926047e+00
  1.087892e+01    2.948916e+00
  1.091068e+01    2.961540e+00
  1.094243e+01    2.935018e+00
  1.097418e+01    2.921849e+00
  1.100593e+01    2.853978e+00
  1.103768e+01    2.918450e+00
  1.106943e+01    2.901415e+00
  1.110118e+01    2.908643e+00
  1.113293e+01    2.845562e+00
  1.116468e+01    2.875246e+00
  1.119644e+01    2.842575e+00
  1.122819e+01    2.898361e+00
  1.125994e+01    2.826135e+00
  1.129169e+01    2.849038e+00
  1.132344e+01    2.830576e+00
  1.135519e+01    2.876291e+00
  1.138694e+01    2.800461e+00
  1.141869e+01    2.795553e+00
  1.145045e+01    2.850119e+00
  1.148220e+01    2.810603e+00
  1.151395e+01    2.873214e+00
  1.154570e+01    2.764619e+00
  1.157745e+01    2.752909e+00
  1.160920e+01    2.793223e+00
  1.164095e+01    2.740280e+00
  1.167270e+01    2.764211e+00
  1.170445e+01    2.711685e+00
  1.173621e+01    2.706139e+00
  1.176796e+01    2.772722e+00
  1.179971e+01    2.775939e+00
  1.183146e+01    2.776341e+00
  1.186321e+01    2.772688e+00
  1.189496e+01    2.760177e+00
  1.192671e+01    2.728071e+00
  1.195846e+01    2.728405e+00
  1.199021e+01    2.697241e+00
  1.202197e+01    2.700681e+00
  1.205372e+01    2.708366e+00
  1.208547e+01    2.692693e+00
  1.211722e+01    2.719267e+00
  1.214897e+01    2.694322e+00
  1.218072e+01    2.684368e+00
  1.221247e+01    2.729348e+00
  1.224422e+01    2.682452e+00
  1.227597e+01    2.658640e+00
  1.230773e+01    2.705348e+00
  1.233948e+01    2.720058e+00
  1.237123e+01    2.692780e+00
  1.240298e+01    2.740472e+00
  1.243473e+01    2.738063e+00
  1.246648e+01    2.686405e+00
  1.249823e+01    2.726979e+00
  1.252998e+01    2.773347e+00
  1.256174e+01    2.725690e+00
  1.259349e+01    2.719506e+00
  1.262524e+01    2.783588e+00
  1.265699e+01    2.753436e+00
  1.268874e+01    2.770411e+00
  1.272049e+01    2.852665e+00
  1.275224e+01    2.896492e+00
  1.278399e+01    2.928611e+00
  1.281574e+01    3.045364e+00
  1.284750e+01    3.182618e+00
  1.287925e+01    3.362141e+00
  1.291100e+01    3.668763e+00
  1.294275e+01    4.052473e+00
  1.297450e+01    4.807067e+00
  1.300625e+01    5.924360e+00
  1.303800e+01    7.789812e+00
  1.306975e+01    1.020047e+01
  1.310150e+01    1.251782e+01
  1.313326e+01    1.478384e+01
  1.316501e+01    1.615779e+01
  1.319676e+01    1.551071e+01
  1.322851e+01    1.247935e+01
  1.326026e+01    9.146098e+00
  1.329201e+01    6.714547e+00
  1.332376e+01    5.385825e+00
  1.335551e+01    4.436736e+00
  1.338727e+01    3.876961e+00
  1.341902e+01    3.480091e+00
  1.345077e+01    3.219529e+00
  1.348252e+01    3.056118e+00
  1.351427e+01    2.898319e+00
  1.354602e+01    2.844558e+00
  1.357777e+01    2.732004e+00
  1.360952e+01    2.685543e+00
  1.364127e+01    2.635309e+00
  1.367303e+01    2.598249e+00
  1.370478e+01    2.528874e+00
  1.373653e+01    2.504765e+00
  1.376828e+01    2.488725e+00
  1.380003e+01    2.487621e+00
  1.383178e+01    2.436593e+00
  1.386353e+01    2.433977e+00
  1.389528e+01    2.382122e+00
  1.392703e+01    2.430945e+00
  1.395879e+01    2.373354e+00
  1.399054e+01    2.389651e+00
  1.402229e+01    2.379211e+00
  1.405404e+01    2.353004e+00
  1.408579e+01    2.337364e+00
  1.411754e+01    2.338787e+00
  1.414929e+01    2.325887e+00
  1.418104e+01    2.289929e+00
  1.421279e+01    2.302325e+00
  1.424455e+01    2.266945e+00
  1.427630e+01    2.280711e+00
  1.430805e+01    2.313444e+00
  1.433980e+01    2.269750e+00
  1.437155e+01    2.246906e+00
  1.440330e+01    2.212545e+00
  1.443505e+01    2.264577e+00
  1.446680e+01    2.266455e+00
  1.449856e+01    2.243180e+00
  1.453031e+01    2.197567e+00
  1.456206e+01    2.198608e+00
  1.459381e+01    2.223376e+00
  1.462556e+01    2.219896e+00
  1.465731e+01    2.205777e+00
  1.468906e+01    2.213867e+00
  1.472081e+01    2.170203e+00
  1.475256e+01    2.203886e+00
  1.478432e+01    2.156193e+00
  1.481607e+01    2.203449e+00
  1.484782e+01    2.252809e+00
  1.487957e+01    2.238064e+00
  1.491132e+01    2.260487e+00
  1.494307e+01    2.311008e+00
  1.497482e+01    2.364844e+00
  1.500657e+01    2.472491e+00
  1.503832e+01    2.562694e+00
  1.507008e+01    2.803209e+00
  1.510183e+01    3.228374e+00
  1.513358e+01    3.790196e+00
  1.516533e+01    4.493463e+00
  1.519708e+01    5.156010e+00
  1.522883e+01    5.590708e+00
  1.526058e+01    5.783495e+00
  1.529233e+01    5.485165e+00
  1.532409e+01    4.646839e+00
  1.535584e+01    3.783519e+00
  1.538759e+01    3.105046e+00
  1.541934e+01    2.773383e+00
  1.545109e+01    2.538421e+00
  1.548284e+01    2.393782e+00
  1.551459e+01    2.295996e+00
  1.554634e+01    2.168789e+00
  1.557809e+01    2.108364e+00
  1.560985e+01    2.063750e+00
  1.564160e+01    2.056391e+00
  1.567335e+01    2.024162e+00
  1.570510e+01    2.022760e+00
  1.573685e+01    1.987911e+00
  1.576860e+01    1.932484e+00
  1.580035e+01    1.963991e+00
  1.583210e+01    1.951859e+00
  1.586385e+01    1.929780e+00
  1.589561e+01    1.888646e+00
  1.592736e+01    1.907265e+00
  1.595911e+01    1.914084e+00
  1.599086e+01    1.865996e+00
  1.602261e+01    1.884589e+00
  1.605436e+01    1.844661e+00
  1.608611e+01    1.864418e+00
  1.611786e+01    1.922234e+00
  1.614961e+01    1.845656e+00
  1.618137e+01    1.800764e+00
  1.621312e+01    1.816648e+00
  1.624487e+01    1.790574e+00
  1.627662e+01    1.813381e+00
  1.630837e+01    1.782541e+00
  1.634012e+01    1.827970e+00
  1.637187e+01    1.818033e+00
  1.640362e+01    1.796271e+00
  1.643538e+01    1.749592e+00
  1.646713e+01    1.809234e+00
  1.649888e+01    1.741672e+00
  1.653063e+01    1.746052e+00
  1.656238e+01    1.748813e+00
  1.659413e+01    1.700448e+00
  1.662588e+01    1.711644e+00
  1.665763e+01    1.744346e+00
  1.668938e+01    1.711031e+00
  1.672114e+01    1.719731e+00
  1.675289e+01    1.712994e+00
  1.678464e+01    1.728972e+00
  1.681639e+01    1.697746e+00
  1.684814e+01    1.679734e+00
  1.687989e+01    1.709408e+00
  1.691164e+01    1.685183e+00
  1.694339e+01    1.664383e+00
  1.697514e+01    1.652756e+00
  1.700690e+01    1.685011e+00
  1.703865e+01    1.669913e+00
  1.707040e+01    1.679940e+00
  1.710215e+01    1.638283e+00
  1.713390e+01    1.655038e+00
  1.716565e+01    1.653072e+00
  1.719740e+01    1.685725e+00
  1.722915e+01    1.617666e+00
  1.726091e+01    1.614693e+00
  1.729266e+01    1.632149e+00
  1.732441e+01    1.636687e+00
  1.735616e+01    1.617689e+00
  1.738791e+01    1.630206e+00
  1.741966e+01    1.569638e+00
  1.745141e+01    1.597100e+00
  1.748316e+01    1.571129e+00
  1.751491e+01    1.596750e+00
  1.754667e+01    1.609692e+00
  1.757842e+01    1.587482e+00
  1.761017e+01    1.592264e+00
  1.764192e+01    1.590891e+00
  1.767367e+01    1.537248e+00
  1.770542e+01    1.563988e+00
  1.773717e+01    1.534973e+00
  1.776892e+01    1.511481e+00
  1.780067e+01    1.531486e+00
  1.783243e+01    1.548363e+00
  1.786418e+01    1.546667e+00
  1.789593e+01    1.524953e+00
  1.792768e+01    1.526242e+00
  1.795943e+01    1.547166e+00
  1.799118e+01    1.541384e+00
  1.802293e+01    1.487830e+00
  1.805468e+01    1.497774e+00
  1.808643e+01    1.497870e+00
  1.811819e+01    1.505512e+00
  1.814994e+01    1.490545e+00
  1.818169e+01    1.490038e+00
  1.821344e+01    1.513278e+00
  1.824519e+01    1.527120e+00
  1.827694e+01    1.490329e+00
  1.830869e+01    1.486712e+00
  1.834044e+01    1.470921e+00
  1.837220e+01    1.471471e+00
  1.840395e+01    1.450165e+00
  1.843570e+01    1.452519e+00
  1.846745e+01    1.454765e+00
  1.849920e+01    1.420635e+00
  1.853095e+01    1.445260e+00
  1.856270e+01    1.433940e+00
  1.859445e+01    1.440998e+00
  1.862620e+01    1.418799e+00
  1.865796e+01    1.415706e+00
  1.868971e+01    1.418211e+00
  1.872146e+01    1.428369e+00
  1.875321e+01    1.423949e+00
  1.878496e+01    1.419754e+00
  1.881671e+01    1.411440e+00
  1.884846e+01    1.385936e+00
  1.888021e+01    1.405515e+00
  1.891196e+01    1.376077e+00
  1.894372e+01    1.392857e+00
  1.897547e+01    1.378834e+00
  1.900722e+01    1.386847e+00
  1.903897e+01    1.380815e+00
  1.907072e+01    1.402968e+00
  1.910247e+01    1.353041e+00
  1.913422e+01    1.353971e+00
  1.916597e+01    1.394892e+00
  1.919773e+01    1.337636e+00
  1.922948e+01    1.355463e+00
  1.926123e+01    1.348694e+00
  1.929298e+01    1.343177e+00
  1.932473e+01    1.348798e+00
  1.935648e+01    1.339932e+00
  1.938823e+01    1.307084e+00
  1.941998e+01    1.362537e+00
  1.945173e+01    1.359477e+00
  1.948349e+01    1.338328e+00
  1.951524e+01    1.339302e+00
  1.954699e+01    1.325308e+00
  1.957874e+01    1.324273e+00
  1.961049e+01    1.330960e+00
  1.964224e+01    1.318530e+00
  1.967399e+01    1.304009e+00
  1.970574e+01    1.303904e+00
  1.973749e+01    1.298347e+00
  1.976925e+01    1.300784e+00
  1.980100e+01    1.281799e+00
  1.983275e+01    1.313607e+00
  1.986450e+01    1.297295e+00
  1.989625e+01    1.302130e+00
  1.992800e+01    1.305787e+00
  1.995975e+01    1.265307e+00
  1.999150e+01    1.291242e+00
  2.002325e+01    1.286031e+00
  2.005501e+01    1.272459e+00
  2.008676e+01    1.283597e+00
  2.011851e+01    1.256420e+00
  2.015026e+01    1.266191e+00
  2.018201e+01    1.291563e+00
  2.021376e+01    1.246238e+00
  2.024551e+01    1.252291e+00
  2.027726e+01    1.252162e+00
  2.030902e+01    1.236629e+00
  2.034077e+01    1.256497e+00
  2.037252e+01    1.248584e+00
  2.040427e+01    1.257919e+00
  2.043602e+01    1.245572e+00
  2.046777e+01    1.276081e+00
  2.049952e+01    1.254742e+00
  2.053127e+01    1.241132e+00
  2.056302e+01    1.242782e+00
  2.059478e+01    1.235569e+00
  2.062653e+01    1.246829e+00
  2.065828e+01    1.246362e+00
  2.069003e+01    1.226252e+00
  2.072178e+01    1.209905e+00
  2.075353e+01    1.218670e+00
  2.078528e+01    1.238594e+00
  2.081703e+01    1.227304e+00
  2.084878e+01    1.230061e+00
  2.088054e+01    1.224180e+00
  2.091229e+01    1.221726e+00
  2.094404e+01    1.234450e+00
  2.097579e+01    1.221776e+00
  2.100754e+01    1.238743e+00
  2.103929e+01    1.239309e+00
  2.107104e+01    1.222939e+00
  2.110279e+01    1.207018e+00
  2.113455e+01    1.228340e+00
  2.116630e+01    1.227688e+00
  2.119805e+01    1.235493e+00
  2.122980e+01    1.274074e+00
  2.126155e+01    1.270974e+00
  2.129330e+01    1.275631e+00
  2.132505e+01    1.271189e+00
  2.135680e+01    1.308433e+00
  2.138855e+01    1.323352e+00
  2.142031e+01    1.341244e+00
  2.145206e+01    1.357090e+00
  2.148381e+01    1.379604e+00
  2.151556e+01    1.450372e+00
  2.154731e+01    1.521023e+00
  2.157906e+01    1.603229e+00
  2.161081e+01    1.761032e+00
  2.164256e+01    2.018293e+00
  2.167431e+01    2.308045e+00
  2.170607e+01    2.748334e+00
  2.173782e+01    3.543034e+00
  2.176957e+01    4.602887e+00
  2.180132e+01    5.888256e+00
  2.183307e+01    7.122691e+00
  2.186482e+01    8.293915e+00
  2.189657e+01    8.881062e+00
  2.192832e+01    8.218618e+00
  2.196007e+01    6.572240e+00
  2.199183e+01    4.841459e+00
  2.202358e+01    3.595808e+00
  2.205533e+01    2.820597e+00
  2.208708e+01    2.323171e+00
  2.211883e+01    1.986621e+00
  2.215058e+01    1.773435e+00
  2.218233e+01    1.613896e+00
  2.221408e+01    1.494422e+00
  2.224584e+01    1.413887e+00
  2.227759e+01    1.323624e+00
  2.230934e+01    1.303717e+00
  2.234109e+01    1.243713e+00
  2.237284e+01    1.223821e+00
  2.240459e+01    1.195437e+00
  2.243634e+01    1.193505e+00
  2.246809e+01    1.170812e+00
  2.249984e+01    1.154306e+00
  2.253160e+01    1.148004e+00
  2.256335e+01    1.130221e+00
  2.259510e+01    1.093516e+00
  2.262685e+01    1.122448e+00
  2.265860e+01    1.110661e+00
  2.269035e+01    1.087102e+00
  2.272210e+01    1.078747e+00
  2.275385e+01    1.071523e+00
  2.278560e+01    1.078166e+00
  2.281736e+01    1.063734e+00
  2.284911e+01    1.051378e+00
  2.288086e+01    1.026086e+00
  2.291261e+01    1.019491e+00
  2.294436e+01    1.038466e+00
  2.297611e+01    1.047614e+00
  2.300786e+01    1.024673e+00
  2.303961e+01    1.041498e+00
  2.307137e+01    1.003517e+00
  2.310312e+01    1.020128e+00
  2.313487e+01    1.016283e+00
  2.316662e+01    9.907212e-01
  2.319837e+01    1.004601e+00
  2.323012e+01    9.844891e-01
  2.326187e+01    9.815134e-01
  2.329362e+01    9.955931e-01
  2.332537e+01    9.795476e-01
  2.335713e+01    9.732690e-01
  2.338888e+01    9.838772e-01
  2.342063e+01    9.827657e-01
  2.345238e+01    9.772131e-01
  2.348413e+01    9.709222e-01
  2.351588e+01    9.684585e-01
  2.354763e+01    9.552299e-01
  2.357938e+01    9.521505e-01
  2.361113e+01    9.625543e-01
  2.364289e+01    9.706500e-01
  2.367464e+01    9.128503e-01
  2.370639e+01    9.471539e-01
  2.373814e+01    9.478517e-01
  2.376989e+01    9.343907e-01
  2.380164e+01    9.330077e-01
  2.383339e+01    9.160725e-01
  2.386514e+01    9.206017e-01
  2.389689e+01    9.008232e-01
  2.392865e+01    8.909599e-01
  2.396040e+01    9.084942e-01
  2.399215e+01    9.045585e-01
  2.402390e+01    8.966924e-01
  2.405565e+01    8.941542e-01
  2.408740e+01    8.843417e-01
  2.411915e+01    8.959235e-01
  2.415090e+01    8.930517e-01
  2.418266e+01    8.825064e-01
  2.421441e+01    8.945749e-01
  2.424616e+01    8.828748e-01
  2.427791e+01    9.038865e-01
  2.430966e+01    8.779107e-01
  2.434141e+01    8.741746e-01
  2.437316e+01    8.924153e-01
  2.440491e+01    8.897911e-01
  2.443666e+01    8.925182e-01
  2.446842e+01    8.989542e-01
  2.450017e+01    8.850744e-01
  2.453192e+01    8.984615e-01
  2.456367e+01    8.882774e-01
  2.459542e+01    8.907141e-01
  2.462717e+01    8.995540e-01
  2.465892e+01    8.930880e-01
  2.469067e+01    8.957427e-01
  2.472242e+01    8.978643e-01
  2.475418e+01    9.117801e-01
  2.478593e+01    9.109551e-01
  2.481768e+01    9.076083e-01
  2.484943e+01    8.921186e-01
  2.488118e+01    8.852766e-01
  2.491293e+01    8.772987e-01
  2.494468e+01    8.953224e-01
  2.497643e+01    9.022827e-01
  2.500819e+01    8.922183e-01
  2.503994e+01    9.023665e-01
  2.507169e+01    9.078436e-01
  2.510344e+01    9.149452e-01
  2.513519e+01    8.886837e-01
  2.516694e+01    9.074609e-01
  2.519869e+01    9.177327e-01
  2.523044e+01    9.563026e-01
  2.526219e+01    9.260878e-01
  2.529395e+01    9.300608e-01
  2.532570e+01    9.582162e-01
  2.535745e+01    9.653931e-01
  2.538920e+01    9.811471e-01
  2.542095e+01    9.891532e-01
  2.545270e+01    1.007065e+00
  2.548445e+01    1.036693e+00
  2.551620e+01    1.027713e+00
  2.554795e+01    1.120561e+00
  2.557971e+01    1.132336e+00
  2.561146e+01    1.198513e+00
  2.564321e+01    1.286817e+00
  2.567496e+01    1.424792e+00
  2.570671e+01    1.606888e+00
  2.573846e+01    1.843891e+00
  2.577021e+01    2.225135e+00
  2.580196e+01    2.766751e+00
  2.583371e+01    3.653501e+00
  2.586547e+01    4.673063e+00
  2.589722e+01    5.829232e+00
  2.592897e+01    6.776868e+00
  2.596072e+01    7.105105e+00
  2.599247e+01    6.494478e+00
  2.602422e+01    5.284971e+00
  2.605597e+01    3.957771e+00
  2.608772e+01    2.988011e+00
  2.611948e+01    2.328805e+00
  2.615123e+01    1.942752e+00
  2.618298e+01    1.641798e+00
  2.621473e+01    1.452663e+00
  2.624648e+01    1.328352e+00
  2.627823e+01    1.269088e+00
  2.630998e+01    1.195189e+00
  2.634173e+01    1.123615e+00
  2.637348e+01    1.076636e+00
  2.640524e+01    1.064553e+00
  2.643699e+01    1.038424e+00
  2.646874e+01    1.034133e+00
  2.650049e+01    9.980969e-01
  2.653224e+01    1.024979e+00
  2.656399e+01    9.963714e-01
  2.659574e+01    9.818687e-01
  2.662749e+01    9.783905e-01
  2.665924e+01    9.764975e-01
  2.669100e+01    9.591354e-01
  2.672275e+01    9.726954e-01
  2.675450e+01    9.546278e-01
  2.678625e+01    9.733358e-01
  2.681800e+01    9.599259e-01
  2.684975e+01    9.665992e-01
  2.688150e+01    9.937883e-01
  2.691325e+01    1.014161e+00
  2.694501e+01    1.027156e+00
  2.697676e+01    1.035311e+00
  2.700851e+01    1.111936e+00
  2.704026e+01    1.198128e+00
  2.707201e+01    1.332074e+00
  2.710376e+01    1.451802e+00
  2.713551e+01    1.717521e+00
  2.716726e+01    1.926240e+00
  2.719901e+01    2.164082e+00
  2.723077e+01    2.152425e+00
  2.726252e+01    1.950482e+00
  2.729427e+01    1.693989e+00
  2.732602e+01    1.427064e+00
  2.735777e+01    1.293074e+00
  2.738952e+01    1.176015e+00
  2.742127e+01    1.066771e+00
  2.745302e+01    1.055515e+00
  2.748477e+01    9.913782e-01
  2.751653e+01    9.757943e-01
  2.754828e+01    9.492720e-01
  2.758003e+01    9.519321e-01
  2.761178e+01    9.313960e-01
  2.764353e+01    9.226786e-01
  2.767528e+01    9.024845e-01
  2.770703e+01    8.903856e-01
  2.773878e+01    8.868691e-01
  2.777054e+01    8.857529e-01
  2.780229e+01    8.821878e-01
  2.783404e+01    8.775337e-01
  2.786579e+01    8.904371e-01
  2.789754e+01    8.963611e-01
  2.792929e+01    8.554252e-01
  2.796104e+01    8.566914e-01
  2.799279e+01    8.920502e-01
  2.802454e+01    8.570628e-01
  2.805630e+01    8.691431e-01
  2.808805e+01    8.592294e-01
  2.811980e+01    8.450576e-01
  2.815155e+01    8.489273e-01
  2.818330e+01    8.549007e-01
  2.821505e+01    8.655643e-01
  2.824680e+01    8.684320e-01
  2.827855e+01    8.471032e-01
  2.831030e+01    8.361978e-01
  2.834206e+01    8.718026e-01
  2.837381e+01    8.538700e-01
  2.840556e+01    8.477286e-01
  2.843731e+01    8.594358e-01
  2.846906e+01    8.627279e-01
  2.850081e+01    8.320950e-01
  2.853256e+01    8.382630e-01
  2.856431e+01    8.252697e-01
  2.859606e+01    8.384317e-01
  2.862782e+01    8.233336e-01
  2.865957e+01    8.388091e-01
  2.869132e+01    8.323963e-01
  2.872307e+01    8.222098e-01
  2.875482e+01    8.125485e-01
  2.878657e+01    8.282986e-01
  2.881832e+01    8.105453e-01
  2.885007e+01    8.300325e-01
  2.888183e+01    8.058836e-01
  2.891358e+01    8.160362e-01
  2.894533e+01    8.346852e-01
  2.897708e+01    8.277812e-01
  2.900883e+01    8.008398e-01
  2.904058e+01    8.097997e-01
  2.907233e+01    8.050468e-01
  2.910408e+01    8.092301e-01
  2.913583e+01    8.252119e-01
  2.916759e+01    7.993304e-01
  2.919934e+01    8.095320e-01
  2.923109e+01    8.444703e-01
  2.926284e+01    8.110851e-01
  2.929459e+01    8.194496e-01
  2.932634e+01    8.122279e-01
  2.935809e+01    8.174709e-01
  2.938984e+01    8.108767e-01
  2.942159e+01    8.082435e-01
  2.945335e+01    8.258276e-01
  2.948510e+01    8.093714e-01
  2.951685e+01    7.871895e-01
  2.954860e+01    8.082036e-01
  2.958035e+01    8.146130e-01
  2.961210e+01    7.978684e-01
  2.964385e+01    8.182037e-01
  2.967560e+01    7.833439e-01
  2.970736e+01    7.876194e-01
  2.973911e+01    7.824298e-01
  2.977086e+01    8.006586e-01
  2.980261e+01    7.964867e-01
  2.983436e+01    8.024778e-01
  2.986611e+01    7.872527e-01
  2.989786e+01    8.070325e-01
  2.992961e+01    8.078544e-01
  2.996136e+01    8.025325e-01
  2.999312e+01    7.876066e-01
  3.002487e+01    8.028021e-01
  3.005662e+01    8.141565e-01
  3.008837e+01    8.048783e-01
  3.012012e+01    7.928749e-01
  3.015187e+01    7.784735e-01
  3.018362e+01    7.863489e-01
  3.021537e+01    7.628549e-01
  3.024712e+01    7.940691e-01
  3.027888e+01    7.863936e-01
  3.031063e+01    7.926440e-01
  3.034238e+01    8.083305e-01
  3.037413e+01    7.632421e-01
  3.040588e+01    8.003243e-01
  3.043763e+01    7.928023e-01
  3.046938e+01    7.789465e-01
  3.050113e+01    8.043420e-01
  3.053288e+01    7.892011e-01
  3.056464e+01    7.584022e-01
  3.059639e+01    7.863439e-01
  3.062814e+01    7.794036e-01
  3.065989e+01    7.735097e-01
  3.069164e+01    7.775058e-01
  3.072339e+01    7.746633e-01
  3.075514e+01    7.796046e-01
  3.078689e+01    7.789660e-01
  3.081865e+01    8.053488e-01
  3.085040e+01    7.803898e-01
  3.088215e+01    8.039697e-01
  3.091390e+01    7.853104e-01
  3.094565e+01    7.733160e-01
  3.097740e+01    7.982474e-01
  3.100915e+01    7.839168e-01
  3.104090e+01    7.844097e-01
  3.107265e+01    7.759378e-01
  3.110441e+01    7.730683e-01
  3.113616e+01    8.022826e-01
  3.116791e+01    7.737687e-01
  3.119966e+01    8.190525e-01
  3.123141e+01    7.672243e-01
  3.126316e+01    8.235504e-01
  3.129491e+01    8.025816e-01
  3.132666e+01    8.011336e-01
  3.135841e+01    7.932436e-01
  3.139017e+01    8.016840e-01
  3.142192e+01    8.150465e-01
  3.145367e+01    8.100992e-01
  3.148542e+01    8.090983e-01
  3.151717e+01    8.252723e-01
  3.154892e+01    8.577412e-01
  3.158067e+01    8.822262e-01
  3.161242e+01    8.829005e-01
  3.164418e+01    9.077523e-01
  3.167593e+01    9.550310e-01
  3.170768e+01    1.007262e+00
  3.173943e+01    1.125106e+00
  3.177118e+01    1.251387e+00
  3.180293e+01    1.433555e+00
  3.183468e+01    1.703141e+00
  3.186643e+01    1.990986e+00
  3.189818e+01    2.085910e+00
  3.192994e+01    2.043000e+00
  3.196169e+01    1.793105e+00
  3.199344e+01    1.536639e+00
  3.202519e+01    1.302126e+00
  3.205694e+01    1.182224e+00
  3.208869e+01    1.044820e+00
  3.212044e+01    9.805125e-01
  3.215219e+01    9.097487e-01
  3.218394e+01    8.678375e-01
  3.221570e+01    8.552429e-01
  3.224745e+01    8.573638e-01
  3.227920e+01    8.308810e-01
  3.231095e+01    8.052440e-01
  3.234270e+01    7.908026e-01
  3.237445e+01    7.994536e-01
  3.240620e+01    8.022528e-01
  3.243795e+01    7.657331e-01
  3.246970e+01    7.825269e-01
  3.250146e+01    7.652830e-01
  3.253321e+01    7.784908e-01
  3.254908e+01    7.810875e-01