File: XRD/Reaction conditions/2024-07-27_003_Ru-CGO-ex_Reaction_dwell_000023_data_000109.dat
# == pyFAI calibration ==
# Distance Sample to Detector: 0.4 m
# PONI: 9.750e-02, 1.135e-01 m
# Rotations: -0.000175 0.000000 -0.000000 rad
#
# == Fit2d calibration ==
# Distance Sample-beamCenter: 400.000 mm
# Center: x=1514.000, y=1300.000 pix
# Tilt: 0.010 deg  TiltPlanRot: 0.010 deg
#
# Detector Detector	 Spline= None	 PixelSize= 7.500e-05, 7.500e-05 m
#    Detector has a mask: False
#    Detector has a dark current: False
#    detector has a flat field: False
#
# Wavelength: 6.888e-11 m
# Mask applied: user provided
# Dark current applied: False
# Flat field applied: False
# Polarization factor: 0.99
# Normalization factor: 1.0
# --> /home/myspot/data/2024_07_Rosario/Ru-CGO-ex/2024-07-27_003_Ru-CGO-ex_Reaction_dwell_000023_data_000109.dat
#       q_nm^-1             I
  2.003187e-02    7.712225e-02
  5.178302e-02    0.000000e+00
  8.353417e-02    6.017690e-02
  1.152853e-01    9.721219e-02
  1.470365e-01    7.032244e-02
  1.787876e-01    4.829203e-02
  2.105388e-01    6.972704e-02
  2.422899e-01    3.489761e-02
  2.740411e-01    9.483862e-03
  3.057922e-01    6.594566e-02
  3.375433e-01    2.028477e-02
  3.692945e-01    2.838259e-02
  4.010456e-01    2.890451e-02
  4.327968e-01    4.612963e-02
  4.645479e-01    2.361181e-02
  4.962991e-01    3.772801e-02
  5.280502e-01    2.187096e-02
  5.598014e-01    1.259132e-02
  5.915525e-01    5.855414e-02
  6.233037e-01    4.871560e-02
  6.550548e-01    3.072674e-02
  6.868060e-01    4.128529e-02
  7.185571e-01    4.790503e-02
  7.503083e-01    4.865315e-02
  7.820594e-01    1.611712e-01
  8.138106e-01    2.395690e-01
  8.455617e-01    4.097577e-01
  8.773129e-01    5.470748e-01
  9.090640e-01    7.396750e-01
  9.408152e-01    8.240761e-01
  9.725663e-01    1.020577e+00
  1.004317e+00    1.202582e+00
  1.036069e+00    1.356972e+00
  1.067820e+00    1.483844e+00
  1.099571e+00    1.535369e+00
  1.131322e+00    1.527126e+00
  1.163073e+00    1.768035e+00
  1.194824e+00    1.679795e+00
  1.226575e+00    2.283155e+00
  1.258327e+00    2.481497e+00
  1.290078e+00    2.676040e+00
  1.321829e+00    2.625629e+00
  1.353580e+00    2.871037e+00
  1.385331e+00    2.812599e+00
  1.417082e+00    2.780327e+00
  1.448834e+00    3.077819e+00
  1.480585e+00    3.065037e+00
  1.512336e+00    3.029048e+00
  1.544087e+00    3.296994e+00
  1.575838e+00    3.071882e+00
  1.607589e+00    3.065002e+00
  1.639340e+00    3.106344e+00
  1.671092e+00    3.192559e+00
  1.702843e+00    3.108762e+00
  1.734594e+00    3.165632e+00
  1.766345e+00    3.007998e+00
  1.798096e+00    3.120636e+00
  1.829847e+00    3.051270e+00
  1.861598e+00    3.008741e+00
  1.893350e+00    3.072128e+00
  1.925101e+00    2.994835e+00
  1.956852e+00    3.138037e+00
  1.988603e+00    3.135924e+00
  2.020354e+00    3.037064e+00
  2.052105e+00    3.086483e+00
  2.083856e+00    3.151053e+00
  2.115608e+00    3.163083e+00
  2.147359e+00    2.944780e+00
  2.179110e+00    2.967295e+00
  2.210861e+00    3.141170e+00
  2.242612e+00    3.117308e+00
  2.274363e+00    3.120516e+00
  2.306115e+00    3.117420e+00
  2.337866e+00    3.149197e+00
  2.369617e+00    3.220108e+00
  2.401368e+00    3.216966e+00
  2.433119e+00    3.204912e+00
  2.464870e+00    3.184890e+00
  2.496621e+00    3.213265e+00
  2.528373e+00    3.213795e+00
  2.560124e+00    3.190474e+00
  2.591875e+00    3.143936e+00
  2.623626e+00    3.137179e+00
  2.655377e+00    3.190817e+00
  2.687128e+00    3.328917e+00
  2.718879e+00    3.377400e+00
  2.750631e+00    3.281733e+00
  2.782382e+00    3.218206e+00
  2.814133e+00    3.324284e+00
  2.845884e+00    3.350705e+00
  2.877635e+00    3.332000e+00
  2.909386e+00    3.354692e+00
  2.941137e+00    3.285158e+00
  2.972889e+00    3.380939e+00
  3.004640e+00    3.353937e+00
  3.036391e+00    3.297843e+00
  3.068142e+00    3.361993e+00
  3.099893e+00    3.317867e+00
  3.131644e+00    3.349874e+00
  3.163395e+00    3.360809e+00
  3.195147e+00    3.413160e+00
  3.226898e+00    3.485822e+00
  3.258649e+00    3.377380e+00
  3.290400e+00    3.430675e+00
  3.322151e+00    3.410948e+00
  3.353902e+00    3.442364e+00
  3.385654e+00    3.446382e+00
  3.417405e+00    3.539554e+00
  3.449156e+00    3.424103e+00
  3.480907e+00    3.492455e+00
  3.512658e+00    3.496418e+00
  3.544409e+00    3.426186e+00
  3.576160e+00    3.532840e+00
  3.607912e+00    3.507406e+00
  3.639663e+00    3.401732e+00
  3.671414e+00    3.460974e+00
  3.703165e+00    3.498318e+00
  3.734916e+00    3.581207e+00
  3.766667e+00    3.533295e+00
  3.798418e+00    3.469341e+00
  3.830170e+00    3.594096e+00
  3.861921e+00    3.569185e+00
  3.893672e+00    3.504564e+00
  3.925423e+00    3.620333e+00
  3.957174e+00    3.526706e+00
  3.988925e+00    3.527075e+00
  4.020676e+00    3.575765e+00
  4.052428e+00    3.493519e+00
  4.084179e+00    3.542842e+00
  4.115930e+00    3.526858e+00
  4.147681e+00    3.540287e+00
  4.179432e+00    3.675271e+00
  4.211183e+00    3.606095e+00
  4.242935e+00    3.574146e+00
  4.274686e+00    3.538431e+00
  4.306437e+00    3.563286e+00
  4.338188e+00    3.619352e+00
  4.369939e+00    3.598771e+00
  4.401690e+00    3.661577e+00
  4.433441e+00    3.637329e+00
  4.465193e+00    3.636748e+00
  4.496944e+00    3.667819e+00
  4.528695e+00    3.595715e+00
  4.560446e+00    3.610012e+00
  4.592197e+00    3.707638e+00
  4.623948e+00    3.555791e+00
  4.655699e+00    3.612673e+00
  4.687451e+00    3.555640e+00
  4.719202e+00    3.617400e+00
  4.750953e+00    3.596668e+00
  4.782704e+00    3.613542e+00
  4.814455e+00    3.669338e+00
  4.846206e+00    3.687167e+00
  4.877957e+00    3.695800e+00
  4.909709e+00    3.698958e+00
  4.941460e+00    3.641279e+00
  4.973211e+00    3.608006e+00
  5.004962e+00    3.638304e+00
  5.036713e+00    3.654751e+00
  5.068464e+00    3.625475e+00
  5.100216e+00    3.684520e+00
  5.131967e+00    3.702236e+00
  5.163718e+00    3.729536e+00
  5.195469e+00    3.744205e+00
  5.227220e+00    3.782562e+00
  5.258971e+00    3.666326e+00
  5.290722e+00    3.642328e+00
  5.322474e+00    3.748027e+00
  5.354225e+00    3.731808e+00
  5.385976e+00    3.711221e+00
  5.417727e+00    3.581839e+00
  5.449478e+00    3.681077e+00
  5.481229e+00    3.590352e+00
  5.512980e+00    3.611381e+00
  5.544732e+00    3.684043e+00
  5.576483e+00    3.686890e+00
  5.608234e+00    3.672205e+00
  5.639985e+00    3.599321e+00
  5.671736e+00    3.526073e+00
  5.703487e+00    3.590892e+00
  5.735238e+00    3.606526e+00
  5.766990e+00    3.553456e+00
  5.798741e+00    3.584606e+00
  5.830492e+00    3.508799e+00
  5.862243e+00    3.590847e+00
  5.893994e+00    3.526880e+00
  5.925745e+00    3.593388e+00
  5.957497e+00    3.474590e+00
  5.989248e+00    3.639127e+00
  6.020999e+00    3.526289e+00
  6.052750e+00    3.583225e+00
  6.084501e+00    3.537248e+00
  6.116252e+00    3.567665e+00
  6.148003e+00    3.512648e+00
  6.179755e+00    3.602340e+00
  6.211506e+00    3.574853e+00
  6.243257e+00    3.579705e+00
  6.275008e+00    3.488463e+00
  6.306759e+00    3.563560e+00
  6.338510e+00    3.480392e+00
  6.370261e+00    3.589276e+00
  6.402013e+00    3.526023e+00
  6.433764e+00    3.509634e+00
  6.465515e+00    3.583847e+00
  6.497266e+00    3.626694e+00
  6.529017e+00    3.603076e+00
  6.560768e+00    3.554734e+00
  6.592519e+00    3.534270e+00
  6.624271e+00    3.611100e+00
  6.656022e+00    3.538778e+00
  6.687773e+00    3.556149e+00
  6.719524e+00    3.484560e+00
  6.751275e+00    3.531462e+00
  6.783026e+00    3.589183e+00
  6.814777e+00    3.543602e+00
  6.846529e+00    3.640389e+00
  6.878280e+00    3.564604e+00
  6.910031e+00    3.550501e+00
  6.941782e+00    3.565931e+00
  6.973533e+00    3.581276e+00
  7.005284e+00    3.562988e+00
  7.037036e+00    3.555013e+00
  7.068787e+00    3.438392e+00
  7.100538e+00    3.470141e+00
  7.132289e+00    3.499611e+00
  7.164040e+00    3.542359e+00
  7.195791e+00    3.594737e+00
  7.227542e+00    3.496342e+00
  7.259294e+00    3.593805e+00
  7.291045e+00    3.436220e+00
  7.322796e+00    3.541826e+00
  7.354547e+00    3.528968e+00
  7.386298e+00    3.486513e+00
  7.418049e+00    3.521416e+00
  7.449800e+00    3.531264e+00
  7.481552e+00    3.584226e+00
  7.513303e+00    3.464203e+00
  7.545054e+00    3.526381e+00
  7.576805e+00    3.480814e+00
  7.608556e+00    3.444660e+00
  7.640307e+00    3.494323e+00
  7.672058e+00    3.432643e+00
  7.703810e+00    3.499951e+00
  7.735561e+00    3.524248e+00
  7.767312e+00    3.487715e+00
  7.799063e+00    3.494432e+00
  7.830814e+00    3.492106e+00
  7.862565e+00    3.499108e+00
  7.894317e+00    3.368431e+00
  7.926068e+00    3.443992e+00
  7.957819e+00    3.404354e+00
  7.989570e+00    3.481564e+00
  8.021321e+00    3.448599e+00
  8.053072e+00    3.441053e+00
  8.084823e+00    3.460764e+00
  8.116575e+00    3.487551e+00
  8.148326e+00    3.507859e+00
  8.180077e+00    3.422346e+00
  8.211828e+00    3.462263e+00
  8.243579e+00    3.509536e+00
  8.275330e+00    3.466970e+00
  8.307081e+00    3.456215e+00
  8.338833e+00    3.453991e+00
  8.370584e+00    3.450444e+00
  8.402335e+00    3.444308e+00
  8.434086e+00    3.433061e+00
  8.465837e+00    3.412039e+00
  8.497588e+00    3.371124e+00
  8.529339e+00    3.328535e+00
  8.561091e+00    3.359454e+00
  8.592842e+00    3.291636e+00
  8.624593e+00    3.358835e+00
  8.656344e+00    3.367244e+00
  8.688095e+00    3.410941e+00
  8.719846e+00    3.326797e+00
  8.751598e+00    3.392478e+00
  8.783349e+00    3.356115e+00
  8.815100e+00    3.293617e+00
  8.846851e+00    3.248842e+00
  8.878602e+00    3.367226e+00
  8.910353e+00    3.332411e+00
  8.942104e+00    3.260599e+00
  8.973856e+00    3.355659e+00
  9.005607e+00    3.268528e+00
  9.037358e+00    3.289733e+00
  9.069109e+00    3.267534e+00
  9.100860e+00    3.311097e+00
  9.132611e+00    3.299587e+00
  9.164362e+00    3.191818e+00
  9.196114e+00    3.279985e+00
  9.227865e+00    3.218817e+00
  9.259616e+00    3.292948e+00
  9.291367e+00    3.257010e+00
  9.323118e+00    3.263909e+00
  9.354869e+00    3.249138e+00
  9.386620e+00    3.227550e+00
  9.418372e+00    3.199202e+00
  9.450123e+00    3.249883e+00
  9.481874e+00    3.265673e+00
  9.513625e+00    3.248995e+00
  9.545376e+00    3.205598e+00
  9.577127e+00    3.226311e+00
  9.608878e+00    3.198070e+00
  9.640630e+00    3.234304e+00
  9.672381e+00    3.188998e+00
  9.704132e+00    3.192186e+00
  9.735883e+00    3.229147e+00
  9.767634e+00    3.163342e+00
  9.799385e+00    3.054490e+00
  9.831137e+00    3.176863e+00
  9.862888e+00    3.227683e+00
  9.894639e+00    3.146377e+00
  9.926390e+00    3.151546e+00
  9.958141e+00    3.145633e+00
  9.989892e+00    3.160829e+00
  1.002164e+01    3.132746e+00
  1.005339e+01    3.079800e+00
  1.008515e+01    3.108913e+00
  1.011690e+01    3.114939e+00
  1.014865e+01    3.151976e+00
  1.018040e+01    3.084785e+00
  1.021215e+01    3.044836e+00
  1.024390e+01    3.075870e+00
  1.027565e+01    3.040950e+00
  1.030740e+01    3.066449e+00
  1.033915e+01    3.034478e+00
  1.037091e+01    3.092834e+00
  1.040266e+01    3.067066e+00
  1.043441e+01    2.994596e+00
  1.046616e+01    3.048729e+00
  1.049791e+01    3.003668e+00
  1.052966e+01    3.001908e+00
  1.056141e+01    3.014837e+00
  1.059316e+01    3.036350e+00
  1.062492e+01    3.047624e+00
  1.065667e+01    2.943859e+00
  1.068842e+01    2.922317e+00
  1.072017e+01    3.024899e+00
  1.075192e+01    3.016124e+00
  1.078367e+01    2.934476e+00
  1.081542e+01    2.952853e+00
  1.084717e+01    2.904561e+00
  1.087892e+01    2.926697e+00
  1.091068e+01    2.939927e+00
  1.094243e+01    2.918564e+00
  1.097418e+01    2.913974e+00
  1.100593e+01    2.912555e+00
  1.103768e+01    2.894872e+00
  1.106943e+01    2.954821e+00
  1.110118e+01    2.925683e+00
  1.113293e+01    2.851247e+00
  1.116468e+01    2.913323e+00
  1.119644e+01    2.873302e+00
  1.122819e+01    2.884341e+00
  1.125994e+01    2.868134e+00
  1.129169e+01    2.827954e+00
  1.132344e+01    2.849784e+00
  1.135519e+01    2.841061e+00
  1.138694e+01    2.874208e+00
  1.141869e+01    2.794038e+00
  1.145045e+01    2.842249e+00
  1.148220e+01    2.812949e+00
  1.151395e+01    2.830382e+00
  1.154570e+01    2.818869e+00
  1.157745e+01    2.774674e+00
  1.160920e+01    2.786057e+00
  1.164095e+01    2.744138e+00
  1.167270e+01    2.818240e+00
  1.170445e+01    2.754412e+00
  1.173621e+01    2.761920e+00
  1.176796e+01    2.714211e+00
  1.179971e+01    2.777283e+00
  1.183146e+01    2.788712e+00
  1.186321e+01    2.770983e+00
  1.189496e+01    2.742452e+00
  1.192671e+01    2.771191e+00
  1.195846e+01    2.781262e+00
  1.199021e+01    2.671978e+00
  1.202197e+01    2.740718e+00
  1.205372e+01    2.738715e+00
  1.208547e+01    2.723177e+00
  1.211722e+01    2.725121e+00
  1.214897e+01    2.761880e+00
  1.218072e+01    2.697512e+00
  1.221247e+01    2.728867e+00
  1.224422e+01    2.728230e+00
  1.227597e+01    2.659636e+00
  1.230773e+01    2.672930e+00
  1.233948e+01    2.740389e+00
  1.237123e+01    2.724545e+00
  1.240298e+01    2.706406e+00
  1.243473e+01    2.740608e+00
  1.246648e+01    2.687452e+00
  1.249823e+01    2.781638e+00
  1.252998e+01    2.714626e+00
  1.256174e+01    2.759662e+00
  1.259349e+01    2.755333e+00
  1.262524e+01    2.714083e+00
  1.265699e+01    2.842146e+00
  1.268874e+01    2.820751e+00
  1.272049e+01    2.879577e+00
  1.275224e+01    2.901711e+00
  1.278399e+01    3.011524e+00
  1.281574e+01    3.059556e+00
  1.284750e+01    3.145270e+00
  1.287925e+01    3.404730e+00
  1.291100e+01    3.686555e+00
  1.294275e+01    4.140502e+00
  1.297450e+01    4.838362e+00
  1.300625e+01    5.921370e+00
  1.303800e+01    7.711052e+00
  1.306975e+01    1.024866e+01
  1.310150e+01    1.279740e+01
  1.313326e+01    1.475973e+01
  1.316501e+01    1.627913e+01
  1.319676e+01    1.570172e+01
  1.322851e+01    1.259334e+01
  1.326026e+01    9.143190e+00
  1.329201e+01    6.845335e+00
  1.332376e+01    5.462282e+00
  1.335551e+01    4.426820e+00
  1.338727e+01    3.917444e+00
  1.341902e+01    3.496802e+00
  1.345077e+01    3.220154e+00
  1.348252e+01    3.071833e+00
  1.351427e+01    2.962845e+00
  1.354602e+01    2.842843e+00
  1.357777e+01    2.737802e+00
  1.360952e+01    2.678168e+00
  1.364127e+01    2.627101e+00
  1.367303e+01    2.634165e+00
  1.370478e+01    2.529788e+00
  1.373653e+01    2.550047e+00
  1.376828e+01    2.538287e+00
  1.380003e+01    2.489775e+00
  1.383178e+01    2.504390e+00
  1.386353e+01    2.390719e+00
  1.389528e+01    2.435370e+00
  1.392703e+01    2.396384e+00
  1.395879e+01    2.353306e+00
  1.399054e+01    2.403461e+00
  1.402229e+01    2.396815e+00
  1.405404e+01    2.349798e+00
  1.408579e+01    2.365291e+00
  1.411754e+01    2.380028e+00
  1.414929e+01    2.326730e+00
  1.418104e+01    2.331911e+00
  1.421279e+01    2.288769e+00
  1.424455e+01    2.321779e+00
  1.427630e+01    2.287585e+00
  1.430805e+01    2.287366e+00
  1.433980e+01    2.252957e+00
  1.437155e+01    2.272860e+00
  1.440330e+01    2.245413e+00
  1.443505e+01    2.223156e+00
  1.446680e+01    2.226970e+00
  1.449856e+01    2.232203e+00
  1.453031e+01    2.212434e+00
  1.456206e+01    2.253068e+00
  1.459381e+01    2.227078e+00
  1.462556e+01    2.162339e+00
  1.465731e+01    2.224366e+00
  1.468906e+01    2.193803e+00
  1.472081e+01    2.208918e+00
  1.475256e+01    2.213173e+00
  1.478432e+01    2.206870e+00
  1.481607e+01    2.194353e+00
  1.484782e+01    2.225563e+00
  1.487957e+01    2.251618e+00
  1.491132e+01    2.303627e+00
  1.494307e+01    2.322628e+00
  1.497482e+01    2.354978e+00
  1.500657e+01    2.483284e+00
  1.503832e+01    2.595240e+00
  1.507008e+01    2.826037e+00
  1.510183e+01    3.271501e+00
  1.513358e+01    3.781944e+00
  1.516533e+01    4.530164e+00
  1.519708e+01    5.257369e+00
  1.522883e+01    5.667574e+00
  1.526058e+01    5.877596e+00
  1.529233e+01    5.547904e+00
  1.532409e+01    4.693398e+00
  1.535584e+01    3.774629e+00
  1.538759e+01    3.217703e+00
  1.541934e+01    2.755963e+00
  1.545109e+01    2.501705e+00
  1.548284e+01    2.387540e+00
  1.551459e+01    2.283891e+00
  1.554634e+01    2.176198e+00
  1.557809e+01    2.104554e+00
  1.560985e+01    2.086297e+00
  1.564160e+01    2.067160e+00
  1.567335e+01    2.047365e+00
  1.570510e+01    1.962797e+00
  1.573685e+01    1.993849e+00
  1.576860e+01    1.946187e+00
  1.580035e+01    1.968997e+00
  1.583210e+01    1.979021e+00
  1.586385e+01    1.920326e+00
  1.589561e+01    1.918305e+00
  1.592736e+01    1.913201e+00
  1.595911e+01    1.873177e+00
  1.599086e+01    1.907769e+00
  1.602261e+01    1.869737e+00
  1.605436e+01    1.900986e+00
  1.608611e+01    1.874787e+00
  1.611786e+01    1.875541e+00
  1.614961e+01    1.876597e+00
  1.618137e+01    1.841027e+00
  1.621312e+01    1.850324e+00
  1.624487e+01    1.807051e+00
  1.627662e+01    1.851193e+00
  1.630837e+01    1.771201e+00
  1.634012e+01    1.801952e+00
  1.637187e+01    1.804401e+00
  1.640362e+01    1.800353e+00
  1.643538e+01    1.792493e+00
  1.646713e+01    1.790979e+00
  1.649888e+01    1.778524e+00
  1.653063e+01    1.761423e+00
  1.656238e+01    1.740645e+00
  1.659413e+01    1.744237e+00
  1.662588e+01    1.733317e+00
  1.665763e+01    1.784860e+00
  1.668938e+01    1.732371e+00
  1.672114e+01    1.726474e+00
  1.675289e+01    1.723890e+00
  1.678464e+01    1.725418e+00
  1.681639e+01    1.691105e+00
  1.684814e+01    1.698279e+00
  1.687989e+01    1.731612e+00
  1.691164e+01    1.675587e+00
  1.694339e+01    1.680805e+00
  1.697514e+01    1.702021e+00
  1.700690e+01    1.691201e+00
  1.703865e+01    1.674786e+00
  1.707040e+01    1.671155e+00
  1.710215e+01    1.678064e+00
  1.713390e+01    1.661101e+00
  1.716565e+01    1.642155e+00
  1.719740e+01    1.621473e+00
  1.722915e+01    1.623933e+00
  1.726091e+01    1.638596e+00
  1.729266e+01    1.602258e+00
  1.732441e+01    1.639056e+00
  1.735616e+01    1.643338e+00
  1.738791e+01    1.633926e+00
  1.741966e+01    1.621864e+00
  1.745141e+01    1.625824e+00
  1.748316e+01    1.585250e+00
  1.751491e+01    1.612180e+00
  1.754667e+01    1.579219e+00
  1.757842e+01    1.604129e+00
  1.761017e+01    1.585677e+00
  1.764192e+01    1.562497e+00
  1.767367e+01    1.564997e+00
  1.770542e+01    1.575750e+00
  1.773717e+01    1.560883e+00
  1.776892e+01    1.572294e+00
  1.780067e+01    1.563799e+00
  1.783243e+01    1.569071e+00
  1.786418e+01    1.554480e+00
  1.789593e+01    1.547431e+00
  1.792768e+01    1.514075e+00
  1.795943e+01    1.515849e+00
  1.799118e+01    1.518220e+00
  1.802293e+01    1.516152e+00
  1.805468e+01    1.486240e+00
  1.808643e+01    1.501878e+00
  1.811819e+01    1.497717e+00
  1.814994e+01    1.508459e+00
  1.818169e+01    1.487618e+00
  1.821344e+01    1.473433e+00
  1.824519e+01    1.453111e+00
  1.827694e+01    1.494399e+00
  1.830869e+01    1.470060e+00
  1.834044e+01    1.460281e+00
  1.837220e+01    1.503674e+00
  1.840395e+01    1.471859e+00
  1.843570e+01    1.468070e+00
  1.846745e+01    1.415511e+00
  1.849920e+01    1.476535e+00
  1.853095e+01    1.438417e+00
  1.856270e+01    1.460880e+00
  1.859445e+01    1.415387e+00
  1.862620e+01    1.457554e+00
  1.865796e+01    1.434506e+00
  1.868971e+01    1.435887e+00
  1.872146e+01    1.439198e+00
  1.875321e+01    1.429280e+00
  1.878496e+01    1.436638e+00
  1.881671e+01    1.431481e+00
  1.884846e+01    1.380968e+00
  1.888021e+01    1.429702e+00
  1.891196e+01    1.395226e+00
  1.894372e+01    1.424263e+00
  1.897547e+01    1.382590e+00
  1.900722e+01    1.407659e+00
  1.903897e+01    1.380015e+00
  1.907072e+01    1.374451e+00
  1.910247e+01    1.365416e+00
  1.913422e+01    1.368730e+00
  1.916597e+01    1.347940e+00
  1.919773e+01    1.353931e+00
  1.922948e+01    1.362289e+00
  1.926123e+01    1.348649e+00
  1.929298e+01    1.341697e+00
  1.932473e+01    1.333780e+00
  1.935648e+01    1.352863e+00
  1.938823e+01    1.345082e+00
  1.941998e+01    1.355210e+00
  1.945173e+01    1.325164e+00
  1.948349e+01    1.309265e+00
  1.951524e+01    1.334469e+00
  1.954699e+01    1.329747e+00
  1.957874e+01    1.301362e+00
  1.961049e+01    1.313824e+00
  1.964224e+01    1.331131e+00
  1.967399e+01    1.320204e+00
  1.970574e+01    1.310949e+00
  1.973749e+01    1.328843e+00
  1.976925e+01    1.309438e+00
  1.980100e+01    1.316164e+00
  1.983275e+01    1.309239e+00
  1.986450e+01    1.304510e+00
  1.989625e+01    1.300187e+00
  1.992800e+01    1.298822e+00
  1.995975e+01    1.296182e+00
  1.999150e+01    1.287381e+00
  2.002325e+01    1.274317e+00
  2.005501e+01    1.289245e+00
  2.008676e+01    1.298006e+00
  2.011851e+01    1.295396e+00
  2.015026e+01    1.269210e+00
  2.018201e+01    1.265498e+00
  2.021376e+01    1.253316e+00
  2.024551e+01    1.272587e+00
  2.027726e+01    1.255476e+00
  2.030902e+01    1.257554e+00
  2.034077e+01    1.233030e+00
  2.037252e+01    1.258452e+00
  2.040427e+01    1.239608e+00
  2.043602e+01    1.270681e+00
  2.046777e+01    1.249581e+00
  2.049952e+01    1.259535e+00
  2.053127e+01    1.276868e+00
  2.056302e+01    1.220467e+00
  2.059478e+01    1.259247e+00
  2.062653e+01    1.249539e+00
  2.065828e+01    1.225769e+00
  2.069003e+01    1.217204e+00
  2.072178e+01    1.222334e+00
  2.075353e+01    1.248796e+00
  2.078528e+01    1.206480e+00
  2.081703e+01    1.237173e+00
  2.084878e+01    1.253887e+00
  2.088054e+01    1.233404e+00
  2.091229e+01    1.261874e+00
  2.094404e+01    1.245640e+00
  2.097579e+01    1.244227e+00
  2.100754e+01    1.242022e+00
  2.103929e+01    1.229546e+00
  2.107104e+01    1.245097e+00
  2.110279e+01    1.238986e+00
  2.113455e+01    1.219033e+00
  2.116630e+01    1.245817e+00
  2.119805e+01    1.258855e+00
  2.122980e+01    1.242852e+00
  2.126155e+01    1.250190e+00
  2.129330e+01    1.269426e+00
  2.132505e+01    1.288206e+00
  2.135680e+01    1.266527e+00
  2.138855e+01    1.311725e+00
  2.142031e+01    1.330578e+00
  2.145206e+01    1.343709e+00
  2.148381e+01    1.393457e+00
  2.151556e+01    1.461816e+00
  2.154731e+01    1.513605e+00
  2.157906e+01    1.633669e+00
  2.161081e+01    1.773002e+00
  2.164256e+01    1.987235e+00
  2.167431e+01    2.256905e+00
  2.170607e+01    2.826615e+00
  2.173782e+01    3.519567e+00
  2.176957e+01    4.603398e+00
  2.180132e+01    5.853657e+00
  2.183307e+01    7.155417e+00
  2.186482e+01    8.421348e+00
  2.189657e+01    8.975663e+00
  2.192832e+01    8.271869e+00
  2.196007e+01    6.657340e+00
  2.199183e+01    4.899418e+00
  2.202358e+01    3.688734e+00
  2.205533e+01    2.833820e+00
  2.208708e+01    2.338135e+00
  2.211883e+01    2.002065e+00
  2.215058e+01    1.784679e+00
  2.218233e+01    1.577887e+00
  2.221408e+01    1.502670e+00
  2.224584e+01    1.409992e+00
  2.227759e+01    1.330362e+00
  2.230934e+01    1.307291e+00
  2.234109e+01    1.254259e+00
  2.237284e+01    1.248465e+00
  2.240459e+01    1.183467e+00
  2.243634e+01    1.185228e+00
  2.246809e+01    1.184098e+00
  2.249984e+01    1.145992e+00
  2.253160e+01    1.108601e+00
  2.256335e+01    1.109714e+00
  2.259510e+01    1.119046e+00
  2.262685e+01    1.107129e+00
  2.265860e+01    1.110640e+00
  2.269035e+01    1.099960e+00
  2.272210e+01    1.082989e+00
  2.275385e+01    1.066172e+00
  2.278560e+01    1.069370e+00
  2.281736e+01    1.074438e+00
  2.284911e+01    1.055020e+00
  2.288086e+01    1.033913e+00
  2.291261e+01    1.044518e+00
  2.294436e+01    1.047426e+00
  2.297611e+01    1.029526e+00
  2.300786e+01    1.017847e+00
  2.303961e+01    1.039515e+00
  2.307137e+01    1.017011e+00
  2.310312e+01    1.020545e+00
  2.313487e+01    1.000817e+00
  2.316662e+01    1.005627e+00
  2.319837e+01    9.951283e-01
  2.323012e+01    9.866316e-01
  2.326187e+01    9.895980e-01
  2.329362e+01    1.001810e+00
  2.332537e+01    1.008707e+00
  2.335713e+01    9.852952e-01
  2.338888e+01    9.867538e-01
  2.342063e+01    9.707483e-01
  2.345238e+01    9.574789e-01
  2.348413e+01    9.955387e-01
  2.351588e+01    9.649236e-01
  2.354763e+01    9.613715e-01
  2.357938e+01    9.638418e-01
  2.361113e+01    9.669771e-01
  2.364289e+01    9.391491e-01
  2.367464e+01    9.308178e-01
  2.370639e+01    9.428916e-01
  2.373814e+01    9.498711e-01
  2.376989e+01    9.431298e-01
  2.380164e+01    9.283964e-01
  2.383339e+01    9.143048e-01
  2.386514e+01    9.084412e-01
  2.389689e+01    9.026276e-01
  2.392865e+01    9.142448e-01
  2.396040e+01    9.284608e-01
  2.399215e+01    9.171518e-01
  2.402390e+01    8.977581e-01
  2.405565e+01    9.070724e-01
  2.408740e+01    8.809657e-01
  2.411915e+01    8.821244e-01
  2.415090e+01    8.934526e-01
  2.418266e+01    9.172418e-01
  2.421441e+01    8.905851e-01
  2.424616e+01    8.776168e-01
  2.427791e+01    9.055739e-01
  2.430966e+01    8.965781e-01
  2.434141e+01    8.911644e-01
  2.437316e+01    9.017928e-01
  2.440491e+01    8.858023e-01
  2.443666e+01    9.119012e-01
  2.446842e+01    9.079846e-01
  2.450017e+01    9.133139e-01
  2.453192e+01    8.763548e-01
  2.456367e+01    9.150853e-01
  2.459542e+01    9.135927e-01
  2.462717e+01    9.062113e-01
  2.465892e+01    9.029881e-01
  2.469067e+01    8.924262e-01
  2.472242e+01    9.055542e-01
  2.475418e+01    8.943501e-01
  2.478593e+01    9.013025e-01
  2.481768e+01    8.567222e-01
  2.484943e+01    9.064007e-01
  2.488118e+01    8.833641e-01
  2.491293e+01    8.958113e-01
  2.494468e+01    9.192523e-01
  2.497643e+01    8.913959e-01
  2.500819e+01    8.939776e-01
  2.503994e+01    8.821173e-01
  2.507169e+01    9.058712e-01
  2.510344e+01    8.989497e-01
  2.513519e+01    8.892546e-01
  2.516694e+01    9.239309e-01
  2.519869e+01    9.399391e-01
  2.523044e+01    9.453070e-01
  2.526219e+01    9.435173e-01
  2.529395e+01    9.582103e-01
  2.532570e+01    9.777361e-01
  2.535745e+01    9.657589e-01
  2.538920e+01    9.973038e-01
  2.542095e+01    1.004704e+00
  2.545270e+01    1.020178e+00
  2.548445e+01    1.045383e+00
  2.551620e+01    1.063654e+00
  2.554795e+01    1.121446e+00
  2.557971e+01    1.159001e+00
  2.561146e+01    1.237733e+00
  2.564321e+01    1.316268e+00
  2.567496e+01    1.434559e+00
  2.570671e+01    1.584728e+00
  2.573846e+01    1.871909e+00
  2.577021e+01    2.228730e+00
  2.580196e+01    2.786471e+00
  2.583371e+01    3.641410e+00
  2.586547e+01    4.682806e+00
  2.589722e+01    5.844304e+00
  2.592897e+01    6.809289e+00
  2.596072e+01    7.122762e+00
  2.599247e+01    6.594193e+00
  2.602422e+01    5.313891e+00
  2.605597e+01    3.999799e+00
  2.608772e+01    3.029681e+00
  2.611948e+01    2.400817e+00
  2.615123e+01    1.952317e+00
  2.618298e+01    1.695441e+00
  2.621473e+01    1.511088e+00
  2.624648e+01    1.342424e+00
  2.627823e+01    1.256175e+00
  2.630998e+01    1.167098e+00
  2.634173e+01    1.125275e+00
  2.637348e+01    1.091413e+00
  2.640524e+01    1.044111e+00
  2.643699e+01    1.046113e+00
  2.646874e+01    1.055471e+00
  2.650049e+01    1.002602e+00
  2.653224e+01    1.016182e+00
  2.656399e+01    1.005947e+00
  2.659574e+01    9.869261e-01
  2.662749e+01    9.864273e-01
  2.665924e+01    9.866309e-01
  2.669100e+01    9.800968e-01
  2.672275e+01    9.851072e-01
  2.675450e+01    9.797918e-01
  2.678625e+01    9.830977e-01
  2.681800e+01    9.539701e-01
  2.684975e+01    9.914347e-01
  2.688150e+01    9.698554e-01
  2.691325e+01    9.776205e-01
  2.694501e+01    1.060704e+00
  2.697676e+01    1.044739e+00
  2.700851e+01    1.102672e+00
  2.704026e+01    1.218349e+00
  2.707201e+01    1.312169e+00
  2.710376e+01    1.484916e+00
  2.713551e+01    1.780296e+00
  2.716726e+01    1.964148e+00
  2.719901e+01    2.164441e+00
  2.723077e+01    2.186455e+00
  2.726252e+01    1.977199e+00
  2.729427e+01    1.729853e+00
  2.732602e+01    1.474418e+00
  2.735777e+01    1.280204e+00
  2.738952e+01    1.176232e+00
  2.742127e+01    1.125636e+00
  2.745302e+01    1.015132e+00
  2.748477e+01    1.006254e+00
  2.751653e+01    9.820161e-01
  2.754828e+01    9.734436e-01
  2.758003e+01    9.430065e-01
  2.761178e+01    9.462447e-01
  2.764353e+01    9.281313e-01
  2.767528e+01    9.177338e-01
  2.770703e+01    9.301665e-01
  2.773878e+01    9.161144e-01
  2.777054e+01    9.025128e-01
  2.780229e+01    8.982227e-01
  2.783404e+01    8.908027e-01
  2.786579e+01    8.830065e-01
  2.789754e+01    8.833055e-01
  2.792929e+01    8.381276e-01
  2.796104e+01    8.793074e-01
  2.799279e+01    8.630127e-01
  2.802454e+01    8.536276e-01
  2.805630e+01    8.801764e-01
  2.808805e+01    8.936163e-01
  2.811980e+01    8.596774e-01
  2.815155e+01    8.602065e-01
  2.818330e+01    8.599331e-01
  2.821505e+01    8.589238e-01
  2.824680e+01    8.587143e-01
  2.827855e+01    8.671265e-01
  2.831030e+01    8.443084e-01
  2.834206e+01    8.313434e-01
  2.837381e+01    8.378697e-01
  2.840556e+01    8.590851e-01
  2.843731e+01    8.582605e-01
  2.846906e+01    8.449304e-01
  2.850081e+01    8.518461e-01
  2.853256e+01    8.467329e-01
  2.856431e+01    8.360217e-01
  2.859606e+01    8.347461e-01
  2.862782e+01    8.319806e-01
  2.865957e+01    8.292584e-01
  2.869132e+01    8.286799e-01
  2.872307e+01    8.397570e-01
  2.875482e+01    8.244975e-01
  2.878657e+01    8.252965e-01
  2.881832e+01    8.526841e-01
  2.885007e+01    8.267360e-01
  2.888183e+01    8.222300e-01
  2.891358e+01    8.270777e-01
  2.894533e+01    8.355309e-01
  2.897708e+01    8.236162e-01
  2.900883e+01    8.240805e-01
  2.904058e+01    8.170389e-01
  2.907233e+01    8.307284e-01
  2.910408e+01    8.019700e-01
  2.913583e+01    8.372232e-01
  2.916759e+01    8.167571e-01
  2.919934e+01    8.395264e-01
  2.923109e+01    8.135467e-01
  2.926284e+01    8.070219e-01
  2.929459e+01    8.336404e-01
  2.932634e+01    8.015434e-01
  2.935809e+01    8.045329e-01
  2.938984e+01    8.090370e-01
  2.942159e+01    7.773061e-01
  2.945335e+01    8.206769e-01
  2.948510e+01    8.170148e-01
  2.951685e+01    8.042387e-01
  2.954860e+01    7.933552e-01
  2.958035e+01    8.014737e-01
  2.961210e+01    8.130389e-01
  2.964385e+01    8.089658e-01
  2.967560e+01    7.840098e-01
  2.970736e+01    8.033630e-01
  2.973911e+01    7.960706e-01
  2.977086e+01    8.093576e-01
  2.980261e+01    7.959846e-01
  2.983436e+01    8.061253e-01
  2.986611e+01    7.846586e-01
  2.989786e+01    7.972032e-01
  2.992961e+01    7.991171e-01
  2.996136e+01    7.982879e-01
  2.999312e+01    8.152294e-01
  3.002487e+01    8.166032e-01
  3.005662e+01    8.017550e-01
  3.008837e+01    8.155763e-01
  3.012012e+01    7.963632e-01
  3.015187e+01    8.100721e-01
  3.018362e+01    8.000602e-01
  3.021537e+01    7.849748e-01
  3.024712e+01    7.717328e-01
  3.027888e+01    7.914933e-01
  3.031063e+01    7.898133e-01
  3.034238e+01    7.948770e-01
  3.037413e+01    7.974887e-01
  3.040588e+01    7.670665e-01
  3.043763e+01    7.709941e-01
  3.046938e+01    7.857345e-01
  3.050113e+01    7.573645e-01
  3.053288e+01    7.639360e-01
  3.056464e+01    7.909001e-01
  3.059639e+01    8.083497e-01
  3.062814e+01    7.969536e-01
  3.065989e+01    8.044273e-01
  3.069164e+01    7.968029e-01
  3.072339e+01    7.672361e-01
  3.075514e+01    7.759333e-01
  3.078689e+01    8.024015e-01
  3.081865e+01    7.905412e-01
  3.085040e+01    7.945945e-01
  3.088215e+01    7.952580e-01
  3.091390e+01    8.028098e-01
  3.094565e+01    7.842193e-01
  3.097740e+01    8.004991e-01
  3.100915e+01    8.052731e-01
  3.104090e+01    7.732050e-01
  3.107265e+01    7.815110e-01
  3.110441e+01    7.743115e-01
  3.113616e+01    7.917663e-01
  3.116791e+01    7.923705e-01
  3.119966e+01    7.870603e-01
  3.123141e+01    7.812889e-01
  3.126316e+01    8.126092e-01
  3.129491e+01    7.997419e-01
  3.132666e+01    7.772465e-01
  3.135841e+01    8.163433e-01
  3.139017e+01    7.942150e-01
  3.142192e+01    8.305672e-01
  3.145367e+01    8.199593e-01
  3.148542e+01    8.226624e-01
  3.151717e+01    8.489325e-01
  3.154892e+01    8.476223e-01
  3.158067e+01    8.634343e-01
  3.161242e+01    8.798482e-01
  3.164418e+01    9.171048e-01
  3.167593e+01    9.365488e-01
  3.170768e+01    1.018573e+00
  3.173943e+01    1.098719e+00
  3.177118e+01    1.272962e+00
  3.180293e+01    1.477280e+00
  3.183468e+01    1.699757e+00
  3.186643e+01    1.954526e+00
  3.189818e+01    2.116838e+00
  3.192994e+01    2.050845e+00
  3.196169e+01    1.809358e+00
  3.199344e+01    1.582825e+00
  3.202519e+01    1.303022e+00
  3.205694e+01    1.166981e+00
  3.208869e+01    1.038321e+00
  3.212044e+01    9.804431e-01
  3.215219e+01    9.069000e-01
  3.218394e+01    9.086108e-01
  3.221570e+01    8.456677e-01
  3.224745e+01    8.442041e-01
  3.227920e+01    8.283271e-01
  3.231095e+01    8.074429e-01
  3.234270e+01    8.150008e-01
  3.237445e+01    8.100009e-01
  3.240620e+01    7.830423e-01
  3.243795e+01    8.090534e-01
  3.246970e+01    7.594694e-01
  3.250146e+01    7.907888e-01
  3.253321e+01    7.515060e-01
  3.254908e+01    7.731887e-01