File: XRD/Reaction conditions/2024-07-27_003_Ru-CGO-ex_Reaction_dwell_000023_data_000132.dat
# == pyFAI calibration ==
# Distance Sample to Detector: 0.4 m
# PONI: 9.750e-02, 1.135e-01 m
# Rotations: -0.000175 0.000000 -0.000000 rad
#
# == Fit2d calibration ==
# Distance Sample-beamCenter: 400.000 mm
# Center: x=1514.000, y=1300.000 pix
# Tilt: 0.010 deg  TiltPlanRot: 0.010 deg
#
# Detector Detector	 Spline= None	 PixelSize= 7.500e-05, 7.500e-05 m
#    Detector has a mask: False
#    Detector has a dark current: False
#    detector has a flat field: False
#
# Wavelength: 6.888e-11 m
# Mask applied: user provided
# Dark current applied: False
# Flat field applied: False
# Polarization factor: 0.99
# Normalization factor: 1.0
# --> /home/myspot/data/2024_07_Rosario/Ru-CGO-ex/2024-07-27_003_Ru-CGO-ex_Reaction_dwell_000023_data_000132.dat
#       q_nm^-1             I
  2.003187e-02    1.542462e-01
  5.178302e-02    0.000000e+00
  8.353417e-02    2.739879e-01
  1.152853e-01    1.734505e-01
  1.470365e-01    1.380181e-02
  1.787876e-01    9.365073e-02
  2.105388e-01    7.523759e-03
  2.422899e-01    3.373378e-02
  2.740411e-01    4.397293e-02
  3.057922e-01    2.479726e-02
  3.375433e-01    3.646826e-02
  3.692945e-01    2.235979e-02
  4.010456e-01    1.647807e-02
  4.327968e-01    8.283384e-02
  4.645479e-01    4.248012e-02
  4.962991e-01    6.046801e-02
  5.280502e-01    3.973108e-02
  5.598014e-01    3.338976e-02
  5.915525e-01    4.523633e-02
  6.233037e-01    2.765982e-02
  6.550548e-01    4.088470e-02
  6.868060e-01    2.760384e-02
  7.185571e-01    6.709105e-02
  7.503083e-01    7.947262e-02
  7.820594e-01    8.964488e-02
  8.138106e-01    1.877881e-01
  8.455617e-01    3.194801e-01
  8.773129e-01    4.576574e-01
  9.090640e-01    6.341151e-01
  9.408152e-01    8.704273e-01
  9.725663e-01    1.065669e+00
  1.004317e+00    1.213073e+00
  1.036069e+00    1.428569e+00
  1.067820e+00    1.493045e+00
  1.099571e+00    1.623371e+00
  1.131322e+00    1.772265e+00
  1.163073e+00    1.695197e+00
  1.194824e+00    1.894899e+00
  1.226575e+00    2.242079e+00
  1.258327e+00    2.440902e+00
  1.290078e+00    2.843035e+00
  1.321829e+00    2.684030e+00
  1.353580e+00    2.839500e+00
  1.385331e+00    2.787465e+00
  1.417082e+00    2.991793e+00
  1.448834e+00    2.886378e+00
  1.480585e+00    3.106129e+00
  1.512336e+00    3.131805e+00
  1.544087e+00    3.285078e+00
  1.575838e+00    3.230184e+00
  1.607589e+00    3.113529e+00
  1.639340e+00    3.068182e+00
  1.671092e+00    3.090650e+00
  1.702843e+00    3.141691e+00
  1.734594e+00    3.111064e+00
  1.766345e+00    3.203292e+00
  1.798096e+00    3.079159e+00
  1.829847e+00    3.136336e+00
  1.861598e+00    2.969047e+00
  1.893350e+00    3.137600e+00
  1.925101e+00    3.115883e+00
  1.956852e+00    3.106050e+00
  1.988603e+00    3.044894e+00
  2.020354e+00    2.999070e+00
  2.052105e+00    3.146625e+00
  2.083856e+00    3.176765e+00
  2.115608e+00    3.077348e+00
  2.147359e+00    3.067934e+00
  2.179110e+00    3.157093e+00
  2.210861e+00    3.083287e+00
  2.242612e+00    3.132103e+00
  2.274363e+00    3.205392e+00
  2.306115e+00    3.229164e+00
  2.337866e+00    3.096792e+00
  2.369617e+00    3.293679e+00
  2.401368e+00    3.144172e+00
  2.433119e+00    3.264227e+00
  2.464870e+00    3.066054e+00
  2.496621e+00    3.223364e+00
  2.528373e+00    3.086540e+00
  2.560124e+00    3.073099e+00
  2.591875e+00    3.247198e+00
  2.623626e+00    3.210972e+00
  2.655377e+00    3.264930e+00
  2.687128e+00    3.244511e+00
  2.718879e+00    3.237098e+00
  2.750631e+00    3.235486e+00
  2.782382e+00    3.309999e+00
  2.814133e+00    3.324096e+00
  2.845884e+00    3.295159e+00
  2.877635e+00    3.335368e+00
  2.909386e+00    3.314252e+00
  2.941137e+00    3.281960e+00
  2.972889e+00    3.371839e+00
  3.004640e+00    3.351575e+00
  3.036391e+00    3.288706e+00
  3.068142e+00    3.380490e+00
  3.099893e+00    3.293683e+00
  3.131644e+00    3.342324e+00
  3.163395e+00    3.420426e+00
  3.195147e+00    3.352906e+00
  3.226898e+00    3.389241e+00
  3.258649e+00    3.329653e+00
  3.290400e+00    3.347394e+00
  3.322151e+00    3.448741e+00
  3.353902e+00    3.476380e+00
  3.385654e+00    3.417192e+00
  3.417405e+00    3.436033e+00
  3.449156e+00    3.446223e+00
  3.480907e+00    3.489477e+00
  3.512658e+00    3.397229e+00
  3.544409e+00    3.490397e+00
  3.576160e+00    3.385493e+00
  3.607912e+00    3.492351e+00
  3.639663e+00    3.359864e+00
  3.671414e+00    3.417631e+00
  3.703165e+00    3.450540e+00
  3.734916e+00    3.451273e+00
  3.766667e+00    3.520495e+00
  3.798418e+00    3.548567e+00
  3.830170e+00    3.566863e+00
  3.861921e+00    3.537587e+00
  3.893672e+00    3.573228e+00
  3.925423e+00    3.653499e+00
  3.957174e+00    3.517242e+00
  3.988925e+00    3.549796e+00
  4.020676e+00    3.518153e+00
  4.052428e+00    3.582159e+00
  4.084179e+00    3.517311e+00
  4.115930e+00    3.504490e+00
  4.147681e+00    3.583409e+00
  4.179432e+00    3.676055e+00
  4.211183e+00    3.556547e+00
  4.242935e+00    3.613308e+00
  4.274686e+00    3.671558e+00
  4.306437e+00    3.640116e+00
  4.338188e+00    3.564747e+00
  4.369939e+00    3.682266e+00
  4.401690e+00    3.585454e+00
  4.433441e+00    3.614744e+00
  4.465193e+00    3.674762e+00
  4.496944e+00    3.541397e+00
  4.528695e+00    3.603556e+00
  4.560446e+00    3.642038e+00
  4.592197e+00    3.599984e+00
  4.623948e+00    3.581890e+00
  4.655699e+00    3.656707e+00
  4.687451e+00    3.717818e+00
  4.719202e+00    3.634739e+00
  4.750953e+00    3.629094e+00
  4.782704e+00    3.612881e+00
  4.814455e+00    3.620326e+00
  4.846206e+00    3.634582e+00
  4.877957e+00    3.581160e+00
  4.909709e+00    3.602626e+00
  4.941460e+00    3.637306e+00
  4.973211e+00    3.659755e+00
  5.004962e+00    3.733467e+00
  5.036713e+00    3.555770e+00
  5.068464e+00    3.654112e+00
  5.100216e+00    3.656571e+00
  5.131967e+00    3.746672e+00
  5.163718e+00    3.646494e+00
  5.195469e+00    3.706069e+00
  5.227220e+00    3.663046e+00
  5.258971e+00    3.656545e+00
  5.290722e+00    3.706374e+00
  5.322474e+00    3.723011e+00
  5.354225e+00    3.656354e+00
  5.385976e+00    3.739333e+00
  5.417727e+00    3.717932e+00
  5.449478e+00    3.565209e+00
  5.481229e+00    3.651635e+00
  5.512980e+00    3.644593e+00
  5.544732e+00    3.614850e+00
  5.576483e+00    3.525664e+00
  5.608234e+00    3.592726e+00
  5.639985e+00    3.628495e+00
  5.671736e+00    3.605594e+00
  5.703487e+00    3.604152e+00
  5.735238e+00    3.633768e+00
  5.766990e+00    3.611517e+00
  5.798741e+00    3.618248e+00
  5.830492e+00    3.532850e+00
  5.862243e+00    3.531201e+00
  5.893994e+00    3.624359e+00
  5.925745e+00    3.441331e+00
  5.957497e+00    3.573371e+00
  5.989248e+00    3.490595e+00
  6.020999e+00    3.518905e+00
  6.052750e+00    3.522013e+00
  6.084501e+00    3.481450e+00
  6.116252e+00    3.682634e+00
  6.148003e+00    3.613878e+00
  6.179755e+00    3.617547e+00
  6.211506e+00    3.537575e+00
  6.243257e+00    3.550454e+00
  6.275008e+00    3.527482e+00
  6.306759e+00    3.643355e+00
  6.338510e+00    3.632015e+00
  6.370261e+00    3.535764e+00
  6.402013e+00    3.590808e+00
  6.433764e+00    3.575571e+00
  6.465515e+00    3.566262e+00
  6.497266e+00    3.496801e+00
  6.529017e+00    3.504867e+00
  6.560768e+00    3.634806e+00
  6.592519e+00    3.658414e+00
  6.624271e+00    3.541197e+00
  6.656022e+00    3.516820e+00
  6.687773e+00    3.581442e+00
  6.719524e+00    3.547988e+00
  6.751275e+00    3.588112e+00
  6.783026e+00    3.563578e+00
  6.814777e+00    3.535428e+00
  6.846529e+00    3.587978e+00
  6.878280e+00    3.599386e+00
  6.910031e+00    3.650314e+00
  6.941782e+00    3.541084e+00
  6.973533e+00    3.579553e+00
  7.005284e+00    3.567400e+00
  7.037036e+00    3.563294e+00
  7.068787e+00    3.513673e+00
  7.100538e+00    3.570889e+00
  7.132289e+00    3.559282e+00
  7.164040e+00    3.564490e+00
  7.195791e+00    3.496643e+00
  7.227542e+00    3.524783e+00
  7.259294e+00    3.612570e+00
  7.291045e+00    3.514921e+00
  7.322796e+00    3.542169e+00
  7.354547e+00    3.517371e+00
  7.386298e+00    3.576962e+00
  7.418049e+00    3.459363e+00
  7.449800e+00    3.454287e+00
  7.481552e+00    3.515125e+00
  7.513303e+00    3.484973e+00
  7.545054e+00    3.463197e+00
  7.576805e+00    3.458240e+00
  7.608556e+00    3.466192e+00
  7.640307e+00    3.519467e+00
  7.672058e+00    3.485576e+00
  7.703810e+00    3.511395e+00
  7.735561e+00    3.466544e+00
  7.767312e+00    3.420085e+00
  7.799063e+00    3.482128e+00
  7.830814e+00    3.474836e+00
  7.862565e+00    3.545836e+00
  7.894317e+00    3.440864e+00
  7.926068e+00    3.447137e+00
  7.957819e+00    3.385706e+00
  7.989570e+00    3.437040e+00
  8.021321e+00    3.459229e+00
  8.053072e+00    3.467623e+00
  8.084823e+00    3.429991e+00
  8.116575e+00    3.453453e+00
  8.148326e+00    3.499152e+00
  8.180077e+00    3.473509e+00
  8.211828e+00    3.543156e+00
  8.243579e+00    3.480426e+00
  8.275330e+00    3.488157e+00
  8.307081e+00    3.474487e+00
  8.338833e+00    3.410585e+00
  8.370584e+00    3.385760e+00
  8.402335e+00    3.465253e+00
  8.434086e+00    3.329463e+00
  8.465837e+00    3.363866e+00
  8.497588e+00    3.398271e+00
  8.529339e+00    3.439600e+00
  8.561091e+00    3.390578e+00
  8.592842e+00    3.385305e+00
  8.624593e+00    3.349675e+00
  8.656344e+00    3.404041e+00
  8.688095e+00    3.284279e+00
  8.719846e+00    3.262239e+00
  8.751598e+00    3.289602e+00
  8.783349e+00    3.358413e+00
  8.815100e+00    3.365534e+00
  8.846851e+00    3.372361e+00
  8.878602e+00    3.263753e+00
  8.910353e+00    3.352261e+00
  8.942104e+00    3.302539e+00
  8.973856e+00    3.277287e+00
  9.005607e+00    3.345958e+00
  9.037358e+00    3.272768e+00
  9.069109e+00    3.221435e+00
  9.100860e+00    3.254605e+00
  9.132611e+00    3.276899e+00
  9.164362e+00    3.293873e+00
  9.196114e+00    3.230884e+00
  9.227865e+00    3.305851e+00
  9.259616e+00    3.209862e+00
  9.291367e+00    3.337988e+00
  9.323118e+00    3.291572e+00
  9.354869e+00    3.211064e+00
  9.386620e+00    3.269407e+00
  9.418372e+00    3.224106e+00
  9.450123e+00    3.246887e+00
  9.481874e+00    3.264135e+00
  9.513625e+00    3.247791e+00
  9.545376e+00    3.259717e+00
  9.577127e+00    3.259481e+00
  9.608878e+00    3.167365e+00
  9.640630e+00    3.190565e+00
  9.672381e+00    3.241853e+00
  9.704132e+00    3.200831e+00
  9.735883e+00    3.199884e+00
  9.767634e+00    3.194167e+00
  9.799385e+00    3.170406e+00
  9.831137e+00    3.199903e+00
  9.862888e+00    3.197038e+00
  9.894639e+00    3.177869e+00
  9.926390e+00    3.161798e+00
  9.958141e+00    3.125055e+00
  9.989892e+00    3.099485e+00
  1.002164e+01    3.074608e+00
  1.005339e+01    3.068715e+00
  1.008515e+01    3.089314e+00
  1.011690e+01    3.110293e+00
  1.014865e+01    3.135565e+00
  1.018040e+01    3.101522e+00
  1.021215e+01    3.060219e+00
  1.024390e+01    3.076256e+00
  1.027565e+01    3.111090e+00
  1.030740e+01    3.041968e+00
  1.033915e+01    3.044627e+00
  1.037091e+01    3.063609e+00
  1.040266e+01    3.046323e+00
  1.043441e+01    3.055996e+00
  1.046616e+01    3.059890e+00
  1.049791e+01    3.025721e+00
  1.052966e+01    2.980329e+00
  1.056141e+01    3.072865e+00
  1.059316e+01    3.013000e+00
  1.062492e+01    3.030234e+00
  1.065667e+01    3.018447e+00
  1.068842e+01    3.069194e+00
  1.072017e+01    2.963672e+00
  1.075192e+01    2.953354e+00
  1.078367e+01    3.022327e+00
  1.081542e+01    2.961755e+00
  1.084717e+01    2.970245e+00
  1.087892e+01    2.957083e+00
  1.091068e+01    2.902705e+00
  1.094243e+01    2.923544e+00
  1.097418e+01    2.963256e+00
  1.100593e+01    2.874069e+00
  1.103768e+01    2.881653e+00
  1.106943e+01    2.917637e+00
  1.110118e+01    2.934085e+00
  1.113293e+01    2.864151e+00
  1.116468e+01    2.911644e+00
  1.119644e+01    2.894245e+00
  1.122819e+01    2.819568e+00
  1.125994e+01    2.864474e+00
  1.129169e+01    2.869312e+00
  1.132344e+01    2.887941e+00
  1.135519e+01    2.830019e+00
  1.138694e+01    2.818136e+00
  1.141869e+01    2.814949e+00
  1.145045e+01    2.789856e+00
  1.148220e+01    2.783095e+00
  1.151395e+01    2.815638e+00
  1.154570e+01    2.762712e+00
  1.157745e+01    2.754048e+00
  1.160920e+01    2.708153e+00
  1.164095e+01    2.798106e+00
  1.167270e+01    2.793483e+00
  1.170445e+01    2.752755e+00
  1.173621e+01    2.753827e+00
  1.176796e+01    2.735670e+00
  1.179971e+01    2.737586e+00
  1.183146e+01    2.730519e+00
  1.186321e+01    2.736018e+00
  1.189496e+01    2.731191e+00
  1.192671e+01    2.799127e+00
  1.195846e+01    2.702895e+00
  1.199021e+01    2.769808e+00
  1.202197e+01    2.771420e+00
  1.205372e+01    2.689015e+00
  1.208547e+01    2.728041e+00
  1.211722e+01    2.741767e+00
  1.214897e+01    2.696435e+00
  1.218072e+01    2.678581e+00
  1.221247e+01    2.759930e+00
  1.224422e+01    2.690847e+00
  1.227597e+01    2.723394e+00
  1.230773e+01    2.715821e+00
  1.233948e+01    2.689442e+00
  1.237123e+01    2.743222e+00
  1.240298e+01    2.681983e+00
  1.243473e+01    2.700466e+00
  1.246648e+01    2.769249e+00
  1.249823e+01    2.720296e+00
  1.252998e+01    2.724002e+00
  1.256174e+01    2.741203e+00
  1.259349e+01    2.798203e+00
  1.262524e+01    2.768932e+00
  1.265699e+01    2.730620e+00
  1.268874e+01    2.802212e+00
  1.272049e+01    2.895929e+00
  1.275224e+01    2.905771e+00
  1.278399e+01    2.983213e+00
  1.281574e+01    3.033664e+00
  1.284750e+01    3.164538e+00
  1.287925e+01    3.403228e+00
  1.291100e+01    3.685150e+00
  1.294275e+01    4.075636e+00
  1.297450e+01    4.822752e+00
  1.300625e+01    5.864069e+00
  1.303800e+01    7.606438e+00
  1.306975e+01    1.012217e+01
  1.310150e+01    1.267545e+01
  1.313326e+01    1.485667e+01
  1.316501e+01    1.639677e+01
  1.319676e+01    1.567769e+01
  1.322851e+01    1.269604e+01
  1.326026e+01    9.211669e+00
  1.329201e+01    6.769319e+00
  1.332376e+01    5.406619e+00
  1.335551e+01    4.442633e+00
  1.338727e+01    3.902534e+00
  1.341902e+01    3.544663e+00
  1.345077e+01    3.305851e+00
  1.348252e+01    3.022244e+00
  1.351427e+01    2.962249e+00
  1.354602e+01    2.792646e+00
  1.357777e+01    2.776686e+00
  1.360952e+01    2.747865e+00
  1.364127e+01    2.656372e+00
  1.367303e+01    2.574866e+00
  1.370478e+01    2.538634e+00
  1.373653e+01    2.531974e+00
  1.376828e+01    2.531507e+00
  1.380003e+01    2.467077e+00
  1.383178e+01    2.464806e+00
  1.386353e+01    2.415140e+00
  1.389528e+01    2.442379e+00
  1.392703e+01    2.424767e+00
  1.395879e+01    2.425001e+00
  1.399054e+01    2.414375e+00
  1.402229e+01    2.371778e+00
  1.405404e+01    2.336210e+00
  1.408579e+01    2.360062e+00
  1.411754e+01    2.404866e+00
  1.414929e+01    2.328452e+00
  1.418104e+01    2.301335e+00
  1.421279e+01    2.347125e+00
  1.424455e+01    2.327985e+00
  1.427630e+01    2.301880e+00
  1.430805e+01    2.274729e+00
  1.433980e+01    2.275681e+00
  1.437155e+01    2.264645e+00
  1.440330e+01    2.269352e+00
  1.443505e+01    2.267615e+00
  1.446680e+01    2.231710e+00
  1.449856e+01    2.174007e+00
  1.453031e+01    2.242236e+00
  1.456206e+01    2.259437e+00
  1.459381e+01    2.231209e+00
  1.462556e+01    2.271909e+00
  1.465731e+01    2.218574e+00
  1.468906e+01    2.221079e+00
  1.472081e+01    2.201880e+00
  1.475256e+01    2.205462e+00
  1.478432e+01    2.235844e+00
  1.481607e+01    2.173037e+00
  1.484782e+01    2.213006e+00
  1.487957e+01    2.208150e+00
  1.491132e+01    2.209263e+00
  1.494307e+01    2.305449e+00
  1.497482e+01    2.348197e+00
  1.500657e+01    2.467518e+00
  1.503832e+01    2.581380e+00
  1.507008e+01    2.843482e+00
  1.510183e+01    3.137622e+00
  1.513358e+01    3.713340e+00
  1.516533e+01    4.554557e+00
  1.519708e+01    5.216369e+00
  1.522883e+01    5.601287e+00
  1.526058e+01    5.720463e+00
  1.529233e+01    5.457596e+00
  1.532409e+01    4.678555e+00
  1.535584e+01    3.822102e+00
  1.538759e+01    3.185683e+00
  1.541934e+01    2.752330e+00
  1.545109e+01    2.530977e+00
  1.548284e+01    2.357285e+00
  1.551459e+01    2.278041e+00
  1.554634e+01    2.191483e+00
  1.557809e+01    2.156534e+00
  1.560985e+01    2.139180e+00
  1.564160e+01    2.003654e+00
  1.567335e+01    2.018981e+00
  1.570510e+01    2.028464e+00
  1.573685e+01    1.966692e+00
  1.576860e+01    1.961851e+00
  1.580035e+01    1.932687e+00
  1.583210e+01    1.959730e+00
  1.586385e+01    1.923565e+00
  1.589561e+01    1.907239e+00
  1.592736e+01    1.893135e+00
  1.595911e+01    1.887982e+00
  1.599086e+01    1.867820e+00
  1.602261e+01    1.908141e+00
  1.605436e+01    1.847865e+00
  1.608611e+01    1.887274e+00
  1.611786e+01    1.868674e+00
  1.614961e+01    1.807309e+00
  1.618137e+01    1.850215e+00
  1.621312e+01    1.827705e+00
  1.624487e+01    1.837131e+00
  1.627662e+01    1.852740e+00
  1.630837e+01    1.809716e+00
  1.634012e+01    1.823480e+00
  1.637187e+01    1.801227e+00
  1.640362e+01    1.804715e+00
  1.643538e+01    1.781517e+00
  1.646713e+01    1.767182e+00
  1.649888e+01    1.778666e+00
  1.653063e+01    1.749565e+00
  1.656238e+01    1.762934e+00
  1.659413e+01    1.743722e+00
  1.662588e+01    1.726254e+00
  1.665763e+01    1.727625e+00
  1.668938e+01    1.757554e+00
  1.672114e+01    1.718193e+00
  1.675289e+01    1.731354e+00
  1.678464e+01    1.733418e+00
  1.681639e+01    1.716569e+00
  1.684814e+01    1.715686e+00
  1.687989e+01    1.697420e+00
  1.691164e+01    1.701645e+00
  1.694339e+01    1.713785e+00
  1.697514e+01    1.708196e+00
  1.700690e+01    1.696660e+00
  1.703865e+01    1.675439e+00
  1.707040e+01    1.651598e+00
  1.710215e+01    1.664719e+00
  1.713390e+01    1.660550e+00
  1.716565e+01    1.644964e+00
  1.719740e+01    1.638281e+00
  1.722915e+01    1.639407e+00
  1.726091e+01    1.625861e+00
  1.729266e+01    1.606810e+00
  1.732441e+01    1.622602e+00
  1.735616e+01    1.627232e+00
  1.738791e+01    1.626287e+00
  1.741966e+01    1.606593e+00
  1.745141e+01    1.585059e+00
  1.748316e+01    1.595626e+00
  1.751491e+01    1.597770e+00
  1.754667e+01    1.565450e+00
  1.757842e+01    1.599890e+00
  1.761017e+01    1.570216e+00
  1.764192e+01    1.574165e+00
  1.767367e+01    1.561931e+00
  1.770542e+01    1.528511e+00
  1.773717e+01    1.546760e+00
  1.776892e+01    1.549599e+00
  1.780067e+01    1.553389e+00
  1.783243e+01    1.528076e+00
  1.786418e+01    1.524089e+00
  1.789593e+01    1.533637e+00
  1.792768e+01    1.536136e+00
  1.795943e+01    1.498265e+00
  1.799118e+01    1.560903e+00
  1.802293e+01    1.533303e+00
  1.805468e+01    1.517816e+00
  1.808643e+01    1.520652e+00
  1.811819e+01    1.501044e+00
  1.814994e+01    1.502822e+00
  1.818169e+01    1.482431e+00
  1.821344e+01    1.493482e+00
  1.824519e+01    1.488809e+00
  1.827694e+01    1.468651e+00
  1.830869e+01    1.477784e+00
  1.834044e+01    1.452271e+00
  1.837220e+01    1.496739e+00
  1.840395e+01    1.457685e+00
  1.843570e+01    1.446331e+00
  1.846745e+01    1.423090e+00
  1.849920e+01    1.474069e+00
  1.853095e+01    1.464127e+00
  1.856270e+01    1.440510e+00
  1.859445e+01    1.399886e+00
  1.862620e+01    1.421222e+00
  1.865796e+01    1.465098e+00
  1.868971e+01    1.441918e+00
  1.872146e+01    1.404653e+00
  1.875321e+01    1.428374e+00
  1.878496e+01    1.419113e+00
  1.881671e+01    1.430111e+00
  1.884846e+01    1.413988e+00
  1.888021e+01    1.392683e+00
  1.891196e+01    1.407874e+00
  1.894372e+01    1.390372e+00
  1.897547e+01    1.376552e+00
  1.900722e+01    1.408684e+00
  1.903897e+01    1.391918e+00
  1.907072e+01    1.393872e+00
  1.910247e+01    1.379971e+00
  1.913422e+01    1.376157e+00
  1.916597e+01    1.406778e+00
  1.919773e+01    1.378057e+00
  1.922948e+01    1.372565e+00
  1.926123e+01    1.359208e+00
  1.929298e+01    1.390036e+00
  1.932473e+01    1.349698e+00
  1.935648e+01    1.329871e+00
  1.938823e+01    1.344647e+00
  1.941998e+01    1.354808e+00
  1.945173e+01    1.327923e+00
  1.948349e+01    1.359890e+00
  1.951524e+01    1.342782e+00
  1.954699e+01    1.324387e+00
  1.957874e+01    1.312707e+00
  1.961049e+01    1.326156e+00
  1.964224e+01    1.331954e+00
  1.967399e+01    1.288062e+00
  1.970574e+01    1.333112e+00
  1.973749e+01    1.299512e+00
  1.976925e+01    1.305235e+00
  1.980100e+01    1.284523e+00
  1.983275e+01    1.294477e+00
  1.986450e+01    1.322512e+00
  1.989625e+01    1.304560e+00
  1.992800e+01    1.316506e+00
  1.995975e+01    1.298140e+00
  1.999150e+01    1.278480e+00
  2.002325e+01    1.284282e+00
  2.005501e+01    1.281541e+00
  2.008676e+01    1.275629e+00
  2.011851e+01    1.285483e+00
  2.015026e+01    1.271763e+00
  2.018201e+01    1.270071e+00
  2.021376e+01    1.272610e+00
  2.024551e+01    1.287676e+00
  2.027726e+01    1.264955e+00
  2.030902e+01    1.290446e+00
  2.034077e+01    1.252692e+00
  2.037252e+01    1.254276e+00
  2.040427e+01    1.264858e+00
  2.043602e+01    1.239886e+00
  2.046777e+01    1.222698e+00
  2.049952e+01    1.241145e+00
  2.053127e+01    1.252726e+00
  2.056302e+01    1.241812e+00
  2.059478e+01    1.253620e+00
  2.062653e+01    1.248899e+00
  2.065828e+01    1.209464e+00
  2.069003e+01    1.251326e+00
  2.072178e+01    1.238668e+00
  2.075353e+01    1.224408e+00
  2.078528e+01    1.237900e+00
  2.081703e+01    1.209959e+00
  2.084878e+01    1.207063e+00
  2.088054e+01    1.236613e+00
  2.091229e+01    1.245227e+00
  2.094404e+01    1.224479e+00
  2.097579e+01    1.220068e+00
  2.100754e+01    1.220596e+00
  2.103929e+01    1.237265e+00
  2.107104e+01    1.253776e+00
  2.110279e+01    1.210440e+00
  2.113455e+01    1.204569e+00
  2.116630e+01    1.225764e+00
  2.119805e+01    1.214959e+00
  2.122980e+01    1.253870e+00
  2.126155e+01    1.274075e+00
  2.129330e+01    1.255767e+00
  2.132505e+01    1.295607e+00
  2.135680e+01    1.289606e+00
  2.138855e+01    1.260265e+00
  2.142031e+01    1.303631e+00
  2.145206e+01    1.323983e+00
  2.148381e+01    1.409480e+00
  2.151556e+01    1.442739e+00
  2.154731e+01    1.518990e+00
  2.157906e+01    1.613983e+00
  2.161081e+01    1.774773e+00
  2.164256e+01    1.954650e+00
  2.167431e+01    2.268976e+00
  2.170607e+01    2.780898e+00
  2.173782e+01    3.509894e+00
  2.176957e+01    4.541950e+00
  2.180132e+01    5.832158e+00
  2.183307e+01    7.154922e+00
  2.186482e+01    8.288112e+00
  2.189657e+01    8.868442e+00
  2.192832e+01    8.313022e+00
  2.196007e+01    6.695609e+00
  2.199183e+01    4.934062e+00
  2.202358e+01    3.662695e+00
  2.205533e+01    2.841444e+00
  2.208708e+01    2.379346e+00
  2.211883e+01    2.000517e+00
  2.215058e+01    1.796348e+00
  2.218233e+01    1.615735e+00
  2.221408e+01    1.519187e+00
  2.224584e+01    1.397579e+00
  2.227759e+01    1.341882e+00
  2.230934e+01    1.302120e+00
  2.234109e+01    1.262327e+00
  2.237284e+01    1.239475e+00
  2.240459e+01    1.193380e+00
  2.243634e+01    1.190116e+00
  2.246809e+01    1.185925e+00
  2.249984e+01    1.152248e+00
  2.253160e+01    1.149276e+00
  2.256335e+01    1.122265e+00
  2.259510e+01    1.106681e+00
  2.262685e+01    1.117967e+00
  2.265860e+01    1.098955e+00
  2.269035e+01    1.105284e+00
  2.272210e+01    1.077962e+00
  2.275385e+01    1.073807e+00
  2.278560e+01    1.084496e+00
  2.281736e+01    1.069983e+00
  2.284911e+01    1.068542e+00
  2.288086e+01    1.029970e+00
  2.291261e+01    1.066697e+00
  2.294436e+01    1.031818e+00
  2.297611e+01    1.006688e+00
  2.300786e+01    1.029232e+00
  2.303961e+01    1.010365e+00
  2.307137e+01    1.024659e+00
  2.310312e+01    9.965588e-01
  2.313487e+01    1.025915e+00
  2.316662e+01    1.006010e+00
  2.319837e+01    9.799303e-01
  2.323012e+01    9.943866e-01
  2.326187e+01    9.912925e-01
  2.329362e+01    9.773923e-01
  2.332537e+01    9.789756e-01
  2.335713e+01    1.013705e+00
  2.338888e+01    9.809231e-01
  2.342063e+01    9.955141e-01
  2.345238e+01    9.517910e-01
  2.348413e+01    9.799090e-01
  2.351588e+01    9.395472e-01
  2.354763e+01    9.838794e-01
  2.357938e+01    9.650306e-01
  2.361113e+01    9.795633e-01
  2.364289e+01    9.526095e-01
  2.367464e+01    9.556617e-01
  2.370639e+01    9.163356e-01
  2.373814e+01    9.185278e-01
  2.376989e+01    9.280840e-01
  2.380164e+01    9.329938e-01
  2.383339e+01    9.092509e-01
  2.386514e+01    9.282664e-01
  2.389689e+01    9.216226e-01
  2.392865e+01    8.980689e-01
  2.396040e+01    9.049499e-01
  2.399215e+01    9.249727e-01
  2.402390e+01    9.026451e-01
  2.405565e+01    9.022224e-01
  2.408740e+01    8.802767e-01
  2.411915e+01    8.833355e-01
  2.415090e+01    9.123784e-01
  2.418266e+01    8.799502e-01
  2.421441e+01    8.708205e-01
  2.424616e+01    8.777074e-01
  2.427791e+01    9.121065e-01
  2.430966e+01    8.881546e-01
  2.434141e+01    9.091951e-01
  2.437316e+01    9.168465e-01
  2.440491e+01    8.773464e-01
  2.443666e+01    8.988805e-01
  2.446842e+01    9.255469e-01
  2.450017e+01    8.857547e-01
  2.453192e+01    8.969090e-01
  2.456367e+01    9.000869e-01
  2.459542e+01    9.133996e-01
  2.462717e+01    8.960898e-01
  2.465892e+01    9.095722e-01
  2.469067e+01    8.941581e-01
  2.472242e+01    8.915833e-01
  2.475418e+01    8.948709e-01
  2.478593e+01    8.897108e-01
  2.481768e+01    8.992255e-01
  2.484943e+01    8.992385e-01
  2.488118e+01    8.628905e-01
  2.491293e+01    8.767624e-01
  2.494468e+01    8.844057e-01
  2.497643e+01    9.006144e-01
  2.500819e+01    9.155976e-01
  2.503994e+01    8.784279e-01
  2.507169e+01    8.970358e-01
  2.510344e+01    9.258025e-01
  2.513519e+01    9.132551e-01
  2.516694e+01    9.287243e-01
  2.519869e+01    9.474884e-01
  2.523044e+01    9.307585e-01
  2.526219e+01    9.546784e-01
  2.529395e+01    9.324008e-01
  2.532570e+01    9.708368e-01
  2.535745e+01    9.663805e-01
  2.538920e+01    9.964415e-01
  2.542095e+01    1.032978e+00
  2.545270e+01    1.038893e+00
  2.548445e+01    1.055084e+00
  2.551620e+01    1.080556e+00
  2.554795e+01    1.114736e+00
  2.557971e+01    1.159741e+00
  2.561146e+01    1.208538e+00
  2.564321e+01    1.297648e+00
  2.567496e+01    1.406617e+00
  2.570671e+01    1.576679e+00
  2.573846e+01    1.829155e+00
  2.577021e+01    2.186112e+00
  2.580196e+01    2.767395e+00
  2.583371e+01    3.558087e+00
  2.586547e+01    4.630490e+00
  2.589722e+01    5.731503e+00
  2.592897e+01    6.755500e+00
  2.596072e+01    7.195705e+00
  2.599247e+01    6.566530e+00
  2.602422e+01    5.315243e+00
  2.605597e+01    4.023111e+00
  2.608772e+01    3.114387e+00
  2.611948e+01    2.405299e+00
  2.615123e+01    1.977190e+00
  2.618298e+01    1.700477e+00
  2.621473e+01    1.513515e+00
  2.624648e+01    1.373684e+00
  2.627823e+01    1.258262e+00
  2.630998e+01    1.194899e+00
  2.634173e+01    1.126763e+00
  2.637348e+01    1.066347e+00
  2.640524e+01    1.073050e+00
  2.643699e+01    1.044011e+00
  2.646874e+01    1.031336e+00
  2.650049e+01    1.014591e+00
  2.653224e+01    9.962479e-01
  2.656399e+01    1.002425e+00
  2.659574e+01    9.940793e-01
  2.662749e+01    9.822468e-01
  2.665924e+01    9.935717e-01
  2.669100e+01    9.940618e-01
  2.672275e+01    9.713859e-01
  2.675450e+01    9.933889e-01
  2.678625e+01    9.555120e-01
  2.681800e+01    9.973686e-01
  2.684975e+01    9.821482e-01
  2.688150e+01    9.982165e-01
  2.691325e+01    1.007471e+00
  2.694501e+01    1.025872e+00
  2.697676e+01    1.074309e+00
  2.700851e+01    1.094245e+00
  2.704026e+01    1.195998e+00
  2.707201e+01    1.303453e+00
  2.710376e+01    1.465852e+00
  2.713551e+01    1.704801e+00
  2.716726e+01    1.951987e+00
  2.719901e+01    2.155200e+00
  2.723077e+01    2.182009e+00
  2.726252e+01    1.995848e+00
  2.729427e+01    1.727895e+00
  2.732602e+01    1.473648e+00
  2.735777e+01    1.309150e+00
  2.738952e+01    1.163728e+00
  2.742127e+01    1.116135e+00
  2.745302e+01    1.044608e+00
  2.748477e+01    9.941351e-01
  2.751653e+01    9.801150e-01
  2.754828e+01    9.790784e-01
  2.758003e+01    9.553258e-01
  2.761178e+01    9.328704e-01
  2.764353e+01    9.274808e-01
  2.767528e+01    9.016806e-01
  2.770703e+01    8.859480e-01
  2.773878e+01    8.861900e-01
  2.777054e+01    8.850747e-01
  2.780229e+01    8.815841e-01
  2.783404e+01    8.792465e-01
  2.786579e+01    8.821478e-01
  2.789754e+01    8.746572e-01
  2.792929e+01    8.807836e-01
  2.796104e+01    8.708110e-01
  2.799279e+01    8.616424e-01
  2.802454e+01    8.828889e-01
  2.805630e+01    8.730349e-01
  2.808805e+01    8.627622e-01
  2.811980e+01    8.642508e-01
  2.815155e+01    8.417025e-01
  2.818330e+01    8.478315e-01
  2.821505e+01    8.389980e-01
  2.824680e+01    8.529585e-01
  2.827855e+01    8.586249e-01
  2.831030e+01    8.655914e-01
  2.834206e+01    8.470461e-01
  2.837381e+01    8.437248e-01
  2.840556e+01    8.333579e-01
  2.843731e+01    8.275793e-01
  2.846906e+01    8.424938e-01
  2.850081e+01    8.134645e-01
  2.853256e+01    8.275021e-01
  2.856431e+01    8.447414e-01
  2.859606e+01    8.546846e-01
  2.862782e+01    8.466153e-01
  2.865957e+01    8.301468e-01
  2.869132e+01    8.353963e-01
  2.872307e+01    8.435556e-01
  2.875482e+01    8.263623e-01
  2.878657e+01    8.229489e-01
  2.881832e+01    8.630618e-01
  2.885007e+01    8.385117e-01
  2.888183e+01    8.498413e-01
  2.891358e+01    8.160785e-01
  2.894533e+01    8.468339e-01
  2.897708e+01    8.149617e-01
  2.900883e+01    8.108814e-01
  2.904058e+01    8.245551e-01
  2.907233e+01    8.261318e-01
  2.910408e+01    8.271952e-01
  2.913583e+01    8.049362e-01
  2.916759e+01    8.113816e-01
  2.919934e+01    8.074995e-01
  2.923109e+01    8.194495e-01
  2.926284e+01    8.140518e-01
  2.929459e+01    7.996909e-01
  2.932634e+01    8.131855e-01
  2.935809e+01    8.061671e-01
  2.938984e+01    8.271916e-01
  2.942159e+01    8.195916e-01
  2.945335e+01    8.243782e-01
  2.948510e+01    8.030090e-01
  2.951685e+01    8.095233e-01
  2.954860e+01    7.924737e-01
  2.958035e+01    7.917618e-01
  2.961210e+01    7.998375e-01
  2.964385e+01    7.953268e-01
  2.967560e+01    8.122938e-01
  2.970736e+01    8.095232e-01
  2.973911e+01    7.949649e-01
  2.977086e+01    8.125412e-01
  2.980261e+01    8.049650e-01
  2.983436e+01    8.014464e-01
  2.986611e+01    8.019593e-01
  2.989786e+01    8.209544e-01
  2.992961e+01    8.136764e-01
  2.996136e+01    8.092272e-01
  2.999312e+01    8.244580e-01
  3.002487e+01    8.103618e-01
  3.005662e+01    8.153229e-01
  3.008837e+01    8.459349e-01
  3.012012e+01    7.923551e-01
  3.015187e+01    8.066217e-01
  3.018362e+01    7.940386e-01
  3.021537e+01    7.923904e-01
  3.024712e+01    8.114725e-01
  3.027888e+01    7.859063e-01
  3.031063e+01    8.095037e-01
  3.034238e+01    7.888604e-01
  3.037413e+01    7.849940e-01
  3.040588e+01    8.149867e-01
  3.043763e+01    7.968335e-01
  3.046938e+01    7.721893e-01
  3.050113e+01    7.842622e-01
  3.053288e+01    7.838183e-01
  3.056464e+01    7.783116e-01
  3.059639e+01    7.929723e-01
  3.062814e+01    7.908826e-01
  3.065989e+01    7.983619e-01
  3.069164e+01    7.672649e-01
  3.072339e+01    7.806933e-01
  3.075514e+01    7.744147e-01
  3.078689e+01    8.067411e-01
  3.081865e+01    7.823713e-01
  3.085040e+01    7.950950e-01
  3.088215e+01    7.745911e-01
  3.091390e+01    7.786608e-01
  3.094565e+01    7.854912e-01
  3.097740e+01    7.834397e-01
  3.100915e+01    7.770268e-01
  3.104090e+01    7.813829e-01
  3.107265e+01    7.998785e-01
  3.110441e+01    7.987191e-01
  3.113616e+01    7.808008e-01
  3.116791e+01    7.978016e-01
  3.119966e+01    8.146126e-01
  3.123141e+01    7.941527e-01
  3.126316e+01    7.995485e-01
  3.129491e+01    8.002027e-01
  3.132666e+01    7.727897e-01
  3.135841e+01    8.161103e-01
  3.139017e+01    8.183903e-01
  3.142192e+01    8.242849e-01
  3.145367e+01    8.165685e-01
  3.148542e+01    8.150282e-01
  3.151717e+01    8.494133e-01
  3.154892e+01    8.609180e-01
  3.158067e+01    8.550407e-01
  3.161242e+01    8.943062e-01
  3.164418e+01    9.157868e-01
  3.167593e+01    9.630337e-01
  3.170768e+01    1.022358e+00
  3.173943e+01    1.120107e+00
  3.177118e+01    1.235340e+00
  3.180293e+01    1.445116e+00
  3.183468e+01    1.715479e+00
  3.186643e+01    1.944454e+00
  3.189818e+01    2.060789e+00
  3.192994e+01    2.037402e+00
  3.196169e+01    1.834289e+00
  3.199344e+01    1.569926e+00
  3.202519e+01    1.338370e+00
  3.205694e+01    1.152190e+00
  3.208869e+01    1.034346e+00
  3.212044e+01    9.714438e-01
  3.215219e+01    9.458209e-01
  3.218394e+01    8.743159e-01
  3.221570e+01    8.678594e-01
  3.224745e+01    8.452724e-01
  3.227920e+01    8.265720e-01
  3.231095e+01    8.143669e-01
  3.234270e+01    8.026673e-01
  3.237445e+01    7.944250e-01
  3.240620e+01    7.827909e-01
  3.243795e+01    7.792909e-01
  3.246970e+01    7.733026e-01
  3.250146e+01    7.860131e-01
  3.253321e+01    7.570222e-01
  3.254908e+01    7.828953e-01