File: XRD/Reaction conditions/2024-07-27_003_Ru-CGO-ex_Reaction_dwell_000023_data_000097.dat
# == pyFAI calibration ==
# Distance Sample to Detector: 0.4 m
# PONI: 9.750e-02, 1.135e-01 m
# Rotations: -0.000175 0.000000 -0.000000 rad
#
# == Fit2d calibration ==
# Distance Sample-beamCenter: 400.000 mm
# Center: x=1514.000, y=1300.000 pix
# Tilt: 0.010 deg  TiltPlanRot: 0.010 deg
#
# Detector Detector	 Spline= None	 PixelSize= 7.500e-05, 7.500e-05 m
#    Detector has a mask: False
#    Detector has a dark current: False
#    detector has a flat field: False
#
# Wavelength: 6.888e-11 m
# Mask applied: user provided
# Dark current applied: False
# Flat field applied: False
# Polarization factor: 0.99
# Normalization factor: 1.0
# --> /home/myspot/data/2024_07_Rosario/Ru-CGO-ex/2024-07-27_003_Ru-CGO-ex_Reaction_dwell_000023_data_000097.dat
#       q_nm^-1             I
  2.003187e-02    0.000000e+00
  5.178302e-02    1.237076e-01
  8.353417e-02    1.671735e-01
  1.152853e-01    3.333306e-02
  1.470365e-01    4.021445e-02
  1.787876e-01    3.366346e-02
  2.105388e-01    2.289613e-02
  2.422899e-01    6.294537e-02
  2.740411e-01    7.234611e-02
  3.057922e-01    4.074092e-02
  3.375433e-01    2.635206e-02
  3.692945e-01    3.599201e-02
  4.010456e-01    2.467430e-02
  4.327968e-01    6.120730e-02
  4.645479e-01    5.923270e-02
  4.962991e-01    4.301232e-02
  5.280502e-01    6.654591e-02
  5.598014e-01    5.613913e-02
  5.915525e-01    2.341025e-02
  6.233037e-01    7.848839e-02
  6.550548e-01    5.767240e-02
  6.868060e-01    4.971660e-02
  7.185571e-01    5.234376e-02
  7.503083e-01    6.925016e-02
  7.820594e-01    1.026935e-01
  8.138106e-01    2.450438e-01
  8.455617e-01    2.913843e-01
  8.773129e-01    4.397850e-01
  9.090640e-01    7.524409e-01
  9.408152e-01    8.468490e-01
  9.725663e-01    1.022518e+00
  1.004317e+00    1.099128e+00
  1.036069e+00    1.270082e+00
  1.067820e+00    1.500602e+00
  1.099571e+00    1.606808e+00
  1.131322e+00    1.689020e+00
  1.163073e+00    1.851417e+00
  1.194824e+00    1.902357e+00
  1.226575e+00    2.243470e+00
  1.258327e+00    2.549813e+00
  1.290078e+00    2.578436e+00
  1.321829e+00    2.667426e+00
  1.353580e+00    2.615589e+00
  1.385331e+00    2.758168e+00
  1.417082e+00    2.904392e+00
  1.448834e+00    2.925061e+00
  1.480585e+00    3.061833e+00
  1.512336e+00    2.990546e+00
  1.544087e+00    3.120178e+00
  1.575838e+00    3.312456e+00
  1.607589e+00    3.079538e+00
  1.639340e+00    3.247866e+00
  1.671092e+00    3.098910e+00
  1.702843e+00    3.104426e+00
  1.734594e+00    3.065126e+00
  1.766345e+00    3.040088e+00
  1.798096e+00    3.000873e+00
  1.829847e+00    3.049635e+00
  1.861598e+00    3.068712e+00
  1.893350e+00    2.889642e+00
  1.925101e+00    2.948062e+00
  1.956852e+00    3.182223e+00
  1.988603e+00    3.099512e+00
  2.020354e+00    3.132400e+00
  2.052105e+00    3.146640e+00
  2.083856e+00    3.111154e+00
  2.115608e+00    3.076857e+00
  2.147359e+00    3.118926e+00
  2.179110e+00    3.031459e+00
  2.210861e+00    3.256560e+00
  2.242612e+00    3.090490e+00
  2.274363e+00    3.156574e+00
  2.306115e+00    3.109395e+00
  2.337866e+00    3.197394e+00
  2.369617e+00    3.181612e+00
  2.401368e+00    3.092651e+00
  2.433119e+00    3.182605e+00
  2.464870e+00    3.133788e+00
  2.496621e+00    3.177481e+00
  2.528373e+00    3.235521e+00
  2.560124e+00    3.183405e+00
  2.591875e+00    3.149957e+00
  2.623626e+00    3.115272e+00
  2.655377e+00    3.229341e+00
  2.687128e+00    3.182948e+00
  2.718879e+00    3.234167e+00
  2.750631e+00    3.317657e+00
  2.782382e+00    3.255637e+00
  2.814133e+00    3.412614e+00
  2.845884e+00    3.223890e+00
  2.877635e+00    3.267545e+00
  2.909386e+00    3.320152e+00
  2.941137e+00    3.307543e+00
  2.972889e+00    3.402783e+00
  3.004640e+00    3.358203e+00
  3.036391e+00    3.374241e+00
  3.068142e+00    3.242636e+00
  3.099893e+00    3.310618e+00
  3.131644e+00    3.372391e+00
  3.163395e+00    3.339040e+00
  3.195147e+00    3.426253e+00
  3.226898e+00    3.364417e+00
  3.258649e+00    3.495462e+00
  3.290400e+00    3.397479e+00
  3.322151e+00    3.424615e+00
  3.353902e+00    3.364422e+00
  3.385654e+00    3.349294e+00
  3.417405e+00    3.405673e+00
  3.449156e+00    3.322656e+00
  3.480907e+00    3.431723e+00
  3.512658e+00    3.409694e+00
  3.544409e+00    3.376603e+00
  3.576160e+00    3.327901e+00
  3.607912e+00    3.484064e+00
  3.639663e+00    3.427758e+00
  3.671414e+00    3.518664e+00
  3.703165e+00    3.364411e+00
  3.734916e+00    3.453500e+00
  3.766667e+00    3.419297e+00
  3.798418e+00    3.526278e+00
  3.830170e+00    3.444629e+00
  3.861921e+00    3.519515e+00
  3.893672e+00    3.528323e+00
  3.925423e+00    3.444938e+00
  3.957174e+00    3.548272e+00
  3.988925e+00    3.538038e+00
  4.020676e+00    3.455913e+00
  4.052428e+00    3.482364e+00
  4.084179e+00    3.489581e+00
  4.115930e+00    3.560153e+00
  4.147681e+00    3.492033e+00
  4.179432e+00    3.602610e+00
  4.211183e+00    3.548840e+00
  4.242935e+00    3.528393e+00
  4.274686e+00    3.582052e+00
  4.306437e+00    3.621191e+00
  4.338188e+00    3.520831e+00
  4.369939e+00    3.574434e+00
  4.401690e+00    3.554933e+00
  4.433441e+00    3.577846e+00
  4.465193e+00    3.522850e+00
  4.496944e+00    3.636468e+00
  4.528695e+00    3.662884e+00
  4.560446e+00    3.596331e+00
  4.592197e+00    3.554938e+00
  4.623948e+00    3.645794e+00
  4.655699e+00    3.566570e+00
  4.687451e+00    3.570845e+00
  4.719202e+00    3.682891e+00
  4.750953e+00    3.637030e+00
  4.782704e+00    3.712368e+00
  4.814455e+00    3.618770e+00
  4.846206e+00    3.728423e+00
  4.877957e+00    3.619145e+00
  4.909709e+00    3.620340e+00
  4.941460e+00    3.719024e+00
  4.973211e+00    3.572793e+00
  5.004962e+00    3.670513e+00
  5.036713e+00    3.611732e+00
  5.068464e+00    3.740153e+00
  5.100216e+00    3.687088e+00
  5.131967e+00    3.618037e+00
  5.163718e+00    3.677945e+00
  5.195469e+00    3.651578e+00
  5.227220e+00    3.626743e+00
  5.258971e+00    3.627501e+00
  5.290722e+00    3.635776e+00
  5.322474e+00    3.763694e+00
  5.354225e+00    3.654000e+00
  5.385976e+00    3.612379e+00
  5.417727e+00    3.641002e+00
  5.449478e+00    3.573264e+00
  5.481229e+00    3.500281e+00
  5.512980e+00    3.583588e+00
  5.544732e+00    3.676742e+00
  5.576483e+00    3.554003e+00
  5.608234e+00    3.503460e+00
  5.639985e+00    3.631289e+00
  5.671736e+00    3.597827e+00
  5.703487e+00    3.523706e+00
  5.735238e+00    3.571749e+00
  5.766990e+00    3.514407e+00
  5.798741e+00    3.516940e+00
  5.830492e+00    3.511763e+00
  5.862243e+00    3.471276e+00
  5.893994e+00    3.577259e+00
  5.925745e+00    3.585402e+00
  5.957497e+00    3.514763e+00
  5.989248e+00    3.565214e+00
  6.020999e+00    3.606956e+00
  6.052750e+00    3.532240e+00
  6.084501e+00    3.617026e+00
  6.116252e+00    3.697966e+00
  6.148003e+00    3.616099e+00
  6.179755e+00    3.588393e+00
  6.211506e+00    3.536579e+00
  6.243257e+00    3.594510e+00
  6.275008e+00    3.593589e+00
  6.306759e+00    3.600112e+00
  6.338510e+00    3.543164e+00
  6.370261e+00    3.528426e+00
  6.402013e+00    3.611631e+00
  6.433764e+00    3.587711e+00
  6.465515e+00    3.574322e+00
  6.497266e+00    3.597855e+00
  6.529017e+00    3.474827e+00
  6.560768e+00    3.538706e+00
  6.592519e+00    3.517886e+00
  6.624271e+00    3.528111e+00
  6.656022e+00    3.487745e+00
  6.687773e+00    3.654799e+00
  6.719524e+00    3.560592e+00
  6.751275e+00    3.510571e+00
  6.783026e+00    3.522482e+00
  6.814777e+00    3.548978e+00
  6.846529e+00    3.532081e+00
  6.878280e+00    3.626110e+00
  6.910031e+00    3.473739e+00
  6.941782e+00    3.545361e+00
  6.973533e+00    3.475426e+00
  7.005284e+00    3.489239e+00
  7.037036e+00    3.496521e+00
  7.068787e+00    3.489312e+00
  7.100538e+00    3.551877e+00
  7.132289e+00    3.575474e+00
  7.164040e+00    3.471886e+00
  7.195791e+00    3.511457e+00
  7.227542e+00    3.422594e+00
  7.259294e+00    3.549431e+00
  7.291045e+00    3.519086e+00
  7.322796e+00    3.519907e+00
  7.354547e+00    3.502799e+00
  7.386298e+00    3.502465e+00
  7.418049e+00    3.555005e+00
  7.449800e+00    3.491978e+00
  7.481552e+00    3.459521e+00
  7.513303e+00    3.555766e+00
  7.545054e+00    3.457581e+00
  7.576805e+00    3.522591e+00
  7.608556e+00    3.437745e+00
  7.640307e+00    3.505015e+00
  7.672058e+00    3.484866e+00
  7.703810e+00    3.428783e+00
  7.735561e+00    3.435368e+00
  7.767312e+00    3.390026e+00
  7.799063e+00    3.448425e+00
  7.830814e+00    3.432676e+00
  7.862565e+00    3.421728e+00
  7.894317e+00    3.406462e+00
  7.926068e+00    3.427173e+00
  7.957819e+00    3.432553e+00
  7.989570e+00    3.436155e+00
  8.021321e+00    3.465728e+00
  8.053072e+00    3.364817e+00
  8.084823e+00    3.381865e+00
  8.116575e+00    3.378098e+00
  8.148326e+00    3.463199e+00
  8.180077e+00    3.405220e+00
  8.211828e+00    3.516611e+00
  8.243579e+00    3.461262e+00
  8.275330e+00    3.428279e+00
  8.307081e+00    3.444934e+00
  8.338833e+00    3.393657e+00
  8.370584e+00    3.367409e+00
  8.402335e+00    3.438896e+00
  8.434086e+00    3.399440e+00
  8.465837e+00    3.370924e+00
  8.497588e+00    3.428473e+00
  8.529339e+00    3.363370e+00
  8.561091e+00    3.409292e+00
  8.592842e+00    3.338092e+00
  8.624593e+00    3.348170e+00
  8.656344e+00    3.355360e+00
  8.688095e+00    3.350431e+00
  8.719846e+00    3.357674e+00
  8.751598e+00    3.311585e+00
  8.783349e+00    3.295780e+00
  8.815100e+00    3.379465e+00
  8.846851e+00    3.309979e+00
  8.878602e+00    3.302239e+00
  8.910353e+00    3.345745e+00
  8.942104e+00    3.369140e+00
  8.973856e+00    3.281134e+00
  9.005607e+00    3.248577e+00
  9.037358e+00    3.264385e+00
  9.069109e+00    3.219949e+00
  9.100860e+00    3.247682e+00
  9.132611e+00    3.199181e+00
  9.164362e+00    3.235935e+00
  9.196114e+00    3.285990e+00
  9.227865e+00    3.290177e+00
  9.259616e+00    3.226490e+00
  9.291367e+00    3.226533e+00
  9.323118e+00    3.182464e+00
  9.354869e+00    3.199059e+00
  9.386620e+00    3.205652e+00
  9.418372e+00    3.205034e+00
  9.450123e+00    3.233279e+00
  9.481874e+00    3.171584e+00
  9.513625e+00    3.296927e+00
  9.545376e+00    3.169969e+00
  9.577127e+00    3.260755e+00
  9.608878e+00    3.220877e+00
  9.640630e+00    3.227071e+00
  9.672381e+00    3.181631e+00
  9.704132e+00    3.162864e+00
  9.735883e+00    3.189804e+00
  9.767634e+00    3.167445e+00
  9.799385e+00    3.156116e+00
  9.831137e+00    3.125500e+00
  9.862888e+00    3.162868e+00
  9.894639e+00    3.105095e+00
  9.926390e+00    3.110821e+00
  9.958141e+00    3.176067e+00
  9.989892e+00    3.114983e+00
  1.002164e+01    3.094015e+00
  1.005339e+01    3.060103e+00
  1.008515e+01    3.102634e+00
  1.011690e+01    3.055824e+00
  1.014865e+01    3.132163e+00
  1.018040e+01    3.052519e+00
  1.021215e+01    3.077028e+00
  1.024390e+01    3.010247e+00
  1.027565e+01    3.083014e+00
  1.030740e+01    3.055725e+00
  1.033915e+01    3.104799e+00
  1.037091e+01    3.083220e+00
  1.040266e+01    3.097324e+00
  1.043441e+01    3.021860e+00
  1.046616e+01    3.055146e+00
  1.049791e+01    3.007870e+00
  1.052966e+01    3.015313e+00
  1.056141e+01    3.061506e+00
  1.059316e+01    2.982845e+00
  1.062492e+01    2.961012e+00
  1.065667e+01    2.995087e+00
  1.068842e+01    2.999204e+00
  1.072017e+01    3.005492e+00
  1.075192e+01    2.968372e+00
  1.078367e+01    2.980592e+00
  1.081542e+01    2.900558e+00
  1.084717e+01    2.945575e+00
  1.087892e+01    2.939784e+00
  1.091068e+01    2.941722e+00
  1.094243e+01    2.949753e+00
  1.097418e+01    2.906322e+00
  1.100593e+01    2.910053e+00
  1.103768e+01    2.880813e+00
  1.106943e+01    2.848074e+00
  1.110118e+01    2.888518e+00
  1.113293e+01    2.814608e+00
  1.116468e+01    2.889396e+00
  1.119644e+01    2.864149e+00
  1.122819e+01    2.900974e+00
  1.125994e+01    2.838528e+00
  1.129169e+01    2.825804e+00
  1.132344e+01    2.825088e+00
  1.135519e+01    2.840331e+00
  1.138694e+01    2.803753e+00
  1.141869e+01    2.806096e+00
  1.145045e+01    2.789226e+00
  1.148220e+01    2.799672e+00
  1.151395e+01    2.805629e+00
  1.154570e+01    2.796044e+00
  1.157745e+01    2.780895e+00
  1.160920e+01    2.813422e+00
  1.164095e+01    2.794828e+00
  1.167270e+01    2.752662e+00
  1.170445e+01    2.761271e+00
  1.173621e+01    2.765933e+00
  1.176796e+01    2.694138e+00
  1.179971e+01    2.765661e+00
  1.183146e+01    2.706934e+00
  1.186321e+01    2.759457e+00
  1.189496e+01    2.746304e+00
  1.192671e+01    2.708284e+00
  1.195846e+01    2.764153e+00
  1.199021e+01    2.756652e+00
  1.202197e+01    2.711399e+00
  1.205372e+01    2.672134e+00
  1.208547e+01    2.727993e+00
  1.211722e+01    2.703940e+00
  1.214897e+01    2.690804e+00
  1.218072e+01    2.691648e+00
  1.221247e+01    2.664704e+00
  1.224422e+01    2.683278e+00
  1.227597e+01    2.697543e+00
  1.230773e+01    2.687248e+00
  1.233948e+01    2.684171e+00
  1.237123e+01    2.699870e+00
  1.240298e+01    2.764191e+00
  1.243473e+01    2.736279e+00
  1.246648e+01    2.733773e+00
  1.249823e+01    2.718361e+00
  1.252998e+01    2.707061e+00
  1.256174e+01    2.730513e+00
  1.259349e+01    2.719061e+00
  1.262524e+01    2.699062e+00
  1.265699e+01    2.824775e+00
  1.268874e+01    2.840596e+00
  1.272049e+01    2.858988e+00
  1.275224e+01    2.953515e+00
  1.278399e+01    2.957263e+00
  1.281574e+01    3.021467e+00
  1.284750e+01    3.169752e+00
  1.287925e+01    3.390307e+00
  1.291100e+01    3.649497e+00
  1.294275e+01    4.122262e+00
  1.297450e+01    4.804368e+00
  1.300625e+01    5.929975e+00
  1.303800e+01    7.663908e+00
  1.306975e+01    1.016903e+01
  1.310150e+01    1.262663e+01
  1.313326e+01    1.487297e+01
  1.316501e+01    1.627180e+01
  1.319676e+01    1.575173e+01
  1.322851e+01    1.247185e+01
  1.326026e+01    9.126419e+00
  1.329201e+01    6.826154e+00
  1.332376e+01    5.338766e+00
  1.335551e+01    4.424179e+00
  1.338727e+01    3.911879e+00
  1.341902e+01    3.511953e+00
  1.345077e+01    3.225638e+00
  1.348252e+01    3.112116e+00
  1.351427e+01    2.913965e+00
  1.354602e+01    2.871652e+00
  1.357777e+01    2.737894e+00
  1.360952e+01    2.661724e+00
  1.364127e+01    2.604253e+00
  1.367303e+01    2.594215e+00
  1.370478e+01    2.521921e+00
  1.373653e+01    2.518635e+00
  1.376828e+01    2.491802e+00
  1.380003e+01    2.458005e+00
  1.383178e+01    2.464900e+00
  1.386353e+01    2.471187e+00
  1.389528e+01    2.454762e+00
  1.392703e+01    2.381120e+00
  1.395879e+01    2.360087e+00
  1.399054e+01    2.370458e+00
  1.402229e+01    2.378581e+00
  1.405404e+01    2.396520e+00
  1.408579e+01    2.346149e+00
  1.411754e+01    2.329484e+00
  1.414929e+01    2.309735e+00
  1.418104e+01    2.250771e+00
  1.421279e+01    2.311979e+00
  1.424455e+01    2.344230e+00
  1.427630e+01    2.298635e+00
  1.430805e+01    2.245141e+00
  1.433980e+01    2.270954e+00
  1.437155e+01    2.290472e+00
  1.440330e+01    2.264063e+00
  1.443505e+01    2.214438e+00
  1.446680e+01    2.197351e+00
  1.449856e+01    2.209258e+00
  1.453031e+01    2.221494e+00
  1.456206e+01    2.235834e+00
  1.459381e+01    2.233736e+00
  1.462556e+01    2.241279e+00
  1.465731e+01    2.183871e+00
  1.468906e+01    2.210675e+00
  1.472081e+01    2.185103e+00
  1.475256e+01    2.217209e+00
  1.478432e+01    2.199053e+00
  1.481607e+01    2.194185e+00
  1.484782e+01    2.223055e+00
  1.487957e+01    2.268308e+00
  1.491132e+01    2.228031e+00
  1.494307e+01    2.268525e+00
  1.497482e+01    2.292120e+00
  1.500657e+01    2.436560e+00
  1.503832e+01    2.561751e+00
  1.507008e+01    2.751122e+00
  1.510183e+01    3.160168e+00
  1.513358e+01    3.745819e+00
  1.516533e+01    4.542501e+00
  1.519708e+01    5.160890e+00
  1.522883e+01    5.579682e+00
  1.526058e+01    5.749715e+00
  1.529233e+01    5.503708e+00
  1.532409e+01    4.621590e+00
  1.535584e+01    3.747020e+00
  1.538759e+01    3.189038e+00
  1.541934e+01    2.787136e+00
  1.545109e+01    2.493011e+00
  1.548284e+01    2.347833e+00
  1.551459e+01    2.248401e+00
  1.554634e+01    2.177485e+00
  1.557809e+01    2.108045e+00
  1.560985e+01    2.050539e+00
  1.564160e+01    2.081497e+00
  1.567335e+01    2.021083e+00
  1.570510e+01    1.960825e+00
  1.573685e+01    1.972675e+00
  1.576860e+01    1.958381e+00
  1.580035e+01    1.937131e+00
  1.583210e+01    1.919397e+00
  1.586385e+01    1.894323e+00
  1.589561e+01    1.869759e+00
  1.592736e+01    1.891425e+00
  1.595911e+01    1.928184e+00
  1.599086e+01    1.889802e+00
  1.602261e+01    1.869694e+00
  1.605436e+01    1.839901e+00
  1.608611e+01    1.850147e+00
  1.611786e+01    1.828724e+00
  1.614961e+01    1.830831e+00
  1.618137e+01    1.872399e+00
  1.621312e+01    1.790423e+00
  1.624487e+01    1.829458e+00
  1.627662e+01    1.807068e+00
  1.630837e+01    1.785863e+00
  1.634012e+01    1.740359e+00
  1.637187e+01    1.766774e+00
  1.640362e+01    1.767481e+00
  1.643538e+01    1.762161e+00
  1.646713e+01    1.769621e+00
  1.649888e+01    1.741291e+00
  1.653063e+01    1.754294e+00
  1.656238e+01    1.731713e+00
  1.659413e+01    1.715490e+00
  1.662588e+01    1.725165e+00
  1.665763e+01    1.723099e+00
  1.668938e+01    1.722402e+00
  1.672114e+01    1.715327e+00
  1.675289e+01    1.723256e+00
  1.678464e+01    1.723571e+00
  1.681639e+01    1.713232e+00
  1.684814e+01    1.680514e+00
  1.687989e+01    1.708833e+00
  1.691164e+01    1.712096e+00
  1.694339e+01    1.686190e+00
  1.697514e+01    1.663177e+00
  1.700690e+01    1.700360e+00
  1.703865e+01    1.644028e+00
  1.707040e+01    1.663337e+00
  1.710215e+01    1.671902e+00
  1.713390e+01    1.644619e+00
  1.716565e+01    1.662352e+00
  1.719740e+01    1.625446e+00
  1.722915e+01    1.646508e+00
  1.726091e+01    1.596176e+00
  1.729266e+01    1.622866e+00
  1.732441e+01    1.603292e+00
  1.735616e+01    1.606518e+00
  1.738791e+01    1.618135e+00
  1.741966e+01    1.595480e+00
  1.745141e+01    1.632618e+00
  1.748316e+01    1.580625e+00
  1.751491e+01    1.606053e+00
  1.754667e+01    1.569124e+00
  1.757842e+01    1.593758e+00
  1.761017e+01    1.582122e+00
  1.764192e+01    1.547104e+00
  1.767367e+01    1.573763e+00
  1.770542e+01    1.548559e+00
  1.773717e+01    1.539707e+00
  1.776892e+01    1.555576e+00
  1.780067e+01    1.527564e+00
  1.783243e+01    1.548981e+00
  1.786418e+01    1.544414e+00
  1.789593e+01    1.497839e+00
  1.792768e+01    1.513606e+00
  1.795943e+01    1.502150e+00
  1.799118e+01    1.520447e+00
  1.802293e+01    1.539809e+00
  1.805468e+01    1.476413e+00
  1.808643e+01    1.517131e+00
  1.811819e+01    1.507716e+00
  1.814994e+01    1.499557e+00
  1.818169e+01    1.455684e+00
  1.821344e+01    1.482694e+00
  1.824519e+01    1.483473e+00
  1.827694e+01    1.468547e+00
  1.830869e+01    1.448975e+00
  1.834044e+01    1.479138e+00
  1.837220e+01    1.484668e+00
  1.840395e+01    1.460709e+00
  1.843570e+01    1.458300e+00
  1.846745e+01    1.433548e+00
  1.849920e+01    1.447102e+00
  1.853095e+01    1.427323e+00
  1.856270e+01    1.451252e+00
  1.859445e+01    1.428086e+00
  1.862620e+01    1.457336e+00
  1.865796e+01    1.417997e+00
  1.868971e+01    1.416608e+00
  1.872146e+01    1.404929e+00
  1.875321e+01    1.399961e+00
  1.878496e+01    1.451446e+00
  1.881671e+01    1.400405e+00
  1.884846e+01    1.437445e+00
  1.888021e+01    1.396141e+00
  1.891196e+01    1.408081e+00
  1.894372e+01    1.390636e+00
  1.897547e+01    1.408095e+00
  1.900722e+01    1.395836e+00
  1.903897e+01    1.378767e+00
  1.907072e+01    1.360806e+00
  1.910247e+01    1.395950e+00
  1.913422e+01    1.341073e+00
  1.916597e+01    1.371546e+00
  1.919773e+01    1.375267e+00
  1.922948e+01    1.347834e+00
  1.926123e+01    1.345035e+00
  1.929298e+01    1.341414e+00
  1.932473e+01    1.385831e+00
  1.935648e+01    1.318479e+00
  1.938823e+01    1.362926e+00
  1.941998e+01    1.374243e+00
  1.945173e+01    1.325078e+00
  1.948349e+01    1.345783e+00
  1.951524e+01    1.340552e+00
  1.954699e+01    1.340048e+00
  1.957874e+01    1.334471e+00
  1.961049e+01    1.342986e+00
  1.964224e+01    1.310994e+00
  1.967399e+01    1.290307e+00
  1.970574e+01    1.287945e+00
  1.973749e+01    1.307146e+00
  1.976925e+01    1.305711e+00
  1.980100e+01    1.300213e+00
  1.983275e+01    1.288888e+00
  1.986450e+01    1.317166e+00
  1.989625e+01    1.266031e+00
  1.992800e+01    1.308935e+00
  1.995975e+01    1.299802e+00
  1.999150e+01    1.285502e+00
  2.002325e+01    1.282159e+00
  2.005501e+01    1.285525e+00
  2.008676e+01    1.281633e+00
  2.011851e+01    1.275809e+00
  2.015026e+01    1.245699e+00
  2.018201e+01    1.269548e+00
  2.021376e+01    1.244774e+00
  2.024551e+01    1.257688e+00
  2.027726e+01    1.247346e+00
  2.030902e+01    1.258015e+00
  2.034077e+01    1.253278e+00
  2.037252e+01    1.236163e+00
  2.040427e+01    1.242965e+00
  2.043602e+01    1.242554e+00
  2.046777e+01    1.237879e+00
  2.049952e+01    1.257369e+00
  2.053127e+01    1.255789e+00
  2.056302e+01    1.244567e+00
  2.059478e+01    1.252130e+00
  2.062653e+01    1.239050e+00
  2.065828e+01    1.231565e+00
  2.069003e+01    1.229758e+00
  2.072178e+01    1.217422e+00
  2.075353e+01    1.220347e+00
  2.078528e+01    1.218890e+00
  2.081703e+01    1.228566e+00
  2.084878e+01    1.228259e+00
  2.088054e+01    1.276025e+00
  2.091229e+01    1.218469e+00
  2.094404e+01    1.213482e+00
  2.097579e+01    1.249775e+00
  2.100754e+01    1.208263e+00
  2.103929e+01    1.207288e+00
  2.107104e+01    1.228015e+00
  2.110279e+01    1.219552e+00
  2.113455e+01    1.240868e+00
  2.116630e+01    1.238302e+00
  2.119805e+01    1.212852e+00
  2.122980e+01    1.252057e+00
  2.126155e+01    1.238618e+00
  2.129330e+01    1.245936e+00
  2.132505e+01    1.290212e+00
  2.135680e+01    1.286080e+00
  2.138855e+01    1.321231e+00
  2.142031e+01    1.306686e+00
  2.145206e+01    1.363885e+00
  2.148381e+01    1.402035e+00
  2.151556e+01    1.427549e+00
  2.154731e+01    1.491170e+00
  2.157906e+01    1.638516e+00
  2.161081e+01    1.760896e+00
  2.164256e+01    1.963440e+00
  2.167431e+01    2.301070e+00
  2.170607e+01    2.777298e+00
  2.173782e+01    3.518370e+00
  2.176957e+01    4.521098e+00
  2.180132e+01    5.852143e+00
  2.183307e+01    7.131094e+00
  2.186482e+01    8.290967e+00
  2.189657e+01    8.912533e+00
  2.192832e+01    8.242478e+00
  2.196007e+01    6.621106e+00
  2.199183e+01    4.899150e+00
  2.202358e+01    3.650496e+00
  2.205533e+01    2.854826e+00
  2.208708e+01    2.323895e+00
  2.211883e+01    2.025744e+00
  2.215058e+01    1.766526e+00
  2.218233e+01    1.591802e+00
  2.221408e+01    1.477894e+00
  2.224584e+01    1.413267e+00
  2.227759e+01    1.332006e+00
  2.230934e+01    1.282635e+00
  2.234109e+01    1.246300e+00
  2.237284e+01    1.246819e+00
  2.240459e+01    1.212593e+00
  2.243634e+01    1.189426e+00
  2.246809e+01    1.173851e+00
  2.249984e+01    1.151837e+00
  2.253160e+01    1.112395e+00
  2.256335e+01    1.151235e+00
  2.259510e+01    1.111317e+00
  2.262685e+01    1.124529e+00
  2.265860e+01    1.101889e+00
  2.269035e+01    1.086745e+00
  2.272210e+01    1.091924e+00
  2.275385e+01    1.066471e+00
  2.278560e+01    1.100233e+00
  2.281736e+01    1.076245e+00
  2.284911e+01    1.048532e+00
  2.288086e+01    1.033243e+00
  2.291261e+01    1.054439e+00
  2.294436e+01    1.054309e+00
  2.297611e+01    1.018188e+00
  2.300786e+01    1.016707e+00
  2.303961e+01    1.019064e+00
  2.307137e+01    1.007801e+00
  2.310312e+01    9.788626e-01
  2.313487e+01    1.014304e+00
  2.316662e+01    9.883693e-01
  2.319837e+01    9.794651e-01
  2.323012e+01    9.979276e-01
  2.326187e+01    9.897673e-01
  2.329362e+01    9.774816e-01
  2.332537e+01    9.963220e-01
  2.335713e+01    9.592948e-01
  2.338888e+01    9.663700e-01
  2.342063e+01    9.817767e-01
  2.345238e+01    9.576368e-01
  2.348413e+01    9.475040e-01
  2.351588e+01    9.468216e-01
  2.354763e+01    9.721043e-01
  2.357938e+01    9.764010e-01
  2.361113e+01    9.692830e-01
  2.364289e+01    9.388274e-01
  2.367464e+01    9.697900e-01
  2.370639e+01    9.574608e-01
  2.373814e+01    9.291953e-01
  2.376989e+01    9.102932e-01
  2.380164e+01    9.140607e-01
  2.383339e+01    9.314701e-01
  2.386514e+01    9.020141e-01
  2.389689e+01    9.298675e-01
  2.392865e+01    9.046995e-01
  2.396040e+01    9.049564e-01
  2.399215e+01    8.892976e-01
  2.402390e+01    9.102643e-01
  2.405565e+01    8.819433e-01
  2.408740e+01    9.187313e-01
  2.411915e+01    8.806870e-01
  2.415090e+01    8.741975e-01
  2.418266e+01    8.898079e-01
  2.421441e+01    8.725098e-01
  2.424616e+01    9.030331e-01
  2.427791e+01    8.857347e-01
  2.430966e+01    8.871184e-01
  2.434141e+01    8.901727e-01
  2.437316e+01    8.817665e-01
  2.440491e+01    8.975803e-01
  2.443666e+01    8.973111e-01
  2.446842e+01    8.844830e-01
  2.450017e+01    8.989670e-01
  2.453192e+01    9.243196e-01
  2.456367e+01    8.794307e-01
  2.459542e+01    8.803923e-01
  2.462717e+01    8.783445e-01
  2.465892e+01    8.829240e-01
  2.469067e+01    8.837981e-01
  2.472242e+01    8.845756e-01
  2.475418e+01    8.873049e-01
  2.478593e+01    8.943721e-01
  2.481768e+01    8.911917e-01
  2.484943e+01    8.851567e-01
  2.488118e+01    8.923011e-01
  2.491293e+01    9.019364e-01
  2.494468e+01    8.905997e-01
  2.497643e+01    9.205827e-01
  2.500819e+01    8.927274e-01
  2.503994e+01    9.166368e-01
  2.507169e+01    9.061679e-01
  2.510344e+01    8.928685e-01
  2.513519e+01    9.129709e-01
  2.516694e+01    9.178558e-01
  2.519869e+01    9.031887e-01
  2.523044e+01    9.229945e-01
  2.526219e+01    9.219924e-01
  2.529395e+01    9.736561e-01
  2.532570e+01    9.552406e-01
  2.535745e+01    9.671218e-01
  2.538920e+01    9.808751e-01
  2.542095e+01    9.788771e-01
  2.545270e+01    1.000458e+00
  2.548445e+01    1.041025e+00
  2.551620e+01    1.069627e+00
  2.554795e+01    1.102866e+00
  2.557971e+01    1.137632e+00
  2.561146e+01    1.204969e+00
  2.564321e+01    1.322816e+00
  2.567496e+01    1.404850e+00
  2.570671e+01    1.587891e+00
  2.573846e+01    1.827476e+00
  2.577021e+01    2.204122e+00
  2.580196e+01    2.822407e+00
  2.583371e+01    3.608185e+00
  2.586547e+01    4.654669e+00
  2.589722e+01    5.822298e+00
  2.592897e+01    6.777840e+00
  2.596072e+01    7.165366e+00
  2.599247e+01    6.617129e+00
  2.602422e+01    5.316334e+00
  2.605597e+01    4.001782e+00
  2.608772e+01    3.046273e+00
  2.611948e+01    2.384650e+00
  2.615123e+01    1.996590e+00
  2.618298e+01    1.687945e+00
  2.621473e+01    1.484356e+00
  2.624648e+01    1.343365e+00
  2.627823e+01    1.254029e+00
  2.630998e+01    1.194815e+00
  2.634173e+01    1.133608e+00
  2.637348e+01    1.070617e+00
  2.640524e+01    1.046199e+00
  2.643699e+01    1.017248e+00
  2.646874e+01    1.016312e+00
  2.650049e+01    9.925461e-01
  2.653224e+01    1.010194e+00
  2.656399e+01    9.644527e-01
  2.659574e+01    9.935692e-01
  2.662749e+01    9.860037e-01
  2.665924e+01    9.830399e-01
  2.669100e+01    9.548429e-01
  2.672275e+01    9.747450e-01
  2.675450e+01    9.633935e-01
  2.678625e+01    9.806934e-01
  2.681800e+01    9.606590e-01
  2.684975e+01    9.748194e-01
  2.688150e+01    1.022397e+00
  2.691325e+01    9.853684e-01
  2.694501e+01    1.009900e+00
  2.697676e+01    1.088836e+00
  2.700851e+01    1.108363e+00
  2.704026e+01    1.186686e+00
  2.707201e+01    1.342796e+00
  2.710376e+01    1.496914e+00
  2.713551e+01    1.714721e+00
  2.716726e+01    1.944388e+00
  2.719901e+01    2.136543e+00
  2.723077e+01    2.150203e+00
  2.726252e+01    1.959600e+00
  2.729427e+01    1.738436e+00
  2.732602e+01    1.466471e+00
  2.735777e+01    1.271936e+00
  2.738952e+01    1.159659e+00
  2.742127e+01    1.103549e+00
  2.745302e+01    1.070596e+00
  2.748477e+01    1.002583e+00
  2.751653e+01    1.000087e+00
  2.754828e+01    9.584038e-01
  2.758003e+01    9.254319e-01
  2.761178e+01    9.341800e-01
  2.764353e+01    9.166991e-01
  2.767528e+01    9.308880e-01
  2.770703e+01    9.093310e-01
  2.773878e+01    9.080111e-01
  2.777054e+01    8.703653e-01
  2.780229e+01    8.926939e-01
  2.783404e+01    9.115601e-01
  2.786579e+01    8.920588e-01
  2.789754e+01    8.897844e-01
  2.792929e+01    8.836368e-01
  2.796104e+01    8.725739e-01
  2.799279e+01    8.737583e-01
  2.802454e+01    8.859895e-01
  2.805630e+01    8.831342e-01
  2.808805e+01    8.640268e-01
  2.811980e+01    8.588389e-01
  2.815155e+01    8.730018e-01
  2.818330e+01    8.617052e-01
  2.821505e+01    8.460585e-01
  2.824680e+01    8.371938e-01
  2.827855e+01    8.460898e-01
  2.831030e+01    8.426169e-01
  2.834206e+01    8.415241e-01
  2.837381e+01    8.685098e-01
  2.840556e+01    8.327729e-01
  2.843731e+01    8.327609e-01
  2.846906e+01    8.171608e-01
  2.850081e+01    8.137321e-01
  2.853256e+01    8.424098e-01
  2.856431e+01    8.599853e-01
  2.859606e+01    8.501210e-01
  2.862782e+01    8.497039e-01
  2.865957e+01    8.448268e-01
  2.869132e+01    8.415095e-01
  2.872307e+01    8.141170e-01
  2.875482e+01    8.177420e-01
  2.878657e+01    8.155430e-01
  2.881832e+01    8.327396e-01
  2.885007e+01    8.006324e-01
  2.888183e+01    8.106149e-01
  2.891358e+01    8.049278e-01
  2.894533e+01    8.041113e-01
  2.897708e+01    8.199103e-01
  2.900883e+01    8.193503e-01
  2.904058e+01    8.125117e-01
  2.907233e+01    8.501823e-01
  2.910408e+01    7.819718e-01
  2.913583e+01    8.106734e-01
  2.916759e+01    8.129324e-01
  2.919934e+01    7.972654e-01
  2.923109e+01    8.338904e-01
  2.926284e+01    8.120085e-01
  2.929459e+01    8.297781e-01
  2.932634e+01    8.038079e-01
  2.935809e+01    8.222892e-01
  2.938984e+01    8.166916e-01
  2.942159e+01    7.919920e-01
  2.945335e+01    7.913527e-01
  2.948510e+01    8.288925e-01
  2.951685e+01    7.969701e-01
  2.954860e+01    8.122512e-01
  2.958035e+01    8.105873e-01
  2.961210e+01    8.081101e-01
  2.964385e+01    7.965480e-01
  2.967560e+01    7.890375e-01
  2.970736e+01    7.816018e-01
  2.973911e+01    8.065944e-01
  2.977086e+01    8.192936e-01
  2.980261e+01    8.010443e-01
  2.983436e+01    7.868648e-01
  2.986611e+01    8.003159e-01
  2.989786e+01    8.026993e-01
  2.992961e+01    7.979320e-01
  2.996136e+01    8.231106e-01
  2.999312e+01    7.948048e-01
  3.002487e+01    8.018682e-01
  3.005662e+01    8.022745e-01
  3.008837e+01    7.972242e-01
  3.012012e+01    7.876984e-01
  3.015187e+01    7.754870e-01
  3.018362e+01    7.746303e-01
  3.021537e+01    7.806758e-01
  3.024712e+01    7.670464e-01
  3.027888e+01    7.802423e-01
  3.031063e+01    7.918169e-01
  3.034238e+01    7.546065e-01
  3.037413e+01    7.807481e-01
  3.040588e+01    8.086716e-01
  3.043763e+01    7.840021e-01
  3.046938e+01    7.725652e-01
  3.050113e+01    7.781557e-01
  3.053288e+01    7.786525e-01
  3.056464e+01    7.854924e-01
  3.059639e+01    7.735648e-01
  3.062814e+01    7.843123e-01
  3.065989e+01    7.861425e-01
  3.069164e+01    7.736870e-01
  3.072339e+01    7.858936e-01
  3.075514e+01    7.964727e-01
  3.078689e+01    7.808709e-01
  3.081865e+01    7.897037e-01
  3.085040e+01    7.869066e-01
  3.088215e+01    7.872611e-01
  3.091390e+01    7.983846e-01
  3.094565e+01    7.934068e-01
  3.097740e+01    7.916923e-01
  3.100915e+01    8.017229e-01
  3.104090e+01    7.994372e-01
  3.107265e+01    8.118950e-01
  3.110441e+01    7.709328e-01
  3.113616e+01    8.001589e-01
  3.116791e+01    7.848151e-01
  3.119966e+01    8.072485e-01
  3.123141e+01    7.870206e-01
  3.126316e+01    8.036561e-01
  3.129491e+01    7.970665e-01
  3.132666e+01    7.907535e-01
  3.135841e+01    8.221254e-01
  3.139017e+01    8.010224e-01
  3.142192e+01    8.164936e-01
  3.145367e+01    8.017066e-01
  3.148542e+01    8.444881e-01
  3.151717e+01    8.253350e-01
  3.154892e+01    8.360618e-01
  3.158067e+01    8.625598e-01
  3.161242e+01    8.718914e-01
  3.164418e+01    9.583932e-01
  3.167593e+01    9.708837e-01
  3.170768e+01    1.037329e+00
  3.173943e+01    1.134054e+00
  3.177118e+01    1.233005e+00
  3.180293e+01    1.406367e+00
  3.183468e+01    1.684457e+00
  3.186643e+01    1.985761e+00
  3.189818e+01    2.085362e+00
  3.192994e+01    2.053639e+00
  3.196169e+01    1.848579e+00
  3.199344e+01    1.594675e+00
  3.202519e+01    1.309449e+00
  3.205694e+01    1.175645e+00
  3.208869e+01    1.053079e+00
  3.212044e+01    9.789910e-01
  3.215219e+01    9.289434e-01
  3.218394e+01    8.643122e-01
  3.221570e+01    8.747582e-01
  3.224745e+01    8.239503e-01
  3.227920e+01    8.293947e-01
  3.231095e+01    8.605382e-01
  3.234270e+01    7.879933e-01
  3.237445e+01    7.844118e-01
  3.240620e+01    7.819939e-01
  3.243795e+01    7.860990e-01
  3.246970e+01    7.834274e-01
  3.250146e+01    7.704026e-01
  3.253321e+01    7.683513e-01
  3.254908e+01    7.590823e-01