File: XRD/Reaction conditions/2024-07-27_003_Ru-CGO-ex_Reaction_dwell_000023_data_000061.dat
# == pyFAI calibration ==
# Distance Sample to Detector: 0.4 m
# PONI: 9.750e-02, 1.135e-01 m
# Rotations: -0.000175 0.000000 -0.000000 rad
#
# == Fit2d calibration ==
# Distance Sample-beamCenter: 400.000 mm
# Center: x=1514.000, y=1300.000 pix
# Tilt: 0.010 deg  TiltPlanRot: 0.010 deg
#
# Detector Detector	 Spline= None	 PixelSize= 7.500e-05, 7.500e-05 m
#    Detector has a mask: False
#    Detector has a dark current: False
#    detector has a flat field: False
#
# Wavelength: 6.888e-11 m
# Mask applied: user provided
# Dark current applied: False
# Flat field applied: False
# Polarization factor: 0.99
# Normalization factor: 1.0
# --> /home/myspot/data/2024_07_Rosario/Ru-CGO-ex/2024-07-27_003_Ru-CGO-ex_Reaction_dwell_000023_data_000061.dat
#       q_nm^-1             I
  2.003187e-02    0.000000e+00
  5.178302e-02    9.528303e-02
  8.353417e-02    1.503930e-01
  1.152853e-01    2.774562e-02
  1.470365e-01    1.571496e-02
  1.787876e-01    5.343864e-02
  2.105388e-01    4.950544e-02
  2.422899e-01    4.807057e-02
  2.740411e-01    5.066120e-02
  3.057922e-01    8.487679e-02
  3.375433e-01    8.807320e-02
  3.692945e-01    3.533288e-02
  4.010456e-01    5.784911e-02
  4.327968e-01    1.949439e-02
  4.645479e-01    2.756282e-02
  4.962991e-01    4.221474e-02
  5.280502e-01    4.580265e-02
  5.598014e-01    2.423663e-02
  5.915525e-01    4.270672e-02
  6.233037e-01    6.668014e-02
  6.550548e-01    5.385748e-02
  6.868060e-01    5.930687e-02
  7.185571e-01    3.224545e-02
  7.503083e-01    6.083799e-02
  7.820594e-01    8.186848e-02
  8.138106e-01    1.836636e-01
  8.455617e-01    3.652760e-01
  8.773129e-01    4.883708e-01
  9.090640e-01    5.028639e-01
  9.408152e-01    8.247787e-01
  9.725663e-01    9.293770e-01
  1.004317e+00    1.259307e+00
  1.036069e+00    1.380157e+00
  1.067820e+00    1.491312e+00
  1.099571e+00    1.520034e+00
  1.131322e+00    1.621561e+00
  1.163073e+00    1.710323e+00
  1.194824e+00    1.819663e+00
  1.226575e+00    2.234424e+00
  1.258327e+00    2.549755e+00
  1.290078e+00    2.667655e+00
  1.321829e+00    2.740534e+00
  1.353580e+00    2.857317e+00
  1.385331e+00    2.915140e+00
  1.417082e+00    2.813312e+00
  1.448834e+00    2.900634e+00
  1.480585e+00    3.026748e+00
  1.512336e+00    3.222893e+00
  1.544087e+00    3.337190e+00
  1.575838e+00    3.305078e+00
  1.607589e+00    3.112031e+00
  1.639340e+00    3.126008e+00
  1.671092e+00    3.111166e+00
  1.702843e+00    3.075666e+00
  1.734594e+00    3.070878e+00
  1.766345e+00    3.018603e+00
  1.798096e+00    3.166670e+00
  1.829847e+00    3.119222e+00
  1.861598e+00    3.130158e+00
  1.893350e+00    3.018418e+00
  1.925101e+00    3.182469e+00
  1.956852e+00    3.027073e+00
  1.988603e+00    3.088885e+00
  2.020354e+00    3.047268e+00
  2.052105e+00    3.100180e+00
  2.083856e+00    3.070885e+00
  2.115608e+00    3.071148e+00
  2.147359e+00    3.111704e+00
  2.179110e+00    3.116248e+00
  2.210861e+00    3.106945e+00
  2.242612e+00    3.164041e+00
  2.274363e+00    3.128282e+00
  2.306115e+00    3.129796e+00
  2.337866e+00    3.204896e+00
  2.369617e+00    3.172344e+00
  2.401368e+00    3.044471e+00
  2.433119e+00    3.159376e+00
  2.464870e+00    3.107588e+00
  2.496621e+00    3.198273e+00
  2.528373e+00    3.279343e+00
  2.560124e+00    3.219526e+00
  2.591875e+00    3.169347e+00
  2.623626e+00    3.224818e+00
  2.655377e+00    3.210586e+00
  2.687128e+00    3.248846e+00
  2.718879e+00    3.310008e+00
  2.750631e+00    3.279820e+00
  2.782382e+00    3.194209e+00
  2.814133e+00    3.277426e+00
  2.845884e+00    3.360118e+00
  2.877635e+00    3.421862e+00
  2.909386e+00    3.231596e+00
  2.941137e+00    3.402149e+00
  2.972889e+00    3.298223e+00
  3.004640e+00    3.321025e+00
  3.036391e+00    3.457245e+00
  3.068142e+00    3.387040e+00
  3.099893e+00    3.282445e+00
  3.131644e+00    3.278721e+00
  3.163395e+00    3.422818e+00
  3.195147e+00    3.386378e+00
  3.226898e+00    3.369366e+00
  3.258649e+00    3.341207e+00
  3.290400e+00    3.451597e+00
  3.322151e+00    3.440917e+00
  3.353902e+00    3.456817e+00
  3.385654e+00    3.401915e+00
  3.417405e+00    3.332798e+00
  3.449156e+00    3.442828e+00
  3.480907e+00    3.435222e+00
  3.512658e+00    3.456549e+00
  3.544409e+00    3.404421e+00
  3.576160e+00    3.405709e+00
  3.607912e+00    3.508317e+00
  3.639663e+00    3.439969e+00
  3.671414e+00    3.425491e+00
  3.703165e+00    3.477669e+00
  3.734916e+00    3.542276e+00
  3.766667e+00    3.544656e+00
  3.798418e+00    3.508968e+00
  3.830170e+00    3.511686e+00
  3.861921e+00    3.470964e+00
  3.893672e+00    3.440087e+00
  3.925423e+00    3.503400e+00
  3.957174e+00    3.549915e+00
  3.988925e+00    3.531160e+00
  4.020676e+00    3.431172e+00
  4.052428e+00    3.520032e+00
  4.084179e+00    3.571803e+00
  4.115930e+00    3.637730e+00
  4.147681e+00    3.522759e+00
  4.179432e+00    3.519691e+00
  4.211183e+00    3.570335e+00
  4.242935e+00    3.579640e+00
  4.274686e+00    3.578831e+00
  4.306437e+00    3.617892e+00
  4.338188e+00    3.561884e+00
  4.369939e+00    3.550805e+00
  4.401690e+00    3.607368e+00
  4.433441e+00    3.583551e+00
  4.465193e+00    3.534458e+00
  4.496944e+00    3.551111e+00
  4.528695e+00    3.633808e+00
  4.560446e+00    3.665826e+00
  4.592197e+00    3.639148e+00
  4.623948e+00    3.698618e+00
  4.655699e+00    3.638824e+00
  4.687451e+00    3.622061e+00
  4.719202e+00    3.624243e+00
  4.750953e+00    3.600097e+00
  4.782704e+00    3.643828e+00
  4.814455e+00    3.699286e+00
  4.846206e+00    3.618167e+00
  4.877957e+00    3.639060e+00
  4.909709e+00    3.565705e+00
  4.941460e+00    3.675794e+00
  4.973211e+00    3.692743e+00
  5.004962e+00    3.679562e+00
  5.036713e+00    3.608037e+00
  5.068464e+00    3.663404e+00
  5.100216e+00    3.568347e+00
  5.131967e+00    3.694222e+00
  5.163718e+00    3.602303e+00
  5.195469e+00    3.614711e+00
  5.227220e+00    3.697104e+00
  5.258971e+00    3.653651e+00
  5.290722e+00    3.603156e+00
  5.322474e+00    3.637853e+00
  5.354225e+00    3.651723e+00
  5.385976e+00    3.648557e+00
  5.417727e+00    3.639587e+00
  5.449478e+00    3.562497e+00
  5.481229e+00    3.496325e+00
  5.512980e+00    3.577532e+00
  5.544732e+00    3.628419e+00
  5.576483e+00    3.591143e+00
  5.608234e+00    3.638584e+00
  5.639985e+00    3.619393e+00
  5.671736e+00    3.534201e+00
  5.703487e+00    3.650499e+00
  5.735238e+00    3.639531e+00
  5.766990e+00    3.536706e+00
  5.798741e+00    3.620877e+00
  5.830492e+00    3.567483e+00
  5.862243e+00    3.627599e+00
  5.893994e+00    3.477221e+00
  5.925745e+00    3.660674e+00
  5.957497e+00    3.509730e+00
  5.989248e+00    3.565941e+00
  6.020999e+00    3.575685e+00
  6.052750e+00    3.553912e+00
  6.084501e+00    3.646751e+00
  6.116252e+00    3.600546e+00
  6.148003e+00    3.618158e+00
  6.179755e+00    3.540517e+00
  6.211506e+00    3.565711e+00
  6.243257e+00    3.526419e+00
  6.275008e+00    3.599340e+00
  6.306759e+00    3.554525e+00
  6.338510e+00    3.554591e+00
  6.370261e+00    3.631073e+00
  6.402013e+00    3.515369e+00
  6.433764e+00    3.507635e+00
  6.465515e+00    3.470846e+00
  6.497266e+00    3.538737e+00
  6.529017e+00    3.551503e+00
  6.560768e+00    3.489795e+00
  6.592519e+00    3.570294e+00
  6.624271e+00    3.569467e+00
  6.656022e+00    3.624385e+00
  6.687773e+00    3.518423e+00
  6.719524e+00    3.534732e+00
  6.751275e+00    3.539943e+00
  6.783026e+00    3.497492e+00
  6.814777e+00    3.580059e+00
  6.846529e+00    3.461710e+00
  6.878280e+00    3.502858e+00
  6.910031e+00    3.507990e+00
  6.941782e+00    3.541252e+00
  6.973533e+00    3.544372e+00
  7.005284e+00    3.525260e+00
  7.037036e+00    3.442171e+00
  7.068787e+00    3.448765e+00
  7.100538e+00    3.510748e+00
  7.132289e+00    3.597439e+00
  7.164040e+00    3.572639e+00
  7.195791e+00    3.569611e+00
  7.227542e+00    3.537932e+00
  7.259294e+00    3.538014e+00
  7.291045e+00    3.487122e+00
  7.322796e+00    3.578583e+00
  7.354547e+00    3.524656e+00
  7.386298e+00    3.479967e+00
  7.418049e+00    3.502079e+00
  7.449800e+00    3.472960e+00
  7.481552e+00    3.526564e+00
  7.513303e+00    3.442248e+00
  7.545054e+00    3.478878e+00
  7.576805e+00    3.528132e+00
  7.608556e+00    3.486299e+00
  7.640307e+00    3.450181e+00
  7.672058e+00    3.462326e+00
  7.703810e+00    3.457519e+00
  7.735561e+00    3.480995e+00
  7.767312e+00    3.469940e+00
  7.799063e+00    3.472159e+00
  7.830814e+00    3.427640e+00
  7.862565e+00    3.356652e+00
  7.894317e+00    3.447301e+00
  7.926068e+00    3.489923e+00
  7.957819e+00    3.473705e+00
  7.989570e+00    3.405732e+00
  8.021321e+00    3.405549e+00
  8.053072e+00    3.406864e+00
  8.084823e+00    3.357978e+00
  8.116575e+00    3.490844e+00
  8.148326e+00    3.435364e+00
  8.180077e+00    3.391976e+00
  8.211828e+00    3.392741e+00
  8.243579e+00    3.477940e+00
  8.275330e+00    3.433924e+00
  8.307081e+00    3.490268e+00
  8.338833e+00    3.428506e+00
  8.370584e+00    3.405452e+00
  8.402335e+00    3.420454e+00
  8.434086e+00    3.409117e+00
  8.465837e+00    3.345532e+00
  8.497588e+00    3.354611e+00
  8.529339e+00    3.370493e+00
  8.561091e+00    3.297937e+00
  8.592842e+00    3.363299e+00
  8.624593e+00    3.395671e+00
  8.656344e+00    3.351161e+00
  8.688095e+00    3.243213e+00
  8.719846e+00    3.324839e+00
  8.751598e+00    3.385792e+00
  8.783349e+00    3.301488e+00
  8.815100e+00    3.342960e+00
  8.846851e+00    3.265221e+00
  8.878602e+00    3.353419e+00
  8.910353e+00    3.272411e+00
  8.942104e+00    3.403464e+00
  8.973856e+00    3.272814e+00
  9.005607e+00    3.304938e+00
  9.037358e+00    3.269161e+00
  9.069109e+00    3.294218e+00
  9.100860e+00    3.172134e+00
  9.132611e+00    3.234596e+00
  9.164362e+00    3.291542e+00
  9.196114e+00    3.272878e+00
  9.227865e+00    3.238645e+00
  9.259616e+00    3.191011e+00
  9.291367e+00    3.251085e+00
  9.323118e+00    3.270903e+00
  9.354869e+00    3.200627e+00
  9.386620e+00    3.264772e+00
  9.418372e+00    3.147478e+00
  9.450123e+00    3.250338e+00
  9.481874e+00    3.250537e+00
  9.513625e+00    3.198227e+00
  9.545376e+00    3.243533e+00
  9.577127e+00    3.252488e+00
  9.608878e+00    3.239890e+00
  9.640630e+00    3.173918e+00
  9.672381e+00    3.139767e+00
  9.704132e+00    3.144106e+00
  9.735883e+00    3.200408e+00
  9.767634e+00    3.183912e+00
  9.799385e+00    3.145460e+00
  9.831137e+00    3.093881e+00
  9.862888e+00    3.101083e+00
  9.894639e+00    3.119584e+00
  9.926390e+00    3.114509e+00
  9.958141e+00    3.131194e+00
  9.989892e+00    3.093709e+00
  1.002164e+01    3.146759e+00
  1.005339e+01    3.096425e+00
  1.008515e+01    3.099178e+00
  1.011690e+01    3.088177e+00
  1.014865e+01    3.099034e+00
  1.018040e+01    3.123646e+00
  1.021215e+01    3.069786e+00
  1.024390e+01    3.051081e+00
  1.027565e+01    3.089680e+00
  1.030740e+01    3.068640e+00
  1.033915e+01    3.073856e+00
  1.037091e+01    3.106559e+00
  1.040266e+01    3.046672e+00
  1.043441e+01    3.020762e+00
  1.046616e+01    3.033983e+00
  1.049791e+01    3.065556e+00
  1.052966e+01    3.027768e+00
  1.056141e+01    3.015918e+00
  1.059316e+01    2.973023e+00
  1.062492e+01    2.999949e+00
  1.065667e+01    2.995702e+00
  1.068842e+01    2.945321e+00
  1.072017e+01    2.985462e+00
  1.075192e+01    2.982460e+00
  1.078367e+01    2.963645e+00
  1.081542e+01    2.931059e+00
  1.084717e+01    2.896716e+00
  1.087892e+01    2.944906e+00
  1.091068e+01    2.918885e+00
  1.094243e+01    2.886454e+00
  1.097418e+01    2.890116e+00
  1.100593e+01    2.947293e+00
  1.103768e+01    2.913392e+00
  1.106943e+01    2.922975e+00
  1.110118e+01    2.925985e+00
  1.113293e+01    2.907528e+00
  1.116468e+01    2.858042e+00
  1.119644e+01    2.912563e+00
  1.122819e+01    2.897255e+00
  1.125994e+01    2.849304e+00
  1.129169e+01    2.793868e+00
  1.132344e+01    2.811468e+00
  1.135519e+01    2.827615e+00
  1.138694e+01    2.840811e+00
  1.141869e+01    2.849641e+00
  1.145045e+01    2.825835e+00
  1.148220e+01    2.837754e+00
  1.151395e+01    2.805044e+00
  1.154570e+01    2.772981e+00
  1.157745e+01    2.819282e+00
  1.160920e+01    2.748083e+00
  1.164095e+01    2.755509e+00
  1.167270e+01    2.738127e+00
  1.170445e+01    2.733303e+00
  1.173621e+01    2.723054e+00
  1.176796e+01    2.736505e+00
  1.179971e+01    2.747934e+00
  1.183146e+01    2.716696e+00
  1.186321e+01    2.767012e+00
  1.189496e+01    2.704872e+00
  1.192671e+01    2.729028e+00
  1.195846e+01    2.697704e+00
  1.199021e+01    2.659621e+00
  1.202197e+01    2.722841e+00
  1.205372e+01    2.753722e+00
  1.208547e+01    2.749026e+00
  1.211722e+01    2.657210e+00
  1.214897e+01    2.746999e+00
  1.218072e+01    2.705583e+00
  1.221247e+01    2.701826e+00
  1.224422e+01    2.713166e+00
  1.227597e+01    2.733340e+00
  1.230773e+01    2.684862e+00
  1.233948e+01    2.736501e+00
  1.237123e+01    2.699422e+00
  1.240298e+01    2.733702e+00
  1.243473e+01    2.733238e+00
  1.246648e+01    2.708036e+00
  1.249823e+01    2.760638e+00
  1.252998e+01    2.715584e+00
  1.256174e+01    2.722473e+00
  1.259349e+01    2.810620e+00
  1.262524e+01    2.728768e+00
  1.265699e+01    2.865105e+00
  1.268874e+01    2.840618e+00
  1.272049e+01    2.866892e+00
  1.275224e+01    2.889711e+00
  1.278399e+01    2.920254e+00
  1.281574e+01    3.078987e+00
  1.284750e+01    3.181166e+00
  1.287925e+01    3.374846e+00
  1.291100e+01    3.692539e+00
  1.294275e+01    4.158642e+00
  1.297450e+01    4.784924e+00
  1.300625e+01    6.017891e+00
  1.303800e+01    7.760223e+00
  1.306975e+01    1.033926e+01
  1.310150e+01    1.268474e+01
  1.313326e+01    1.480237e+01
  1.316501e+01    1.620214e+01
  1.319676e+01    1.572923e+01
  1.322851e+01    1.250461e+01
  1.326026e+01    9.073349e+00
  1.329201e+01    6.805293e+00
  1.332376e+01    5.416474e+00
  1.335551e+01    4.404964e+00
  1.338727e+01    3.868209e+00
  1.341902e+01    3.471381e+00
  1.345077e+01    3.169254e+00
  1.348252e+01    3.007747e+00
  1.351427e+01    2.920125e+00
  1.354602e+01    2.847133e+00
  1.357777e+01    2.721424e+00
  1.360952e+01    2.683924e+00
  1.364127e+01    2.636222e+00
  1.367303e+01    2.561335e+00
  1.370478e+01    2.580799e+00
  1.373653e+01    2.538762e+00
  1.376828e+01    2.511783e+00
  1.380003e+01    2.485465e+00
  1.383178e+01    2.502190e+00
  1.386353e+01    2.426053e+00
  1.389528e+01    2.450116e+00
  1.392703e+01    2.400351e+00
  1.395879e+01    2.340723e+00
  1.399054e+01    2.401257e+00
  1.402229e+01    2.362732e+00
  1.405404e+01    2.292501e+00
  1.408579e+01    2.357076e+00
  1.411754e+01    2.311049e+00
  1.414929e+01    2.304128e+00
  1.418104e+01    2.290791e+00
  1.421279e+01    2.272354e+00
  1.424455e+01    2.300969e+00
  1.427630e+01    2.262264e+00
  1.430805e+01    2.262430e+00
  1.433980e+01    2.276242e+00
  1.437155e+01    2.232782e+00
  1.440330e+01    2.241437e+00
  1.443505e+01    2.208000e+00
  1.446680e+01    2.265954e+00
  1.449856e+01    2.174247e+00
  1.453031e+01    2.232322e+00
  1.456206e+01    2.250109e+00
  1.459381e+01    2.222366e+00
  1.462556e+01    2.186255e+00
  1.465731e+01    2.198479e+00
  1.468906e+01    2.207160e+00
  1.472081e+01    2.200794e+00
  1.475256e+01    2.202018e+00
  1.478432e+01    2.175533e+00
  1.481607e+01    2.196849e+00
  1.484782e+01    2.206871e+00
  1.487957e+01    2.218479e+00
  1.491132e+01    2.256699e+00
  1.494307e+01    2.302591e+00
  1.497482e+01    2.379526e+00
  1.500657e+01    2.422661e+00
  1.503832e+01    2.589743e+00
  1.507008e+01    2.854698e+00
  1.510183e+01    3.232781e+00
  1.513358e+01    3.777877e+00
  1.516533e+01    4.524571e+00
  1.519708e+01    5.196560e+00
  1.522883e+01    5.616327e+00
  1.526058e+01    5.836169e+00
  1.529233e+01    5.442371e+00
  1.532409e+01    4.632691e+00
  1.535584e+01    3.743584e+00
  1.538759e+01    3.173926e+00
  1.541934e+01    2.758035e+00
  1.545109e+01    2.547441e+00
  1.548284e+01    2.379693e+00
  1.551459e+01    2.234273e+00
  1.554634e+01    2.227044e+00
  1.557809e+01    2.089452e+00
  1.560985e+01    2.108581e+00
  1.564160e+01    2.068599e+00
  1.567335e+01    2.038377e+00
  1.570510e+01    1.995188e+00
  1.573685e+01    1.944671e+00
  1.576860e+01    1.938087e+00
  1.580035e+01    1.971879e+00
  1.583210e+01    1.926121e+00
  1.586385e+01    1.899828e+00
  1.589561e+01    1.890970e+00
  1.592736e+01    1.907810e+00
  1.595911e+01    1.855011e+00
  1.599086e+01    1.925685e+00
  1.602261e+01    1.881781e+00
  1.605436e+01    1.864804e+00
  1.608611e+01    1.831588e+00
  1.611786e+01    1.820497e+00
  1.614961e+01    1.808348e+00
  1.618137e+01    1.877242e+00
  1.621312e+01    1.806791e+00
  1.624487e+01    1.838800e+00
  1.627662e+01    1.807952e+00
  1.630837e+01    1.794684e+00
  1.634012e+01    1.799545e+00
  1.637187e+01    1.782245e+00
  1.640362e+01    1.789358e+00
  1.643538e+01    1.767797e+00
  1.646713e+01    1.776494e+00
  1.649888e+01    1.784550e+00
  1.653063e+01    1.752688e+00
  1.656238e+01    1.749092e+00
  1.659413e+01    1.754678e+00
  1.662588e+01    1.721643e+00
  1.665763e+01    1.683056e+00
  1.668938e+01    1.699521e+00
  1.672114e+01    1.730221e+00
  1.675289e+01    1.712862e+00
  1.678464e+01    1.696991e+00
  1.681639e+01    1.694244e+00
  1.684814e+01    1.724373e+00
  1.687989e+01    1.694219e+00
  1.691164e+01    1.669343e+00
  1.694339e+01    1.673017e+00
  1.697514e+01    1.661790e+00
  1.700690e+01    1.655603e+00
  1.703865e+01    1.641800e+00
  1.707040e+01    1.648810e+00
  1.710215e+01    1.649137e+00
  1.713390e+01    1.653390e+00
  1.716565e+01    1.636368e+00
  1.719740e+01    1.674306e+00
  1.722915e+01    1.625165e+00
  1.726091e+01    1.621502e+00
  1.729266e+01    1.654067e+00
  1.732441e+01    1.593931e+00
  1.735616e+01    1.650208e+00
  1.738791e+01    1.588304e+00
  1.741966e+01    1.571717e+00
  1.745141e+01    1.584610e+00
  1.748316e+01    1.594595e+00
  1.751491e+01    1.554443e+00
  1.754667e+01    1.571238e+00
  1.757842e+01    1.582434e+00
  1.761017e+01    1.579977e+00
  1.764192e+01    1.587399e+00
  1.767367e+01    1.574077e+00
  1.770542e+01    1.534728e+00
  1.773717e+01    1.559988e+00
  1.776892e+01    1.531470e+00
  1.780067e+01    1.551306e+00
  1.783243e+01    1.517572e+00
  1.786418e+01    1.526294e+00
  1.789593e+01    1.536019e+00
  1.792768e+01    1.538824e+00
  1.795943e+01    1.512863e+00
  1.799118e+01    1.507665e+00
  1.802293e+01    1.518755e+00
  1.805468e+01    1.487051e+00
  1.808643e+01    1.510162e+00
  1.811819e+01    1.478403e+00
  1.814994e+01    1.482597e+00
  1.818169e+01    1.498879e+00
  1.821344e+01    1.487977e+00
  1.824519e+01    1.471257e+00
  1.827694e+01    1.456354e+00
  1.830869e+01    1.448791e+00
  1.834044e+01    1.470601e+00
  1.837220e+01    1.411067e+00
  1.840395e+01    1.453617e+00
  1.843570e+01    1.445786e+00
  1.846745e+01    1.411688e+00
  1.849920e+01    1.435727e+00
  1.853095e+01    1.425196e+00
  1.856270e+01    1.451160e+00
  1.859445e+01    1.444470e+00
  1.862620e+01    1.421251e+00
  1.865796e+01    1.483396e+00
  1.868971e+01    1.426899e+00
  1.872146e+01    1.419245e+00
  1.875321e+01    1.420357e+00
  1.878496e+01    1.413526e+00
  1.881671e+01    1.425985e+00
  1.884846e+01    1.413078e+00
  1.888021e+01    1.387370e+00
  1.891196e+01    1.391369e+00
  1.894372e+01    1.398600e+00
  1.897547e+01    1.408783e+00
  1.900722e+01    1.381382e+00
  1.903897e+01    1.396693e+00
  1.907072e+01    1.384577e+00
  1.910247e+01    1.397800e+00
  1.913422e+01    1.387679e+00
  1.916597e+01    1.381201e+00
  1.919773e+01    1.383107e+00
  1.922948e+01    1.343010e+00
  1.926123e+01    1.360842e+00
  1.929298e+01    1.348861e+00
  1.932473e+01    1.365453e+00
  1.935648e+01    1.373643e+00
  1.938823e+01    1.349293e+00
  1.941998e+01    1.357890e+00
  1.945173e+01    1.351020e+00
  1.948349e+01    1.345140e+00
  1.951524e+01    1.369818e+00
  1.954699e+01    1.303989e+00
  1.957874e+01    1.341913e+00
  1.961049e+01    1.341993e+00
  1.964224e+01    1.297436e+00
  1.967399e+01    1.310218e+00
  1.970574e+01    1.319807e+00
  1.973749e+01    1.313799e+00
  1.976925e+01    1.297353e+00
  1.980100e+01    1.314011e+00
  1.983275e+01    1.303849e+00
  1.986450e+01    1.306271e+00
  1.989625e+01    1.284209e+00
  1.992800e+01    1.271557e+00
  1.995975e+01    1.278443e+00
  1.999150e+01    1.265339e+00
  2.002325e+01    1.280567e+00
  2.005501e+01    1.288971e+00
  2.008676e+01    1.258358e+00
  2.011851e+01    1.252054e+00
  2.015026e+01    1.285635e+00
  2.018201e+01    1.258612e+00
  2.021376e+01    1.235412e+00
  2.024551e+01    1.257654e+00
  2.027726e+01    1.249757e+00
  2.030902e+01    1.264841e+00
  2.034077e+01    1.258647e+00
  2.037252e+01    1.221890e+00
  2.040427e+01    1.263557e+00
  2.043602e+01    1.234338e+00
  2.046777e+01    1.236813e+00
  2.049952e+01    1.253143e+00
  2.053127e+01    1.226492e+00
  2.056302e+01    1.253125e+00
  2.059478e+01    1.225488e+00
  2.062653e+01    1.227156e+00
  2.065828e+01    1.226995e+00
  2.069003e+01    1.242613e+00
  2.072178e+01    1.205003e+00
  2.075353e+01    1.215840e+00
  2.078528e+01    1.224373e+00
  2.081703e+01    1.217120e+00
  2.084878e+01    1.242257e+00
  2.088054e+01    1.201275e+00
  2.091229e+01    1.236250e+00
  2.094404e+01    1.203128e+00
  2.097579e+01    1.213808e+00
  2.100754e+01    1.237051e+00
  2.103929e+01    1.237703e+00
  2.107104e+01    1.238003e+00
  2.110279e+01    1.228841e+00
  2.113455e+01    1.252771e+00
  2.116630e+01    1.223915e+00
  2.119805e+01    1.230923e+00
  2.122980e+01    1.257918e+00
  2.126155e+01    1.224211e+00
  2.129330e+01    1.255844e+00
  2.132505e+01    1.270873e+00
  2.135680e+01    1.275738e+00
  2.138855e+01    1.280660e+00
  2.142031e+01    1.356037e+00
  2.145206e+01    1.352629e+00
  2.148381e+01    1.398987e+00
  2.151556e+01    1.427251e+00
  2.154731e+01    1.516947e+00
  2.157906e+01    1.607860e+00
  2.161081e+01    1.747645e+00
  2.164256e+01    1.979176e+00
  2.167431e+01    2.325639e+00
  2.170607e+01    2.828734e+00
  2.173782e+01    3.561405e+00
  2.176957e+01    4.628393e+00
  2.180132e+01    5.836502e+00
  2.183307e+01    7.222675e+00
  2.186482e+01    8.424996e+00
  2.189657e+01    8.931581e+00
  2.192832e+01    8.249689e+00
  2.196007e+01    6.587899e+00
  2.199183e+01    4.884630e+00
  2.202358e+01    3.652565e+00
  2.205533e+01    2.833636e+00
  2.208708e+01    2.334218e+00
  2.211883e+01    2.010893e+00
  2.215058e+01    1.765556e+00
  2.218233e+01    1.590641e+00
  2.221408e+01    1.480509e+00
  2.224584e+01    1.435552e+00
  2.227759e+01    1.354524e+00
  2.230934e+01    1.300098e+00
  2.234109e+01    1.240628e+00
  2.237284e+01    1.210221e+00
  2.240459e+01    1.177128e+00
  2.243634e+01    1.166916e+00
  2.246809e+01    1.166752e+00
  2.249984e+01    1.138982e+00
  2.253160e+01    1.133513e+00
  2.256335e+01    1.117320e+00
  2.259510e+01    1.120225e+00
  2.262685e+01    1.119575e+00
  2.265860e+01    1.093661e+00
  2.269035e+01    1.100234e+00
  2.272210e+01    1.078151e+00
  2.275385e+01    1.079872e+00
  2.278560e+01    1.081280e+00
  2.281736e+01    1.047562e+00
  2.284911e+01    1.033077e+00
  2.288086e+01    1.037621e+00
  2.291261e+01    1.043159e+00
  2.294436e+01    1.037012e+00
  2.297611e+01    1.013679e+00
  2.300786e+01    1.008654e+00
  2.303961e+01    1.010044e+00
  2.307137e+01    1.012596e+00
  2.310312e+01    1.021403e+00
  2.313487e+01    1.011741e+00
  2.316662e+01    1.014863e+00
  2.319837e+01    9.937397e-01
  2.323012e+01    1.007273e+00
  2.326187e+01    9.787529e-01
  2.329362e+01    9.734931e-01
  2.332537e+01    1.001642e+00
  2.335713e+01    9.692674e-01
  2.338888e+01    9.688196e-01
  2.342063e+01    9.684661e-01
  2.345238e+01    9.613776e-01
  2.348413e+01    9.572952e-01
  2.351588e+01    9.520279e-01
  2.354763e+01    9.791604e-01
  2.357938e+01    9.771324e-01
  2.361113e+01    9.593090e-01
  2.364289e+01    9.742351e-01
  2.367464e+01    9.516119e-01
  2.370639e+01    9.296685e-01
  2.373814e+01    9.641010e-01
  2.376989e+01    9.269698e-01
  2.380164e+01    9.114348e-01
  2.383339e+01    9.531530e-01
  2.386514e+01    9.142818e-01
  2.389689e+01    9.068055e-01
  2.392865e+01    9.008525e-01
  2.396040e+01    8.963045e-01
  2.399215e+01    8.707407e-01
  2.402390e+01    9.097319e-01
  2.405565e+01    8.814124e-01
  2.408740e+01    8.914621e-01
  2.411915e+01    8.716710e-01
  2.415090e+01    8.904395e-01
  2.418266e+01    8.715967e-01
  2.421441e+01    8.916173e-01
  2.424616e+01    9.057088e-01
  2.427791e+01    8.930712e-01
  2.430966e+01    8.859707e-01
  2.434141e+01    9.019547e-01
  2.437316e+01    8.989513e-01
  2.440491e+01    9.003685e-01
  2.443666e+01    8.941294e-01
  2.446842e+01    9.008701e-01
  2.450017e+01    8.949575e-01
  2.453192e+01    8.917052e-01
  2.456367e+01    9.055409e-01
  2.459542e+01    8.941543e-01
  2.462717e+01    8.896405e-01
  2.465892e+01    8.811992e-01
  2.469067e+01    8.704806e-01
  2.472242e+01    9.124748e-01
  2.475418e+01    8.976445e-01
  2.478593e+01    8.906178e-01
  2.481768e+01    8.958861e-01
  2.484943e+01    9.000598e-01
  2.488118e+01    8.866915e-01
  2.491293e+01    8.571367e-01
  2.494468e+01    8.866799e-01
  2.497643e+01    8.995185e-01
  2.500819e+01    8.963455e-01
  2.503994e+01    8.804862e-01
  2.507169e+01    9.197982e-01
  2.510344e+01    9.199608e-01
  2.513519e+01    9.007989e-01
  2.516694e+01    8.911140e-01
  2.519869e+01    9.370417e-01
  2.523044e+01    9.283988e-01
  2.526219e+01    9.413872e-01
  2.529395e+01    9.676611e-01
  2.532570e+01    9.703275e-01
  2.535745e+01    9.708800e-01
  2.538920e+01    1.014991e+00
  2.542095e+01    9.943587e-01
  2.545270e+01    1.008389e+00
  2.548445e+01    1.057899e+00
  2.551620e+01    1.094079e+00
  2.554795e+01    1.101248e+00
  2.557971e+01    1.151817e+00
  2.561146e+01    1.197114e+00
  2.564321e+01    1.306100e+00
  2.567496e+01    1.433102e+00
  2.570671e+01    1.597604e+00
  2.573846e+01    1.862925e+00
  2.577021e+01    2.230149e+00
  2.580196e+01    2.821744e+00
  2.583371e+01    3.674959e+00
  2.586547e+01    4.709324e+00
  2.589722e+01    5.895709e+00
  2.592897e+01    6.839533e+00
  2.596072e+01    7.142359e+00
  2.599247e+01    6.537049e+00
  2.602422e+01    5.284000e+00
  2.605597e+01    3.987587e+00
  2.608772e+01    3.014155e+00
  2.611948e+01    2.364677e+00
  2.615123e+01    1.938527e+00
  2.618298e+01    1.674230e+00
  2.621473e+01    1.487011e+00
  2.624648e+01    1.366318e+00
  2.627823e+01    1.251049e+00
  2.630998e+01    1.211077e+00
  2.634173e+01    1.134676e+00
  2.637348e+01    1.063583e+00
  2.640524e+01    1.054372e+00
  2.643699e+01    1.039661e+00
  2.646874e+01    1.019087e+00
  2.650049e+01    9.955546e-01
  2.653224e+01    9.806471e-01
  2.656399e+01    9.714926e-01
  2.659574e+01    9.799673e-01
  2.662749e+01    9.740625e-01
  2.665924e+01    9.837227e-01
  2.669100e+01    9.781234e-01
  2.672275e+01    9.657173e-01
  2.675450e+01    9.711523e-01
  2.678625e+01    9.603536e-01
  2.681800e+01    9.731232e-01
  2.684975e+01    9.565873e-01
  2.688150e+01    9.802120e-01
  2.691325e+01    1.008028e+00
  2.694501e+01    1.034548e+00
  2.697676e+01    1.073862e+00
  2.700851e+01    1.109921e+00
  2.704026e+01    1.184384e+00
  2.707201e+01    1.306981e+00
  2.710376e+01    1.494020e+00
  2.713551e+01    1.722700e+00
  2.716726e+01    1.957638e+00
  2.719901e+01    2.174076e+00
  2.723077e+01    2.164427e+00
  2.726252e+01    1.967067e+00
  2.729427e+01    1.696150e+00
  2.732602e+01    1.459102e+00
  2.735777e+01    1.283640e+00
  2.738952e+01    1.183040e+00
  2.742127e+01    1.091961e+00
  2.745302e+01    1.029619e+00
  2.748477e+01    1.011147e+00
  2.751653e+01    9.763279e-01
  2.754828e+01    9.521603e-01
  2.758003e+01    9.380683e-01
  2.761178e+01    9.205204e-01
  2.764353e+01    9.045359e-01
  2.767528e+01    8.770927e-01
  2.770703e+01    9.028712e-01
  2.773878e+01    9.038113e-01
  2.777054e+01    8.904154e-01
  2.780229e+01    8.873727e-01
  2.783404e+01    8.836681e-01
  2.786579e+01    8.913564e-01
  2.789754e+01    8.708744e-01
  2.792929e+01    8.602128e-01
  2.796104e+01    8.727223e-01
  2.799279e+01    8.727959e-01
  2.802454e+01    8.668681e-01
  2.805630e+01    8.620822e-01
  2.808805e+01    8.781956e-01
  2.811980e+01    8.598761e-01
  2.815155e+01    8.544194e-01
  2.818330e+01    8.385552e-01
  2.821505e+01    8.352172e-01
  2.824680e+01    8.432782e-01
  2.827855e+01    8.476536e-01
  2.831030e+01    8.841148e-01
  2.834206e+01    8.653365e-01
  2.837381e+01    8.371655e-01
  2.840556e+01    8.408741e-01
  2.843731e+01    8.311195e-01
  2.846906e+01    8.403528e-01
  2.850081e+01    8.479844e-01
  2.853256e+01    8.706903e-01
  2.856431e+01    8.645488e-01
  2.859606e+01    8.181701e-01
  2.862782e+01    8.651690e-01
  2.865957e+01    8.451352e-01
  2.869132e+01    8.490961e-01
  2.872307e+01    8.225608e-01
  2.875482e+01    8.273345e-01
  2.878657e+01    8.323629e-01
  2.881832e+01    8.333412e-01
  2.885007e+01    8.323645e-01
  2.888183e+01    8.387127e-01
  2.891358e+01    8.128795e-01
  2.894533e+01    8.229801e-01
  2.897708e+01    8.015653e-01
  2.900883e+01    8.167931e-01
  2.904058e+01    8.180942e-01
  2.907233e+01    8.210151e-01
  2.910408e+01    8.133404e-01
  2.913583e+01    7.936710e-01
  2.916759e+01    8.076950e-01
  2.919934e+01    8.228849e-01
  2.923109e+01    8.082111e-01
  2.926284e+01    8.171501e-01
  2.929459e+01    8.164243e-01
  2.932634e+01    8.127402e-01
  2.935809e+01    7.824410e-01
  2.938984e+01    7.877212e-01
  2.942159e+01    8.104295e-01
  2.945335e+01    7.960850e-01
  2.948510e+01    7.834337e-01
  2.951685e+01    7.889376e-01
  2.954860e+01    7.979605e-01
  2.958035e+01    8.006825e-01
  2.961210e+01    8.071139e-01
  2.964385e+01    7.933474e-01
  2.967560e+01    8.120270e-01
  2.970736e+01    8.025976e-01
  2.973911e+01    8.071657e-01
  2.977086e+01    7.744665e-01
  2.980261e+01    7.968369e-01
  2.983436e+01    7.951766e-01
  2.986611e+01    7.873041e-01
  2.989786e+01    7.859365e-01
  2.992961e+01    8.224099e-01
  2.996136e+01    8.030396e-01
  2.999312e+01    7.920437e-01
  3.002487e+01    8.319401e-01
  3.005662e+01    8.133146e-01
  3.008837e+01    8.074719e-01
  3.012012e+01    7.980596e-01
  3.015187e+01    7.975320e-01
  3.018362e+01    7.960843e-01
  3.021537e+01    8.071261e-01
  3.024712e+01    7.957670e-01
  3.027888e+01    8.105860e-01
  3.031063e+01    7.811317e-01
  3.034238e+01    7.730435e-01
  3.037413e+01    8.092758e-01
  3.040588e+01    7.970425e-01
  3.043763e+01    8.070052e-01
  3.046938e+01    7.882974e-01
  3.050113e+01    7.823876e-01
  3.053288e+01    8.055416e-01
  3.056464e+01    8.235248e-01
  3.059639e+01    7.796590e-01
  3.062814e+01    8.073227e-01
  3.065989e+01    7.998617e-01
  3.069164e+01    7.859088e-01
  3.072339e+01    7.911744e-01
  3.075514e+01    7.742069e-01
  3.078689e+01    7.876236e-01
  3.081865e+01    7.760800e-01
  3.085040e+01    7.683887e-01
  3.088215e+01    7.881889e-01
  3.091390e+01    8.042921e-01
  3.094565e+01    7.925876e-01
  3.097740e+01    8.054233e-01
  3.100915e+01    7.935678e-01
  3.104090e+01    8.193612e-01
  3.107265e+01    8.001693e-01
  3.110441e+01    7.677668e-01
  3.113616e+01    7.836990e-01
  3.116791e+01    8.021611e-01
  3.119966e+01    7.855483e-01
  3.123141e+01    7.855302e-01
  3.126316e+01    8.059586e-01
  3.129491e+01    8.168855e-01
  3.132666e+01    8.196457e-01
  3.135841e+01    8.121127e-01
  3.139017e+01    8.026159e-01
  3.142192e+01    8.134485e-01
  3.145367e+01    8.253341e-01
  3.148542e+01    8.187739e-01
  3.151717e+01    8.183330e-01
  3.154892e+01    8.254100e-01
  3.158067e+01    8.539679e-01
  3.161242e+01    9.024959e-01
  3.164418e+01    9.157037e-01
  3.167593e+01    9.473966e-01
  3.170768e+01    1.040595e+00
  3.173943e+01    1.126268e+00
  3.177118e+01    1.242474e+00
  3.180293e+01    1.484345e+00
  3.183468e+01    1.726564e+00
  3.186643e+01    1.980688e+00
  3.189818e+01    2.102401e+00
  3.192994e+01    2.022535e+00
  3.196169e+01    1.819925e+00
  3.199344e+01    1.527410e+00
  3.202519e+01    1.324233e+00
  3.205694e+01    1.141415e+00
  3.208869e+01    1.039944e+00
  3.212044e+01    9.753624e-01
  3.215219e+01    9.029390e-01
  3.218394e+01    8.837644e-01
  3.221570e+01    8.615557e-01
  3.224745e+01    8.125507e-01
  3.227920e+01    8.077254e-01
  3.231095e+01    8.215722e-01
  3.234270e+01    8.014976e-01
  3.237445e+01    7.876850e-01
  3.240620e+01    8.002526e-01
  3.243795e+01    7.851930e-01
  3.246970e+01    7.944933e-01
  3.250146e+01    7.625474e-01
  3.253321e+01    7.850921e-01
  3.254908e+01    7.839768e-01