File: XRD/Reaction conditions/2024-07-27_003_Ru-CGO-ex_Reaction_dwell_000023_data_000035.dat
# == pyFAI calibration ==
# Distance Sample to Detector: 0.4 m
# PONI: 9.750e-02, 1.135e-01 m
# Rotations: -0.000175 0.000000 -0.000000 rad
#
# == Fit2d calibration ==
# Distance Sample-beamCenter: 400.000 mm
# Center: x=1514.000, y=1300.000 pix
# Tilt: 0.010 deg  TiltPlanRot: 0.010 deg
#
# Detector Detector	 Spline= None	 PixelSize= 7.500e-05, 7.500e-05 m
#    Detector has a mask: False
#    Detector has a dark current: False
#    detector has a flat field: False
#
# Wavelength: 6.888e-11 m
# Mask applied: user provided
# Dark current applied: False
# Flat field applied: False
# Polarization factor: 0.99
# Normalization factor: 1.0
# --> /home/myspot/data/2024_07_Rosario/Ru-CGO-ex/2024-07-27_003_Ru-CGO-ex_Reaction_dwell_000023_data_000035.dat
#       q_nm^-1             I
  2.003187e-02    7.712225e-02
  5.178302e-02    1.431036e-01
  8.353417e-02    2.007928e-01
  1.152853e-01    5.724808e-02
  1.470365e-01    3.294482e-02
  1.787876e-01    2.815315e-02
  2.105388e-01    2.777387e-02
  2.422899e-01    2.205797e-02
  2.740411e-01    6.075518e-02
  3.057922e-01    4.411178e-02
  3.375433e-01    8.738836e-02
  3.692945e-01    2.218087e-02
  4.010456e-01    3.502798e-02
  4.327968e-01    6.780601e-02
  4.645479e-01    2.810301e-02
  4.962991e-01    3.237506e-02
  5.280502e-01    5.691040e-02
  5.598014e-01    3.329400e-02
  5.915525e-01    3.818138e-02
  6.233037e-01    3.194231e-02
  6.550548e-01    6.233029e-02
  6.868060e-01    2.687095e-02
  7.185571e-01    4.837160e-02
  7.503083e-01    5.278333e-02
  7.820594e-01    9.761041e-02
  8.138106e-01    1.884826e-01
  8.455617e-01    3.769594e-01
  8.773129e-01    5.206482e-01
  9.090640e-01    6.265664e-01
  9.408152e-01    8.654002e-01
  9.725663e-01    1.033589e+00
  1.004317e+00    1.170309e+00
  1.036069e+00    1.281557e+00
  1.067820e+00    1.441078e+00
  1.099571e+00    1.513464e+00
  1.131322e+00    1.614673e+00
  1.163073e+00    1.755007e+00
  1.194824e+00    1.725963e+00
  1.226575e+00    2.266309e+00
  1.258327e+00    2.661126e+00
  1.290078e+00    2.654066e+00
  1.321829e+00    2.774677e+00
  1.353580e+00    2.791972e+00
  1.385331e+00    2.933473e+00
  1.417082e+00    3.003218e+00
  1.448834e+00    2.881205e+00
  1.480585e+00    3.108065e+00
  1.512336e+00    3.034577e+00
  1.544087e+00    3.268002e+00
  1.575838e+00    3.276274e+00
  1.607589e+00    3.221687e+00
  1.639340e+00    3.106900e+00
  1.671092e+00    3.263370e+00
  1.702843e+00    3.128140e+00
  1.734594e+00    3.039223e+00
  1.766345e+00    3.168044e+00
  1.798096e+00    3.072213e+00
  1.829847e+00    3.126193e+00
  1.861598e+00    3.171306e+00
  1.893350e+00    3.137469e+00
  1.925101e+00    3.165679e+00
  1.956852e+00    3.000283e+00
  1.988603e+00    3.131940e+00
  2.020354e+00    3.125968e+00
  2.052105e+00    3.011595e+00
  2.083856e+00    3.134033e+00
  2.115608e+00    3.177473e+00
  2.147359e+00    3.149395e+00
  2.179110e+00    3.132611e+00
  2.210861e+00    3.122776e+00
  2.242612e+00    3.146046e+00
  2.274363e+00    3.183244e+00
  2.306115e+00    3.192653e+00
  2.337866e+00    3.248046e+00
  2.369617e+00    3.173967e+00
  2.401368e+00    3.201634e+00
  2.433119e+00    3.112234e+00
  2.464870e+00    3.305774e+00
  2.496621e+00    3.134830e+00
  2.528373e+00    3.111876e+00
  2.560124e+00    3.115685e+00
  2.591875e+00    3.189935e+00
  2.623626e+00    3.289100e+00
  2.655377e+00    3.178322e+00
  2.687128e+00    3.229442e+00
  2.718879e+00    3.330875e+00
  2.750631e+00    3.298467e+00
  2.782382e+00    3.274758e+00
  2.814133e+00    3.255428e+00
  2.845884e+00    3.375178e+00
  2.877635e+00    3.273902e+00
  2.909386e+00    3.412918e+00
  2.941137e+00    3.437669e+00
  2.972889e+00    3.445436e+00
  3.004640e+00    3.411545e+00
  3.036391e+00    3.373860e+00
  3.068142e+00    3.279511e+00
  3.099893e+00    3.378499e+00
  3.131644e+00    3.499655e+00
  3.163395e+00    3.377230e+00
  3.195147e+00    3.482471e+00
  3.226898e+00    3.394145e+00
  3.258649e+00    3.431971e+00
  3.290400e+00    3.327647e+00
  3.322151e+00    3.473501e+00
  3.353902e+00    3.508394e+00
  3.385654e+00    3.493609e+00
  3.417405e+00    3.435058e+00
  3.449156e+00    3.435667e+00
  3.480907e+00    3.545018e+00
  3.512658e+00    3.516387e+00
  3.544409e+00    3.530441e+00
  3.576160e+00    3.536973e+00
  3.607912e+00    3.452999e+00
  3.639663e+00    3.615973e+00
  3.671414e+00    3.442381e+00
  3.703165e+00    3.562084e+00
  3.734916e+00    3.556874e+00
  3.766667e+00    3.535636e+00
  3.798418e+00    3.481991e+00
  3.830170e+00    3.503202e+00
  3.861921e+00    3.501802e+00
  3.893672e+00    3.510660e+00
  3.925423e+00    3.535493e+00
  3.957174e+00    3.610326e+00
  3.988925e+00    3.638124e+00
  4.020676e+00    3.593396e+00
  4.052428e+00    3.592651e+00
  4.084179e+00    3.569029e+00
  4.115930e+00    3.621726e+00
  4.147681e+00    3.511688e+00
  4.179432e+00    3.556573e+00
  4.211183e+00    3.621637e+00
  4.242935e+00    3.486581e+00
  4.274686e+00    3.648411e+00
  4.306437e+00    3.526857e+00
  4.338188e+00    3.654284e+00
  4.369939e+00    3.596231e+00
  4.401690e+00    3.575437e+00
  4.433441e+00    3.519872e+00
  4.465193e+00    3.533119e+00
  4.496944e+00    3.678820e+00
  4.528695e+00    3.646459e+00
  4.560446e+00    3.571305e+00
  4.592197e+00    3.700758e+00
  4.623948e+00    3.703463e+00
  4.655699e+00    3.708133e+00
  4.687451e+00    3.651041e+00
  4.719202e+00    3.655633e+00
  4.750953e+00    3.621404e+00
  4.782704e+00    3.531007e+00
  4.814455e+00    3.660820e+00
  4.846206e+00    3.606019e+00
  4.877957e+00    3.744214e+00
  4.909709e+00    3.547532e+00
  4.941460e+00    3.661514e+00
  4.973211e+00    3.740438e+00
  5.004962e+00    3.629090e+00
  5.036713e+00    3.647902e+00
  5.068464e+00    3.708363e+00
  5.100216e+00    3.641219e+00
  5.131967e+00    3.703872e+00
  5.163718e+00    3.673342e+00
  5.195469e+00    3.649350e+00
  5.227220e+00    3.660233e+00
  5.258971e+00    3.713012e+00
  5.290722e+00    3.640410e+00
  5.322474e+00    3.681590e+00
  5.354225e+00    3.760189e+00
  5.385976e+00    3.740374e+00
  5.417727e+00    3.621028e+00
  5.449478e+00    3.621762e+00
  5.481229e+00    3.649585e+00
  5.512980e+00    3.701028e+00
  5.544732e+00    3.637141e+00
  5.576483e+00    3.633423e+00
  5.608234e+00    3.691625e+00
  5.639985e+00    3.537971e+00
  5.671736e+00    3.568082e+00
  5.703487e+00    3.665362e+00
  5.735238e+00    3.653145e+00
  5.766990e+00    3.596915e+00
  5.798741e+00    3.550291e+00
  5.830492e+00    3.544488e+00
  5.862243e+00    3.608649e+00
  5.893994e+00    3.614945e+00
  5.925745e+00    3.608552e+00
  5.957497e+00    3.591080e+00
  5.989248e+00    3.639566e+00
  6.020999e+00    3.461895e+00
  6.052750e+00    3.577830e+00
  6.084501e+00    3.627968e+00
  6.116252e+00    3.636194e+00
  6.148003e+00    3.669159e+00
  6.179755e+00    3.604853e+00
  6.211506e+00    3.603101e+00
  6.243257e+00    3.622668e+00
  6.275008e+00    3.595854e+00
  6.306759e+00    3.604928e+00
  6.338510e+00    3.630023e+00
  6.370261e+00    3.604756e+00
  6.402013e+00    3.566876e+00
  6.433764e+00    3.631785e+00
  6.465515e+00    3.603451e+00
  6.497266e+00    3.583886e+00
  6.529017e+00    3.555629e+00
  6.560768e+00    3.579630e+00
  6.592519e+00    3.649587e+00
  6.624271e+00    3.648687e+00
  6.656022e+00    3.592186e+00
  6.687773e+00    3.597837e+00
  6.719524e+00    3.596899e+00
  6.751275e+00    3.507473e+00
  6.783026e+00    3.572912e+00
  6.814777e+00    3.493562e+00
  6.846529e+00    3.626557e+00
  6.878280e+00    3.586981e+00
  6.910031e+00    3.526326e+00
  6.941782e+00    3.542928e+00
  6.973533e+00    3.612639e+00
  7.005284e+00    3.508125e+00
  7.037036e+00    3.552212e+00
  7.068787e+00    3.578617e+00
  7.100538e+00    3.605960e+00
  7.132289e+00    3.480208e+00
  7.164040e+00    3.516634e+00
  7.195791e+00    3.507295e+00
  7.227542e+00    3.489571e+00
  7.259294e+00    3.547231e+00
  7.291045e+00    3.555457e+00
  7.322796e+00    3.565721e+00
  7.354547e+00    3.455115e+00
  7.386298e+00    3.481662e+00
  7.418049e+00    3.544998e+00
  7.449800e+00    3.515453e+00
  7.481552e+00    3.482511e+00
  7.513303e+00    3.534668e+00
  7.545054e+00    3.546088e+00
  7.576805e+00    3.455082e+00
  7.608556e+00    3.464506e+00
  7.640307e+00    3.487189e+00
  7.672058e+00    3.481863e+00
  7.703810e+00    3.523035e+00
  7.735561e+00    3.462074e+00
  7.767312e+00    3.493506e+00
  7.799063e+00    3.551914e+00
  7.830814e+00    3.465811e+00
  7.862565e+00    3.559691e+00
  7.894317e+00    3.448429e+00
  7.926068e+00    3.443125e+00
  7.957819e+00    3.480226e+00
  7.989570e+00    3.465352e+00
  8.021321e+00    3.477731e+00
  8.053072e+00    3.504690e+00
  8.084823e+00    3.377856e+00
  8.116575e+00    3.444388e+00
  8.148326e+00    3.461598e+00
  8.180077e+00    3.460818e+00
  8.211828e+00    3.500886e+00
  8.243579e+00    3.473657e+00
  8.275330e+00    3.480320e+00
  8.307081e+00    3.469246e+00
  8.338833e+00    3.425376e+00
  8.370584e+00    3.389656e+00
  8.402335e+00    3.397627e+00
  8.434086e+00    3.440968e+00
  8.465837e+00    3.422499e+00
  8.497588e+00    3.392077e+00
  8.529339e+00    3.408703e+00
  8.561091e+00    3.389591e+00
  8.592842e+00    3.388205e+00
  8.624593e+00    3.338010e+00
  8.656344e+00    3.330611e+00
  8.688095e+00    3.370373e+00
  8.719846e+00    3.388983e+00
  8.751598e+00    3.311716e+00
  8.783349e+00    3.402748e+00
  8.815100e+00    3.344179e+00
  8.846851e+00    3.299087e+00
  8.878602e+00    3.292377e+00
  8.910353e+00    3.285257e+00
  8.942104e+00    3.293229e+00
  8.973856e+00    3.340117e+00
  9.005607e+00    3.301063e+00
  9.037358e+00    3.279302e+00
  9.069109e+00    3.247400e+00
  9.100860e+00    3.231400e+00
  9.132611e+00    3.301017e+00
  9.164362e+00    3.239641e+00
  9.196114e+00    3.287326e+00
  9.227865e+00    3.270444e+00
  9.259616e+00    3.263979e+00
  9.291367e+00    3.220873e+00
  9.323118e+00    3.227022e+00
  9.354869e+00    3.220171e+00
  9.386620e+00    3.246942e+00
  9.418372e+00    3.231631e+00
  9.450123e+00    3.226999e+00
  9.481874e+00    3.251272e+00
  9.513625e+00    3.220322e+00
  9.545376e+00    3.232666e+00
  9.577127e+00    3.230064e+00
  9.608878e+00    3.243475e+00
  9.640630e+00    3.249171e+00
  9.672381e+00    3.160905e+00
  9.704132e+00    3.144829e+00
  9.735883e+00    3.213537e+00
  9.767634e+00    3.214229e+00
  9.799385e+00    3.182814e+00
  9.831137e+00    3.254190e+00
  9.862888e+00    3.106729e+00
  9.894639e+00    3.107712e+00
  9.926390e+00    3.179061e+00
  9.958141e+00    3.184621e+00
  9.989892e+00    3.163640e+00
  1.002164e+01    3.134586e+00
  1.005339e+01    3.083157e+00
  1.008515e+01    3.136331e+00
  1.011690e+01    3.108675e+00
  1.014865e+01    3.058054e+00
  1.018040e+01    3.108976e+00
  1.021215e+01    3.110914e+00
  1.024390e+01    3.063260e+00
  1.027565e+01    3.040381e+00
  1.030740e+01    3.096554e+00
  1.033915e+01    3.025129e+00
  1.037091e+01    3.035187e+00
  1.040266e+01    3.076979e+00
  1.043441e+01    2.975488e+00
  1.046616e+01    3.025387e+00
  1.049791e+01    3.033381e+00
  1.052966e+01    3.066357e+00
  1.056141e+01    3.005050e+00
  1.059316e+01    2.987560e+00
  1.062492e+01    2.983867e+00
  1.065667e+01    3.004380e+00
  1.068842e+01    3.029573e+00
  1.072017e+01    2.982785e+00
  1.075192e+01    3.003374e+00
  1.078367e+01    2.967496e+00
  1.081542e+01    2.940780e+00
  1.084717e+01    2.961877e+00
  1.087892e+01    3.005969e+00
  1.091068e+01    2.930699e+00
  1.094243e+01    2.907391e+00
  1.097418e+01    2.888748e+00
  1.100593e+01    2.970420e+00
  1.103768e+01    2.894819e+00
  1.106943e+01    2.881993e+00
  1.110118e+01    2.911447e+00
  1.113293e+01    2.936421e+00
  1.116468e+01    2.892025e+00
  1.119644e+01    2.891927e+00
  1.122819e+01    2.926042e+00
  1.125994e+01    2.864234e+00
  1.129169e+01    2.854057e+00
  1.132344e+01    2.866863e+00
  1.135519e+01    2.846421e+00
  1.138694e+01    2.871436e+00
  1.141869e+01    2.804148e+00
  1.145045e+01    2.832837e+00
  1.148220e+01    2.873219e+00
  1.151395e+01    2.847986e+00
  1.154570e+01    2.824227e+00
  1.157745e+01    2.817097e+00
  1.160920e+01    2.853398e+00
  1.164095e+01    2.799997e+00
  1.167270e+01    2.759667e+00
  1.170445e+01    2.761361e+00
  1.173621e+01    2.744170e+00
  1.176796e+01    2.788351e+00
  1.179971e+01    2.785601e+00
  1.183146e+01    2.740205e+00
  1.186321e+01    2.723519e+00
  1.189496e+01    2.733691e+00
  1.192671e+01    2.753134e+00
  1.195846e+01    2.711573e+00
  1.199021e+01    2.716129e+00
  1.202197e+01    2.737077e+00
  1.205372e+01    2.731862e+00
  1.208547e+01    2.721356e+00
  1.211722e+01    2.728619e+00
  1.214897e+01    2.698209e+00
  1.218072e+01    2.654176e+00
  1.221247e+01    2.724361e+00
  1.224422e+01    2.729833e+00
  1.227597e+01    2.735928e+00
  1.230773e+01    2.743394e+00
  1.233948e+01    2.683234e+00
  1.237123e+01    2.719813e+00
  1.240298e+01    2.752981e+00
  1.243473e+01    2.752479e+00
  1.246648e+01    2.729342e+00
  1.249823e+01    2.729128e+00
  1.252998e+01    2.732236e+00
  1.256174e+01    2.677233e+00
  1.259349e+01    2.764776e+00
  1.262524e+01    2.736877e+00
  1.265699e+01    2.809180e+00
  1.268874e+01    2.812285e+00
  1.272049e+01    2.899736e+00
  1.275224e+01    2.958302e+00
  1.278399e+01    2.987654e+00
  1.281574e+01    3.115159e+00
  1.284750e+01    3.188892e+00
  1.287925e+01    3.406895e+00
  1.291100e+01    3.666383e+00
  1.294275e+01    4.107049e+00
  1.297450e+01    4.782920e+00
  1.300625e+01    6.021386e+00
  1.303800e+01    7.829312e+00
  1.306975e+01    1.031235e+01
  1.310150e+01    1.288523e+01
  1.313326e+01    1.494328e+01
  1.316501e+01    1.644071e+01
  1.319676e+01    1.591049e+01
  1.322851e+01    1.264540e+01
  1.326026e+01    9.168514e+00
  1.329201e+01    6.809041e+00
  1.332376e+01    5.420744e+00
  1.335551e+01    4.477595e+00
  1.338727e+01    3.861768e+00
  1.341902e+01    3.503387e+00
  1.345077e+01    3.241175e+00
  1.348252e+01    3.093776e+00
  1.351427e+01    2.935648e+00
  1.354602e+01    2.777902e+00
  1.357777e+01    2.722808e+00
  1.360952e+01    2.641372e+00
  1.364127e+01    2.678950e+00
  1.367303e+01    2.614148e+00
  1.370478e+01    2.623257e+00
  1.373653e+01    2.572176e+00
  1.376828e+01    2.479140e+00
  1.380003e+01    2.521377e+00
  1.383178e+01    2.471636e+00
  1.386353e+01    2.408885e+00
  1.389528e+01    2.452361e+00
  1.392703e+01    2.472632e+00
  1.395879e+01    2.443136e+00
  1.399054e+01    2.407523e+00
  1.402229e+01    2.367459e+00
  1.405404e+01    2.351050e+00
  1.408579e+01    2.370266e+00
  1.411754e+01    2.330423e+00
  1.414929e+01    2.346049e+00
  1.418104e+01    2.328314e+00
  1.421279e+01    2.329979e+00
  1.424455e+01    2.249875e+00
  1.427630e+01    2.308992e+00
  1.430805e+01    2.286379e+00
  1.433980e+01    2.241372e+00
  1.437155e+01    2.240682e+00
  1.440330e+01    2.249372e+00
  1.443505e+01    2.252552e+00
  1.446680e+01    2.247524e+00
  1.449856e+01    2.244154e+00
  1.453031e+01    2.220383e+00
  1.456206e+01    2.264765e+00
  1.459381e+01    2.214726e+00
  1.462556e+01    2.241494e+00
  1.465731e+01    2.245362e+00
  1.468906e+01    2.261546e+00
  1.472081e+01    2.237364e+00
  1.475256e+01    2.202612e+00
  1.478432e+01    2.215879e+00
  1.481607e+01    2.257231e+00
  1.484782e+01    2.244189e+00
  1.487957e+01    2.196136e+00
  1.491132e+01    2.315740e+00
  1.494307e+01    2.303962e+00
  1.497482e+01    2.361594e+00
  1.500657e+01    2.467056e+00
  1.503832e+01    2.604996e+00
  1.507008e+01    2.898752e+00
  1.510183e+01    3.265647e+00
  1.513358e+01    3.768877e+00
  1.516533e+01    4.643482e+00
  1.519708e+01    5.215784e+00
  1.522883e+01    5.720102e+00
  1.526058e+01    5.883057e+00
  1.529233e+01    5.533936e+00
  1.532409e+01    4.703170e+00
  1.535584e+01    3.747770e+00
  1.538759e+01    3.178946e+00
  1.541934e+01    2.745266e+00
  1.545109e+01    2.554985e+00
  1.548284e+01    2.396417e+00
  1.551459e+01    2.289484e+00
  1.554634e+01    2.204179e+00
  1.557809e+01    2.145963e+00
  1.560985e+01    2.086997e+00
  1.564160e+01    2.053978e+00
  1.567335e+01    2.017433e+00
  1.570510e+01    1.962526e+00
  1.573685e+01    1.971871e+00
  1.576860e+01    1.961525e+00
  1.580035e+01    1.954265e+00
  1.583210e+01    1.924175e+00
  1.586385e+01    1.947131e+00
  1.589561e+01    1.912689e+00
  1.592736e+01    1.908607e+00
  1.595911e+01    1.894813e+00
  1.599086e+01    1.898495e+00
  1.602261e+01    1.909368e+00
  1.605436e+01    1.873410e+00
  1.608611e+01    1.867096e+00
  1.611786e+01    1.831871e+00
  1.614961e+01    1.867439e+00
  1.618137e+01    1.831311e+00
  1.621312e+01    1.836457e+00
  1.624487e+01    1.844431e+00
  1.627662e+01    1.849442e+00
  1.630837e+01    1.796317e+00
  1.634012e+01    1.808875e+00
  1.637187e+01    1.763492e+00
  1.640362e+01    1.796173e+00
  1.643538e+01    1.756561e+00
  1.646713e+01    1.742225e+00
  1.649888e+01    1.766903e+00
  1.653063e+01    1.733518e+00
  1.656238e+01    1.784304e+00
  1.659413e+01    1.754934e+00
  1.662588e+01    1.738496e+00
  1.665763e+01    1.777597e+00
  1.668938e+01    1.765876e+00
  1.672114e+01    1.715082e+00
  1.675289e+01    1.682564e+00
  1.678464e+01    1.709945e+00
  1.681639e+01    1.711161e+00
  1.684814e+01    1.707064e+00
  1.687989e+01    1.706413e+00
  1.691164e+01    1.698922e+00
  1.694339e+01    1.693846e+00
  1.697514e+01    1.686820e+00
  1.700690e+01    1.670772e+00
  1.703865e+01    1.665644e+00
  1.707040e+01    1.676169e+00
  1.710215e+01    1.657546e+00
  1.713390e+01    1.668513e+00
  1.716565e+01    1.601421e+00
  1.719740e+01    1.629463e+00
  1.722915e+01    1.654162e+00
  1.726091e+01    1.627516e+00
  1.729266e+01    1.591404e+00
  1.732441e+01    1.601666e+00
  1.735616e+01    1.600217e+00
  1.738791e+01    1.588699e+00
  1.741966e+01    1.638882e+00
  1.745141e+01    1.593682e+00
  1.748316e+01    1.599401e+00
  1.751491e+01    1.609537e+00
  1.754667e+01    1.575533e+00
  1.757842e+01    1.593197e+00
  1.761017e+01    1.602240e+00
  1.764192e+01    1.584182e+00
  1.767367e+01    1.589209e+00
  1.770542e+01    1.562982e+00
  1.773717e+01    1.558566e+00
  1.776892e+01    1.551735e+00
  1.780067e+01    1.547459e+00
  1.783243e+01    1.570511e+00
  1.786418e+01    1.490152e+00
  1.789593e+01    1.562147e+00
  1.792768e+01    1.536520e+00
  1.795943e+01    1.537989e+00
  1.799118e+01    1.505172e+00
  1.802293e+01    1.532082e+00
  1.805468e+01    1.509505e+00
  1.808643e+01    1.503421e+00
  1.811819e+01    1.485164e+00
  1.814994e+01    1.508562e+00
  1.818169e+01    1.491598e+00
  1.821344e+01    1.503542e+00
  1.824519e+01    1.492358e+00
  1.827694e+01    1.477390e+00
  1.830869e+01    1.461781e+00
  1.834044e+01    1.499688e+00
  1.837220e+01    1.484925e+00
  1.840395e+01    1.431145e+00
  1.843570e+01    1.450103e+00
  1.846745e+01    1.454690e+00
  1.849920e+01    1.482762e+00
  1.853095e+01    1.433489e+00
  1.856270e+01    1.442363e+00
  1.859445e+01    1.454347e+00
  1.862620e+01    1.407577e+00
  1.865796e+01    1.401717e+00
  1.868971e+01    1.411100e+00
  1.872146e+01    1.429549e+00
  1.875321e+01    1.409639e+00
  1.878496e+01    1.414245e+00
  1.881671e+01    1.449172e+00
  1.884846e+01    1.441103e+00
  1.888021e+01    1.408872e+00
  1.891196e+01    1.384664e+00
  1.894372e+01    1.393181e+00
  1.897547e+01    1.378180e+00
  1.900722e+01    1.401308e+00
  1.903897e+01    1.383071e+00
  1.907072e+01    1.381973e+00
  1.910247e+01    1.353640e+00
  1.913422e+01    1.367828e+00
  1.916597e+01    1.350419e+00
  1.919773e+01    1.379726e+00
  1.922948e+01    1.357960e+00
  1.926123e+01    1.401257e+00
  1.929298e+01    1.377330e+00
  1.932473e+01    1.365438e+00
  1.935648e+01    1.349772e+00
  1.938823e+01    1.347944e+00
  1.941998e+01    1.350137e+00
  1.945173e+01    1.322512e+00
  1.948349e+01    1.355505e+00
  1.951524e+01    1.330480e+00
  1.954699e+01    1.345348e+00
  1.957874e+01    1.308134e+00
  1.961049e+01    1.330283e+00
  1.964224e+01    1.299056e+00
  1.967399e+01    1.351765e+00
  1.970574e+01    1.316415e+00
  1.973749e+01    1.304422e+00
  1.976925e+01    1.306746e+00
  1.980100e+01    1.308611e+00
  1.983275e+01    1.321697e+00
  1.986450e+01    1.321728e+00
  1.989625e+01    1.311703e+00
  1.992800e+01    1.286220e+00
  1.995975e+01    1.277387e+00
  1.999150e+01    1.321631e+00
  2.002325e+01    1.261101e+00
  2.005501e+01    1.302241e+00
  2.008676e+01    1.278735e+00
  2.011851e+01    1.298966e+00
  2.015026e+01    1.273695e+00
  2.018201e+01    1.274128e+00
  2.021376e+01    1.279094e+00
  2.024551e+01    1.275782e+00
  2.027726e+01    1.273806e+00
  2.030902e+01    1.274548e+00
  2.034077e+01    1.282923e+00
  2.037252e+01    1.247639e+00
  2.040427e+01    1.254946e+00
  2.043602e+01    1.268621e+00
  2.046777e+01    1.258770e+00
  2.049952e+01    1.253655e+00
  2.053127e+01    1.252292e+00
  2.056302e+01    1.246459e+00
  2.059478e+01    1.232578e+00
  2.062653e+01    1.244766e+00
  2.065828e+01    1.224415e+00
  2.069003e+01    1.213180e+00
  2.072178e+01    1.213969e+00
  2.075353e+01    1.228723e+00
  2.078528e+01    1.235999e+00
  2.081703e+01    1.215961e+00
  2.084878e+01    1.219559e+00
  2.088054e+01    1.245107e+00
  2.091229e+01    1.223536e+00
  2.094404e+01    1.262907e+00
  2.097579e+01    1.245231e+00
  2.100754e+01    1.254768e+00
  2.103929e+01    1.239335e+00
  2.107104e+01    1.195634e+00
  2.110279e+01    1.246989e+00
  2.113455e+01    1.219554e+00
  2.116630e+01    1.227617e+00
  2.119805e+01    1.242070e+00
  2.122980e+01    1.262502e+00
  2.126155e+01    1.255600e+00
  2.129330e+01    1.263373e+00
  2.132505e+01    1.256877e+00
  2.135680e+01    1.278730e+00
  2.138855e+01    1.318969e+00
  2.142031e+01    1.307483e+00
  2.145206e+01    1.363015e+00
  2.148381e+01    1.394712e+00
  2.151556e+01    1.460783e+00
  2.154731e+01    1.536795e+00
  2.157906e+01    1.601770e+00
  2.161081e+01    1.766426e+00
  2.164256e+01    2.006291e+00
  2.167431e+01    2.331911e+00
  2.170607e+01    2.794596e+00
  2.173782e+01    3.574392e+00
  2.176957e+01    4.620038e+00
  2.180132e+01    5.929785e+00
  2.183307e+01    7.236545e+00
  2.186482e+01    8.420796e+00
  2.189657e+01    9.090262e+00
  2.192832e+01    8.348749e+00
  2.196007e+01    6.596193e+00
  2.199183e+01    4.905561e+00
  2.202358e+01    3.629699e+00
  2.205533e+01    2.847688e+00
  2.208708e+01    2.337451e+00
  2.211883e+01    2.010938e+00
  2.215058e+01    1.758614e+00
  2.218233e+01    1.624168e+00
  2.221408e+01    1.517929e+00
  2.224584e+01    1.388692e+00
  2.227759e+01    1.352282e+00
  2.230934e+01    1.309535e+00
  2.234109e+01    1.240089e+00
  2.237284e+01    1.231426e+00
  2.240459e+01    1.222002e+00
  2.243634e+01    1.194940e+00
  2.246809e+01    1.150552e+00
  2.249984e+01    1.141549e+00
  2.253160e+01    1.172763e+00
  2.256335e+01    1.134048e+00
  2.259510e+01    1.093443e+00
  2.262685e+01    1.118274e+00
  2.265860e+01    1.087575e+00
  2.269035e+01    1.092099e+00
  2.272210e+01    1.071451e+00
  2.275385e+01    1.093914e+00
  2.278560e+01    1.088143e+00
  2.281736e+01    1.060886e+00
  2.284911e+01    1.067931e+00
  2.288086e+01    1.030665e+00
  2.291261e+01    1.039523e+00
  2.294436e+01    1.048538e+00
  2.297611e+01    1.036726e+00
  2.300786e+01    1.019109e+00
  2.303961e+01    1.028206e+00
  2.307137e+01    1.024583e+00
  2.310312e+01    1.016404e+00
  2.313487e+01    9.985637e-01
  2.316662e+01    9.907715e-01
  2.319837e+01    9.998925e-01
  2.323012e+01    1.002001e+00
  2.326187e+01    9.959344e-01
  2.329362e+01    9.865510e-01
  2.332537e+01    9.826960e-01
  2.335713e+01    9.804582e-01
  2.338888e+01    9.879951e-01
  2.342063e+01    9.734977e-01
  2.345238e+01    9.864911e-01
  2.348413e+01    9.845826e-01
  2.351588e+01    9.681166e-01
  2.354763e+01    9.639193e-01
  2.357938e+01    9.458444e-01
  2.361113e+01    9.699968e-01
  2.364289e+01    9.773434e-01
  2.367464e+01    9.201406e-01
  2.370639e+01    9.558388e-01
  2.373814e+01    9.291998e-01
  2.376989e+01    9.496270e-01
  2.380164e+01    9.315114e-01
  2.383339e+01    9.316414e-01
  2.386514e+01    9.151762e-01
  2.389689e+01    9.363930e-01
  2.392865e+01    9.226372e-01
  2.396040e+01    9.276929e-01
  2.399215e+01    9.314014e-01
  2.402390e+01    8.974551e-01
  2.405565e+01    9.122251e-01
  2.408740e+01    8.881606e-01
  2.411915e+01    8.815070e-01
  2.415090e+01    8.782679e-01
  2.418266e+01    9.005564e-01
  2.421441e+01    8.957569e-01
  2.424616e+01    8.955705e-01
  2.427791e+01    8.724902e-01
  2.430966e+01    9.121935e-01
  2.434141e+01    8.919794e-01
  2.437316e+01    8.943491e-01
  2.440491e+01    9.116544e-01
  2.443666e+01    9.279403e-01
  2.446842e+01    9.076236e-01
  2.450017e+01    9.036540e-01
  2.453192e+01    8.958803e-01
  2.456367e+01    8.923067e-01
  2.459542e+01    9.142067e-01
  2.462717e+01    8.907745e-01
  2.465892e+01    8.954433e-01
  2.469067e+01    9.038115e-01
  2.472242e+01    9.052806e-01
  2.475418e+01    8.753248e-01
  2.478593e+01    9.082259e-01
  2.481768e+01    8.987552e-01
  2.484943e+01    8.976648e-01
  2.488118e+01    9.048082e-01
  2.491293e+01    8.740188e-01
  2.494468e+01    9.075595e-01
  2.497643e+01    9.029736e-01
  2.500819e+01    9.073537e-01
  2.503994e+01    9.081231e-01
  2.507169e+01    9.057559e-01
  2.510344e+01    8.886796e-01
  2.513519e+01    9.119614e-01
  2.516694e+01    9.131315e-01
  2.519869e+01    9.219010e-01
  2.523044e+01    9.232476e-01
  2.526219e+01    9.476075e-01
  2.529395e+01    9.524071e-01
  2.532570e+01    9.534382e-01
  2.535745e+01    9.856535e-01
  2.538920e+01    1.014561e+00
  2.542095e+01    1.026414e+00
  2.545270e+01    1.027179e+00
  2.548445e+01    1.055426e+00
  2.551620e+01    1.078555e+00
  2.554795e+01    1.109510e+00
  2.557971e+01    1.167267e+00
  2.561146e+01    1.208725e+00
  2.564321e+01    1.301967e+00
  2.567496e+01    1.429243e+00
  2.570671e+01    1.622923e+00
  2.573846e+01    1.856250e+00
  2.577021e+01    2.248718e+00
  2.580196e+01    2.847867e+00
  2.583371e+01    3.687594e+00
  2.586547e+01    4.737296e+00
  2.589722e+01    5.912499e+00
  2.592897e+01    6.852793e+00
  2.596072e+01    7.225761e+00
  2.599247e+01    6.683907e+00
  2.602422e+01    5.285681e+00
  2.605597e+01    4.015005e+00
  2.608772e+01    3.072756e+00
  2.611948e+01    2.376383e+00
  2.615123e+01    1.991575e+00
  2.618298e+01    1.693131e+00
  2.621473e+01    1.471236e+00
  2.624648e+01    1.351786e+00
  2.627823e+01    1.259690e+00
  2.630998e+01    1.181699e+00
  2.634173e+01    1.165668e+00
  2.637348e+01    1.101076e+00
  2.640524e+01    1.074743e+00
  2.643699e+01    1.046567e+00
  2.646874e+01    1.022743e+00
  2.650049e+01    1.021114e+00
  2.653224e+01    1.019858e+00
  2.656399e+01    1.005311e+00
  2.659574e+01    1.005845e+00
  2.662749e+01    9.764422e-01
  2.665924e+01    9.846590e-01
  2.669100e+01    1.003823e+00
  2.672275e+01    9.900550e-01
  2.675450e+01    9.882207e-01
  2.678625e+01    9.899656e-01
  2.681800e+01    9.951404e-01
  2.684975e+01    9.895930e-01
  2.688150e+01    1.015384e+00
  2.691325e+01    1.014656e+00
  2.694501e+01    1.026023e+00
  2.697676e+01    1.066286e+00
  2.700851e+01    1.125171e+00
  2.704026e+01    1.211016e+00
  2.707201e+01    1.335111e+00
  2.710376e+01    1.503820e+00
  2.713551e+01    1.726592e+00
  2.716726e+01    2.005170e+00
  2.719901e+01    2.149525e+00
  2.723077e+01    2.167217e+00
  2.726252e+01    1.993362e+00
  2.729427e+01    1.706124e+00
  2.732602e+01    1.464348e+00
  2.735777e+01    1.309291e+00
  2.738952e+01    1.152486e+00
  2.742127e+01    1.100933e+00
  2.745302e+01    1.040448e+00
  2.748477e+01    1.009274e+00
  2.751653e+01    9.742858e-01
  2.754828e+01    9.585949e-01
  2.758003e+01    9.555578e-01
  2.761178e+01    9.277757e-01
  2.764353e+01    9.294025e-01
  2.767528e+01    8.941967e-01
  2.770703e+01    9.025771e-01
  2.773878e+01    8.863903e-01
  2.777054e+01    9.136585e-01
  2.780229e+01    8.850706e-01
  2.783404e+01    8.922797e-01
  2.786579e+01    8.872399e-01
  2.789754e+01    8.733225e-01
  2.792929e+01    8.614398e-01
  2.796104e+01    8.734015e-01
  2.799279e+01    8.897838e-01
  2.802454e+01    8.847589e-01
  2.805630e+01    8.675432e-01
  2.808805e+01    8.541303e-01
  2.811980e+01    8.428968e-01
  2.815155e+01    8.745102e-01
  2.818330e+01    8.594118e-01
  2.821505e+01    8.777892e-01
  2.824680e+01    8.438584e-01
  2.827855e+01    8.500123e-01
  2.831030e+01    8.476520e-01
  2.834206e+01    8.663939e-01
  2.837381e+01    8.585590e-01
  2.840556e+01    8.504614e-01
  2.843731e+01    8.455856e-01
  2.846906e+01    8.230289e-01
  2.850081e+01    8.532315e-01
  2.853256e+01    8.633270e-01
  2.856431e+01    8.535261e-01
  2.859606e+01    8.353753e-01
  2.862782e+01    8.486381e-01
  2.865957e+01    8.426331e-01
  2.869132e+01    8.497225e-01
  2.872307e+01    8.260643e-01
  2.875482e+01    8.326201e-01
  2.878657e+01    8.418792e-01
  2.881832e+01    8.328263e-01
  2.885007e+01    8.495840e-01
  2.888183e+01    8.352261e-01
  2.891358e+01    8.218223e-01
  2.894533e+01    8.114971e-01
  2.897708e+01    8.388834e-01
  2.900883e+01    8.344360e-01
  2.904058e+01    8.329478e-01
  2.907233e+01    8.228807e-01
  2.910408e+01    8.384620e-01
  2.913583e+01    8.447106e-01
  2.916759e+01    8.088859e-01
  2.919934e+01    8.160858e-01
  2.923109e+01    8.253682e-01
  2.926284e+01    8.252238e-01
  2.929459e+01    8.013709e-01
  2.932634e+01    7.998359e-01
  2.935809e+01    8.372049e-01
  2.938984e+01    8.293897e-01
  2.942159e+01    8.071306e-01
  2.945335e+01    8.194299e-01
  2.948510e+01    8.210757e-01
  2.951685e+01    8.253395e-01
  2.954860e+01    8.264322e-01
  2.958035e+01    7.936500e-01
  2.961210e+01    8.147361e-01
  2.964385e+01    7.919893e-01
  2.967560e+01    8.289909e-01
  2.970736e+01    8.075719e-01
  2.973911e+01    7.970365e-01
  2.977086e+01    8.017715e-01
  2.980261e+01    8.151050e-01
  2.983436e+01    8.071498e-01
  2.986611e+01    7.873983e-01
  2.989786e+01    7.918754e-01
  2.992961e+01    8.003284e-01
  2.996136e+01    7.918731e-01
  2.999312e+01    7.908076e-01
  3.002487e+01    8.151228e-01
  3.005662e+01    8.203178e-01
  3.008837e+01    8.228109e-01
  3.012012e+01    8.115882e-01
  3.015187e+01    8.134763e-01
  3.018362e+01    7.889245e-01
  3.021537e+01    8.045373e-01
  3.024712e+01    8.023165e-01
  3.027888e+01    7.807766e-01
  3.031063e+01    8.067454e-01
  3.034238e+01    7.911025e-01
  3.037413e+01    7.811944e-01
  3.040588e+01    8.003451e-01
  3.043763e+01    8.105608e-01
  3.046938e+01    7.965092e-01
  3.050113e+01    7.971330e-01
  3.053288e+01    7.899597e-01
  3.056464e+01    7.894978e-01
  3.059639e+01    7.896124e-01
  3.062814e+01    8.071769e-01
  3.065989e+01    7.945195e-01
  3.069164e+01    8.178982e-01
  3.072339e+01    8.005151e-01
  3.075514e+01    7.878020e-01
  3.078689e+01    7.882786e-01
  3.081865e+01    7.877360e-01
  3.085040e+01    7.963396e-01
  3.088215e+01    7.990018e-01
  3.091390e+01    7.895873e-01
  3.094565e+01    7.949044e-01
  3.097740e+01    7.809442e-01
  3.100915e+01    8.080919e-01
  3.104090e+01    8.094681e-01
  3.107265e+01    7.923099e-01
  3.110441e+01    7.809560e-01
  3.113616e+01    7.994399e-01
  3.116791e+01    7.822443e-01
  3.119966e+01    7.934978e-01
  3.123141e+01    8.147422e-01
  3.126316e+01    8.270382e-01
  3.129491e+01    7.925431e-01
  3.132666e+01    8.215900e-01
  3.135841e+01    8.199488e-01
  3.139017e+01    8.131443e-01
  3.142192e+01    8.255543e-01
  3.145367e+01    8.347048e-01
  3.148542e+01    8.452334e-01
  3.151717e+01    8.323203e-01
  3.154892e+01    8.624706e-01
  3.158067e+01    8.642702e-01
  3.161242e+01    8.954775e-01
  3.164418e+01    9.525079e-01
  3.167593e+01    9.765881e-01
  3.170768e+01    1.033051e+00
  3.173943e+01    1.132096e+00
  3.177118e+01    1.261819e+00
  3.180293e+01    1.463076e+00
  3.183468e+01    1.768261e+00
  3.186643e+01    1.990281e+00
  3.189818e+01    2.123677e+00
  3.192994e+01    2.052051e+00
  3.196169e+01    1.833449e+00
  3.199344e+01    1.567812e+00
  3.202519e+01    1.307484e+00
  3.205694e+01    1.175287e+00
  3.208869e+01    1.060103e+00
  3.212044e+01    9.740763e-01
  3.215219e+01    8.996357e-01
  3.218394e+01    8.653876e-01
  3.221570e+01    8.587681e-01
  3.224745e+01    8.475717e-01
  3.227920e+01    8.355620e-01
  3.231095e+01    8.070283e-01
  3.234270e+01    8.073884e-01
  3.237445e+01    8.127361e-01
  3.240620e+01    8.007509e-01
  3.243795e+01    8.104692e-01
  3.246970e+01    7.864584e-01
  3.250146e+01    7.973996e-01
  3.253321e+01    7.834775e-01
  3.254908e+01    7.957413e-01