File: XRD/Reaction conditions/2024-07-27_003_Ru-CGO-ex_Reaction_dwell_000023_data_000130.dat
# == pyFAI calibration ==
# Distance Sample to Detector: 0.4 m
# PONI: 9.750e-02, 1.135e-01 m
# Rotations: -0.000175 0.000000 -0.000000 rad
#
# == Fit2d calibration ==
# Distance Sample-beamCenter: 400.000 mm
# Center: x=1514.000, y=1300.000 pix
# Tilt: 0.010 deg  TiltPlanRot: 0.010 deg
#
# Detector Detector	 Spline= None	 PixelSize= 7.500e-05, 7.500e-05 m
#    Detector has a mask: False
#    Detector has a dark current: False
#    detector has a flat field: False
#
# Wavelength: 6.888e-11 m
# Mask applied: user provided
# Dark current applied: False
# Flat field applied: False
# Polarization factor: 0.99
# Normalization factor: 1.0
# --> /home/myspot/data/2024_07_Rosario/Ru-CGO-ex/2024-07-27_003_Ru-CGO-ex_Reaction_dwell_000023_data_000130.dat
#       q_nm^-1             I
  2.003187e-02    0.000000e+00
  5.178302e-02    6.858626e-02
  8.353417e-02    1.245697e-01
  1.152853e-01    4.575606e-02
  1.470365e-01    4.883472e-02
  1.787876e-01    5.986679e-02
  2.105388e-01    0.000000e+00
  2.422899e-01    2.936014e-02
  2.740411e-01    4.517043e-02
  3.057922e-01    1.704653e-02
  3.375433e-01    5.215214e-02
  3.692945e-01    5.652253e-02
  4.010456e-01    4.107898e-02
  4.327968e-01    5.916918e-02
  4.645479e-01    1.557230e-02
  4.962991e-01    4.789200e-02
  5.280502e-01    5.467499e-02
  5.598014e-01    7.191623e-03
  5.915525e-01    4.479938e-02
  6.233037e-01    4.257578e-02
  6.550548e-01    4.146415e-02
  6.868060e-01    1.764149e-02
  7.185571e-01    3.150289e-02
  7.503083e-01    6.573529e-02
  7.820594e-01    1.212772e-01
  8.138106e-01    2.259337e-01
  8.455617e-01    3.743424e-01
  8.773129e-01    5.092168e-01
  9.090640e-01    6.040795e-01
  9.408152e-01    8.377330e-01
  9.725663e-01    9.367479e-01
  1.004317e+00    1.196049e+00
  1.036069e+00    1.361145e+00
  1.067820e+00    1.443359e+00
  1.099571e+00    1.510221e+00
  1.131322e+00    1.622618e+00
  1.163073e+00    1.629816e+00
  1.194824e+00    1.733190e+00
  1.226575e+00    2.251667e+00
  1.258327e+00    2.522555e+00
  1.290078e+00    2.613120e+00
  1.321829e+00    2.822917e+00
  1.353580e+00    2.586805e+00
  1.385331e+00    2.798389e+00
  1.417082e+00    2.851970e+00
  1.448834e+00    3.037636e+00
  1.480585e+00    3.097806e+00
  1.512336e+00    3.241904e+00
  1.544087e+00    3.243190e+00
  1.575838e+00    3.045886e+00
  1.607589e+00    3.281775e+00
  1.639340e+00    3.314703e+00
  1.671092e+00    3.084482e+00
  1.702843e+00    3.011761e+00
  1.734594e+00    3.078650e+00
  1.766345e+00    3.081506e+00
  1.798096e+00    3.136591e+00
  1.829847e+00    3.233639e+00
  1.861598e+00    2.953656e+00
  1.893350e+00    2.996087e+00
  1.925101e+00    3.155668e+00
  1.956852e+00    3.107244e+00
  1.988603e+00    3.125633e+00
  2.020354e+00    3.054554e+00
  2.052105e+00    3.054016e+00
  2.083856e+00    2.958250e+00
  2.115608e+00    3.076564e+00
  2.147359e+00    3.000820e+00
  2.179110e+00    3.102827e+00
  2.210861e+00    3.025922e+00
  2.242612e+00    3.026941e+00
  2.274363e+00    3.145731e+00
  2.306115e+00    3.226224e+00
  2.337866e+00    3.109069e+00
  2.369617e+00    3.146511e+00
  2.401368e+00    3.105975e+00
  2.433119e+00    3.133911e+00
  2.464870e+00    3.244485e+00
  2.496621e+00    3.266197e+00
  2.528373e+00    3.229707e+00
  2.560124e+00    3.148811e+00
  2.591875e+00    3.218728e+00
  2.623626e+00    3.196984e+00
  2.655377e+00    3.192479e+00
  2.687128e+00    3.240112e+00
  2.718879e+00    3.295741e+00
  2.750631e+00    3.242204e+00
  2.782382e+00    3.187826e+00
  2.814133e+00    3.251695e+00
  2.845884e+00    3.156707e+00
  2.877635e+00    3.349611e+00
  2.909386e+00    3.348371e+00
  2.941137e+00    3.380317e+00
  2.972889e+00    3.386855e+00
  3.004640e+00    3.384998e+00
  3.036391e+00    3.323807e+00
  3.068142e+00    3.425420e+00
  3.099893e+00    3.373262e+00
  3.131644e+00    3.350920e+00
  3.163395e+00    3.293334e+00
  3.195147e+00    3.358938e+00
  3.226898e+00    3.297952e+00
  3.258649e+00    3.352549e+00
  3.290400e+00    3.405037e+00
  3.322151e+00    3.365208e+00
  3.353902e+00    3.402392e+00
  3.385654e+00    3.379026e+00
  3.417405e+00    3.453607e+00
  3.449156e+00    3.461085e+00
  3.480907e+00    3.452568e+00
  3.512658e+00    3.381178e+00
  3.544409e+00    3.421278e+00
  3.576160e+00    3.437279e+00
  3.607912e+00    3.408485e+00
  3.639663e+00    3.361780e+00
  3.671414e+00    3.350141e+00
  3.703165e+00    3.479608e+00
  3.734916e+00    3.280256e+00
  3.766667e+00    3.438028e+00
  3.798418e+00    3.446105e+00
  3.830170e+00    3.486475e+00
  3.861921e+00    3.579631e+00
  3.893672e+00    3.542931e+00
  3.925423e+00    3.486616e+00
  3.957174e+00    3.639114e+00
  3.988925e+00    3.569703e+00
  4.020676e+00    3.570936e+00
  4.052428e+00    3.552364e+00
  4.084179e+00    3.517871e+00
  4.115930e+00    3.646762e+00
  4.147681e+00    3.649088e+00
  4.179432e+00    3.483512e+00
  4.211183e+00    3.519409e+00
  4.242935e+00    3.552973e+00
  4.274686e+00    3.653378e+00
  4.306437e+00    3.565783e+00
  4.338188e+00    3.561949e+00
  4.369939e+00    3.571240e+00
  4.401690e+00    3.553026e+00
  4.433441e+00    3.518765e+00
  4.465193e+00    3.557481e+00
  4.496944e+00    3.613376e+00
  4.528695e+00    3.572142e+00
  4.560446e+00    3.518627e+00
  4.592197e+00    3.575030e+00
  4.623948e+00    3.660656e+00
  4.655699e+00    3.650911e+00
  4.687451e+00    3.646318e+00
  4.719202e+00    3.596145e+00
  4.750953e+00    3.639706e+00
  4.782704e+00    3.721009e+00
  4.814455e+00    3.641056e+00
  4.846206e+00    3.687820e+00
  4.877957e+00    3.639785e+00
  4.909709e+00    3.574975e+00
  4.941460e+00    3.583801e+00
  4.973211e+00    3.588897e+00
  5.004962e+00    3.678595e+00
  5.036713e+00    3.646029e+00
  5.068464e+00    3.706149e+00
  5.100216e+00    3.690864e+00
  5.131967e+00    3.664162e+00
  5.163718e+00    3.558275e+00
  5.195469e+00    3.617210e+00
  5.227220e+00    3.622626e+00
  5.258971e+00    3.658635e+00
  5.290722e+00    3.693394e+00
  5.322474e+00    3.682438e+00
  5.354225e+00    3.579137e+00
  5.385976e+00    3.667563e+00
  5.417727e+00    3.627255e+00
  5.449478e+00    3.599274e+00
  5.481229e+00    3.653831e+00
  5.512980e+00    3.652414e+00
  5.544732e+00    3.652090e+00
  5.576483e+00    3.615064e+00
  5.608234e+00    3.478462e+00
  5.639985e+00    3.615801e+00
  5.671736e+00    3.563439e+00
  5.703487e+00    3.612578e+00
  5.735238e+00    3.627823e+00
  5.766990e+00    3.512398e+00
  5.798741e+00    3.537748e+00
  5.830492e+00    3.526320e+00
  5.862243e+00    3.526788e+00
  5.893994e+00    3.586813e+00
  5.925745e+00    3.510892e+00
  5.957497e+00    3.478104e+00
  5.989248e+00    3.467056e+00
  6.020999e+00    3.548193e+00
  6.052750e+00    3.654270e+00
  6.084501e+00    3.583920e+00
  6.116252e+00    3.530748e+00
  6.148003e+00    3.544297e+00
  6.179755e+00    3.543363e+00
  6.211506e+00    3.520897e+00
  6.243257e+00    3.527153e+00
  6.275008e+00    3.451895e+00
  6.306759e+00    3.493479e+00
  6.338510e+00    3.567848e+00
  6.370261e+00    3.594096e+00
  6.402013e+00    3.589874e+00
  6.433764e+00    3.504488e+00
  6.465515e+00    3.521481e+00
  6.497266e+00    3.579127e+00
  6.529017e+00    3.579020e+00
  6.560768e+00    3.483557e+00
  6.592519e+00    3.493174e+00
  6.624271e+00    3.562994e+00
  6.656022e+00    3.488843e+00
  6.687773e+00    3.504128e+00
  6.719524e+00    3.519069e+00
  6.751275e+00    3.512056e+00
  6.783026e+00    3.513168e+00
  6.814777e+00    3.461840e+00
  6.846529e+00    3.546090e+00
  6.878280e+00    3.558996e+00
  6.910031e+00    3.515085e+00
  6.941782e+00    3.530775e+00
  6.973533e+00    3.506592e+00
  7.005284e+00    3.551162e+00
  7.037036e+00    3.564073e+00
  7.068787e+00    3.470662e+00
  7.100538e+00    3.493905e+00
  7.132289e+00    3.468837e+00
  7.164040e+00    3.617628e+00
  7.195791e+00    3.522936e+00
  7.227542e+00    3.526401e+00
  7.259294e+00    3.543769e+00
  7.291045e+00    3.532932e+00
  7.322796e+00    3.496109e+00
  7.354547e+00    3.551680e+00
  7.386298e+00    3.485381e+00
  7.418049e+00    3.476178e+00
  7.449800e+00    3.503110e+00
  7.481552e+00    3.476734e+00
  7.513303e+00    3.435216e+00
  7.545054e+00    3.429553e+00
  7.576805e+00    3.490618e+00
  7.608556e+00    3.528467e+00
  7.640307e+00    3.383207e+00
  7.672058e+00    3.491569e+00
  7.703810e+00    3.483358e+00
  7.735561e+00    3.402405e+00
  7.767312e+00    3.437942e+00
  7.799063e+00    3.439408e+00
  7.830814e+00    3.423494e+00
  7.862565e+00    3.405196e+00
  7.894317e+00    3.422070e+00
  7.926068e+00    3.378504e+00
  7.957819e+00    3.412442e+00
  7.989570e+00    3.452020e+00
  8.021321e+00    3.418972e+00
  8.053072e+00    3.411193e+00
  8.084823e+00    3.349855e+00
  8.116575e+00    3.474861e+00
  8.148326e+00    3.388998e+00
  8.180077e+00    3.510360e+00
  8.211828e+00    3.428729e+00
  8.243579e+00    3.525580e+00
  8.275330e+00    3.407306e+00
  8.307081e+00    3.361285e+00
  8.338833e+00    3.372520e+00
  8.370584e+00    3.382042e+00
  8.402335e+00    3.355407e+00
  8.434086e+00    3.334731e+00
  8.465837e+00    3.404419e+00
  8.497588e+00    3.322107e+00
  8.529339e+00    3.308282e+00
  8.561091e+00    3.359941e+00
  8.592842e+00    3.354110e+00
  8.624593e+00    3.337548e+00
  8.656344e+00    3.334200e+00
  8.688095e+00    3.393956e+00
  8.719846e+00    3.389602e+00
  8.751598e+00    3.346062e+00
  8.783349e+00    3.347787e+00
  8.815100e+00    3.294103e+00
  8.846851e+00    3.333239e+00
  8.878602e+00    3.296710e+00
  8.910353e+00    3.281279e+00
  8.942104e+00    3.333566e+00
  8.973856e+00    3.264829e+00
  9.005607e+00    3.339596e+00
  9.037358e+00    3.267636e+00
  9.069109e+00    3.277032e+00
  9.100860e+00    3.225921e+00
  9.132611e+00    3.382172e+00
  9.164362e+00    3.303059e+00
  9.196114e+00    3.280148e+00
  9.227865e+00    3.257328e+00
  9.259616e+00    3.249596e+00
  9.291367e+00    3.249655e+00
  9.323118e+00    3.184505e+00
  9.354869e+00    3.190182e+00
  9.386620e+00    3.210723e+00
  9.418372e+00    3.222027e+00
  9.450123e+00    3.176696e+00
  9.481874e+00    3.199436e+00
  9.513625e+00    3.222028e+00
  9.545376e+00    3.196218e+00
  9.577127e+00    3.170588e+00
  9.608878e+00    3.211570e+00
  9.640630e+00    3.229942e+00
  9.672381e+00    3.088586e+00
  9.704132e+00    3.127328e+00
  9.735883e+00    3.161855e+00
  9.767634e+00    3.163827e+00
  9.799385e+00    3.163106e+00
  9.831137e+00    3.121963e+00
  9.862888e+00    3.144747e+00
  9.894639e+00    3.141517e+00
  9.926390e+00    3.138638e+00
  9.958141e+00    3.096324e+00
  9.989892e+00    3.048131e+00
  1.002164e+01    3.066245e+00
  1.005339e+01    3.083805e+00
  1.008515e+01    3.108494e+00
  1.011690e+01    3.032851e+00
  1.014865e+01    3.046587e+00
  1.018040e+01    3.093832e+00
  1.021215e+01    3.005677e+00
  1.024390e+01    3.084816e+00
  1.027565e+01    3.089786e+00
  1.030740e+01    2.999547e+00
  1.033915e+01    3.019230e+00
  1.037091e+01    3.012385e+00
  1.040266e+01    3.044264e+00
  1.043441e+01    2.992496e+00
  1.046616e+01    3.041045e+00
  1.049791e+01    3.011261e+00
  1.052966e+01    3.061101e+00
  1.056141e+01    2.989100e+00
  1.059316e+01    2.997625e+00
  1.062492e+01    2.970412e+00
  1.065667e+01    3.009278e+00
  1.068842e+01    2.969729e+00
  1.072017e+01    2.938068e+00
  1.075192e+01    2.988893e+00
  1.078367e+01    2.894158e+00
  1.081542e+01    2.930639e+00
  1.084717e+01    2.945117e+00
  1.087892e+01    2.893326e+00
  1.091068e+01    2.944169e+00
  1.094243e+01    2.899588e+00
  1.097418e+01    2.931888e+00
  1.100593e+01    2.859335e+00
  1.103768e+01    2.927201e+00
  1.106943e+01    2.866631e+00
  1.110118e+01    2.885371e+00
  1.113293e+01    2.873976e+00
  1.116468e+01    2.897619e+00
  1.119644e+01    2.871818e+00
  1.122819e+01    2.862483e+00
  1.125994e+01    2.866640e+00
  1.129169e+01    2.803304e+00
  1.132344e+01    2.827684e+00
  1.135519e+01    2.819548e+00
  1.138694e+01    2.818209e+00
  1.141869e+01    2.800619e+00
  1.145045e+01    2.824590e+00
  1.148220e+01    2.769258e+00
  1.151395e+01    2.763568e+00
  1.154570e+01    2.803065e+00
  1.157745e+01    2.745791e+00
  1.160920e+01    2.755763e+00
  1.164095e+01    2.763838e+00
  1.167270e+01    2.773461e+00
  1.170445e+01    2.726443e+00
  1.173621e+01    2.745494e+00
  1.176796e+01    2.711873e+00
  1.179971e+01    2.744842e+00
  1.183146e+01    2.658564e+00
  1.186321e+01    2.776765e+00
  1.189496e+01    2.718941e+00
  1.192671e+01    2.713850e+00
  1.195846e+01    2.706750e+00
  1.199021e+01    2.663996e+00
  1.202197e+01    2.632769e+00
  1.205372e+01    2.695344e+00
  1.208547e+01    2.686119e+00
  1.211722e+01    2.696670e+00
  1.214897e+01    2.676419e+00
  1.218072e+01    2.712292e+00
  1.221247e+01    2.706110e+00
  1.224422e+01    2.676663e+00
  1.227597e+01    2.654710e+00
  1.230773e+01    2.637851e+00
  1.233948e+01    2.662480e+00
  1.237123e+01    2.693594e+00
  1.240298e+01    2.683665e+00
  1.243473e+01    2.718438e+00
  1.246648e+01    2.740327e+00
  1.249823e+01    2.707304e+00
  1.252998e+01    2.713330e+00
  1.256174e+01    2.722541e+00
  1.259349e+01    2.725641e+00
  1.262524e+01    2.765399e+00
  1.265699e+01    2.773014e+00
  1.268874e+01    2.789656e+00
  1.272049e+01    2.847406e+00
  1.275224e+01    2.895050e+00
  1.278399e+01    2.922050e+00
  1.281574e+01    3.022629e+00
  1.284750e+01    3.129375e+00
  1.287925e+01    3.351204e+00
  1.291100e+01    3.656150e+00
  1.294275e+01    4.058561e+00
  1.297450e+01    4.775403e+00
  1.300625e+01    5.821094e+00
  1.303800e+01    7.673885e+00
  1.306975e+01    1.003891e+01
  1.310150e+01    1.268725e+01
  1.313326e+01    1.465448e+01
  1.316501e+01    1.619023e+01
  1.319676e+01    1.568610e+01
  1.322851e+01    1.241545e+01
  1.326026e+01    9.127203e+00
  1.329201e+01    6.795920e+00
  1.332376e+01    5.346158e+00
  1.335551e+01    4.389143e+00
  1.338727e+01    3.884660e+00
  1.341902e+01    3.525553e+00
  1.345077e+01    3.194898e+00
  1.348252e+01    3.086084e+00
  1.351427e+01    2.924266e+00
  1.354602e+01    2.805841e+00
  1.357777e+01    2.705043e+00
  1.360952e+01    2.676527e+00
  1.364127e+01    2.622731e+00
  1.367303e+01    2.612696e+00
  1.370478e+01    2.530400e+00
  1.373653e+01    2.571815e+00
  1.376828e+01    2.465305e+00
  1.380003e+01    2.497555e+00
  1.383178e+01    2.445486e+00
  1.386353e+01    2.435030e+00
  1.389528e+01    2.388923e+00
  1.392703e+01    2.367887e+00
  1.395879e+01    2.425612e+00
  1.399054e+01    2.348257e+00
  1.402229e+01    2.333652e+00
  1.405404e+01    2.320081e+00
  1.408579e+01    2.342402e+00
  1.411754e+01    2.317189e+00
  1.414929e+01    2.312836e+00
  1.418104e+01    2.286474e+00
  1.421279e+01    2.232430e+00
  1.424455e+01    2.312347e+00
  1.427630e+01    2.306378e+00
  1.430805e+01    2.274068e+00
  1.433980e+01    2.258723e+00
  1.437155e+01    2.264669e+00
  1.440330e+01    2.199090e+00
  1.443505e+01    2.211881e+00
  1.446680e+01    2.231071e+00
  1.449856e+01    2.228070e+00
  1.453031e+01    2.205991e+00
  1.456206e+01    2.188136e+00
  1.459381e+01    2.196040e+00
  1.462556e+01    2.232500e+00
  1.465731e+01    2.249104e+00
  1.468906e+01    2.196964e+00
  1.472081e+01    2.193237e+00
  1.475256e+01    2.189318e+00
  1.478432e+01    2.220171e+00
  1.481607e+01    2.240564e+00
  1.484782e+01    2.204675e+00
  1.487957e+01    2.186096e+00
  1.491132e+01    2.249455e+00
  1.494307e+01    2.268413e+00
  1.497482e+01    2.338522e+00
  1.500657e+01    2.403173e+00
  1.503832e+01    2.572784e+00
  1.507008e+01    2.788884e+00
  1.510183e+01    3.176489e+00
  1.513358e+01    3.797038e+00
  1.516533e+01    4.426081e+00
  1.519708e+01    5.087026e+00
  1.522883e+01    5.567034e+00
  1.526058e+01    5.769767e+00
  1.529233e+01    5.427819e+00
  1.532409e+01    4.669142e+00
  1.535584e+01    3.765020e+00
  1.538759e+01    3.160643e+00
  1.541934e+01    2.781235e+00
  1.545109e+01    2.532985e+00
  1.548284e+01    2.351083e+00
  1.551459e+01    2.226164e+00
  1.554634e+01    2.170601e+00
  1.557809e+01    2.114420e+00
  1.560985e+01    2.100680e+00
  1.564160e+01    2.028558e+00
  1.567335e+01    1.999639e+00
  1.570510e+01    2.008377e+00
  1.573685e+01    1.937147e+00
  1.576860e+01    1.959133e+00
  1.580035e+01    1.933313e+00
  1.583210e+01    1.918181e+00
  1.586385e+01    1.899261e+00
  1.589561e+01    1.878578e+00
  1.592736e+01    1.902500e+00
  1.595911e+01    1.897647e+00
  1.599086e+01    1.882866e+00
  1.602261e+01    1.866277e+00
  1.605436e+01    1.859325e+00
  1.608611e+01    1.820663e+00
  1.611786e+01    1.813679e+00
  1.614961e+01    1.812772e+00
  1.618137e+01    1.826836e+00
  1.621312e+01    1.789474e+00
  1.624487e+01    1.794024e+00
  1.627662e+01    1.848399e+00
  1.630837e+01    1.751581e+00
  1.634012e+01    1.758418e+00
  1.637187e+01    1.797333e+00
  1.640362e+01    1.750600e+00
  1.643538e+01    1.796289e+00
  1.646713e+01    1.758580e+00
  1.649888e+01    1.759954e+00
  1.653063e+01    1.748540e+00
  1.656238e+01    1.740043e+00
  1.659413e+01    1.750456e+00
  1.662588e+01    1.743432e+00
  1.665763e+01    1.742250e+00
  1.668938e+01    1.742493e+00
  1.672114e+01    1.691570e+00
  1.675289e+01    1.687834e+00
  1.678464e+01    1.724173e+00
  1.681639e+01    1.667749e+00
  1.684814e+01    1.706567e+00
  1.687989e+01    1.684866e+00
  1.691164e+01    1.652082e+00
  1.694339e+01    1.658860e+00
  1.697514e+01    1.690936e+00
  1.700690e+01    1.677164e+00
  1.703865e+01    1.663041e+00
  1.707040e+01    1.642434e+00
  1.710215e+01    1.635571e+00
  1.713390e+01    1.653104e+00
  1.716565e+01    1.666631e+00
  1.719740e+01    1.615275e+00
  1.722915e+01    1.593814e+00
  1.726091e+01    1.652242e+00
  1.729266e+01    1.627640e+00
  1.732441e+01    1.660397e+00
  1.735616e+01    1.629657e+00
  1.738791e+01    1.607334e+00
  1.741966e+01    1.562677e+00
  1.745141e+01    1.593361e+00
  1.748316e+01    1.586679e+00
  1.751491e+01    1.590684e+00
  1.754667e+01    1.559565e+00
  1.757842e+01    1.562778e+00
  1.761017e+01    1.587256e+00
  1.764192e+01    1.548044e+00
  1.767367e+01    1.551703e+00
  1.770542e+01    1.539941e+00
  1.773717e+01    1.541250e+00
  1.776892e+01    1.550310e+00
  1.780067e+01    1.537669e+00
  1.783243e+01    1.517688e+00
  1.786418e+01    1.530772e+00
  1.789593e+01    1.528580e+00
  1.792768e+01    1.556453e+00
  1.795943e+01    1.524356e+00
  1.799118e+01    1.515668e+00
  1.802293e+01    1.516305e+00
  1.805468e+01    1.502957e+00
  1.808643e+01    1.482588e+00
  1.811819e+01    1.496023e+00
  1.814994e+01    1.457258e+00
  1.818169e+01    1.480705e+00
  1.821344e+01    1.482714e+00
  1.824519e+01    1.460946e+00
  1.827694e+01    1.486297e+00
  1.830869e+01    1.454936e+00
  1.834044e+01    1.472466e+00
  1.837220e+01    1.466492e+00
  1.840395e+01    1.496315e+00
  1.843570e+01    1.451837e+00
  1.846745e+01    1.451874e+00
  1.849920e+01    1.421672e+00
  1.853095e+01    1.409641e+00
  1.856270e+01    1.413869e+00
  1.859445e+01    1.429306e+00
  1.862620e+01    1.396613e+00
  1.865796e+01    1.428948e+00
  1.868971e+01    1.421246e+00
  1.872146e+01    1.388868e+00
  1.875321e+01    1.404599e+00
  1.878496e+01    1.420977e+00
  1.881671e+01    1.407962e+00
  1.884846e+01    1.394939e+00
  1.888021e+01    1.398793e+00
  1.891196e+01    1.410583e+00
  1.894372e+01    1.401566e+00
  1.897547e+01    1.398769e+00
  1.900722e+01    1.359091e+00
  1.903897e+01    1.366844e+00
  1.907072e+01    1.384496e+00
  1.910247e+01    1.381015e+00
  1.913422e+01    1.392345e+00
  1.916597e+01    1.368674e+00
  1.919773e+01    1.373314e+00
  1.922948e+01    1.395094e+00
  1.926123e+01    1.347758e+00
  1.929298e+01    1.349945e+00
  1.932473e+01    1.368433e+00
  1.935648e+01    1.359043e+00
  1.938823e+01    1.334180e+00
  1.941998e+01    1.349019e+00
  1.945173e+01    1.352250e+00
  1.948349e+01    1.322840e+00
  1.951524e+01    1.319367e+00
  1.954699e+01    1.325294e+00
  1.957874e+01    1.335765e+00
  1.961049e+01    1.306614e+00
  1.964224e+01    1.357803e+00
  1.967399e+01    1.341822e+00
  1.970574e+01    1.288601e+00
  1.973749e+01    1.318865e+00
  1.976925e+01    1.319549e+00
  1.980100e+01    1.271868e+00
  1.983275e+01    1.274172e+00
  1.986450e+01    1.264005e+00
  1.989625e+01    1.286608e+00
  1.992800e+01    1.281722e+00
  1.995975e+01    1.274821e+00
  1.999150e+01    1.269961e+00
  2.002325e+01    1.263721e+00
  2.005501e+01    1.292910e+00
  2.008676e+01    1.284053e+00
  2.011851e+01    1.282057e+00
  2.015026e+01    1.282223e+00
  2.018201e+01    1.261844e+00
  2.021376e+01    1.246451e+00
  2.024551e+01    1.263098e+00
  2.027726e+01    1.236188e+00
  2.030902e+01    1.254780e+00
  2.034077e+01    1.246562e+00
  2.037252e+01    1.279961e+00
  2.040427e+01    1.220247e+00
  2.043602e+01    1.247578e+00
  2.046777e+01    1.242921e+00
  2.049952e+01    1.254161e+00
  2.053127e+01    1.217398e+00
  2.056302e+01    1.223528e+00
  2.059478e+01    1.210156e+00
  2.062653e+01    1.224598e+00
  2.065828e+01    1.231604e+00
  2.069003e+01    1.207171e+00
  2.072178e+01    1.196841e+00
  2.075353e+01    1.197122e+00
  2.078528e+01    1.210847e+00
  2.081703e+01    1.228604e+00
  2.084878e+01    1.215422e+00
  2.088054e+01    1.211221e+00
  2.091229e+01    1.235974e+00
  2.094404e+01    1.229219e+00
  2.097579e+01    1.200449e+00
  2.100754e+01    1.222087e+00
  2.103929e+01    1.203462e+00
  2.107104e+01    1.229403e+00
  2.110279e+01    1.234458e+00
  2.113455e+01    1.240724e+00
  2.116630e+01    1.227936e+00
  2.119805e+01    1.207428e+00
  2.122980e+01    1.241031e+00
  2.126155e+01    1.261087e+00
  2.129330e+01    1.239886e+00
  2.132505e+01    1.267494e+00
  2.135680e+01    1.293348e+00
  2.138855e+01    1.295631e+00
  2.142031e+01    1.317550e+00
  2.145206e+01    1.345079e+00
  2.148381e+01    1.404961e+00
  2.151556e+01    1.427940e+00
  2.154731e+01    1.520874e+00
  2.157906e+01    1.609436e+00
  2.161081e+01    1.739344e+00
  2.164256e+01    1.981676e+00
  2.167431e+01    2.274363e+00
  2.170607e+01    2.790107e+00
  2.173782e+01    3.544418e+00
  2.176957e+01    4.535541e+00
  2.180132e+01    5.726380e+00
  2.183307e+01    7.090345e+00
  2.186482e+01    8.267738e+00
  2.189657e+01    8.908062e+00
  2.192832e+01    8.237331e+00
  2.196007e+01    6.640915e+00
  2.199183e+01    4.848805e+00
  2.202358e+01    3.596993e+00
  2.205533e+01    2.846500e+00
  2.208708e+01    2.354090e+00
  2.211883e+01    1.971593e+00
  2.215058e+01    1.754218e+00
  2.218233e+01    1.600856e+00
  2.221408e+01    1.472857e+00
  2.224584e+01    1.401006e+00
  2.227759e+01    1.330147e+00
  2.230934e+01    1.292948e+00
  2.234109e+01    1.264634e+00
  2.237284e+01    1.226056e+00
  2.240459e+01    1.181291e+00
  2.243634e+01    1.190779e+00
  2.246809e+01    1.163450e+00
  2.249984e+01    1.131617e+00
  2.253160e+01    1.134291e+00
  2.256335e+01    1.100274e+00
  2.259510e+01    1.094723e+00
  2.262685e+01    1.100925e+00
  2.265860e+01    1.080013e+00
  2.269035e+01    1.078449e+00
  2.272210e+01    1.075444e+00
  2.275385e+01    1.050257e+00
  2.278560e+01    1.064164e+00
  2.281736e+01    1.053852e+00
  2.284911e+01    1.035705e+00
  2.288086e+01    1.017448e+00
  2.291261e+01    1.026923e+00
  2.294436e+01    1.049925e+00
  2.297611e+01    1.003478e+00
  2.300786e+01    1.026490e+00
  2.303961e+01    1.029323e+00
  2.307137e+01    1.006109e+00
  2.310312e+01    1.004005e+00
  2.313487e+01    1.007631e+00
  2.316662e+01    9.870866e-01
  2.319837e+01    1.004245e+00
  2.323012e+01    9.856585e-01
  2.326187e+01    9.781955e-01
  2.329362e+01    9.702892e-01
  2.332537e+01    9.858333e-01
  2.335713e+01    9.624979e-01
  2.338888e+01    9.522722e-01
  2.342063e+01    9.669675e-01
  2.345238e+01    1.002349e+00
  2.348413e+01    9.496514e-01
  2.351588e+01    9.390844e-01
  2.354763e+01    9.880891e-01
  2.357938e+01    9.589711e-01
  2.361113e+01    9.590041e-01
  2.364289e+01    9.474377e-01
  2.367464e+01    9.507795e-01
  2.370639e+01    9.188757e-01
  2.373814e+01    9.444743e-01
  2.376989e+01    9.347918e-01
  2.380164e+01    9.301180e-01
  2.383339e+01    9.233042e-01
  2.386514e+01    9.149007e-01
  2.389689e+01    9.157671e-01
  2.392865e+01    9.036254e-01
  2.396040e+01    8.777784e-01
  2.399215e+01    8.967667e-01
  2.402390e+01    8.971362e-01
  2.405565e+01    8.933321e-01
  2.408740e+01    8.963577e-01
  2.411915e+01    8.782869e-01
  2.415090e+01    8.732226e-01
  2.418266e+01    8.854302e-01
  2.421441e+01    8.742424e-01
  2.424616e+01    8.778350e-01
  2.427791e+01    8.822930e-01
  2.430966e+01    8.838415e-01
  2.434141e+01    9.026357e-01
  2.437316e+01    8.935302e-01
  2.440491e+01    8.960060e-01
  2.443666e+01    9.212924e-01
  2.446842e+01    8.846779e-01
  2.450017e+01    8.705971e-01
  2.453192e+01    9.059733e-01
  2.456367e+01    8.940733e-01
  2.459542e+01    9.082801e-01
  2.462717e+01    8.681006e-01
  2.465892e+01    8.902095e-01
  2.469067e+01    9.028787e-01
  2.472242e+01    8.972592e-01
  2.475418e+01    8.711010e-01
  2.478593e+01    8.935505e-01
  2.481768e+01    8.720111e-01
  2.484943e+01    8.704648e-01
  2.488118e+01    9.105668e-01
  2.491293e+01    9.003937e-01
  2.494468e+01    8.776574e-01
  2.497643e+01    9.002840e-01
  2.500819e+01    9.254843e-01
  2.503994e+01    8.873855e-01
  2.507169e+01    9.026586e-01
  2.510344e+01    9.046447e-01
  2.513519e+01    9.045410e-01
  2.516694e+01    9.034325e-01
  2.519869e+01    9.392882e-01
  2.523044e+01    9.322753e-01
  2.526219e+01    9.607016e-01
  2.529395e+01    9.494178e-01
  2.532570e+01    9.551255e-01
  2.535745e+01    9.669926e-01
  2.538920e+01    9.922025e-01
  2.542095e+01    1.001547e+00
  2.545270e+01    1.001813e+00
  2.548445e+01    1.043438e+00
  2.551620e+01    1.048057e+00
  2.554795e+01    1.098793e+00
  2.557971e+01    1.178815e+00
  2.561146e+01    1.203696e+00
  2.564321e+01    1.294734e+00
  2.567496e+01    1.400416e+00
  2.570671e+01    1.570557e+00
  2.573846e+01    1.846357e+00
  2.577021e+01    2.240729e+00
  2.580196e+01    2.776587e+00
  2.583371e+01    3.602652e+00
  2.586547e+01    4.615400e+00
  2.589722e+01    5.776636e+00
  2.592897e+01    6.709479e+00
  2.596072e+01    7.111202e+00
  2.599247e+01    6.533171e+00
  2.602422e+01    5.300054e+00
  2.605597e+01    3.973613e+00
  2.608772e+01    3.027858e+00
  2.611948e+01    2.349492e+00
  2.615123e+01    1.933003e+00
  2.618298e+01    1.684133e+00
  2.621473e+01    1.458962e+00
  2.624648e+01    1.340682e+00
  2.627823e+01    1.266286e+00
  2.630998e+01    1.201921e+00
  2.634173e+01    1.122265e+00
  2.637348e+01    1.086516e+00
  2.640524e+01    1.047168e+00
  2.643699e+01    1.022506e+00
  2.646874e+01    1.012949e+00
  2.650049e+01    1.003272e+00
  2.653224e+01    9.814109e-01
  2.656399e+01    9.723346e-01
  2.659574e+01    9.901958e-01
  2.662749e+01    9.690034e-01
  2.665924e+01    9.371812e-01
  2.669100e+01    9.860368e-01
  2.672275e+01    9.648969e-01
  2.675450e+01    9.617974e-01
  2.678625e+01    9.790394e-01
  2.681800e+01    9.792885e-01
  2.684975e+01    1.001348e+00
  2.688150e+01    1.000763e+00
  2.691325e+01    1.002530e+00
  2.694501e+01    1.019283e+00
  2.697676e+01    1.051535e+00
  2.700851e+01    1.118067e+00
  2.704026e+01    1.188160e+00
  2.707201e+01    1.318153e+00
  2.710376e+01    1.523388e+00
  2.713551e+01    1.707065e+00
  2.716726e+01    1.974291e+00
  2.719901e+01    2.114048e+00
  2.723077e+01    2.110781e+00
  2.726252e+01    1.967125e+00
  2.729427e+01    1.702368e+00
  2.732602e+01    1.467593e+00
  2.735777e+01    1.286968e+00
  2.738952e+01    1.168422e+00
  2.742127e+01    1.079398e+00
  2.745302e+01    1.038429e+00
  2.748477e+01    9.945710e-01
  2.751653e+01    9.609434e-01
  2.754828e+01    9.592238e-01
  2.758003e+01    9.199045e-01
  2.761178e+01    9.193999e-01
  2.764353e+01    9.104949e-01
  2.767528e+01    9.053959e-01
  2.770703e+01    9.113194e-01
  2.773878e+01    8.978809e-01
  2.777054e+01    9.098001e-01
  2.780229e+01    8.846013e-01
  2.783404e+01    8.898737e-01
  2.786579e+01    8.942612e-01
  2.789754e+01    8.664469e-01
  2.792929e+01    8.568392e-01
  2.796104e+01    8.845581e-01
  2.799279e+01    8.872140e-01
  2.802454e+01    8.595543e-01
  2.805630e+01    8.831182e-01
  2.808805e+01    8.524910e-01
  2.811980e+01    8.466226e-01
  2.815155e+01    8.531530e-01
  2.818330e+01    8.395038e-01
  2.821505e+01    8.752710e-01
  2.824680e+01    8.434268e-01
  2.827855e+01    8.709508e-01
  2.831030e+01    8.603666e-01
  2.834206e+01    8.448071e-01
  2.837381e+01    8.693556e-01
  2.840556e+01    8.466484e-01
  2.843731e+01    8.223539e-01
  2.846906e+01    8.562333e-01
  2.850081e+01    8.352315e-01
  2.853256e+01    8.595074e-01
  2.856431e+01    8.406113e-01
  2.859606e+01    8.347479e-01
  2.862782e+01    8.470276e-01
  2.865957e+01    8.375122e-01
  2.869132e+01    8.323544e-01
  2.872307e+01    8.277544e-01
  2.875482e+01    8.292788e-01
  2.878657e+01    8.339784e-01
  2.881832e+01    8.413010e-01
  2.885007e+01    8.278171e-01
  2.888183e+01    8.442349e-01
  2.891358e+01    8.024053e-01
  2.894533e+01    8.094447e-01
  2.897708e+01    8.307908e-01
  2.900883e+01    8.135221e-01
  2.904058e+01    8.303159e-01
  2.907233e+01    8.036303e-01
  2.910408e+01    7.910524e-01
  2.913583e+01    7.815568e-01
  2.916759e+01    7.876123e-01
  2.919934e+01    8.029158e-01
  2.923109e+01    7.918205e-01
  2.926284e+01    8.072031e-01
  2.929459e+01    8.067178e-01
  2.932634e+01    8.062218e-01
  2.935809e+01    8.082436e-01
  2.938984e+01    8.174188e-01
  2.942159e+01    7.986704e-01
  2.945335e+01    8.073553e-01
  2.948510e+01    8.024464e-01
  2.951685e+01    7.927309e-01
  2.954860e+01    7.912521e-01
  2.958035e+01    7.770075e-01
  2.961210e+01    7.945672e-01
  2.964385e+01    7.910495e-01
  2.967560e+01    8.100804e-01
  2.970736e+01    8.052764e-01
  2.973911e+01    7.959701e-01
  2.977086e+01    7.884437e-01
  2.980261e+01    7.848450e-01
  2.983436e+01    8.036656e-01
  2.986611e+01    7.912899e-01
  2.989786e+01    8.095862e-01
  2.992961e+01    7.927529e-01
  2.996136e+01    7.876142e-01
  2.999312e+01    7.918664e-01
  3.002487e+01    8.165539e-01
  3.005662e+01    8.193016e-01
  3.008837e+01    8.028120e-01
  3.012012e+01    7.978724e-01
  3.015187e+01    7.631561e-01
  3.018362e+01    7.899218e-01
  3.021537e+01    7.791733e-01
  3.024712e+01    7.929127e-01
  3.027888e+01    7.960370e-01
  3.031063e+01    7.988836e-01
  3.034238e+01    7.880060e-01
  3.037413e+01    7.877789e-01
  3.040588e+01    8.080715e-01
  3.043763e+01    7.921969e-01
  3.046938e+01    7.895142e-01
  3.050113e+01    7.955664e-01
  3.053288e+01    7.698802e-01
  3.056464e+01    8.026619e-01
  3.059639e+01    7.917660e-01
  3.062814e+01    7.882305e-01
  3.065989e+01    7.810913e-01
  3.069164e+01    7.657769e-01
  3.072339e+01    8.112140e-01
  3.075514e+01    7.820327e-01
  3.078689e+01    7.962448e-01
  3.081865e+01    7.651219e-01
  3.085040e+01    7.853059e-01
  3.088215e+01    8.008485e-01
  3.091390e+01    7.702210e-01
  3.094565e+01    7.841021e-01
  3.097740e+01    7.715226e-01
  3.100915e+01    7.821055e-01
  3.104090e+01    7.881095e-01
  3.107265e+01    7.855904e-01
  3.110441e+01    7.873144e-01
  3.113616e+01    7.710160e-01
  3.116791e+01    7.798858e-01
  3.119966e+01    7.751430e-01
  3.123141e+01    7.672107e-01
  3.126316e+01    7.914167e-01
  3.129491e+01    8.003840e-01
  3.132666e+01    8.048453e-01
  3.135841e+01    8.131330e-01
  3.139017e+01    8.143649e-01
  3.142192e+01    7.939505e-01
  3.145367e+01    8.144428e-01
  3.148542e+01    8.228357e-01
  3.151717e+01    8.441891e-01
  3.154892e+01    8.499984e-01
  3.158067e+01    8.470762e-01
  3.161242e+01    8.740710e-01
  3.164418e+01    9.239208e-01
  3.167593e+01    9.493557e-01
  3.170768e+01    1.010300e+00
  3.173943e+01    1.071781e+00
  3.177118e+01    1.234767e+00
  3.180293e+01    1.438960e+00
  3.183468e+01    1.697993e+00
  3.186643e+01    1.934746e+00
  3.189818e+01    2.084110e+00
  3.192994e+01    2.010634e+00
  3.196169e+01    1.857253e+00
  3.199344e+01    1.549152e+00
  3.202519e+01    1.285275e+00
  3.205694e+01    1.155454e+00
  3.208869e+01    1.040606e+00
  3.212044e+01    9.554181e-01
  3.215219e+01    9.052636e-01
  3.218394e+01    8.740851e-01
  3.221570e+01    8.351139e-01
  3.224745e+01    8.186568e-01
  3.227920e+01    8.037567e-01
  3.231095e+01    7.914833e-01
  3.234270e+01    7.779791e-01
  3.237445e+01    7.948410e-01
  3.240620e+01    8.077528e-01
  3.243795e+01    7.789873e-01
  3.246970e+01    7.776503e-01
  3.250146e+01    7.838176e-01
  3.253321e+01    7.770234e-01
  3.254908e+01    7.777965e-01