File: XRD/Reaction conditions/2024-07-27_003_Ru-CGO-ex_Reaction_dwell_000023_data_000118.dat
# == pyFAI calibration ==
# Distance Sample to Detector: 0.4 m
# PONI: 9.750e-02, 1.135e-01 m
# Rotations: -0.000175 0.000000 -0.000000 rad
#
# == Fit2d calibration ==
# Distance Sample-beamCenter: 400.000 mm
# Center: x=1514.000, y=1300.000 pix
# Tilt: 0.010 deg  TiltPlanRot: 0.010 deg
#
# Detector Detector	 Spline= None	 PixelSize= 7.500e-05, 7.500e-05 m
#    Detector has a mask: False
#    Detector has a dark current: False
#    detector has a flat field: False
#
# Wavelength: 6.888e-11 m
# Mask applied: user provided
# Dark current applied: False
# Flat field applied: False
# Polarization factor: 0.99
# Normalization factor: 1.0
# --> /home/myspot/data/2024_07_Rosario/Ru-CGO-ex/2024-07-27_003_Ru-CGO-ex_Reaction_dwell_000023_data_000118.dat
#       q_nm^-1             I
  2.003187e-02    0.000000e+00
  5.178302e-02    1.477777e-01
  8.353417e-02    1.800748e-01
  1.152853e-01    9.470908e-02
  1.470365e-01    4.543896e-02
  1.787876e-01    6.998403e-02
  2.105388e-01    1.930963e-02
  2.422899e-01    2.791178e-02
  2.740411e-01    2.313715e-02
  3.057922e-01    4.593484e-02
  3.375433e-01    1.473410e-02
  3.692945e-01    5.887103e-02
  4.010456e-01    7.691510e-02
  4.327968e-01    1.457745e-02
  4.645479e-01    6.084684e-02
  4.962991e-01    3.684057e-02
  5.280502e-01    3.784033e-02
  5.598014e-01    1.390264e-02
  5.915525e-01    4.681768e-02
  6.233037e-01    3.513750e-02
  6.550548e-01    2.425786e-02
  6.868060e-01    2.206353e-02
  7.185571e-01    3.353417e-02
  7.503083e-01    4.814852e-02
  7.820594e-01    1.077313e-01
  8.138106e-01    2.359770e-01
  8.455617e-01    4.231026e-01
  8.773129e-01    5.408036e-01
  9.090640e-01    5.313410e-01
  9.408152e-01    8.731893e-01
  9.725663e-01    1.008695e+00
  1.004317e+00    1.156094e+00
  1.036069e+00    1.350720e+00
  1.067820e+00    1.416635e+00
  1.099571e+00    1.463652e+00
  1.131322e+00    1.588823e+00
  1.163073e+00    1.718322e+00
  1.194824e+00    1.831280e+00
  1.226575e+00    2.164594e+00
  1.258327e+00    2.442455e+00
  1.290078e+00    2.672232e+00
  1.321829e+00    2.793676e+00
  1.353580e+00    2.855915e+00
  1.385331e+00    2.977824e+00
  1.417082e+00    2.991779e+00
  1.448834e+00    3.028467e+00
  1.480585e+00    3.068657e+00
  1.512336e+00    3.205612e+00
  1.544087e+00    3.279146e+00
  1.575838e+00    3.045937e+00
  1.607589e+00    3.139341e+00
  1.639340e+00    3.256423e+00
  1.671092e+00    3.206817e+00
  1.702843e+00    3.292371e+00
  1.734594e+00    3.219388e+00
  1.766345e+00    3.208144e+00
  1.798096e+00    3.194513e+00
  1.829847e+00    3.161994e+00
  1.861598e+00    3.027200e+00
  1.893350e+00    2.966783e+00
  1.925101e+00    3.069980e+00
  1.956852e+00    3.060867e+00
  1.988603e+00    3.101234e+00
  2.020354e+00    3.056263e+00
  2.052105e+00    3.209531e+00
  2.083856e+00    3.169632e+00
  2.115608e+00    3.024698e+00
  2.147359e+00    3.157584e+00
  2.179110e+00    3.038025e+00
  2.210861e+00    3.170662e+00
  2.242612e+00    3.116199e+00
  2.274363e+00    3.388792e+00
  2.306115e+00    3.171316e+00
  2.337866e+00    3.113792e+00
  2.369617e+00    3.149932e+00
  2.401368e+00    3.136589e+00
  2.433119e+00    3.215686e+00
  2.464870e+00    3.191137e+00
  2.496621e+00    3.143530e+00
  2.528373e+00    3.241107e+00
  2.560124e+00    3.207122e+00
  2.591875e+00    3.200106e+00
  2.623626e+00    3.242636e+00
  2.655377e+00    3.268788e+00
  2.687128e+00    3.253493e+00
  2.718879e+00    3.213406e+00
  2.750631e+00    3.258091e+00
  2.782382e+00    3.159663e+00
  2.814133e+00    3.283465e+00
  2.845884e+00    3.290664e+00
  2.877635e+00    3.244696e+00
  2.909386e+00    3.302972e+00
  2.941137e+00    3.265661e+00
  2.972889e+00    3.286740e+00
  3.004640e+00    3.291390e+00
  3.036391e+00    3.412935e+00
  3.068142e+00    3.324094e+00
  3.099893e+00    3.444405e+00
  3.131644e+00    3.345711e+00
  3.163395e+00    3.411815e+00
  3.195147e+00    3.331125e+00
  3.226898e+00    3.259321e+00
  3.258649e+00    3.359310e+00
  3.290400e+00    3.343709e+00
  3.322151e+00    3.413183e+00
  3.353902e+00    3.485750e+00
  3.385654e+00    3.359623e+00
  3.417405e+00    3.557968e+00
  3.449156e+00    3.480808e+00
  3.480907e+00    3.458535e+00
  3.512658e+00    3.428226e+00
  3.544409e+00    3.437022e+00
  3.576160e+00    3.418156e+00
  3.607912e+00    3.388069e+00
  3.639663e+00    3.435202e+00
  3.671414e+00    3.450869e+00
  3.703165e+00    3.515088e+00
  3.734916e+00    3.456312e+00
  3.766667e+00    3.520186e+00
  3.798418e+00    3.528130e+00
  3.830170e+00    3.568276e+00
  3.861921e+00    3.430498e+00
  3.893672e+00    3.518735e+00
  3.925423e+00    3.576046e+00
  3.957174e+00    3.546632e+00
  3.988925e+00    3.560647e+00
  4.020676e+00    3.454357e+00
  4.052428e+00    3.586870e+00
  4.084179e+00    3.471155e+00
  4.115930e+00    3.424839e+00
  4.147681e+00    3.564792e+00
  4.179432e+00    3.639941e+00
  4.211183e+00    3.525489e+00
  4.242935e+00    3.491195e+00
  4.274686e+00    3.543668e+00
  4.306437e+00    3.519728e+00
  4.338188e+00    3.529788e+00
  4.369939e+00    3.589326e+00
  4.401690e+00    3.560391e+00
  4.433441e+00    3.532350e+00
  4.465193e+00    3.547562e+00
  4.496944e+00    3.579913e+00
  4.528695e+00    3.497687e+00
  4.560446e+00    3.653109e+00
  4.592197e+00    3.664713e+00
  4.623948e+00    3.544688e+00
  4.655699e+00    3.606163e+00
  4.687451e+00    3.648376e+00
  4.719202e+00    3.583395e+00
  4.750953e+00    3.664356e+00
  4.782704e+00    3.561907e+00
  4.814455e+00    3.679390e+00
  4.846206e+00    3.743207e+00
  4.877957e+00    3.646938e+00
  4.909709e+00    3.618813e+00
  4.941460e+00    3.658940e+00
  4.973211e+00    3.550188e+00
  5.004962e+00    3.613322e+00
  5.036713e+00    3.703411e+00
  5.068464e+00    3.624402e+00
  5.100216e+00    3.603238e+00
  5.131967e+00    3.723439e+00
  5.163718e+00    3.663643e+00
  5.195469e+00    3.691471e+00
  5.227220e+00    3.736780e+00
  5.258971e+00    3.629164e+00
  5.290722e+00    3.668955e+00
  5.322474e+00    3.690574e+00
  5.354225e+00    3.641645e+00
  5.385976e+00    3.677397e+00
  5.417727e+00    3.623190e+00
  5.449478e+00    3.675396e+00
  5.481229e+00    3.663235e+00
  5.512980e+00    3.586070e+00
  5.544732e+00    3.563864e+00
  5.576483e+00    3.607821e+00
  5.608234e+00    3.669284e+00
  5.639985e+00    3.703990e+00
  5.671736e+00    3.633665e+00
  5.703487e+00    3.598912e+00
  5.735238e+00    3.552397e+00
  5.766990e+00    3.627696e+00
  5.798741e+00    3.467862e+00
  5.830492e+00    3.523665e+00
  5.862243e+00    3.600678e+00
  5.893994e+00    3.492011e+00
  5.925745e+00    3.495768e+00
  5.957497e+00    3.463102e+00
  5.989248e+00    3.524602e+00
  6.020999e+00    3.645195e+00
  6.052750e+00    3.545575e+00
  6.084501e+00    3.597610e+00
  6.116252e+00    3.597607e+00
  6.148003e+00    3.589662e+00
  6.179755e+00    3.639802e+00
  6.211506e+00    3.581850e+00
  6.243257e+00    3.636835e+00
  6.275008e+00    3.541575e+00
  6.306759e+00    3.508520e+00
  6.338510e+00    3.566113e+00
  6.370261e+00    3.650992e+00
  6.402013e+00    3.599355e+00
  6.433764e+00    3.545031e+00
  6.465515e+00    3.541890e+00
  6.497266e+00    3.541425e+00
  6.529017e+00    3.496172e+00
  6.560768e+00    3.543808e+00
  6.592519e+00    3.510353e+00
  6.624271e+00    3.572636e+00
  6.656022e+00    3.603433e+00
  6.687773e+00    3.577641e+00
  6.719524e+00    3.666361e+00
  6.751275e+00    3.553182e+00
  6.783026e+00    3.583848e+00
  6.814777e+00    3.464359e+00
  6.846529e+00    3.589314e+00
  6.878280e+00    3.543847e+00
  6.910031e+00    3.518766e+00
  6.941782e+00    3.556292e+00
  6.973533e+00    3.545566e+00
  7.005284e+00    3.507596e+00
  7.037036e+00    3.612924e+00
  7.068787e+00    3.546398e+00
  7.100538e+00    3.497259e+00
  7.132289e+00    3.540488e+00
  7.164040e+00    3.532347e+00
  7.195791e+00    3.527894e+00
  7.227542e+00    3.493006e+00
  7.259294e+00    3.444968e+00
  7.291045e+00    3.510117e+00
  7.322796e+00    3.591899e+00
  7.354547e+00    3.465298e+00
  7.386298e+00    3.428326e+00
  7.418049e+00    3.521467e+00
  7.449800e+00    3.518864e+00
  7.481552e+00    3.460695e+00
  7.513303e+00    3.470459e+00
  7.545054e+00    3.532611e+00
  7.576805e+00    3.427128e+00
  7.608556e+00    3.390223e+00
  7.640307e+00    3.438482e+00
  7.672058e+00    3.428453e+00
  7.703810e+00    3.490230e+00
  7.735561e+00    3.469333e+00
  7.767312e+00    3.463516e+00
  7.799063e+00    3.456151e+00
  7.830814e+00    3.503564e+00
  7.862565e+00    3.345475e+00
  7.894317e+00    3.473134e+00
  7.926068e+00    3.412796e+00
  7.957819e+00    3.456095e+00
  7.989570e+00    3.494096e+00
  8.021321e+00    3.445623e+00
  8.053072e+00    3.383443e+00
  8.084823e+00    3.469894e+00
  8.116575e+00    3.483128e+00
  8.148326e+00    3.437798e+00
  8.180077e+00    3.475086e+00
  8.211828e+00    3.507599e+00
  8.243579e+00    3.373460e+00
  8.275330e+00    3.477064e+00
  8.307081e+00    3.349010e+00
  8.338833e+00    3.385795e+00
  8.370584e+00    3.426073e+00
  8.402335e+00    3.427265e+00
  8.434086e+00    3.415596e+00
  8.465837e+00    3.332807e+00
  8.497588e+00    3.390800e+00
  8.529339e+00    3.354709e+00
  8.561091e+00    3.326717e+00
  8.592842e+00    3.321980e+00
  8.624593e+00    3.325038e+00
  8.656344e+00    3.318934e+00
  8.688095e+00    3.368566e+00
  8.719846e+00    3.267092e+00
  8.751598e+00    3.326034e+00
  8.783349e+00    3.341990e+00
  8.815100e+00    3.324737e+00
  8.846851e+00    3.313589e+00
  8.878602e+00    3.350764e+00
  8.910353e+00    3.334653e+00
  8.942104e+00    3.294209e+00
  8.973856e+00    3.297918e+00
  9.005607e+00    3.315406e+00
  9.037358e+00    3.228659e+00
  9.069109e+00    3.333209e+00
  9.100860e+00    3.282038e+00
  9.132611e+00    3.256483e+00
  9.164362e+00    3.210817e+00
  9.196114e+00    3.229721e+00
  9.227865e+00    3.234023e+00
  9.259616e+00    3.272463e+00
  9.291367e+00    3.210971e+00
  9.323118e+00    3.224438e+00
  9.354869e+00    3.268793e+00
  9.386620e+00    3.217863e+00
  9.418372e+00    3.176176e+00
  9.450123e+00    3.197497e+00
  9.481874e+00    3.194276e+00
  9.513625e+00    3.262334e+00
  9.545376e+00    3.238430e+00
  9.577127e+00    3.266423e+00
  9.608878e+00    3.204452e+00
  9.640630e+00    3.241038e+00
  9.672381e+00    3.223488e+00
  9.704132e+00    3.199676e+00
  9.735883e+00    3.136476e+00
  9.767634e+00    3.136612e+00
  9.799385e+00    3.144000e+00
  9.831137e+00    3.143633e+00
  9.862888e+00    3.131828e+00
  9.894639e+00    3.066899e+00
  9.926390e+00    3.112361e+00
  9.958141e+00    3.123740e+00
  9.989892e+00    3.101941e+00
  1.002164e+01    3.151939e+00
  1.005339e+01    3.124205e+00
  1.008515e+01    3.101010e+00
  1.011690e+01    3.116067e+00
  1.014865e+01    3.057250e+00
  1.018040e+01    3.081732e+00
  1.021215e+01    3.070669e+00
  1.024390e+01    3.042554e+00
  1.027565e+01    3.026953e+00
  1.030740e+01    3.094071e+00
  1.033915e+01    3.059440e+00
  1.037091e+01    3.052782e+00
  1.040266e+01    3.021353e+00
  1.043441e+01    3.047414e+00
  1.046616e+01    3.043777e+00
  1.049791e+01    3.064541e+00
  1.052966e+01    2.987249e+00
  1.056141e+01    2.965764e+00
  1.059316e+01    2.996926e+00
  1.062492e+01    2.982945e+00
  1.065667e+01    3.047404e+00
  1.068842e+01    3.000409e+00
  1.072017e+01    2.978888e+00
  1.075192e+01    2.917939e+00
  1.078367e+01    2.970712e+00
  1.081542e+01    2.906760e+00
  1.084717e+01    2.959357e+00
  1.087892e+01    2.963006e+00
  1.091068e+01    2.956378e+00
  1.094243e+01    2.969708e+00
  1.097418e+01    2.879552e+00
  1.100593e+01    2.860908e+00
  1.103768e+01    2.915685e+00
  1.106943e+01    2.840076e+00
  1.110118e+01    2.914812e+00
  1.113293e+01    2.918416e+00
  1.116468e+01    2.877490e+00
  1.119644e+01    2.798916e+00
  1.122819e+01    2.866901e+00
  1.125994e+01    2.836131e+00
  1.129169e+01    2.793858e+00
  1.132344e+01    2.840071e+00
  1.135519e+01    2.853818e+00
  1.138694e+01    2.835289e+00
  1.141869e+01    2.793576e+00
  1.145045e+01    2.783392e+00
  1.148220e+01    2.764990e+00
  1.151395e+01    2.755105e+00
  1.154570e+01    2.777525e+00
  1.157745e+01    2.853775e+00
  1.160920e+01    2.779080e+00
  1.164095e+01    2.780532e+00
  1.167270e+01    2.749392e+00
  1.170445e+01    2.798905e+00
  1.173621e+01    2.754163e+00
  1.176796e+01    2.763092e+00
  1.179971e+01    2.752099e+00
  1.183146e+01    2.740376e+00
  1.186321e+01    2.793172e+00
  1.189496e+01    2.749334e+00
  1.192671e+01    2.736490e+00
  1.195846e+01    2.730820e+00
  1.199021e+01    2.700397e+00
  1.202197e+01    2.709986e+00
  1.205372e+01    2.666594e+00
  1.208547e+01    2.659940e+00
  1.211722e+01    2.726132e+00
  1.214897e+01    2.714984e+00
  1.218072e+01    2.664210e+00
  1.221247e+01    2.678383e+00
  1.224422e+01    2.661361e+00
  1.227597e+01    2.764187e+00
  1.230773e+01    2.761870e+00
  1.233948e+01    2.641989e+00
  1.237123e+01    2.729560e+00
  1.240298e+01    2.713051e+00
  1.243473e+01    2.721899e+00
  1.246648e+01    2.677922e+00
  1.249823e+01    2.658482e+00
  1.252998e+01    2.733412e+00
  1.256174e+01    2.702912e+00
  1.259349e+01    2.756981e+00
  1.262524e+01    2.771796e+00
  1.265699e+01    2.799620e+00
  1.268874e+01    2.763262e+00
  1.272049e+01    2.893165e+00
  1.275224e+01    2.913110e+00
  1.278399e+01    2.973140e+00
  1.281574e+01    3.060842e+00
  1.284750e+01    3.175782e+00
  1.287925e+01    3.361788e+00
  1.291100e+01    3.645089e+00
  1.294275e+01    4.024006e+00
  1.297450e+01    4.877219e+00
  1.300625e+01    5.899890e+00
  1.303800e+01    7.739226e+00
  1.306975e+01    1.017424e+01
  1.310150e+01    1.264356e+01
  1.313326e+01    1.498389e+01
  1.316501e+01    1.634214e+01
  1.319676e+01    1.567612e+01
  1.322851e+01    1.245456e+01
  1.326026e+01    9.092926e+00
  1.329201e+01    6.780058e+00
  1.332376e+01    5.369198e+00
  1.335551e+01    4.449863e+00
  1.338727e+01    3.881804e+00
  1.341902e+01    3.470146e+00
  1.345077e+01    3.209157e+00
  1.348252e+01    3.056273e+00
  1.351427e+01    2.908974e+00
  1.354602e+01    2.804974e+00
  1.357777e+01    2.765731e+00
  1.360952e+01    2.688599e+00
  1.364127e+01    2.652456e+00
  1.367303e+01    2.613821e+00
  1.370478e+01    2.547102e+00
  1.373653e+01    2.483807e+00
  1.376828e+01    2.542874e+00
  1.380003e+01    2.412840e+00
  1.383178e+01    2.459878e+00
  1.386353e+01    2.432312e+00
  1.389528e+01    2.400389e+00
  1.392703e+01    2.402165e+00
  1.395879e+01    2.395204e+00
  1.399054e+01    2.396119e+00
  1.402229e+01    2.370226e+00
  1.405404e+01    2.353617e+00
  1.408579e+01    2.314204e+00
  1.411754e+01    2.335291e+00
  1.414929e+01    2.268131e+00
  1.418104e+01    2.298163e+00
  1.421279e+01    2.303963e+00
  1.424455e+01    2.283400e+00
  1.427630e+01    2.276191e+00
  1.430805e+01    2.246008e+00
  1.433980e+01    2.287400e+00
  1.437155e+01    2.236955e+00
  1.440330e+01    2.269988e+00
  1.443505e+01    2.254200e+00
  1.446680e+01    2.232386e+00
  1.449856e+01    2.199195e+00
  1.453031e+01    2.226135e+00
  1.456206e+01    2.217344e+00
  1.459381e+01    2.201627e+00
  1.462556e+01    2.239170e+00
  1.465731e+01    2.252730e+00
  1.468906e+01    2.164036e+00
  1.472081e+01    2.167445e+00
  1.475256e+01    2.188332e+00
  1.478432e+01    2.211079e+00
  1.481607e+01    2.205692e+00
  1.484782e+01    2.248645e+00
  1.487957e+01    2.200745e+00
  1.491132e+01    2.239570e+00
  1.494307e+01    2.244294e+00
  1.497482e+01    2.326250e+00
  1.500657e+01    2.440641e+00
  1.503832e+01    2.598511e+00
  1.507008e+01    2.772887e+00
  1.510183e+01    3.214471e+00
  1.513358e+01    3.831954e+00
  1.516533e+01    4.514135e+00
  1.519708e+01    5.224201e+00
  1.522883e+01    5.658963e+00
  1.526058e+01    5.786754e+00
  1.529233e+01    5.472769e+00
  1.532409e+01    4.642881e+00
  1.535584e+01    3.728744e+00
  1.538759e+01    3.207544e+00
  1.541934e+01    2.761707e+00
  1.545109e+01    2.595433e+00
  1.548284e+01    2.349778e+00
  1.551459e+01    2.267213e+00
  1.554634e+01    2.187454e+00
  1.557809e+01    2.096744e+00
  1.560985e+01    2.101619e+00
  1.564160e+01    2.061165e+00
  1.567335e+01    2.031919e+00
  1.570510e+01    1.951755e+00
  1.573685e+01    1.960070e+00
  1.576860e+01    1.932394e+00
  1.580035e+01    1.951434e+00
  1.583210e+01    1.938910e+00
  1.586385e+01    1.883623e+00
  1.589561e+01    1.894750e+00
  1.592736e+01    1.915850e+00
  1.595911e+01    1.906279e+00
  1.599086e+01    1.877427e+00
  1.602261e+01    1.888055e+00
  1.605436e+01    1.846985e+00
  1.608611e+01    1.845256e+00
  1.611786e+01    1.829098e+00
  1.614961e+01    1.832684e+00
  1.618137e+01    1.820965e+00
  1.621312e+01    1.802743e+00
  1.624487e+01    1.812970e+00
  1.627662e+01    1.802808e+00
  1.630837e+01    1.810322e+00
  1.634012e+01    1.762566e+00
  1.637187e+01    1.819672e+00
  1.640362e+01    1.786995e+00
  1.643538e+01    1.782767e+00
  1.646713e+01    1.779307e+00
  1.649888e+01    1.736206e+00
  1.653063e+01    1.745745e+00
  1.656238e+01    1.761347e+00
  1.659413e+01    1.741473e+00
  1.662588e+01    1.705358e+00
  1.665763e+01    1.655215e+00
  1.668938e+01    1.741116e+00
  1.672114e+01    1.762614e+00
  1.675289e+01    1.734847e+00
  1.678464e+01    1.666474e+00
  1.681639e+01    1.730764e+00
  1.684814e+01    1.737303e+00
  1.687989e+01    1.700535e+00
  1.691164e+01    1.714151e+00
  1.694339e+01    1.660680e+00
  1.697514e+01    1.690996e+00
  1.700690e+01    1.665393e+00
  1.703865e+01    1.643638e+00
  1.707040e+01    1.671043e+00
  1.710215e+01    1.611216e+00
  1.713390e+01    1.653386e+00
  1.716565e+01    1.646419e+00
  1.719740e+01    1.615627e+00
  1.722915e+01    1.590594e+00
  1.726091e+01    1.664230e+00
  1.729266e+01    1.608947e+00
  1.732441e+01    1.613885e+00
  1.735616e+01    1.634894e+00
  1.738791e+01    1.614977e+00
  1.741966e+01    1.608329e+00
  1.745141e+01    1.599845e+00
  1.748316e+01    1.615472e+00
  1.751491e+01    1.601452e+00
  1.754667e+01    1.546553e+00
  1.757842e+01    1.561035e+00
  1.761017e+01    1.546914e+00
  1.764192e+01    1.559865e+00
  1.767367e+01    1.559581e+00
  1.770542e+01    1.550288e+00
  1.773717e+01    1.553729e+00
  1.776892e+01    1.544177e+00
  1.780067e+01    1.529195e+00
  1.783243e+01    1.510372e+00
  1.786418e+01    1.531377e+00
  1.789593e+01    1.528653e+00
  1.792768e+01    1.541785e+00
  1.795943e+01    1.508270e+00
  1.799118e+01    1.518679e+00
  1.802293e+01    1.518799e+00
  1.805468e+01    1.505919e+00
  1.808643e+01    1.503272e+00
  1.811819e+01    1.472114e+00
  1.814994e+01    1.499059e+00
  1.818169e+01    1.480312e+00
  1.821344e+01    1.461412e+00
  1.824519e+01    1.464171e+00
  1.827694e+01    1.493852e+00
  1.830869e+01    1.483669e+00
  1.834044e+01    1.461247e+00
  1.837220e+01    1.449550e+00
  1.840395e+01    1.409540e+00
  1.843570e+01    1.458124e+00
  1.846745e+01    1.432320e+00
  1.849920e+01    1.453330e+00
  1.853095e+01    1.462049e+00
  1.856270e+01    1.438666e+00
  1.859445e+01    1.426937e+00
  1.862620e+01    1.435658e+00
  1.865796e+01    1.425701e+00
  1.868971e+01    1.409642e+00
  1.872146e+01    1.432066e+00
  1.875321e+01    1.437801e+00
  1.878496e+01    1.410131e+00
  1.881671e+01    1.399909e+00
  1.884846e+01    1.401925e+00
  1.888021e+01    1.398889e+00
  1.891196e+01    1.387149e+00
  1.894372e+01    1.383381e+00
  1.897547e+01    1.383809e+00
  1.900722e+01    1.364580e+00
  1.903897e+01    1.387613e+00
  1.907072e+01    1.396960e+00
  1.910247e+01    1.388907e+00
  1.913422e+01    1.375840e+00
  1.916597e+01    1.368015e+00
  1.919773e+01    1.345805e+00
  1.922948e+01    1.360927e+00
  1.926123e+01    1.390738e+00
  1.929298e+01    1.372074e+00
  1.932473e+01    1.400150e+00
  1.935648e+01    1.347112e+00
  1.938823e+01    1.337289e+00
  1.941998e+01    1.356055e+00
  1.945173e+01    1.367404e+00
  1.948349e+01    1.364311e+00
  1.951524e+01    1.333894e+00
  1.954699e+01    1.344656e+00
  1.957874e+01    1.330713e+00
  1.961049e+01    1.320089e+00
  1.964224e+01    1.325689e+00
  1.967399e+01    1.298480e+00
  1.970574e+01    1.292644e+00
  1.973749e+01    1.319060e+00
  1.976925e+01    1.300285e+00
  1.980100e+01    1.286271e+00
  1.983275e+01    1.298817e+00
  1.986450e+01    1.296031e+00
  1.989625e+01    1.307069e+00
  1.992800e+01    1.294862e+00
  1.995975e+01    1.285455e+00
  1.999150e+01    1.258467e+00
  2.002325e+01    1.267637e+00
  2.005501e+01    1.258339e+00
  2.008676e+01    1.269961e+00
  2.011851e+01    1.273210e+00
  2.015026e+01    1.253378e+00
  2.018201e+01    1.310346e+00
  2.021376e+01    1.268702e+00
  2.024551e+01    1.258208e+00
  2.027726e+01    1.265483e+00
  2.030902e+01    1.275193e+00
  2.034077e+01    1.251354e+00
  2.037252e+01    1.249054e+00
  2.040427e+01    1.242379e+00
  2.043602e+01    1.245817e+00
  2.046777e+01    1.250636e+00
  2.049952e+01    1.219925e+00
  2.053127e+01    1.254268e+00
  2.056302e+01    1.250796e+00
  2.059478e+01    1.226564e+00
  2.062653e+01    1.207527e+00
  2.065828e+01    1.236714e+00
  2.069003e+01    1.247655e+00
  2.072178e+01    1.235622e+00
  2.075353e+01    1.246192e+00
  2.078528e+01    1.226948e+00
  2.081703e+01    1.239031e+00
  2.084878e+01    1.237028e+00
  2.088054e+01    1.223873e+00
  2.091229e+01    1.235844e+00
  2.094404e+01    1.244987e+00
  2.097579e+01    1.216329e+00
  2.100754e+01    1.236937e+00
  2.103929e+01    1.225697e+00
  2.107104e+01    1.213896e+00
  2.110279e+01    1.227785e+00
  2.113455e+01    1.212010e+00
  2.116630e+01    1.216207e+00
  2.119805e+01    1.241739e+00
  2.122980e+01    1.254547e+00
  2.126155e+01    1.245480e+00
  2.129330e+01    1.260570e+00
  2.132505e+01    1.280728e+00
  2.135680e+01    1.286747e+00
  2.138855e+01    1.291386e+00
  2.142031e+01    1.314048e+00
  2.145206e+01    1.354351e+00
  2.148381e+01    1.383912e+00
  2.151556e+01    1.456857e+00
  2.154731e+01    1.521113e+00
  2.157906e+01    1.618514e+00
  2.161081e+01    1.774968e+00
  2.164256e+01    1.996169e+00
  2.167431e+01    2.292442e+00
  2.170607e+01    2.767620e+00
  2.173782e+01    3.546100e+00
  2.176957e+01    4.594341e+00
  2.180132e+01    5.825778e+00
  2.183307e+01    7.182301e+00
  2.186482e+01    8.382976e+00
  2.189657e+01    8.982219e+00
  2.192832e+01    8.266874e+00
  2.196007e+01    6.580868e+00
  2.199183e+01    4.883060e+00
  2.202358e+01    3.621021e+00
  2.205533e+01    2.819652e+00
  2.208708e+01    2.348766e+00
  2.211883e+01    1.999542e+00
  2.215058e+01    1.768752e+00
  2.218233e+01    1.606040e+00
  2.221408e+01    1.481701e+00
  2.224584e+01    1.415453e+00
  2.227759e+01    1.333048e+00
  2.230934e+01    1.292851e+00
  2.234109e+01    1.267250e+00
  2.237284e+01    1.218228e+00
  2.240459e+01    1.191780e+00
  2.243634e+01    1.192120e+00
  2.246809e+01    1.165127e+00
  2.249984e+01    1.151696e+00
  2.253160e+01    1.139426e+00
  2.256335e+01    1.100146e+00
  2.259510e+01    1.112923e+00
  2.262685e+01    1.107550e+00
  2.265860e+01    1.079143e+00
  2.269035e+01    1.085607e+00
  2.272210e+01    1.080082e+00
  2.275385e+01    1.069888e+00
  2.278560e+01    1.066366e+00
  2.281736e+01    1.047256e+00
  2.284911e+01    1.041255e+00
  2.288086e+01    1.036497e+00
  2.291261e+01    1.064424e+00
  2.294436e+01    1.013349e+00
  2.297611e+01    1.047430e+00
  2.300786e+01    1.041761e+00
  2.303961e+01    9.848301e-01
  2.307137e+01    1.022134e+00
  2.310312e+01    1.027547e+00
  2.313487e+01    9.954183e-01
  2.316662e+01    9.898250e-01
  2.319837e+01    1.000126e+00
  2.323012e+01    9.929891e-01
  2.326187e+01    1.001175e+00
  2.329362e+01    9.758861e-01
  2.332537e+01    9.929194e-01
  2.335713e+01    9.949704e-01
  2.338888e+01    9.870932e-01
  2.342063e+01    9.797890e-01
  2.345238e+01    9.550768e-01
  2.348413e+01    9.665277e-01
  2.351588e+01    9.738935e-01
  2.354763e+01    9.713079e-01
  2.357938e+01    9.477656e-01
  2.361113e+01    9.820580e-01
  2.364289e+01    9.711913e-01
  2.367464e+01    9.420964e-01
  2.370639e+01    9.579588e-01
  2.373814e+01    9.450517e-01
  2.376989e+01    9.422287e-01
  2.380164e+01    9.268305e-01
  2.383339e+01    9.205649e-01
  2.386514e+01    9.078219e-01
  2.389689e+01    9.177681e-01
  2.392865e+01    9.023314e-01
  2.396040e+01    9.185480e-01
  2.399215e+01    8.890910e-01
  2.402390e+01    8.958334e-01
  2.405565e+01    8.799390e-01
  2.408740e+01    8.796970e-01
  2.411915e+01    8.932649e-01
  2.415090e+01    8.760258e-01
  2.418266e+01    8.747120e-01
  2.421441e+01    8.973992e-01
  2.424616e+01    8.969957e-01
  2.427791e+01    8.926337e-01
  2.430966e+01    8.938511e-01
  2.434141e+01    9.175747e-01
  2.437316e+01    8.719110e-01
  2.440491e+01    8.691370e-01
  2.443666e+01    8.945817e-01
  2.446842e+01    8.883455e-01
  2.450017e+01    9.018779e-01
  2.453192e+01    8.872369e-01
  2.456367e+01    8.904860e-01
  2.459542e+01    8.882986e-01
  2.462717e+01    9.033151e-01
  2.465892e+01    9.161018e-01
  2.469067e+01    9.005152e-01
  2.472242e+01    8.853743e-01
  2.475418e+01    8.797034e-01
  2.478593e+01    8.999252e-01
  2.481768e+01    9.102744e-01
  2.484943e+01    8.875409e-01
  2.488118e+01    9.101793e-01
  2.491293e+01    9.066003e-01
  2.494468e+01    8.944089e-01
  2.497643e+01    8.852644e-01
  2.500819e+01    9.030063e-01
  2.503994e+01    9.252923e-01
  2.507169e+01    8.927112e-01
  2.510344e+01    9.146647e-01
  2.513519e+01    9.200222e-01
  2.516694e+01    9.191787e-01
  2.519869e+01    9.260753e-01
  2.523044e+01    9.355243e-01
  2.526219e+01    9.390260e-01
  2.529395e+01    9.649364e-01
  2.532570e+01    9.611379e-01
  2.535745e+01    9.737976e-01
  2.538920e+01    1.003916e+00
  2.542095e+01    1.015642e+00
  2.545270e+01    1.032631e+00
  2.548445e+01    1.043684e+00
  2.551620e+01    1.081660e+00
  2.554795e+01    1.098208e+00
  2.557971e+01    1.169306e+00
  2.561146e+01    1.212159e+00
  2.564321e+01    1.299102e+00
  2.567496e+01    1.412147e+00
  2.570671e+01    1.594635e+00
  2.573846e+01    1.838360e+00
  2.577021e+01    2.202793e+00
  2.580196e+01    2.805726e+00
  2.583371e+01    3.628644e+00
  2.586547e+01    4.679111e+00
  2.589722e+01    5.770292e+00
  2.592897e+01    6.812763e+00
  2.596072e+01    7.193253e+00
  2.599247e+01    6.549255e+00
  2.602422e+01    5.291727e+00
  2.605597e+01    4.004014e+00
  2.608772e+01    3.042857e+00
  2.611948e+01    2.351530e+00
  2.615123e+01    1.933077e+00
  2.618298e+01    1.679819e+00
  2.621473e+01    1.488596e+00
  2.624648e+01    1.340872e+00
  2.627823e+01    1.251484e+00
  2.630998e+01    1.174810e+00
  2.634173e+01    1.119388e+00
  2.637348e+01    1.079908e+00
  2.640524e+01    1.062728e+00
  2.643699e+01    1.017243e+00
  2.646874e+01    1.037359e+00
  2.650049e+01    1.025588e+00
  2.653224e+01    9.905168e-01
  2.656399e+01    9.865168e-01
  2.659574e+01    1.001158e+00
  2.662749e+01    9.698314e-01
  2.665924e+01    9.672452e-01
  2.669100e+01    9.564574e-01
  2.672275e+01    9.580748e-01
  2.675450e+01    9.637755e-01
  2.678625e+01    9.674699e-01
  2.681800e+01    9.782680e-01
  2.684975e+01    9.839024e-01
  2.688150e+01    9.974667e-01
  2.691325e+01    1.010537e+00
  2.694501e+01    1.023739e+00
  2.697676e+01    1.060607e+00
  2.700851e+01    1.127214e+00
  2.704026e+01    1.216175e+00
  2.707201e+01    1.303872e+00
  2.710376e+01    1.473872e+00
  2.713551e+01    1.671430e+00
  2.716726e+01    1.994555e+00
  2.719901e+01    2.129809e+00
  2.723077e+01    2.148829e+00
  2.726252e+01    1.933553e+00
  2.729427e+01    1.717556e+00
  2.732602e+01    1.444177e+00
  2.735777e+01    1.280101e+00
  2.738952e+01    1.164461e+00
  2.742127e+01    1.104591e+00
  2.745302e+01    1.029005e+00
  2.748477e+01    1.017506e+00
  2.751653e+01    9.900509e-01
  2.754828e+01    9.383747e-01
  2.758003e+01    9.434126e-01
  2.761178e+01    9.154829e-01
  2.764353e+01    9.254891e-01
  2.767528e+01    9.091861e-01
  2.770703e+01    9.030477e-01
  2.773878e+01    9.100861e-01
  2.777054e+01    8.812432e-01
  2.780229e+01    8.578498e-01
  2.783404e+01    8.742707e-01
  2.786579e+01    8.853730e-01
  2.789754e+01    8.769811e-01
  2.792929e+01    8.794078e-01
  2.796104e+01    8.794776e-01
  2.799279e+01    8.536920e-01
  2.802454e+01    8.755541e-01
  2.805630e+01    8.614360e-01
  2.808805e+01    8.768521e-01
  2.811980e+01    8.617545e-01
  2.815155e+01    8.439649e-01
  2.818330e+01    8.689862e-01
  2.821505e+01    8.451636e-01
  2.824680e+01    8.576671e-01
  2.827855e+01    8.573222e-01
  2.831030e+01    8.500006e-01
  2.834206e+01    8.402330e-01
  2.837381e+01    8.395341e-01
  2.840556e+01    8.635044e-01
  2.843731e+01    8.448486e-01
  2.846906e+01    8.204345e-01
  2.850081e+01    8.359224e-01
  2.853256e+01    8.411472e-01
  2.856431e+01    8.516688e-01
  2.859606e+01    8.408775e-01
  2.862782e+01    8.301471e-01
  2.865957e+01    8.487448e-01
  2.869132e+01    8.463276e-01
  2.872307e+01    8.195494e-01
  2.875482e+01    8.516126e-01
  2.878657e+01    8.295555e-01
  2.881832e+01    8.307142e-01
  2.885007e+01    8.444271e-01
  2.888183e+01    8.258509e-01
  2.891358e+01    8.118346e-01
  2.894533e+01    8.176359e-01
  2.897708e+01    8.132843e-01
  2.900883e+01    8.054825e-01
  2.904058e+01    8.218279e-01
  2.907233e+01    8.005733e-01
  2.910408e+01    8.057600e-01
  2.913583e+01    8.169531e-01
  2.916759e+01    8.265117e-01
  2.919934e+01    8.185407e-01
  2.923109e+01    7.959220e-01
  2.926284e+01    8.189877e-01
  2.929459e+01    8.217350e-01
  2.932634e+01    8.036355e-01
  2.935809e+01    7.926241e-01
  2.938984e+01    8.078573e-01
  2.942159e+01    8.053381e-01
  2.945335e+01    7.995085e-01
  2.948510e+01    7.935436e-01
  2.951685e+01    8.084295e-01
  2.954860e+01    7.983777e-01
  2.958035e+01    8.196267e-01
  2.961210e+01    7.941029e-01
  2.964385e+01    8.116238e-01
  2.967560e+01    8.105387e-01
  2.970736e+01    7.975414e-01
  2.973911e+01    7.908175e-01
  2.977086e+01    7.815470e-01
  2.980261e+01    7.961481e-01
  2.983436e+01    7.874536e-01
  2.986611e+01    7.931266e-01
  2.989786e+01    8.080988e-01
  2.992961e+01    8.032315e-01
  2.996136e+01    7.999581e-01
  2.999312e+01    8.082084e-01
  3.002487e+01    8.054534e-01
  3.005662e+01    8.040571e-01
  3.008837e+01    8.220806e-01
  3.012012e+01    7.846348e-01
  3.015187e+01    7.886019e-01
  3.018362e+01    8.031651e-01
  3.021537e+01    7.810563e-01
  3.024712e+01    7.938037e-01
  3.027888e+01    8.029473e-01
  3.031063e+01    7.927400e-01
  3.034238e+01    7.996165e-01
  3.037413e+01    7.843426e-01
  3.040588e+01    7.812979e-01
  3.043763e+01    7.611434e-01
  3.046938e+01    7.806246e-01
  3.050113e+01    7.778789e-01
  3.053288e+01    7.762435e-01
  3.056464e+01    7.898011e-01
  3.059639e+01    8.031145e-01
  3.062814e+01    7.973976e-01
  3.065989e+01    8.086854e-01
  3.069164e+01    7.973925e-01
  3.072339e+01    7.710423e-01
  3.075514e+01    7.753660e-01
  3.078689e+01    7.947686e-01
  3.081865e+01    7.913900e-01
  3.085040e+01    7.978942e-01
  3.088215e+01    8.037730e-01
  3.091390e+01    7.975439e-01
  3.094565e+01    7.789306e-01
  3.097740e+01    7.925535e-01
  3.100915e+01    7.947714e-01
  3.104090e+01    7.950102e-01
  3.107265e+01    7.822614e-01
  3.110441e+01    7.771350e-01
  3.113616e+01    7.879782e-01
  3.116791e+01    7.799344e-01
  3.119966e+01    8.110912e-01
  3.123141e+01    7.927402e-01
  3.126316e+01    8.053603e-01
  3.129491e+01    7.995697e-01
  3.132666e+01    8.148420e-01
  3.135841e+01    7.949810e-01
  3.139017e+01    8.239554e-01
  3.142192e+01    7.965456e-01
  3.145367e+01    8.249478e-01
  3.148542e+01    8.155387e-01
  3.151717e+01    8.309073e-01
  3.154892e+01    8.379064e-01
  3.158067e+01    8.648426e-01
  3.161242e+01    8.715775e-01
  3.164418e+01    9.225153e-01
  3.167593e+01    9.672711e-01
  3.170768e+01    1.043142e+00
  3.173943e+01    1.130602e+00
  3.177118e+01    1.253313e+00
  3.180293e+01    1.454519e+00
  3.183468e+01    1.687684e+00
  3.186643e+01    1.932972e+00
  3.189818e+01    2.110328e+00
  3.192994e+01    2.083666e+00
  3.196169e+01    1.828711e+00
  3.199344e+01    1.565531e+00
  3.202519e+01    1.320949e+00
  3.205694e+01    1.135066e+00
  3.208869e+01    1.051632e+00
  3.212044e+01    9.632763e-01
  3.215219e+01    9.114311e-01
  3.218394e+01    9.087061e-01
  3.221570e+01    8.768725e-01
  3.224745e+01    8.562138e-01
  3.227920e+01    8.463781e-01
  3.231095e+01    7.983143e-01
  3.234270e+01    8.254051e-01
  3.237445e+01    7.783836e-01
  3.240620e+01    7.979466e-01
  3.243795e+01    8.022012e-01
  3.246970e+01    7.969204e-01
  3.250146e+01    7.933990e-01
  3.253321e+01    7.734288e-01
  3.254908e+01    7.884983e-01