File: XRD/Reaction conditions/2024-07-27_003_Ru-CGO-ex_Reaction_dwell_000023_data_000077.dat
# == pyFAI calibration ==
# Distance Sample to Detector: 0.4 m
# PONI: 9.750e-02, 1.135e-01 m
# Rotations: -0.000175 0.000000 -0.000000 rad
#
# == Fit2d calibration ==
# Distance Sample-beamCenter: 400.000 mm
# Center: x=1514.000, y=1300.000 pix
# Tilt: 0.010 deg  TiltPlanRot: 0.010 deg
#
# Detector Detector	 Spline= None	 PixelSize= 7.500e-05, 7.500e-05 m
#    Detector has a mask: False
#    Detector has a dark current: False
#    detector has a flat field: False
#
# Wavelength: 6.888e-11 m
# Mask applied: user provided
# Dark current applied: False
# Flat field applied: False
# Polarization factor: 0.99
# Normalization factor: 1.0
# --> /home/myspot/data/2024_07_Rosario/Ru-CGO-ex/2024-07-27_003_Ru-CGO-ex_Reaction_dwell_000023_data_000077.dat
#       q_nm^-1             I
  2.003187e-02    7.712225e-02
  5.178302e-02    1.708733e-01
  8.353417e-02    9.174392e-02
  1.152853e-01    4.988809e-02
  1.470365e-01    4.966496e-02
  1.787876e-01    2.490982e-02
  2.105388e-01    3.102066e-02
  2.422899e-01    5.076949e-02
  2.740411e-01    5.814844e-02
  3.057922e-01    3.996276e-02
  3.375433e-01    8.689782e-03
  3.692945e-01    3.344083e-02
  4.010456e-01    2.855885e-02
  4.327968e-01    3.894067e-02
  4.645479e-01    4.948698e-02
  4.962991e-01    6.458233e-02
  5.280502e-01    2.702749e-02
  5.598014e-01    3.228216e-02
  5.915525e-01    3.463560e-02
  6.233037e-01    5.915274e-02
  6.550548e-01    3.737359e-02
  6.868060e-01    4.951832e-02
  7.185571e-01    7.479966e-02
  7.503083e-01    6.704818e-02
  7.820594e-01    1.285070e-01
  8.138106e-01    1.883495e-01
  8.455617e-01    3.377512e-01
  8.773129e-01    5.109589e-01
  9.090640e-01    6.717649e-01
  9.408152e-01    8.354682e-01
  9.725663e-01    1.049487e+00
  1.004317e+00    1.301334e+00
  1.036069e+00    1.368000e+00
  1.067820e+00    1.452011e+00
  1.099571e+00    1.538330e+00
  1.131322e+00    1.592765e+00
  1.163073e+00    1.694957e+00
  1.194824e+00    1.738629e+00
  1.226575e+00    2.171273e+00
  1.258327e+00    2.547896e+00
  1.290078e+00    2.733695e+00
  1.321829e+00    2.663010e+00
  1.353580e+00    2.825907e+00
  1.385331e+00    2.861043e+00
  1.417082e+00    2.896469e+00
  1.448834e+00    3.012958e+00
  1.480585e+00    2.984951e+00
  1.512336e+00    3.073179e+00
  1.544087e+00    3.268191e+00
  1.575838e+00    3.240142e+00
  1.607589e+00    3.213437e+00
  1.639340e+00    3.197655e+00
  1.671092e+00    3.077617e+00
  1.702843e+00    3.275041e+00
  1.734594e+00    2.971591e+00
  1.766345e+00    3.129980e+00
  1.798096e+00    3.035734e+00
  1.829847e+00    3.226953e+00
  1.861598e+00    3.200655e+00
  1.893350e+00    3.099963e+00
  1.925101e+00    3.027546e+00
  1.956852e+00    3.123713e+00
  1.988603e+00    3.176517e+00
  2.020354e+00    3.123621e+00
  2.052105e+00    3.133304e+00
  2.083856e+00    2.919934e+00
  2.115608e+00    3.035920e+00
  2.147359e+00    3.146195e+00
  2.179110e+00    3.051264e+00
  2.210861e+00    3.150685e+00
  2.242612e+00    3.194767e+00
  2.274363e+00    2.976195e+00
  2.306115e+00    3.128536e+00
  2.337866e+00    3.173360e+00
  2.369617e+00    3.157134e+00
  2.401368e+00    3.179747e+00
  2.433119e+00    3.235198e+00
  2.464870e+00    3.346387e+00
  2.496621e+00    3.132537e+00
  2.528373e+00    3.179136e+00
  2.560124e+00    3.308987e+00
  2.591875e+00    3.342269e+00
  2.623626e+00    3.311862e+00
  2.655377e+00    3.227460e+00
  2.687128e+00    3.229987e+00
  2.718879e+00    3.335956e+00
  2.750631e+00    3.313117e+00
  2.782382e+00    3.363247e+00
  2.814133e+00    3.344337e+00
  2.845884e+00    3.327307e+00
  2.877635e+00    3.393409e+00
  2.909386e+00    3.300194e+00
  2.941137e+00    3.316362e+00
  2.972889e+00    3.355341e+00
  3.004640e+00    3.317551e+00
  3.036391e+00    3.314965e+00
  3.068142e+00    3.451235e+00
  3.099893e+00    3.295319e+00
  3.131644e+00    3.443336e+00
  3.163395e+00    3.362563e+00
  3.195147e+00    3.429188e+00
  3.226898e+00    3.331325e+00
  3.258649e+00    3.413650e+00
  3.290400e+00    3.351294e+00
  3.322151e+00    3.306357e+00
  3.353902e+00    3.415760e+00
  3.385654e+00    3.387043e+00
  3.417405e+00    3.472497e+00
  3.449156e+00    3.387407e+00
  3.480907e+00    3.435959e+00
  3.512658e+00    3.424390e+00
  3.544409e+00    3.393368e+00
  3.576160e+00    3.536401e+00
  3.607912e+00    3.459441e+00
  3.639663e+00    3.404754e+00
  3.671414e+00    3.604216e+00
  3.703165e+00    3.547327e+00
  3.734916e+00    3.535641e+00
  3.766667e+00    3.392890e+00
  3.798418e+00    3.493340e+00
  3.830170e+00    3.522532e+00
  3.861921e+00    3.538397e+00
  3.893672e+00    3.617946e+00
  3.925423e+00    3.460522e+00
  3.957174e+00    3.630610e+00
  3.988925e+00    3.487723e+00
  4.020676e+00    3.478996e+00
  4.052428e+00    3.556866e+00
  4.084179e+00    3.501727e+00
  4.115930e+00    3.538751e+00
  4.147681e+00    3.627944e+00
  4.179432e+00    3.496984e+00
  4.211183e+00    3.644669e+00
  4.242935e+00    3.573490e+00
  4.274686e+00    3.493167e+00
  4.306437e+00    3.641512e+00
  4.338188e+00    3.538182e+00
  4.369939e+00    3.600669e+00
  4.401690e+00    3.594037e+00
  4.433441e+00    3.557096e+00
  4.465193e+00    3.588590e+00
  4.496944e+00    3.613394e+00
  4.528695e+00    3.576940e+00
  4.560446e+00    3.525861e+00
  4.592197e+00    3.605340e+00
  4.623948e+00    3.670695e+00
  4.655699e+00    3.673731e+00
  4.687451e+00    3.688699e+00
  4.719202e+00    3.671080e+00
  4.750953e+00    3.561739e+00
  4.782704e+00    3.720528e+00
  4.814455e+00    3.559018e+00
  4.846206e+00    3.610201e+00
  4.877957e+00    3.712436e+00
  4.909709e+00    3.675202e+00
  4.941460e+00    3.684582e+00
  4.973211e+00    3.611295e+00
  5.004962e+00    3.641618e+00
  5.036713e+00    3.702710e+00
  5.068464e+00    3.713162e+00
  5.100216e+00    3.704208e+00
  5.131967e+00    3.721578e+00
  5.163718e+00    3.701658e+00
  5.195469e+00    3.683815e+00
  5.227220e+00    3.580956e+00
  5.258971e+00    3.604714e+00
  5.290722e+00    3.739492e+00
  5.322474e+00    3.649214e+00
  5.354225e+00    3.641692e+00
  5.385976e+00    3.730946e+00
  5.417727e+00    3.718012e+00
  5.449478e+00    3.645134e+00
  5.481229e+00    3.569878e+00
  5.512980e+00    3.630551e+00
  5.544732e+00    3.630994e+00
  5.576483e+00    3.568668e+00
  5.608234e+00    3.511083e+00
  5.639985e+00    3.711382e+00
  5.671736e+00    3.526589e+00
  5.703487e+00    3.628048e+00
  5.735238e+00    3.658686e+00
  5.766990e+00    3.604078e+00
  5.798741e+00    3.574318e+00
  5.830492e+00    3.620674e+00
  5.862243e+00    3.574662e+00
  5.893994e+00    3.635376e+00
  5.925745e+00    3.572244e+00
  5.957497e+00    3.486184e+00
  5.989248e+00    3.551000e+00
  6.020999e+00    3.491647e+00
  6.052750e+00    3.563023e+00
  6.084501e+00    3.603953e+00
  6.116252e+00    3.483496e+00
  6.148003e+00    3.576869e+00
  6.179755e+00    3.680484e+00
  6.211506e+00    3.504034e+00
  6.243257e+00    3.537232e+00
  6.275008e+00    3.571770e+00
  6.306759e+00    3.602158e+00
  6.338510e+00    3.595411e+00
  6.370261e+00    3.486618e+00
  6.402013e+00    3.599483e+00
  6.433764e+00    3.623862e+00
  6.465515e+00    3.587532e+00
  6.497266e+00    3.527508e+00
  6.529017e+00    3.552687e+00
  6.560768e+00    3.639331e+00
  6.592519e+00    3.502476e+00
  6.624271e+00    3.640252e+00
  6.656022e+00    3.563436e+00
  6.687773e+00    3.552827e+00
  6.719524e+00    3.498518e+00
  6.751275e+00    3.640975e+00
  6.783026e+00    3.467909e+00
  6.814777e+00    3.647682e+00
  6.846529e+00    3.579553e+00
  6.878280e+00    3.586665e+00
  6.910031e+00    3.520572e+00
  6.941782e+00    3.537110e+00
  6.973533e+00    3.599118e+00
  7.005284e+00    3.508129e+00
  7.037036e+00    3.579965e+00
  7.068787e+00    3.474493e+00
  7.100538e+00    3.517002e+00
  7.132289e+00    3.560354e+00
  7.164040e+00    3.485195e+00
  7.195791e+00    3.447872e+00
  7.227542e+00    3.564999e+00
  7.259294e+00    3.551102e+00
  7.291045e+00    3.513527e+00
  7.322796e+00    3.555502e+00
  7.354547e+00    3.492956e+00
  7.386298e+00    3.465775e+00
  7.418049e+00    3.454358e+00
  7.449800e+00    3.482199e+00
  7.481552e+00    3.520527e+00
  7.513303e+00    3.507723e+00
  7.545054e+00    3.442332e+00
  7.576805e+00    3.569079e+00
  7.608556e+00    3.505288e+00
  7.640307e+00    3.509640e+00
  7.672058e+00    3.437969e+00
  7.703810e+00    3.522693e+00
  7.735561e+00    3.470575e+00
  7.767312e+00    3.427589e+00
  7.799063e+00    3.484291e+00
  7.830814e+00    3.459337e+00
  7.862565e+00    3.382452e+00
  7.894317e+00    3.397233e+00
  7.926068e+00    3.527859e+00
  7.957819e+00    3.475922e+00
  7.989570e+00    3.440595e+00
  8.021321e+00    3.438111e+00
  8.053072e+00    3.460663e+00
  8.084823e+00    3.429627e+00
  8.116575e+00    3.473621e+00
  8.148326e+00    3.501280e+00
  8.180077e+00    3.518100e+00
  8.211828e+00    3.460986e+00
  8.243579e+00    3.506895e+00
  8.275330e+00    3.430583e+00
  8.307081e+00    3.473797e+00
  8.338833e+00    3.439053e+00
  8.370584e+00    3.422145e+00
  8.402335e+00    3.439746e+00
  8.434086e+00    3.420558e+00
  8.465837e+00    3.376530e+00
  8.497588e+00    3.384105e+00
  8.529339e+00    3.315521e+00
  8.561091e+00    3.387709e+00
  8.592842e+00    3.348212e+00
  8.624593e+00    3.332773e+00
  8.656344e+00    3.342612e+00
  8.688095e+00    3.347136e+00
  8.719846e+00    3.386985e+00
  8.751598e+00    3.351943e+00
  8.783349e+00    3.395802e+00
  8.815100e+00    3.335284e+00
  8.846851e+00    3.380463e+00
  8.878602e+00    3.338948e+00
  8.910353e+00    3.374305e+00
  8.942104e+00    3.299877e+00
  8.973856e+00    3.275025e+00
  9.005607e+00    3.326160e+00
  9.037358e+00    3.274210e+00
  9.069109e+00    3.285634e+00
  9.100860e+00    3.323006e+00
  9.132611e+00    3.311190e+00
  9.164362e+00    3.306050e+00
  9.196114e+00    3.272552e+00
  9.227865e+00    3.251525e+00
  9.259616e+00    3.268299e+00
  9.291367e+00    3.255217e+00
  9.323118e+00    3.238618e+00
  9.354869e+00    3.308637e+00
  9.386620e+00    3.240042e+00
  9.418372e+00    3.254685e+00
  9.450123e+00    3.133502e+00
  9.481874e+00    3.206815e+00
  9.513625e+00    3.227643e+00
  9.545376e+00    3.331156e+00
  9.577127e+00    3.198286e+00
  9.608878e+00    3.189227e+00
  9.640630e+00    3.224427e+00
  9.672381e+00    3.175991e+00
  9.704132e+00    3.214941e+00
  9.735883e+00    3.195100e+00
  9.767634e+00    3.208325e+00
  9.799385e+00    3.252168e+00
  9.831137e+00    3.163817e+00
  9.862888e+00    3.200616e+00
  9.894639e+00    3.215247e+00
  9.926390e+00    3.192360e+00
  9.958141e+00    3.111963e+00
  9.989892e+00    3.184472e+00
  1.002164e+01    3.164698e+00
  1.005339e+01    3.142560e+00
  1.008515e+01    3.121627e+00
  1.011690e+01    3.062723e+00
  1.014865e+01    3.100342e+00
  1.018040e+01    3.076555e+00
  1.021215e+01    3.066572e+00
  1.024390e+01    3.099903e+00
  1.027565e+01    3.048341e+00
  1.030740e+01    3.063182e+00
  1.033915e+01    3.055735e+00
  1.037091e+01    3.034908e+00
  1.040266e+01    3.009719e+00
  1.043441e+01    3.029868e+00
  1.046616e+01    3.012556e+00
  1.049791e+01    3.051866e+00
  1.052966e+01    3.025762e+00
  1.056141e+01    2.997539e+00
  1.059316e+01    3.018243e+00
  1.062492e+01    2.954606e+00
  1.065667e+01    3.006956e+00
  1.068842e+01    3.019092e+00
  1.072017e+01    2.965949e+00
  1.075192e+01    3.034580e+00
  1.078367e+01    2.965960e+00
  1.081542e+01    2.943756e+00
  1.084717e+01    2.903738e+00
  1.087892e+01    2.967249e+00
  1.091068e+01    2.925334e+00
  1.094243e+01    2.952579e+00
  1.097418e+01    2.931214e+00
  1.100593e+01    2.978303e+00
  1.103768e+01    2.942152e+00
  1.106943e+01    2.909863e+00
  1.110118e+01    2.915229e+00
  1.113293e+01    2.905170e+00
  1.116468e+01    2.901492e+00
  1.119644e+01    2.888944e+00
  1.122819e+01    2.876034e+00
  1.125994e+01    2.890779e+00
  1.129169e+01    2.917968e+00
  1.132344e+01    2.824949e+00
  1.135519e+01    2.858909e+00
  1.138694e+01    2.784764e+00
  1.141869e+01    2.825201e+00
  1.145045e+01    2.894514e+00
  1.148220e+01    2.813576e+00
  1.151395e+01    2.747937e+00
  1.154570e+01    2.757268e+00
  1.157745e+01    2.828506e+00
  1.160920e+01    2.809129e+00
  1.164095e+01    2.770567e+00
  1.167270e+01    2.786027e+00
  1.170445e+01    2.766636e+00
  1.173621e+01    2.736196e+00
  1.176796e+01    2.740428e+00
  1.179971e+01    2.784768e+00
  1.183146e+01    2.725636e+00
  1.186321e+01    2.686953e+00
  1.189496e+01    2.677714e+00
  1.192671e+01    2.741904e+00
  1.195846e+01    2.768200e+00
  1.199021e+01    2.753044e+00
  1.202197e+01    2.767419e+00
  1.205372e+01    2.715070e+00
  1.208547e+01    2.674001e+00
  1.211722e+01    2.727906e+00
  1.214897e+01    2.732970e+00
  1.218072e+01    2.731928e+00
  1.221247e+01    2.711405e+00
  1.224422e+01    2.697560e+00
  1.227597e+01    2.703143e+00
  1.230773e+01    2.727854e+00
  1.233948e+01    2.674392e+00
  1.237123e+01    2.695423e+00
  1.240298e+01    2.675456e+00
  1.243473e+01    2.700323e+00
  1.246648e+01    2.720997e+00
  1.249823e+01    2.696246e+00
  1.252998e+01    2.692304e+00
  1.256174e+01    2.719150e+00
  1.259349e+01    2.726655e+00
  1.262524e+01    2.740775e+00
  1.265699e+01    2.819579e+00
  1.268874e+01    2.847718e+00
  1.272049e+01    2.818094e+00
  1.275224e+01    2.923082e+00
  1.278399e+01    2.988258e+00
  1.281574e+01    3.073926e+00
  1.284750e+01    3.172257e+00
  1.287925e+01    3.421497e+00
  1.291100e+01    3.691192e+00
  1.294275e+01    4.148267e+00
  1.297450e+01    4.784521e+00
  1.300625e+01    5.895043e+00
  1.303800e+01    7.835616e+00
  1.306975e+01    1.031309e+01
  1.310150e+01    1.276661e+01
  1.313326e+01    1.491415e+01
  1.316501e+01    1.647485e+01
  1.319676e+01    1.567298e+01
  1.322851e+01    1.255927e+01
  1.326026e+01    9.197394e+00
  1.329201e+01    6.796950e+00
  1.332376e+01    5.374249e+00
  1.335551e+01    4.473127e+00
  1.338727e+01    3.939647e+00
  1.341902e+01    3.496226e+00
  1.345077e+01    3.215386e+00
  1.348252e+01    3.053095e+00
  1.351427e+01    2.913860e+00
  1.354602e+01    2.840993e+00
  1.357777e+01    2.718973e+00
  1.360952e+01    2.700834e+00
  1.364127e+01    2.646400e+00
  1.367303e+01    2.616422e+00
  1.370478e+01    2.551803e+00
  1.373653e+01    2.540684e+00
  1.376828e+01    2.480338e+00
  1.380003e+01    2.452447e+00
  1.383178e+01    2.491687e+00
  1.386353e+01    2.473553e+00
  1.389528e+01    2.411520e+00
  1.392703e+01    2.412944e+00
  1.395879e+01    2.403297e+00
  1.399054e+01    2.419958e+00
  1.402229e+01    2.347479e+00
  1.405404e+01    2.361388e+00
  1.408579e+01    2.341929e+00
  1.411754e+01    2.352256e+00
  1.414929e+01    2.369353e+00
  1.418104e+01    2.349308e+00
  1.421279e+01    2.300784e+00
  1.424455e+01    2.293750e+00
  1.427630e+01    2.265313e+00
  1.430805e+01    2.281359e+00
  1.433980e+01    2.261918e+00
  1.437155e+01    2.264485e+00
  1.440330e+01    2.245027e+00
  1.443505e+01    2.252044e+00
  1.446680e+01    2.240670e+00
  1.449856e+01    2.212992e+00
  1.453031e+01    2.240829e+00
  1.456206e+01    2.223628e+00
  1.459381e+01    2.264259e+00
  1.462556e+01    2.254967e+00
  1.465731e+01    2.197332e+00
  1.468906e+01    2.252438e+00
  1.472081e+01    2.195954e+00
  1.475256e+01    2.239457e+00
  1.478432e+01    2.195273e+00
  1.481607e+01    2.221646e+00
  1.484782e+01    2.183113e+00
  1.487957e+01    2.207287e+00
  1.491132e+01    2.236325e+00
  1.494307e+01    2.323016e+00
  1.497482e+01    2.350660e+00
  1.500657e+01    2.486550e+00
  1.503832e+01    2.616710e+00
  1.507008e+01    2.798827e+00
  1.510183e+01    3.232687e+00
  1.513358e+01    3.818220e+00
  1.516533e+01    4.616148e+00
  1.519708e+01    5.172394e+00
  1.522883e+01    5.682338e+00
  1.526058e+01    5.816151e+00
  1.529233e+01    5.541254e+00
  1.532409e+01    4.705081e+00
  1.535584e+01    3.773498e+00
  1.538759e+01    3.167518e+00
  1.541934e+01    2.726902e+00
  1.545109e+01    2.550482e+00
  1.548284e+01    2.350591e+00
  1.551459e+01    2.298290e+00
  1.554634e+01    2.218805e+00
  1.557809e+01    2.103949e+00
  1.560985e+01    2.098820e+00
  1.564160e+01    2.061167e+00
  1.567335e+01    2.020843e+00
  1.570510e+01    2.002009e+00
  1.573685e+01    1.980003e+00
  1.576860e+01    1.975397e+00
  1.580035e+01    1.939045e+00
  1.583210e+01    1.934553e+00
  1.586385e+01    1.899316e+00
  1.589561e+01    1.956768e+00
  1.592736e+01    1.901125e+00
  1.595911e+01    1.897503e+00
  1.599086e+01    1.880483e+00
  1.602261e+01    1.856858e+00
  1.605436e+01    1.842824e+00
  1.608611e+01    1.849121e+00
  1.611786e+01    1.840692e+00
  1.614961e+01    1.829739e+00
  1.618137e+01    1.861238e+00
  1.621312e+01    1.799504e+00
  1.624487e+01    1.818776e+00
  1.627662e+01    1.807159e+00
  1.630837e+01    1.815715e+00
  1.634012e+01    1.789307e+00
  1.637187e+01    1.801242e+00
  1.640362e+01    1.776650e+00
  1.643538e+01    1.771783e+00
  1.646713e+01    1.775372e+00
  1.649888e+01    1.775912e+00
  1.653063e+01    1.772039e+00
  1.656238e+01    1.777449e+00
  1.659413e+01    1.756936e+00
  1.662588e+01    1.748492e+00
  1.665763e+01    1.760849e+00
  1.668938e+01    1.739934e+00
  1.672114e+01    1.748389e+00
  1.675289e+01    1.707211e+00
  1.678464e+01    1.693668e+00
  1.681639e+01    1.727999e+00
  1.684814e+01    1.678234e+00
  1.687989e+01    1.699838e+00
  1.691164e+01    1.681504e+00
  1.694339e+01    1.678683e+00
  1.697514e+01    1.694716e+00
  1.700690e+01    1.667982e+00
  1.703865e+01    1.635781e+00
  1.707040e+01    1.656143e+00
  1.710215e+01    1.640074e+00
  1.713390e+01    1.652177e+00
  1.716565e+01    1.660479e+00
  1.719740e+01    1.630020e+00
  1.722915e+01    1.649911e+00
  1.726091e+01    1.591619e+00
  1.729266e+01    1.629058e+00
  1.732441e+01    1.621829e+00
  1.735616e+01    1.641110e+00
  1.738791e+01    1.618351e+00
  1.741966e+01    1.556298e+00
  1.745141e+01    1.570284e+00
  1.748316e+01    1.615191e+00
  1.751491e+01    1.597128e+00
  1.754667e+01    1.580112e+00
  1.757842e+01    1.549145e+00
  1.761017e+01    1.561361e+00
  1.764192e+01    1.586692e+00
  1.767367e+01    1.593653e+00
  1.770542e+01    1.542938e+00
  1.773717e+01    1.545706e+00
  1.776892e+01    1.534155e+00
  1.780067e+01    1.530476e+00
  1.783243e+01    1.523376e+00
  1.786418e+01    1.547806e+00
  1.789593e+01    1.547886e+00
  1.792768e+01    1.544566e+00
  1.795943e+01    1.529083e+00
  1.799118e+01    1.520894e+00
  1.802293e+01    1.493319e+00
  1.805468e+01    1.534522e+00
  1.808643e+01    1.516044e+00
  1.811819e+01    1.486712e+00
  1.814994e+01    1.493388e+00
  1.818169e+01    1.462572e+00
  1.821344e+01    1.457447e+00
  1.824519e+01    1.497937e+00
  1.827694e+01    1.483512e+00
  1.830869e+01    1.489233e+00
  1.834044e+01    1.506292e+00
  1.837220e+01    1.487401e+00
  1.840395e+01    1.439098e+00
  1.843570e+01    1.468573e+00
  1.846745e+01    1.430037e+00
  1.849920e+01    1.461087e+00
  1.853095e+01    1.422560e+00
  1.856270e+01    1.439083e+00
  1.859445e+01    1.429072e+00
  1.862620e+01    1.430042e+00
  1.865796e+01    1.410762e+00
  1.868971e+01    1.445316e+00
  1.872146e+01    1.441749e+00
  1.875321e+01    1.449006e+00
  1.878496e+01    1.418259e+00
  1.881671e+01    1.408752e+00
  1.884846e+01    1.419329e+00
  1.888021e+01    1.425179e+00
  1.891196e+01    1.403465e+00
  1.894372e+01    1.371916e+00
  1.897547e+01    1.411934e+00
  1.900722e+01    1.370186e+00
  1.903897e+01    1.405837e+00
  1.907072e+01    1.379728e+00
  1.910247e+01    1.401096e+00
  1.913422e+01    1.386812e+00
  1.916597e+01    1.382216e+00
  1.919773e+01    1.364518e+00
  1.922948e+01    1.366133e+00
  1.926123e+01    1.366422e+00
  1.929298e+01    1.358801e+00
  1.932473e+01    1.359807e+00
  1.935648e+01    1.333688e+00
  1.938823e+01    1.346069e+00
  1.941998e+01    1.352748e+00
  1.945173e+01    1.349587e+00
  1.948349e+01    1.344952e+00
  1.951524e+01    1.322022e+00
  1.954699e+01    1.323703e+00
  1.957874e+01    1.345434e+00
  1.961049e+01    1.336915e+00
  1.964224e+01    1.329158e+00
  1.967399e+01    1.313623e+00
  1.970574e+01    1.299150e+00
  1.973749e+01    1.310917e+00
  1.976925e+01    1.303917e+00
  1.980100e+01    1.310782e+00
  1.983275e+01    1.290473e+00
  1.986450e+01    1.325523e+00
  1.989625e+01    1.303381e+00
  1.992800e+01    1.322503e+00
  1.995975e+01    1.284619e+00
  1.999150e+01    1.267761e+00
  2.002325e+01    1.247153e+00
  2.005501e+01    1.296046e+00
  2.008676e+01    1.267601e+00
  2.011851e+01    1.268765e+00
  2.015026e+01    1.259273e+00
  2.018201e+01    1.271247e+00
  2.021376e+01    1.269239e+00
  2.024551e+01    1.264647e+00
  2.027726e+01    1.244605e+00
  2.030902e+01    1.260278e+00
  2.034077e+01    1.252061e+00
  2.037252e+01    1.271397e+00
  2.040427e+01    1.233470e+00
  2.043602e+01    1.253786e+00
  2.046777e+01    1.269237e+00
  2.049952e+01    1.264383e+00
  2.053127e+01    1.269437e+00
  2.056302e+01    1.257096e+00
  2.059478e+01    1.270368e+00
  2.062653e+01    1.238703e+00
  2.065828e+01    1.201790e+00
  2.069003e+01    1.230596e+00
  2.072178e+01    1.225942e+00
  2.075353e+01    1.216534e+00
  2.078528e+01    1.235610e+00
  2.081703e+01    1.234925e+00
  2.084878e+01    1.230146e+00
  2.088054e+01    1.226434e+00
  2.091229e+01    1.219933e+00
  2.094404e+01    1.237971e+00
  2.097579e+01    1.248275e+00
  2.100754e+01    1.234278e+00
  2.103929e+01    1.232991e+00
  2.107104e+01    1.235335e+00
  2.110279e+01    1.222030e+00
  2.113455e+01    1.240516e+00
  2.116630e+01    1.254565e+00
  2.119805e+01    1.234529e+00
  2.122980e+01    1.223684e+00
  2.126155e+01    1.255575e+00
  2.129330e+01    1.265391e+00
  2.132505e+01    1.307589e+00
  2.135680e+01    1.285552e+00
  2.138855e+01    1.319888e+00
  2.142031e+01    1.318948e+00
  2.145206e+01    1.351942e+00
  2.148381e+01    1.406219e+00
  2.151556e+01    1.473758e+00
  2.154731e+01    1.528531e+00
  2.157906e+01    1.621310e+00
  2.161081e+01    1.782139e+00
  2.164256e+01    1.966885e+00
  2.167431e+01    2.291128e+00
  2.170607e+01    2.838904e+00
  2.173782e+01    3.579378e+00
  2.176957e+01    4.682318e+00
  2.180132e+01    5.904854e+00
  2.183307e+01    7.261508e+00
  2.186482e+01    8.463801e+00
  2.189657e+01    8.969875e+00
  2.192832e+01    8.345197e+00
  2.196007e+01    6.622317e+00
  2.199183e+01    4.853054e+00
  2.202358e+01    3.648195e+00
  2.205533e+01    2.845709e+00
  2.208708e+01    2.352168e+00
  2.211883e+01    1.997691e+00
  2.215058e+01    1.769073e+00
  2.218233e+01    1.598809e+00
  2.221408e+01    1.478092e+00
  2.224584e+01    1.387755e+00
  2.227759e+01    1.380781e+00
  2.230934e+01    1.307667e+00
  2.234109e+01    1.296750e+00
  2.237284e+01    1.234990e+00
  2.240459e+01    1.198151e+00
  2.243634e+01    1.204259e+00
  2.246809e+01    1.145645e+00
  2.249984e+01    1.178557e+00
  2.253160e+01    1.145503e+00
  2.256335e+01    1.132803e+00
  2.259510e+01    1.144361e+00
  2.262685e+01    1.108487e+00
  2.265860e+01    1.094305e+00
  2.269035e+01    1.097551e+00
  2.272210e+01    1.049751e+00
  2.275385e+01    1.077991e+00
  2.278560e+01    1.081665e+00
  2.281736e+01    1.051479e+00
  2.284911e+01    1.063260e+00
  2.288086e+01    1.048965e+00
  2.291261e+01    1.025634e+00
  2.294436e+01    1.035345e+00
  2.297611e+01    1.024278e+00
  2.300786e+01    1.033846e+00
  2.303961e+01    1.039911e+00
  2.307137e+01    1.012372e+00
  2.310312e+01    1.033016e+00
  2.313487e+01    1.016292e+00
  2.316662e+01    1.008756e+00
  2.319837e+01    9.907449e-01
  2.323012e+01    9.996720e-01
  2.326187e+01    9.814842e-01
  2.329362e+01    9.810348e-01
  2.332537e+01    9.880550e-01
  2.335713e+01    9.817406e-01
  2.338888e+01    9.855258e-01
  2.342063e+01    9.731450e-01
  2.345238e+01    9.768597e-01
  2.348413e+01    9.793403e-01
  2.351588e+01    9.805259e-01
  2.354763e+01    9.475378e-01
  2.357938e+01    9.753268e-01
  2.361113e+01    9.498432e-01
  2.364289e+01    9.562007e-01
  2.367464e+01    9.406580e-01
  2.370639e+01    9.453661e-01
  2.373814e+01    9.205342e-01
  2.376989e+01    9.308968e-01
  2.380164e+01    9.279831e-01
  2.383339e+01    9.251474e-01
  2.386514e+01    9.037524e-01
  2.389689e+01    9.155231e-01
  2.392865e+01    8.994727e-01
  2.396040e+01    9.035589e-01
  2.399215e+01    9.258473e-01
  2.402390e+01    9.088250e-01
  2.405565e+01    9.012464e-01
  2.408740e+01    8.865109e-01
  2.411915e+01    8.864008e-01
  2.415090e+01    8.525065e-01
  2.418266e+01    8.975590e-01
  2.421441e+01    8.905794e-01
  2.424616e+01    8.669237e-01
  2.427791e+01    9.053510e-01
  2.430966e+01    9.196748e-01
  2.434141e+01    8.866187e-01
  2.437316e+01    8.770633e-01
  2.440491e+01    8.840463e-01
  2.443666e+01    8.662797e-01
  2.446842e+01    8.828402e-01
  2.450017e+01    8.745536e-01
  2.453192e+01    8.803169e-01
  2.456367e+01    8.886206e-01
  2.459542e+01    8.986059e-01
  2.462717e+01    8.933944e-01
  2.465892e+01    8.807317e-01
  2.469067e+01    8.791289e-01
  2.472242e+01    9.031488e-01
  2.475418e+01    9.072158e-01
  2.478593e+01    9.006335e-01
  2.481768e+01    9.041396e-01
  2.484943e+01    8.866230e-01
  2.488118e+01    8.943867e-01
  2.491293e+01    9.098098e-01
  2.494468e+01    8.919713e-01
  2.497643e+01    8.947663e-01
  2.500819e+01    8.877875e-01
  2.503994e+01    9.055303e-01
  2.507169e+01    9.069802e-01
  2.510344e+01    8.861699e-01
  2.513519e+01    9.222243e-01
  2.516694e+01    9.208815e-01
  2.519869e+01    9.198581e-01
  2.523044e+01    9.254491e-01
  2.526219e+01    9.349030e-01
  2.529395e+01    9.373752e-01
  2.532570e+01    9.759744e-01
  2.535745e+01    9.966837e-01
  2.538920e+01    1.002611e+00
  2.542095e+01    9.914891e-01
  2.545270e+01    1.023911e+00
  2.548445e+01    1.021548e+00
  2.551620e+01    1.058685e+00
  2.554795e+01    1.114742e+00
  2.557971e+01    1.168997e+00
  2.561146e+01    1.225010e+00
  2.564321e+01    1.334229e+00
  2.567496e+01    1.412991e+00
  2.570671e+01    1.616949e+00
  2.573846e+01    1.895648e+00
  2.577021e+01    2.270610e+00
  2.580196e+01    2.888265e+00
  2.583371e+01    3.674443e+00
  2.586547e+01    4.724990e+00
  2.589722e+01    5.858045e+00
  2.592897e+01    6.871913e+00
  2.596072e+01    7.229824e+00
  2.599247e+01    6.621269e+00
  2.602422e+01    5.311848e+00
  2.605597e+01    3.993707e+00
  2.608772e+01    2.987622e+00
  2.611948e+01    2.358208e+00
  2.615123e+01    1.933279e+00
  2.618298e+01    1.659155e+00
  2.621473e+01    1.512543e+00
  2.624648e+01    1.332230e+00
  2.627823e+01    1.258061e+00
  2.630998e+01    1.191167e+00
  2.634173e+01    1.110910e+00
  2.637348e+01    1.087058e+00
  2.640524e+01    1.048269e+00
  2.643699e+01    1.037440e+00
  2.646874e+01    1.020999e+00
  2.650049e+01    1.017676e+00
  2.653224e+01    1.001415e+00
  2.656399e+01    9.908972e-01
  2.659574e+01    9.914559e-01
  2.662749e+01    9.541265e-01
  2.665924e+01    9.799169e-01
  2.669100e+01    9.859917e-01
  2.672275e+01    9.691787e-01
  2.675450e+01    9.779761e-01
  2.678625e+01    1.002238e+00
  2.681800e+01    9.818634e-01
  2.684975e+01    9.842308e-01
  2.688150e+01    1.006795e+00
  2.691325e+01    9.765710e-01
  2.694501e+01    1.035292e+00
  2.697676e+01    1.063468e+00
  2.700851e+01    1.097450e+00
  2.704026e+01    1.189968e+00
  2.707201e+01    1.326715e+00
  2.710376e+01    1.496712e+00
  2.713551e+01    1.742648e+00
  2.716726e+01    1.953946e+00
  2.719901e+01    2.157735e+00
  2.723077e+01    2.151081e+00
  2.726252e+01    1.977201e+00
  2.729427e+01    1.705429e+00
  2.732602e+01    1.469147e+00
  2.735777e+01    1.287742e+00
  2.738952e+01    1.193879e+00
  2.742127e+01    1.089518e+00
  2.745302e+01    1.036634e+00
  2.748477e+01    1.002598e+00
  2.751653e+01    9.625782e-01
  2.754828e+01    9.483296e-01
  2.758003e+01    9.393747e-01
  2.761178e+01    9.315364e-01
  2.764353e+01    9.173907e-01
  2.767528e+01    9.056996e-01
  2.770703e+01    9.040789e-01
  2.773878e+01    8.874947e-01
  2.777054e+01    9.332876e-01
  2.780229e+01    9.024421e-01
  2.783404e+01    8.937290e-01
  2.786579e+01    9.019313e-01
  2.789754e+01    8.781053e-01
  2.792929e+01    8.874128e-01
  2.796104e+01    8.980092e-01
  2.799279e+01    8.624994e-01
  2.802454e+01    8.587244e-01
  2.805630e+01    8.650346e-01
  2.808805e+01    8.685755e-01
  2.811980e+01    8.613920e-01
  2.815155e+01    8.798109e-01
  2.818330e+01    8.669037e-01
  2.821505e+01    8.441039e-01
  2.824680e+01    8.609172e-01
  2.827855e+01    8.320502e-01
  2.831030e+01    8.368643e-01
  2.834206e+01    8.497383e-01
  2.837381e+01    8.470685e-01
  2.840556e+01    8.284972e-01
  2.843731e+01    8.490062e-01
  2.846906e+01    8.644559e-01
  2.850081e+01    8.428886e-01
  2.853256e+01    8.703027e-01
  2.856431e+01    8.414727e-01
  2.859606e+01    8.453913e-01
  2.862782e+01    8.431170e-01
  2.865957e+01    8.613513e-01
  2.869132e+01    8.372905e-01
  2.872307e+01    8.410119e-01
  2.875482e+01    8.445759e-01
  2.878657e+01    8.296936e-01
  2.881832e+01    8.376654e-01
  2.885007e+01    8.333810e-01
  2.888183e+01    8.223784e-01
  2.891358e+01    8.266813e-01
  2.894533e+01    8.153829e-01
  2.897708e+01    8.266924e-01
  2.900883e+01    8.388616e-01
  2.904058e+01    8.269914e-01
  2.907233e+01    8.462648e-01
  2.910408e+01    8.202769e-01
  2.913583e+01    8.150938e-01
  2.916759e+01    8.024388e-01
  2.919934e+01    8.221447e-01
  2.923109e+01    8.249826e-01
  2.926284e+01    8.390881e-01
  2.929459e+01    7.960735e-01
  2.932634e+01    8.041092e-01
  2.935809e+01    8.097300e-01
  2.938984e+01    7.876930e-01
  2.942159e+01    8.109030e-01
  2.945335e+01    8.194558e-01
  2.948510e+01    8.007855e-01
  2.951685e+01    8.133127e-01
  2.954860e+01    8.016674e-01
  2.958035e+01    7.893962e-01
  2.961210e+01    8.161201e-01
  2.964385e+01    8.037277e-01
  2.967560e+01    8.111349e-01
  2.970736e+01    8.000146e-01
  2.973911e+01    7.903648e-01
  2.977086e+01    8.192612e-01
  2.980261e+01    8.076603e-01
  2.983436e+01    8.101484e-01
  2.986611e+01    8.043507e-01
  2.989786e+01    7.750179e-01
  2.992961e+01    7.982039e-01
  2.996136e+01    8.084304e-01
  2.999312e+01    7.867095e-01
  3.002487e+01    7.949033e-01
  3.005662e+01    8.254397e-01
  3.008837e+01    8.180884e-01
  3.012012e+01    8.005810e-01
  3.015187e+01    7.726592e-01
  3.018362e+01    7.935744e-01
  3.021537e+01    8.072538e-01
  3.024712e+01    7.736222e-01
  3.027888e+01    7.760242e-01
  3.031063e+01    7.999511e-01
  3.034238e+01    7.774746e-01
  3.037413e+01    7.812105e-01
  3.040588e+01    7.944441e-01
  3.043763e+01    8.027058e-01
  3.046938e+01    7.620896e-01
  3.050113e+01    7.804796e-01
  3.053288e+01    7.952483e-01
  3.056464e+01    7.991255e-01
  3.059639e+01    7.937967e-01
  3.062814e+01    7.743162e-01
  3.065989e+01    7.939271e-01
  3.069164e+01    7.785493e-01
  3.072339e+01    7.977774e-01
  3.075514e+01    7.962241e-01
  3.078689e+01    7.798948e-01
  3.081865e+01    7.914942e-01
  3.085040e+01    8.123634e-01
  3.088215e+01    7.820138e-01
  3.091390e+01    7.816513e-01
  3.094565e+01    7.830492e-01
  3.097740e+01    7.972125e-01
  3.100915e+01    7.834479e-01
  3.104090e+01    7.941524e-01
  3.107265e+01    7.962664e-01
  3.110441e+01    7.846218e-01
  3.113616e+01    7.917184e-01
  3.116791e+01    8.025712e-01
  3.119966e+01    8.054869e-01
  3.123141e+01    8.008478e-01
  3.126316e+01    7.829285e-01
  3.129491e+01    8.036804e-01
  3.132666e+01    8.144729e-01
  3.135841e+01    8.114771e-01
  3.139017e+01    8.188573e-01
  3.142192e+01    8.282474e-01
  3.145367e+01    8.299654e-01
  3.148542e+01    8.327526e-01
  3.151717e+01    8.289897e-01
  3.154892e+01    8.528527e-01
  3.158067e+01    9.057252e-01
  3.161242e+01    8.849601e-01
  3.164418e+01    9.119238e-01
  3.167593e+01    9.712030e-01
  3.170768e+01    1.046406e+00
  3.173943e+01    1.123983e+00
  3.177118e+01    1.267757e+00
  3.180293e+01    1.474755e+00
  3.183468e+01    1.722667e+00
  3.186643e+01    2.005734e+00
  3.189818e+01    2.122803e+00
  3.192994e+01    2.041283e+00
  3.196169e+01    1.854703e+00
  3.199344e+01    1.587333e+00
  3.202519e+01    1.335260e+00
  3.205694e+01    1.172019e+00
  3.208869e+01    1.072217e+00
  3.212044e+01    9.886082e-01
  3.215219e+01    9.189162e-01
  3.218394e+01    9.039679e-01
  3.221570e+01    8.369429e-01
  3.224745e+01    8.459343e-01
  3.227920e+01    8.045653e-01
  3.231095e+01    8.008305e-01
  3.234270e+01    8.321013e-01
  3.237445e+01    7.885507e-01
  3.240620e+01    7.976718e-01
  3.243795e+01    7.777569e-01
  3.246970e+01    7.835743e-01
  3.250146e+01    7.783313e-01
  3.253321e+01    7.835237e-01
  3.254908e+01    7.887477e-01