File: XRD/Reaction conditions/2024-07-27_003_Ru-CGO-ex_Reaction_dwell_000023_data_000041.dat
# == pyFAI calibration ==
# Distance Sample to Detector: 0.4 m
# PONI: 9.750e-02, 1.135e-01 m
# Rotations: -0.000175 0.000000 -0.000000 rad
#
# == Fit2d calibration ==
# Distance Sample-beamCenter: 400.000 mm
# Center: x=1514.000, y=1300.000 pix
# Tilt: 0.010 deg  TiltPlanRot: 0.010 deg
#
# Detector Detector	 Spline= None	 PixelSize= 7.500e-05, 7.500e-05 m
#    Detector has a mask: False
#    Detector has a dark current: False
#    detector has a flat field: False
#
# Wavelength: 6.888e-11 m
# Mask applied: user provided
# Dark current applied: False
# Flat field applied: False
# Polarization factor: 0.99
# Normalization factor: 1.0
# --> /home/myspot/data/2024_07_Rosario/Ru-CGO-ex/2024-07-27_003_Ru-CGO-ex_Reaction_dwell_000023_data_000041.dat
#       q_nm^-1             I
  2.003187e-02    0.000000e+00
  5.178302e-02    7.387542e-02
  8.353417e-02    1.069997e-01
  1.152853e-01    3.946413e-02
  1.470365e-01    1.243953e-02
  1.787876e-01    4.845863e-02
  2.105388e-01    2.518616e-02
  2.422899e-01    2.980923e-02
  2.740411e-01    6.018990e-02
  3.057922e-01    6.732928e-02
  3.375433e-01    2.992481e-02
  3.692945e-01    3.059535e-02
  4.010456e-01    9.469088e-03
  4.327968e-01    1.929566e-02
  4.645479e-01    3.107246e-02
  4.962991e-01    4.210344e-02
  5.280502e-01    4.686518e-02
  5.598014e-01    3.842144e-02
  5.915525e-01    5.368061e-02
  6.233037e-01    6.742096e-02
  6.550548e-01    3.522933e-02
  6.868060e-01    3.986064e-02
  7.185571e-01    2.025905e-02
  7.503083e-01    4.814527e-02
  7.820594e-01    1.375653e-01
  8.138106e-01    2.602355e-01
  8.455617e-01    3.510329e-01
  8.773129e-01    4.815254e-01
  9.090640e-01    6.654532e-01
  9.408152e-01    8.535473e-01
  9.725663e-01    9.314652e-01
  1.004317e+00    1.114780e+00
  1.036069e+00    1.178886e+00
  1.067820e+00    1.401197e+00
  1.099571e+00    1.516270e+00
  1.131322e+00    1.565828e+00
  1.163073e+00    1.577917e+00
  1.194824e+00    1.696222e+00
  1.226575e+00    2.274328e+00
  1.258327e+00    2.334734e+00
  1.290078e+00    2.539064e+00
  1.321829e+00    2.779108e+00
  1.353580e+00    2.706001e+00
  1.385331e+00    2.860895e+00
  1.417082e+00    2.931665e+00
  1.448834e+00    2.971102e+00
  1.480585e+00    2.954740e+00
  1.512336e+00    3.317756e+00
  1.544087e+00    3.291606e+00
  1.575838e+00    3.162780e+00
  1.607589e+00    3.191405e+00
  1.639340e+00    3.075147e+00
  1.671092e+00    3.206623e+00
  1.702843e+00    3.140281e+00
  1.734594e+00    3.226452e+00
  1.766345e+00    3.137951e+00
  1.798096e+00    3.010350e+00
  1.829847e+00    3.158001e+00
  1.861598e+00    2.986723e+00
  1.893350e+00    3.165382e+00
  1.925101e+00    3.103657e+00
  1.956852e+00    2.996862e+00
  1.988603e+00    3.135183e+00
  2.020354e+00    3.083068e+00
  2.052105e+00    3.067081e+00
  2.083856e+00    3.082278e+00
  2.115608e+00    3.081639e+00
  2.147359e+00    3.098034e+00
  2.179110e+00    2.990311e+00
  2.210861e+00    3.080630e+00
  2.242612e+00    3.187386e+00
  2.274363e+00    3.158606e+00
  2.306115e+00    3.140238e+00
  2.337866e+00    3.038186e+00
  2.369617e+00    3.136923e+00
  2.401368e+00    3.141662e+00
  2.433119e+00    3.087397e+00
  2.464870e+00    3.186606e+00
  2.496621e+00    3.076642e+00
  2.528373e+00    3.229700e+00
  2.560124e+00    3.120854e+00
  2.591875e+00    3.305267e+00
  2.623626e+00    3.276809e+00
  2.655377e+00    3.215734e+00
  2.687128e+00    3.284367e+00
  2.718879e+00    3.232370e+00
  2.750631e+00    3.211832e+00
  2.782382e+00    3.215745e+00
  2.814133e+00    3.365147e+00
  2.845884e+00    3.272122e+00
  2.877635e+00    3.349186e+00
  2.909386e+00    3.364052e+00
  2.941137e+00    3.332256e+00
  2.972889e+00    3.375149e+00
  3.004640e+00    3.347926e+00
  3.036391e+00    3.371122e+00
  3.068142e+00    3.343595e+00
  3.099893e+00    3.375218e+00
  3.131644e+00    3.386314e+00
  3.163395e+00    3.408477e+00
  3.195147e+00    3.387158e+00
  3.226898e+00    3.340412e+00
  3.258649e+00    3.390568e+00
  3.290400e+00    3.378885e+00
  3.322151e+00    3.506932e+00
  3.353902e+00    3.482501e+00
  3.385654e+00    3.490617e+00
  3.417405e+00    3.461868e+00
  3.449156e+00    3.381312e+00
  3.480907e+00    3.482555e+00
  3.512658e+00    3.377759e+00
  3.544409e+00    3.451058e+00
  3.576160e+00    3.443082e+00
  3.607912e+00    3.418448e+00
  3.639663e+00    3.405581e+00
  3.671414e+00    3.497269e+00
  3.703165e+00    3.438840e+00
  3.734916e+00    3.443972e+00
  3.766667e+00    3.458596e+00
  3.798418e+00    3.569564e+00
  3.830170e+00    3.555320e+00
  3.861921e+00    3.565728e+00
  3.893672e+00    3.616985e+00
  3.925423e+00    3.516495e+00
  3.957174e+00    3.516718e+00
  3.988925e+00    3.515130e+00
  4.020676e+00    3.605151e+00
  4.052428e+00    3.532483e+00
  4.084179e+00    3.510054e+00
  4.115930e+00    3.501405e+00
  4.147681e+00    3.620195e+00
  4.179432e+00    3.538393e+00
  4.211183e+00    3.557010e+00
  4.242935e+00    3.630038e+00
  4.274686e+00    3.572517e+00
  4.306437e+00    3.679215e+00
  4.338188e+00    3.558765e+00
  4.369939e+00    3.662118e+00
  4.401690e+00    3.611707e+00
  4.433441e+00    3.527985e+00
  4.465193e+00    3.569003e+00
  4.496944e+00    3.609887e+00
  4.528695e+00    3.618091e+00
  4.560446e+00    3.607493e+00
  4.592197e+00    3.655163e+00
  4.623948e+00    3.522605e+00
  4.655699e+00    3.581861e+00
  4.687451e+00    3.631390e+00
  4.719202e+00    3.477690e+00
  4.750953e+00    3.717502e+00
  4.782704e+00    3.628985e+00
  4.814455e+00    3.635878e+00
  4.846206e+00    3.696072e+00
  4.877957e+00    3.633080e+00
  4.909709e+00    3.651899e+00
  4.941460e+00    3.678257e+00
  4.973211e+00    3.716765e+00
  5.004962e+00    3.610399e+00
  5.036713e+00    3.583126e+00
  5.068464e+00    3.717948e+00
  5.100216e+00    3.687623e+00
  5.131967e+00    3.599508e+00
  5.163718e+00    3.754011e+00
  5.195469e+00    3.641886e+00
  5.227220e+00    3.676601e+00
  5.258971e+00    3.729720e+00
  5.290722e+00    3.604849e+00
  5.322474e+00    3.688028e+00
  5.354225e+00    3.643929e+00
  5.385976e+00    3.795813e+00
  5.417727e+00    3.595865e+00
  5.449478e+00    3.717697e+00
  5.481229e+00    3.663000e+00
  5.512980e+00    3.630754e+00
  5.544732e+00    3.590380e+00
  5.576483e+00    3.670488e+00
  5.608234e+00    3.596710e+00
  5.639985e+00    3.619394e+00
  5.671736e+00    3.648892e+00
  5.703487e+00    3.505017e+00
  5.735238e+00    3.668378e+00
  5.766990e+00    3.558007e+00
  5.798741e+00    3.599451e+00
  5.830492e+00    3.512469e+00
  5.862243e+00    3.583931e+00
  5.893994e+00    3.557945e+00
  5.925745e+00    3.567808e+00
  5.957497e+00    3.556386e+00
  5.989248e+00    3.460176e+00
  6.020999e+00    3.494354e+00
  6.052750e+00    3.586048e+00
  6.084501e+00    3.529437e+00
  6.116252e+00    3.618948e+00
  6.148003e+00    3.631364e+00
  6.179755e+00    3.607132e+00
  6.211506e+00    3.503505e+00
  6.243257e+00    3.623442e+00
  6.275008e+00    3.599110e+00
  6.306759e+00    3.554320e+00
  6.338510e+00    3.627227e+00
  6.370261e+00    3.499746e+00
  6.402013e+00    3.618984e+00
  6.433764e+00    3.551825e+00
  6.465515e+00    3.575172e+00
  6.497266e+00    3.655798e+00
  6.529017e+00    3.605824e+00
  6.560768e+00    3.592153e+00
  6.592519e+00    3.555503e+00
  6.624271e+00    3.535436e+00
  6.656022e+00    3.458594e+00
  6.687773e+00    3.547238e+00
  6.719524e+00    3.510740e+00
  6.751275e+00    3.522188e+00
  6.783026e+00    3.510356e+00
  6.814777e+00    3.504974e+00
  6.846529e+00    3.557296e+00
  6.878280e+00    3.503590e+00
  6.910031e+00    3.465886e+00
  6.941782e+00    3.504541e+00
  6.973533e+00    3.582211e+00
  7.005284e+00    3.525769e+00
  7.037036e+00    3.515641e+00
  7.068787e+00    3.540256e+00
  7.100538e+00    3.501778e+00
  7.132289e+00    3.579895e+00
  7.164040e+00    3.506511e+00
  7.195791e+00    3.552431e+00
  7.227542e+00    3.535260e+00
  7.259294e+00    3.470937e+00
  7.291045e+00    3.531688e+00
  7.322796e+00    3.543839e+00
  7.354547e+00    3.520361e+00
  7.386298e+00    3.555119e+00
  7.418049e+00    3.581424e+00
  7.449800e+00    3.526867e+00
  7.481552e+00    3.534381e+00
  7.513303e+00    3.411069e+00
  7.545054e+00    3.452833e+00
  7.576805e+00    3.462719e+00
  7.608556e+00    3.428214e+00
  7.640307e+00    3.437657e+00
  7.672058e+00    3.476800e+00
  7.703810e+00    3.492031e+00
  7.735561e+00    3.371857e+00
  7.767312e+00    3.457746e+00
  7.799063e+00    3.492244e+00
  7.830814e+00    3.464469e+00
  7.862565e+00    3.469000e+00
  7.894317e+00    3.423536e+00
  7.926068e+00    3.506899e+00
  7.957819e+00    3.443768e+00
  7.989570e+00    3.381312e+00
  8.021321e+00    3.427063e+00
  8.053072e+00    3.453428e+00
  8.084823e+00    3.463681e+00
  8.116575e+00    3.486569e+00
  8.148326e+00    3.485857e+00
  8.180077e+00    3.446399e+00
  8.211828e+00    3.500343e+00
  8.243579e+00    3.403254e+00
  8.275330e+00    3.476558e+00
  8.307081e+00    3.401098e+00
  8.338833e+00    3.386523e+00
  8.370584e+00    3.386860e+00
  8.402335e+00    3.307040e+00
  8.434086e+00    3.359277e+00
  8.465837e+00    3.355988e+00
  8.497588e+00    3.416687e+00
  8.529339e+00    3.319913e+00
  8.561091e+00    3.313644e+00
  8.592842e+00    3.371212e+00
  8.624593e+00    3.414480e+00
  8.656344e+00    3.332779e+00
  8.688095e+00    3.323268e+00
  8.719846e+00    3.386264e+00
  8.751598e+00    3.359007e+00
  8.783349e+00    3.361383e+00
  8.815100e+00    3.260882e+00
  8.846851e+00    3.283287e+00
  8.878602e+00    3.398961e+00
  8.910353e+00    3.364041e+00
  8.942104e+00    3.275027e+00
  8.973856e+00    3.272688e+00
  9.005607e+00    3.322835e+00
  9.037358e+00    3.231231e+00
  9.069109e+00    3.301024e+00
  9.100860e+00    3.324493e+00
  9.132611e+00    3.201894e+00
  9.164362e+00    3.222572e+00
  9.196114e+00    3.254062e+00
  9.227865e+00    3.285762e+00
  9.259616e+00    3.294736e+00
  9.291367e+00    3.211631e+00
  9.323118e+00    3.220834e+00
  9.354869e+00    3.214487e+00
  9.386620e+00    3.220618e+00
  9.418372e+00    3.239554e+00
  9.450123e+00    3.273083e+00
  9.481874e+00    3.204846e+00
  9.513625e+00    3.264340e+00
  9.545376e+00    3.249055e+00
  9.577127e+00    3.258355e+00
  9.608878e+00    3.233075e+00
  9.640630e+00    3.228151e+00
  9.672381e+00    3.260932e+00
  9.704132e+00    3.158364e+00
  9.735883e+00    3.154251e+00
  9.767634e+00    3.122565e+00
  9.799385e+00    3.223040e+00
  9.831137e+00    3.197592e+00
  9.862888e+00    3.184408e+00
  9.894639e+00    3.148860e+00
  9.926390e+00    3.147526e+00
  9.958141e+00    3.104789e+00
  9.989892e+00    3.143408e+00
  1.002164e+01    3.141613e+00
  1.005339e+01    3.160768e+00
  1.008515e+01    3.130016e+00
  1.011690e+01    3.124766e+00
  1.014865e+01    3.072535e+00
  1.018040e+01    3.126539e+00
  1.021215e+01    3.099332e+00
  1.024390e+01    3.064701e+00
  1.027565e+01    3.056670e+00
  1.030740e+01    3.138902e+00
  1.033915e+01    3.023551e+00
  1.037091e+01    3.028280e+00
  1.040266e+01    3.021235e+00
  1.043441e+01    3.025942e+00
  1.046616e+01    2.998375e+00
  1.049791e+01    3.027153e+00
  1.052966e+01    2.954796e+00
  1.056141e+01    3.009862e+00
  1.059316e+01    2.966545e+00
  1.062492e+01    3.001338e+00
  1.065667e+01    2.933558e+00
  1.068842e+01    2.968953e+00
  1.072017e+01    2.992380e+00
  1.075192e+01    2.910506e+00
  1.078367e+01    2.948508e+00
  1.081542e+01    2.967076e+00
  1.084717e+01    2.890790e+00
  1.087892e+01    2.948059e+00
  1.091068e+01    2.903953e+00
  1.094243e+01    2.911041e+00
  1.097418e+01    2.915609e+00
  1.100593e+01    2.940463e+00
  1.103768e+01    2.932934e+00
  1.106943e+01    2.868805e+00
  1.110118e+01    2.943961e+00
  1.113293e+01    2.866503e+00
  1.116468e+01    2.883924e+00
  1.119644e+01    2.904182e+00
  1.122819e+01    2.886370e+00
  1.125994e+01    2.845236e+00
  1.129169e+01    2.818348e+00
  1.132344e+01    2.801752e+00
  1.135519e+01    2.871295e+00
  1.138694e+01    2.874913e+00
  1.141869e+01    2.849989e+00
  1.145045e+01    2.774896e+00
  1.148220e+01    2.776426e+00
  1.151395e+01    2.815417e+00
  1.154570e+01    2.810583e+00
  1.157745e+01    2.797412e+00
  1.160920e+01    2.775637e+00
  1.164095e+01    2.813918e+00
  1.167270e+01    2.770833e+00
  1.170445e+01    2.799976e+00
  1.173621e+01    2.743775e+00
  1.176796e+01    2.808783e+00
  1.179971e+01    2.733468e+00
  1.183146e+01    2.673221e+00
  1.186321e+01    2.741881e+00
  1.189496e+01    2.676332e+00
  1.192671e+01    2.716289e+00
  1.195846e+01    2.684361e+00
  1.199021e+01    2.716675e+00
  1.202197e+01    2.743367e+00
  1.205372e+01    2.716924e+00
  1.208547e+01    2.759430e+00
  1.211722e+01    2.795839e+00
  1.214897e+01    2.728630e+00
  1.218072e+01    2.729190e+00
  1.221247e+01    2.682716e+00
  1.224422e+01    2.672716e+00
  1.227597e+01    2.655901e+00
  1.230773e+01    2.687869e+00
  1.233948e+01    2.688961e+00
  1.237123e+01    2.706835e+00
  1.240298e+01    2.686182e+00
  1.243473e+01    2.685439e+00
  1.246648e+01    2.687959e+00
  1.249823e+01    2.727841e+00
  1.252998e+01    2.743228e+00
  1.256174e+01    2.801033e+00
  1.259349e+01    2.774469e+00
  1.262524e+01    2.758951e+00
  1.265699e+01    2.764075e+00
  1.268874e+01    2.848366e+00
  1.272049e+01    2.903721e+00
  1.275224e+01    2.889792e+00
  1.278399e+01    3.000855e+00
  1.281574e+01    3.042922e+00
  1.284750e+01    3.172525e+00
  1.287925e+01    3.388255e+00
  1.291100e+01    3.670714e+00
  1.294275e+01    4.129592e+00
  1.297450e+01    4.806465e+00
  1.300625e+01    5.950212e+00
  1.303800e+01    7.879927e+00
  1.306975e+01    1.031384e+01
  1.310150e+01    1.280609e+01
  1.313326e+01    1.490157e+01
  1.316501e+01    1.637553e+01
  1.319676e+01    1.566723e+01
  1.322851e+01    1.253323e+01
  1.326026e+01    9.054795e+00
  1.329201e+01    6.701959e+00
  1.332376e+01    5.348972e+00
  1.335551e+01    4.410151e+00
  1.338727e+01    3.827445e+00
  1.341902e+01    3.449186e+00
  1.345077e+01    3.254144e+00
  1.348252e+01    3.014508e+00
  1.351427e+01    2.939148e+00
  1.354602e+01    2.812229e+00
  1.357777e+01    2.765691e+00
  1.360952e+01    2.722506e+00
  1.364127e+01    2.633252e+00
  1.367303e+01    2.565500e+00
  1.370478e+01    2.537045e+00
  1.373653e+01    2.511047e+00
  1.376828e+01    2.498810e+00
  1.380003e+01    2.507485e+00
  1.383178e+01    2.441774e+00
  1.386353e+01    2.440599e+00
  1.389528e+01    2.465642e+00
  1.392703e+01    2.388715e+00
  1.395879e+01    2.417108e+00
  1.399054e+01    2.368464e+00
  1.402229e+01    2.386644e+00
  1.405404e+01    2.371567e+00
  1.408579e+01    2.352709e+00
  1.411754e+01    2.353095e+00
  1.414929e+01    2.312069e+00
  1.418104e+01    2.293866e+00
  1.421279e+01    2.266271e+00
  1.424455e+01    2.312872e+00
  1.427630e+01    2.291078e+00
  1.430805e+01    2.289451e+00
  1.433980e+01    2.283744e+00
  1.437155e+01    2.279386e+00
  1.440330e+01    2.219929e+00
  1.443505e+01    2.267249e+00
  1.446680e+01    2.286266e+00
  1.449856e+01    2.260742e+00
  1.453031e+01    2.229336e+00
  1.456206e+01    2.220450e+00
  1.459381e+01    2.223342e+00
  1.462556e+01    2.213023e+00
  1.465731e+01    2.248682e+00
  1.468906e+01    2.211010e+00
  1.472081e+01    2.212988e+00
  1.475256e+01    2.221455e+00
  1.478432e+01    2.209567e+00
  1.481607e+01    2.193023e+00
  1.484782e+01    2.192407e+00
  1.487957e+01    2.173277e+00
  1.491132e+01    2.266682e+00
  1.494307e+01    2.302175e+00
  1.497482e+01    2.352173e+00
  1.500657e+01    2.449162e+00
  1.503832e+01    2.597791e+00
  1.507008e+01    2.869385e+00
  1.510183e+01    3.219700e+00
  1.513358e+01    3.870367e+00
  1.516533e+01    4.585793e+00
  1.519708e+01    5.273227e+00
  1.522883e+01    5.629436e+00
  1.526058e+01    5.854216e+00
  1.529233e+01    5.437205e+00
  1.532409e+01    4.647603e+00
  1.535584e+01    3.752746e+00
  1.538759e+01    3.133337e+00
  1.541934e+01    2.761762e+00
  1.545109e+01    2.568421e+00
  1.548284e+01    2.364616e+00
  1.551459e+01    2.299231e+00
  1.554634e+01    2.193901e+00
  1.557809e+01    2.121805e+00
  1.560985e+01    2.104888e+00
  1.564160e+01    2.039643e+00
  1.567335e+01    1.986536e+00
  1.570510e+01    1.995630e+00
  1.573685e+01    1.983261e+00
  1.576860e+01    1.937114e+00
  1.580035e+01    1.955228e+00
  1.583210e+01    1.929008e+00
  1.586385e+01    1.948667e+00
  1.589561e+01    1.923512e+00
  1.592736e+01    1.892386e+00
  1.595911e+01    1.898331e+00
  1.599086e+01    1.870493e+00
  1.602261e+01    1.873663e+00
  1.605436e+01    1.836832e+00
  1.608611e+01    1.853895e+00
  1.611786e+01    1.821678e+00
  1.614961e+01    1.864452e+00
  1.618137e+01    1.830149e+00
  1.621312e+01    1.823511e+00
  1.624487e+01    1.821542e+00
  1.627662e+01    1.826321e+00
  1.630837e+01    1.784106e+00
  1.634012e+01    1.805668e+00
  1.637187e+01    1.805212e+00
  1.640362e+01    1.821048e+00
  1.643538e+01    1.778456e+00
  1.646713e+01    1.780162e+00
  1.649888e+01    1.771826e+00
  1.653063e+01    1.736345e+00
  1.656238e+01    1.723564e+00
  1.659413e+01    1.729903e+00
  1.662588e+01    1.720738e+00
  1.665763e+01    1.743008e+00
  1.668938e+01    1.709972e+00
  1.672114e+01    1.717174e+00
  1.675289e+01    1.708722e+00
  1.678464e+01    1.711228e+00
  1.681639e+01    1.699395e+00
  1.684814e+01    1.717617e+00
  1.687989e+01    1.712560e+00
  1.691164e+01    1.711194e+00
  1.694339e+01    1.706323e+00
  1.697514e+01    1.675027e+00
  1.700690e+01    1.692112e+00
  1.703865e+01    1.670078e+00
  1.707040e+01    1.646918e+00
  1.710215e+01    1.664795e+00
  1.713390e+01    1.650270e+00
  1.716565e+01    1.658713e+00
  1.719740e+01    1.674843e+00
  1.722915e+01    1.628183e+00
  1.726091e+01    1.615349e+00
  1.729266e+01    1.604365e+00
  1.732441e+01    1.602183e+00
  1.735616e+01    1.594973e+00
  1.738791e+01    1.628669e+00
  1.741966e+01    1.611492e+00
  1.745141e+01    1.623713e+00
  1.748316e+01    1.598872e+00
  1.751491e+01    1.638211e+00
  1.754667e+01    1.566913e+00
  1.757842e+01    1.572056e+00
  1.761017e+01    1.562332e+00
  1.764192e+01    1.546062e+00
  1.767367e+01    1.540757e+00
  1.770542e+01    1.549017e+00
  1.773717e+01    1.576797e+00
  1.776892e+01    1.553738e+00
  1.780067e+01    1.550032e+00
  1.783243e+01    1.533790e+00
  1.786418e+01    1.536681e+00
  1.789593e+01    1.564931e+00
  1.792768e+01    1.514081e+00
  1.795943e+01    1.503299e+00
  1.799118e+01    1.529204e+00
  1.802293e+01    1.510051e+00
  1.805468e+01    1.466296e+00
  1.808643e+01    1.498178e+00
  1.811819e+01    1.495373e+00
  1.814994e+01    1.508981e+00
  1.818169e+01    1.473780e+00
  1.821344e+01    1.504960e+00
  1.824519e+01    1.508824e+00
  1.827694e+01    1.475594e+00
  1.830869e+01    1.474284e+00
  1.834044e+01    1.463613e+00
  1.837220e+01    1.447324e+00
  1.840395e+01    1.485268e+00
  1.843570e+01    1.452382e+00
  1.846745e+01    1.413730e+00
  1.849920e+01    1.439467e+00
  1.853095e+01    1.409172e+00
  1.856270e+01    1.399963e+00
  1.859445e+01    1.443440e+00
  1.862620e+01    1.453206e+00
  1.865796e+01    1.412765e+00
  1.868971e+01    1.408193e+00
  1.872146e+01    1.435272e+00
  1.875321e+01    1.406821e+00
  1.878496e+01    1.414754e+00
  1.881671e+01    1.370550e+00
  1.884846e+01    1.437892e+00
  1.888021e+01    1.369849e+00
  1.891196e+01    1.387141e+00
  1.894372e+01    1.380610e+00
  1.897547e+01    1.383708e+00
  1.900722e+01    1.370014e+00
  1.903897e+01    1.389400e+00
  1.907072e+01    1.372896e+00
  1.910247e+01    1.403093e+00
  1.913422e+01    1.359924e+00
  1.916597e+01    1.363273e+00
  1.919773e+01    1.380306e+00
  1.922948e+01    1.343745e+00
  1.926123e+01    1.352409e+00
  1.929298e+01    1.347248e+00
  1.932473e+01    1.379686e+00
  1.935648e+01    1.352575e+00
  1.938823e+01    1.351706e+00
  1.941998e+01    1.337314e+00
  1.945173e+01    1.325307e+00
  1.948349e+01    1.318164e+00
  1.951524e+01    1.327189e+00
  1.954699e+01    1.318201e+00
  1.957874e+01    1.326762e+00
  1.961049e+01    1.327243e+00
  1.964224e+01    1.322616e+00
  1.967399e+01    1.288226e+00
  1.970574e+01    1.317373e+00
  1.973749e+01    1.312796e+00
  1.976925e+01    1.317234e+00
  1.980100e+01    1.286257e+00
  1.983275e+01    1.289871e+00
  1.986450e+01    1.291236e+00
  1.989625e+01    1.329275e+00
  1.992800e+01    1.267905e+00
  1.995975e+01    1.257706e+00
  1.999150e+01    1.310403e+00
  2.002325e+01    1.259173e+00
  2.005501e+01    1.298503e+00
  2.008676e+01    1.277298e+00
  2.011851e+01    1.259658e+00
  2.015026e+01    1.247486e+00
  2.018201e+01    1.249381e+00
  2.021376e+01    1.272635e+00
  2.024551e+01    1.258953e+00
  2.027726e+01    1.258275e+00
  2.030902e+01    1.247772e+00
  2.034077e+01    1.302425e+00
  2.037252e+01    1.273827e+00
  2.040427e+01    1.261881e+00
  2.043602e+01    1.267705e+00
  2.046777e+01    1.252968e+00
  2.049952e+01    1.233428e+00
  2.053127e+01    1.246226e+00
  2.056302e+01    1.251915e+00
  2.059478e+01    1.251096e+00
  2.062653e+01    1.238379e+00
  2.065828e+01    1.252973e+00
  2.069003e+01    1.235898e+00
  2.072178e+01    1.220292e+00
  2.075353e+01    1.217295e+00
  2.078528e+01    1.218902e+00
  2.081703e+01    1.209188e+00
  2.084878e+01    1.233397e+00
  2.088054e+01    1.202988e+00
  2.091229e+01    1.223126e+00
  2.094404e+01    1.232908e+00
  2.097579e+01    1.225800e+00
  2.100754e+01    1.222990e+00
  2.103929e+01    1.225526e+00
  2.107104e+01    1.210387e+00
  2.110279e+01    1.245284e+00
  2.113455e+01    1.246236e+00
  2.116630e+01    1.252567e+00
  2.119805e+01    1.241634e+00
  2.122980e+01    1.251140e+00
  2.126155e+01    1.238814e+00
  2.129330e+01    1.290225e+00
  2.132505e+01    1.247900e+00
  2.135680e+01    1.299776e+00
  2.138855e+01    1.278461e+00
  2.142031e+01    1.343053e+00
  2.145206e+01    1.350955e+00
  2.148381e+01    1.378707e+00
  2.151556e+01    1.429256e+00
  2.154731e+01    1.523288e+00
  2.157906e+01    1.645928e+00
  2.161081e+01    1.770236e+00
  2.164256e+01    2.004549e+00
  2.167431e+01    2.348022e+00
  2.170607e+01    2.856243e+00
  2.173782e+01    3.630590e+00
  2.176957e+01    4.684342e+00
  2.180132e+01    5.985203e+00
  2.183307e+01    7.266810e+00
  2.186482e+01    8.481249e+00
  2.189657e+01    8.932891e+00
  2.192832e+01    8.185321e+00
  2.196007e+01    6.557145e+00
  2.199183e+01    4.770345e+00
  2.202358e+01    3.612768e+00
  2.205533e+01    2.844499e+00
  2.208708e+01    2.370089e+00
  2.211883e+01    1.961105e+00
  2.215058e+01    1.771661e+00
  2.218233e+01    1.601539e+00
  2.221408e+01    1.497495e+00
  2.224584e+01    1.418706e+00
  2.227759e+01    1.351787e+00
  2.230934e+01    1.334118e+00
  2.234109e+01    1.251021e+00
  2.237284e+01    1.240830e+00
  2.240459e+01    1.208727e+00
  2.243634e+01    1.179859e+00
  2.246809e+01    1.157541e+00
  2.249984e+01    1.149309e+00
  2.253160e+01    1.177071e+00
  2.256335e+01    1.135183e+00
  2.259510e+01    1.099038e+00
  2.262685e+01    1.096242e+00
  2.265860e+01    1.105263e+00
  2.269035e+01    1.089670e+00
  2.272210e+01    1.073198e+00
  2.275385e+01    1.089677e+00
  2.278560e+01    1.055361e+00
  2.281736e+01    1.045141e+00
  2.284911e+01    1.047715e+00
  2.288086e+01    1.041344e+00
  2.291261e+01    1.027805e+00
  2.294436e+01    1.057982e+00
  2.297611e+01    1.026922e+00
  2.300786e+01    1.045023e+00
  2.303961e+01    1.002024e+00
  2.307137e+01    1.001169e+00
  2.310312e+01    1.036482e+00
  2.313487e+01    1.003985e+00
  2.316662e+01    9.902669e-01
  2.319837e+01    1.008149e+00
  2.323012e+01    9.993432e-01
  2.326187e+01    9.907135e-01
  2.329362e+01    9.995241e-01
  2.332537e+01    9.794232e-01
  2.335713e+01    9.658420e-01
  2.338888e+01    9.712149e-01
  2.342063e+01    9.880875e-01
  2.345238e+01    9.653265e-01
  2.348413e+01    9.601384e-01
  2.351588e+01    9.592040e-01
  2.354763e+01    9.550005e-01
  2.357938e+01    9.483476e-01
  2.361113e+01    9.641076e-01
  2.364289e+01    9.757058e-01
  2.367464e+01    9.395632e-01
  2.370639e+01    9.361740e-01
  2.373814e+01    9.385709e-01
  2.376989e+01    9.388086e-01
  2.380164e+01    9.250533e-01
  2.383339e+01    9.222942e-01
  2.386514e+01    9.298534e-01
  2.389689e+01    9.221070e-01
  2.392865e+01    9.175732e-01
  2.396040e+01    9.320692e-01
  2.399215e+01    9.118167e-01
  2.402390e+01    9.024081e-01
  2.405565e+01    8.989373e-01
  2.408740e+01    9.046140e-01
  2.411915e+01    9.107402e-01
  2.415090e+01    8.844067e-01
  2.418266e+01    8.845276e-01
  2.421441e+01    8.970498e-01
  2.424616e+01    8.973825e-01
  2.427791e+01    8.973717e-01
  2.430966e+01    8.773942e-01
  2.434141e+01    9.020542e-01
  2.437316e+01    9.005062e-01
  2.440491e+01    8.968783e-01
  2.443666e+01    8.862588e-01
  2.446842e+01    9.040886e-01
  2.450017e+01    8.902876e-01
  2.453192e+01    9.197889e-01
  2.456367e+01    8.810099e-01
  2.459542e+01    8.880247e-01
  2.462717e+01    9.168690e-01
  2.465892e+01    8.786001e-01
  2.469067e+01    8.939316e-01
  2.472242e+01    8.982898e-01
  2.475418e+01    8.965421e-01
  2.478593e+01    8.828622e-01
  2.481768e+01    9.058049e-01
  2.484943e+01    8.972018e-01
  2.488118e+01    8.984770e-01
  2.491293e+01    8.899567e-01
  2.494468e+01    9.102289e-01
  2.497643e+01    8.999010e-01
  2.500819e+01    9.018108e-01
  2.503994e+01    8.959644e-01
  2.507169e+01    9.168718e-01
  2.510344e+01    9.128734e-01
  2.513519e+01    9.179316e-01
  2.516694e+01    9.294996e-01
  2.519869e+01    9.481227e-01
  2.523044e+01    9.213927e-01
  2.526219e+01    9.325234e-01
  2.529395e+01    9.529189e-01
  2.532570e+01    9.693439e-01
  2.535745e+01    9.812321e-01
  2.538920e+01    9.734215e-01
  2.542095e+01    1.026672e+00
  2.545270e+01    1.013769e+00
  2.548445e+01    1.072562e+00
  2.551620e+01    1.085531e+00
  2.554795e+01    1.114518e+00
  2.557971e+01    1.164301e+00
  2.561146e+01    1.227199e+00
  2.564321e+01    1.327547e+00
  2.567496e+01    1.446975e+00
  2.570671e+01    1.613083e+00
  2.573846e+01    1.906526e+00
  2.577021e+01    2.269408e+00
  2.580196e+01    2.874781e+00
  2.583371e+01    3.731912e+00
  2.586547e+01    4.754276e+00
  2.589722e+01    5.937331e+00
  2.592897e+01    6.920343e+00
  2.596072e+01    7.145835e+00
  2.599247e+01    6.521511e+00
  2.602422e+01    5.213928e+00
  2.605597e+01    3.925374e+00
  2.608772e+01    2.966828e+00
  2.611948e+01    2.318078e+00
  2.615123e+01    1.942290e+00
  2.618298e+01    1.685076e+00
  2.621473e+01    1.468126e+00
  2.624648e+01    1.327292e+00
  2.627823e+01    1.247952e+00
  2.630998e+01    1.175868e+00
  2.634173e+01    1.109733e+00
  2.637348e+01    1.075030e+00
  2.640524e+01    1.065751e+00
  2.643699e+01    1.047329e+00
  2.646874e+01    1.025911e+00
  2.650049e+01    1.022488e+00
  2.653224e+01    9.983147e-01
  2.656399e+01    9.956525e-01
  2.659574e+01    9.835998e-01
  2.662749e+01    9.838495e-01
  2.665924e+01    9.608675e-01
  2.669100e+01    9.731438e-01
  2.672275e+01    9.630660e-01
  2.675450e+01    9.677842e-01
  2.678625e+01    9.667114e-01
  2.681800e+01    9.768263e-01
  2.684975e+01    9.701149e-01
  2.688150e+01    9.831269e-01
  2.691325e+01    1.006894e+00
  2.694501e+01    1.022149e+00
  2.697676e+01    1.066059e+00
  2.700851e+01    1.109788e+00
  2.704026e+01    1.193407e+00
  2.707201e+01    1.330637e+00
  2.710376e+01    1.530997e+00
  2.713551e+01    1.778880e+00
  2.716726e+01    1.996120e+00
  2.719901e+01    2.135217e+00
  2.723077e+01    2.162999e+00
  2.726252e+01    1.960430e+00
  2.729427e+01    1.675215e+00
  2.732602e+01    1.442426e+00
  2.735777e+01    1.264360e+00
  2.738952e+01    1.170203e+00
  2.742127e+01    1.097905e+00
  2.745302e+01    1.025331e+00
  2.748477e+01    1.010572e+00
  2.751653e+01    9.580204e-01
  2.754828e+01    9.758493e-01
  2.758003e+01    9.358200e-01
  2.761178e+01    9.207569e-01
  2.764353e+01    9.248727e-01
  2.767528e+01    9.107991e-01
  2.770703e+01    9.001808e-01
  2.773878e+01    9.215363e-01
  2.777054e+01    8.932813e-01
  2.780229e+01    9.187903e-01
  2.783404e+01    8.722728e-01
  2.786579e+01    8.864262e-01
  2.789754e+01    8.704618e-01
  2.792929e+01    8.790934e-01
  2.796104e+01    8.901599e-01
  2.799279e+01    8.595766e-01
  2.802454e+01    8.412151e-01
  2.805630e+01    8.944788e-01
  2.808805e+01    8.516607e-01
  2.811980e+01    8.717194e-01
  2.815155e+01    8.556881e-01
  2.818330e+01    8.777023e-01
  2.821505e+01    8.647967e-01
  2.824680e+01    8.586521e-01
  2.827855e+01    8.692377e-01
  2.831030e+01    8.529348e-01
  2.834206e+01    8.475035e-01
  2.837381e+01    8.696210e-01
  2.840556e+01    8.393665e-01
  2.843731e+01    8.513799e-01
  2.846906e+01    8.599365e-01
  2.850081e+01    8.299187e-01
  2.853256e+01    8.399938e-01
  2.856431e+01    8.341689e-01
  2.859606e+01    8.312545e-01
  2.862782e+01    8.182596e-01
  2.865957e+01    8.456829e-01
  2.869132e+01    8.388268e-01
  2.872307e+01    8.245001e-01
  2.875482e+01    8.223893e-01
  2.878657e+01    8.417602e-01
  2.881832e+01    8.177570e-01
  2.885007e+01    8.620918e-01
  2.888183e+01    8.417395e-01
  2.891358e+01    8.289561e-01
  2.894533e+01    8.263705e-01
  2.897708e+01    8.271769e-01
  2.900883e+01    8.247181e-01
  2.904058e+01    8.246738e-01
  2.907233e+01    8.229007e-01
  2.910408e+01    8.059072e-01
  2.913583e+01    8.272479e-01
  2.916759e+01    8.266753e-01
  2.919934e+01    8.022652e-01
  2.923109e+01    8.299587e-01
  2.926284e+01    8.230159e-01
  2.929459e+01    8.121554e-01
  2.932634e+01    8.110006e-01
  2.935809e+01    8.349676e-01
  2.938984e+01    8.274140e-01
  2.942159e+01    8.129897e-01
  2.945335e+01    8.165081e-01
  2.948510e+01    8.208041e-01
  2.951685e+01    8.137521e-01
  2.954860e+01    7.992440e-01
  2.958035e+01    8.109612e-01
  2.961210e+01    7.885031e-01
  2.964385e+01    7.959235e-01
  2.967560e+01    8.072154e-01
  2.970736e+01    8.063566e-01
  2.973911e+01    7.999923e-01
  2.977086e+01    8.169680e-01
  2.980261e+01    8.225815e-01
  2.983436e+01    8.106658e-01
  2.986611e+01    7.842238e-01
  2.989786e+01    7.928950e-01
  2.992961e+01    7.912075e-01
  2.996136e+01    7.928875e-01
  2.999312e+01    7.903361e-01
  3.002487e+01    8.108686e-01
  3.005662e+01    8.219882e-01
  3.008837e+01    7.889461e-01
  3.012012e+01    7.993522e-01
  3.015187e+01    7.974002e-01
  3.018362e+01    7.898408e-01
  3.021537e+01    7.927569e-01
  3.024712e+01    7.978248e-01
  3.027888e+01    7.943261e-01
  3.031063e+01    7.925643e-01
  3.034238e+01    8.071610e-01
  3.037413e+01    7.796993e-01
  3.040588e+01    7.795289e-01
  3.043763e+01    8.030254e-01
  3.046938e+01    8.087621e-01
  3.050113e+01    7.659940e-01
  3.053288e+01    7.816412e-01
  3.056464e+01    7.694955e-01
  3.059639e+01    7.875713e-01
  3.062814e+01    7.604607e-01
  3.065989e+01    7.732714e-01
  3.069164e+01    7.941859e-01
  3.072339e+01    7.800094e-01
  3.075514e+01    7.812950e-01
  3.078689e+01    7.951803e-01
  3.081865e+01    7.872619e-01
  3.085040e+01    8.002519e-01
  3.088215e+01    7.898200e-01
  3.091390e+01    7.973660e-01
  3.094565e+01    7.882553e-01
  3.097740e+01    7.773477e-01
  3.100915e+01    7.749181e-01
  3.104090e+01    7.865787e-01
  3.107265e+01    7.851089e-01
  3.110441e+01    7.931100e-01
  3.113616e+01    8.013635e-01
  3.116791e+01    7.904438e-01
  3.119966e+01    8.001699e-01
  3.123141e+01    7.903861e-01
  3.126316e+01    8.176888e-01
  3.129491e+01    8.004872e-01
  3.132666e+01    8.166412e-01
  3.135841e+01    8.083501e-01
  3.139017e+01    8.195805e-01
  3.142192e+01    8.264354e-01
  3.145367e+01    8.034041e-01
  3.148542e+01    8.452334e-01
  3.151717e+01    8.293546e-01
  3.154892e+01    8.704869e-01
  3.158067e+01    8.603909e-01
  3.161242e+01    8.941023e-01
  3.164418e+01    9.236615e-01
  3.167593e+01    9.742564e-01
  3.170768e+01    1.012588e+00
  3.173943e+01    1.125692e+00
  3.177118e+01    1.266153e+00
  3.180293e+01    1.485749e+00
  3.183468e+01    1.723003e+00
  3.186643e+01    1.994512e+00
  3.189818e+01    2.099763e+00
  3.192994e+01    2.063778e+00
  3.196169e+01    1.812373e+00
  3.199344e+01    1.539641e+00
  3.202519e+01    1.320798e+00
  3.205694e+01    1.175195e+00
  3.208869e+01    1.043512e+00
  3.212044e+01    9.597420e-01
  3.215219e+01    9.011380e-01
  3.218394e+01    8.640083e-01
  3.221570e+01    8.540014e-01
  3.224745e+01    8.302845e-01
  3.227920e+01    8.330423e-01
  3.231095e+01    8.327336e-01
  3.234270e+01    8.098758e-01
  3.237445e+01    8.016996e-01
  3.240620e+01    7.961614e-01
  3.243795e+01    7.981233e-01
  3.246970e+01    7.790903e-01
  3.250146e+01    7.705528e-01
  3.253321e+01    7.646115e-01
  3.254908e+01    7.686670e-01