File: XRD/Reaction conditions/2024-07-27_003_Ru-CGO-ex_Reaction_dwell_000023_data_000096.dat
# == pyFAI calibration ==
# Distance Sample to Detector: 0.4 m
# PONI: 9.750e-02, 1.135e-01 m
# Rotations: -0.000175 0.000000 -0.000000 rad
#
# == Fit2d calibration ==
# Distance Sample-beamCenter: 400.000 mm
# Center: x=1514.000, y=1300.000 pix
# Tilt: 0.010 deg  TiltPlanRot: 0.010 deg
#
# Detector Detector	 Spline= None	 PixelSize= 7.500e-05, 7.500e-05 m
#    Detector has a mask: False
#    Detector has a dark current: False
#    detector has a flat field: False
#
# Wavelength: 6.888e-11 m
# Mask applied: user provided
# Dark current applied: False
# Flat field applied: False
# Polarization factor: 0.99
# Normalization factor: 1.0
# --> /home/myspot/data/2024_07_Rosario/Ru-CGO-ex/2024-07-27_003_Ru-CGO-ex_Reaction_dwell_000023_data_000096.dat
#       q_nm^-1             I
  2.003187e-02    7.712225e-02
  5.178302e-02    1.424769e-01
  8.353417e-02    2.242142e-01
  1.152853e-01    9.321897e-02
  1.470365e-01    5.148045e-02
  1.787876e-01    1.161120e-02
  2.105388e-01    5.386571e-02
  2.422899e-01    9.265777e-02
  2.740411e-01    2.461519e-02
  3.057922e-01    1.499506e-02
  3.375433e-01    5.547900e-02
  3.692945e-01    2.349073e-02
  4.010456e-01    4.126601e-02
  4.327968e-01    4.592630e-02
  4.645479e-01    4.670649e-02
  4.962991e-01    4.024417e-02
  5.280502e-01    3.810587e-02
  5.598014e-01    3.061665e-02
  5.915525e-01    4.504985e-02
  6.233037e-01    2.494452e-02
  6.550548e-01    3.598719e-02
  6.868060e-01    3.128745e-02
  7.185571e-01    3.623899e-02
  7.503083e-01    6.410076e-02
  7.820594e-01    1.192959e-01
  8.138106e-01    1.881131e-01
  8.455617e-01    3.762101e-01
  8.773129e-01    4.836127e-01
  9.090640e-01    6.091191e-01
  9.408152e-01    8.437560e-01
  9.725663e-01    1.080079e+00
  1.004317e+00    1.153383e+00
  1.036069e+00    1.377243e+00
  1.067820e+00    1.446543e+00
  1.099571e+00    1.413861e+00
  1.131322e+00    1.693855e+00
  1.163073e+00    1.722693e+00
  1.194824e+00    1.731709e+00
  1.226575e+00    2.224601e+00
  1.258327e+00    2.417130e+00
  1.290078e+00    2.598659e+00
  1.321829e+00    2.936903e+00
  1.353580e+00    2.766869e+00
  1.385331e+00    2.728187e+00
  1.417082e+00    2.807284e+00
  1.448834e+00    2.920036e+00
  1.480585e+00    3.078171e+00
  1.512336e+00    3.065143e+00
  1.544087e+00    2.996810e+00
  1.575838e+00    3.198966e+00
  1.607589e+00    3.062369e+00
  1.639340e+00    3.063648e+00
  1.671092e+00    3.075617e+00
  1.702843e+00    3.078722e+00
  1.734594e+00    3.035697e+00
  1.766345e+00    3.102104e+00
  1.798096e+00    3.155325e+00
  1.829847e+00    3.045705e+00
  1.861598e+00    3.001549e+00
  1.893350e+00    3.088312e+00
  1.925101e+00    2.976124e+00
  1.956852e+00    3.071301e+00
  1.988603e+00    3.050628e+00
  2.020354e+00    3.031683e+00
  2.052105e+00    3.091873e+00
  2.083856e+00    3.188158e+00
  2.115608e+00    3.118331e+00
  2.147359e+00    3.148918e+00
  2.179110e+00    3.120100e+00
  2.210861e+00    3.146006e+00
  2.242612e+00    3.151975e+00
  2.274363e+00    3.055537e+00
  2.306115e+00    2.993576e+00
  2.337866e+00    3.068464e+00
  2.369617e+00    3.159425e+00
  2.401368e+00    3.218813e+00
  2.433119e+00    3.100982e+00
  2.464870e+00    3.158091e+00
  2.496621e+00    3.156002e+00
  2.528373e+00    3.190525e+00
  2.560124e+00    3.252251e+00
  2.591875e+00    3.137195e+00
  2.623626e+00    3.152350e+00
  2.655377e+00    3.203457e+00
  2.687128e+00    3.265351e+00
  2.718879e+00    3.329884e+00
  2.750631e+00    3.201344e+00
  2.782382e+00    3.217185e+00
  2.814133e+00    3.211284e+00
  2.845884e+00    3.321496e+00
  2.877635e+00    3.314962e+00
  2.909386e+00    3.207231e+00
  2.941137e+00    3.228015e+00
  2.972889e+00    3.365035e+00
  3.004640e+00    3.403812e+00
  3.036391e+00    3.409860e+00
  3.068142e+00    3.349281e+00
  3.099893e+00    3.256818e+00
  3.131644e+00    3.230984e+00
  3.163395e+00    3.329621e+00
  3.195147e+00    3.416335e+00
  3.226898e+00    3.388637e+00
  3.258649e+00    3.475600e+00
  3.290400e+00    3.395099e+00
  3.322151e+00    3.416723e+00
  3.353902e+00    3.328446e+00
  3.385654e+00    3.351064e+00
  3.417405e+00    3.403179e+00
  3.449156e+00    3.472796e+00
  3.480907e+00    3.500142e+00
  3.512658e+00    3.400890e+00
  3.544409e+00    3.436306e+00
  3.576160e+00    3.386369e+00
  3.607912e+00    3.514065e+00
  3.639663e+00    3.493267e+00
  3.671414e+00    3.482877e+00
  3.703165e+00    3.400985e+00
  3.734916e+00    3.365140e+00
  3.766667e+00    3.409427e+00
  3.798418e+00    3.422026e+00
  3.830170e+00    3.527491e+00
  3.861921e+00    3.557281e+00
  3.893672e+00    3.508220e+00
  3.925423e+00    3.451454e+00
  3.957174e+00    3.488293e+00
  3.988925e+00    3.552970e+00
  4.020676e+00    3.482538e+00
  4.052428e+00    3.497874e+00
  4.084179e+00    3.554768e+00
  4.115930e+00    3.467262e+00
  4.147681e+00    3.572416e+00
  4.179432e+00    3.550042e+00
  4.211183e+00    3.520547e+00
  4.242935e+00    3.587034e+00
  4.274686e+00    3.595406e+00
  4.306437e+00    3.603233e+00
  4.338188e+00    3.498838e+00
  4.369939e+00    3.556471e+00
  4.401690e+00    3.566278e+00
  4.433441e+00    3.561252e+00
  4.465193e+00    3.553601e+00
  4.496944e+00    3.628485e+00
  4.528695e+00    3.639449e+00
  4.560446e+00    3.548785e+00
  4.592197e+00    3.601329e+00
  4.623948e+00    3.573340e+00
  4.655699e+00    3.630351e+00
  4.687451e+00    3.639804e+00
  4.719202e+00    3.589859e+00
  4.750953e+00    3.735815e+00
  4.782704e+00    3.646641e+00
  4.814455e+00    3.657732e+00
  4.846206e+00    3.445632e+00
  4.877957e+00    3.696618e+00
  4.909709e+00    3.662770e+00
  4.941460e+00    3.574520e+00
  4.973211e+00    3.611663e+00
  5.004962e+00    3.651180e+00
  5.036713e+00    3.602322e+00
  5.068464e+00    3.672977e+00
  5.100216e+00    3.705024e+00
  5.131967e+00    3.644523e+00
  5.163718e+00    3.681401e+00
  5.195469e+00    3.588772e+00
  5.227220e+00    3.678198e+00
  5.258971e+00    3.638020e+00
  5.290722e+00    3.697747e+00
  5.322474e+00    3.655149e+00
  5.354225e+00    3.656771e+00
  5.385976e+00    3.641011e+00
  5.417727e+00    3.635600e+00
  5.449478e+00    3.560730e+00
  5.481229e+00    3.609000e+00
  5.512980e+00    3.616349e+00
  5.544732e+00    3.601125e+00
  5.576483e+00    3.593887e+00
  5.608234e+00    3.613209e+00
  5.639985e+00    3.690480e+00
  5.671736e+00    3.592413e+00
  5.703487e+00    3.636567e+00
  5.735238e+00    3.614477e+00
  5.766990e+00    3.454194e+00
  5.798741e+00    3.527148e+00
  5.830492e+00    3.497104e+00
  5.862243e+00    3.497066e+00
  5.893994e+00    3.499060e+00
  5.925745e+00    3.539626e+00
  5.957497e+00    3.421569e+00
  5.989248e+00    3.596282e+00
  6.020999e+00    3.559611e+00
  6.052750e+00    3.543535e+00
  6.084501e+00    3.510505e+00
  6.116252e+00    3.705196e+00
  6.148003e+00    3.586229e+00
  6.179755e+00    3.529158e+00
  6.211506e+00    3.571694e+00
  6.243257e+00    3.639783e+00
  6.275008e+00    3.534552e+00
  6.306759e+00    3.553915e+00
  6.338510e+00    3.555188e+00
  6.370261e+00    3.574508e+00
  6.402013e+00    3.537437e+00
  6.433764e+00    3.478592e+00
  6.465515e+00    3.531433e+00
  6.497266e+00    3.519629e+00
  6.529017e+00    3.581812e+00
  6.560768e+00    3.521596e+00
  6.592519e+00    3.535956e+00
  6.624271e+00    3.529627e+00
  6.656022e+00    3.556872e+00
  6.687773e+00    3.549701e+00
  6.719524e+00    3.562812e+00
  6.751275e+00    3.576029e+00
  6.783026e+00    3.544768e+00
  6.814777e+00    3.473780e+00
  6.846529e+00    3.456980e+00
  6.878280e+00    3.443985e+00
  6.910031e+00    3.440676e+00
  6.941782e+00    3.534876e+00
  6.973533e+00    3.590157e+00
  7.005284e+00    3.522720e+00
  7.037036e+00    3.490714e+00
  7.068787e+00    3.572946e+00
  7.100538e+00    3.513411e+00
  7.132289e+00    3.605402e+00
  7.164040e+00    3.551757e+00
  7.195791e+00    3.491384e+00
  7.227542e+00    3.499992e+00
  7.259294e+00    3.560864e+00
  7.291045e+00    3.517567e+00
  7.322796e+00    3.513091e+00
  7.354547e+00    3.524328e+00
  7.386298e+00    3.453052e+00
  7.418049e+00    3.580507e+00
  7.449800e+00    3.433148e+00
  7.481552e+00    3.510372e+00
  7.513303e+00    3.424234e+00
  7.545054e+00    3.489565e+00
  7.576805e+00    3.387015e+00
  7.608556e+00    3.434707e+00
  7.640307e+00    3.463111e+00
  7.672058e+00    3.492379e+00
  7.703810e+00    3.471490e+00
  7.735561e+00    3.431551e+00
  7.767312e+00    3.370020e+00
  7.799063e+00    3.437588e+00
  7.830814e+00    3.398814e+00
  7.862565e+00    3.415124e+00
  7.894317e+00    3.361307e+00
  7.926068e+00    3.351286e+00
  7.957819e+00    3.427474e+00
  7.989570e+00    3.461920e+00
  8.021321e+00    3.383483e+00
  8.053072e+00    3.401498e+00
  8.084823e+00    3.378828e+00
  8.116575e+00    3.476417e+00
  8.148326e+00    3.435196e+00
  8.180077e+00    3.513040e+00
  8.211828e+00    3.448846e+00
  8.243579e+00    3.485649e+00
  8.275330e+00    3.399170e+00
  8.307081e+00    3.406760e+00
  8.338833e+00    3.365077e+00
  8.370584e+00    3.355654e+00
  8.402335e+00    3.402174e+00
  8.434086e+00    3.362407e+00
  8.465837e+00    3.338761e+00
  8.497588e+00    3.443159e+00
  8.529339e+00    3.333527e+00
  8.561091e+00    3.379079e+00
  8.592842e+00    3.319393e+00
  8.624593e+00    3.357313e+00
  8.656344e+00    3.334367e+00
  8.688095e+00    3.332999e+00
  8.719846e+00    3.381677e+00
  8.751598e+00    3.349346e+00
  8.783349e+00    3.339765e+00
  8.815100e+00    3.270200e+00
  8.846851e+00    3.297423e+00
  8.878602e+00    3.312183e+00
  8.910353e+00    3.286945e+00
  8.942104e+00    3.283897e+00
  8.973856e+00    3.268968e+00
  9.005607e+00    3.222023e+00
  9.037358e+00    3.311725e+00
  9.069109e+00    3.260467e+00
  9.100860e+00    3.205261e+00
  9.132611e+00    3.203581e+00
  9.164362e+00    3.292112e+00
  9.196114e+00    3.259581e+00
  9.227865e+00    3.201271e+00
  9.259616e+00    3.209523e+00
  9.291367e+00    3.274906e+00
  9.323118e+00    3.291726e+00
  9.354869e+00    3.284278e+00
  9.386620e+00    3.247830e+00
  9.418372e+00    3.178331e+00
  9.450123e+00    3.228395e+00
  9.481874e+00    3.235762e+00
  9.513625e+00    3.240009e+00
  9.545376e+00    3.224296e+00
  9.577127e+00    3.198780e+00
  9.608878e+00    3.258521e+00
  9.640630e+00    3.265264e+00
  9.672381e+00    3.167525e+00
  9.704132e+00    3.168905e+00
  9.735883e+00    3.204139e+00
  9.767634e+00    3.197338e+00
  9.799385e+00    3.146962e+00
  9.831137e+00    3.139050e+00
  9.862888e+00    3.171954e+00
  9.894639e+00    3.077896e+00
  9.926390e+00    3.117797e+00
  9.958141e+00    3.068010e+00
  9.989892e+00    3.056482e+00
  1.002164e+01    3.109187e+00
  1.005339e+01    3.110780e+00
  1.008515e+01    3.084591e+00
  1.011690e+01    3.114135e+00
  1.014865e+01    3.081087e+00
  1.018040e+01    3.053113e+00
  1.021215e+01    3.026145e+00
  1.024390e+01    3.068762e+00
  1.027565e+01    3.068383e+00
  1.030740e+01    3.051234e+00
  1.033915e+01    3.020998e+00
  1.037091e+01    3.044114e+00
  1.040266e+01    3.037264e+00
  1.043441e+01    3.053272e+00
  1.046616e+01    2.962273e+00
  1.049791e+01    3.026668e+00
  1.052966e+01    3.001447e+00
  1.056141e+01    2.987598e+00
  1.059316e+01    2.981110e+00
  1.062492e+01    3.007277e+00
  1.065667e+01    3.011954e+00
  1.068842e+01    2.909354e+00
  1.072017e+01    3.001516e+00
  1.075192e+01    2.947761e+00
  1.078367e+01    2.954327e+00
  1.081542e+01    2.893025e+00
  1.084717e+01    2.887741e+00
  1.087892e+01    2.944330e+00
  1.091068e+01    2.918527e+00
  1.094243e+01    2.894412e+00
  1.097418e+01    2.948932e+00
  1.100593e+01    2.932689e+00
  1.103768e+01    2.886083e+00
  1.106943e+01    2.912239e+00
  1.110118e+01    2.931032e+00
  1.113293e+01    2.844378e+00
  1.116468e+01    2.836087e+00
  1.119644e+01    2.838504e+00
  1.122819e+01    2.868707e+00
  1.125994e+01    2.854252e+00
  1.129169e+01    2.859474e+00
  1.132344e+01    2.815687e+00
  1.135519e+01    2.853678e+00
  1.138694e+01    2.841442e+00
  1.141869e+01    2.824261e+00
  1.145045e+01    2.774064e+00
  1.148220e+01    2.791289e+00
  1.151395e+01    2.811025e+00
  1.154570e+01    2.747228e+00
  1.157745e+01    2.798947e+00
  1.160920e+01    2.825381e+00
  1.164095e+01    2.790980e+00
  1.167270e+01    2.809146e+00
  1.170445e+01    2.763634e+00
  1.173621e+01    2.767067e+00
  1.176796e+01    2.739929e+00
  1.179971e+01    2.748242e+00
  1.183146e+01    2.785925e+00
  1.186321e+01    2.651458e+00
  1.189496e+01    2.790448e+00
  1.192671e+01    2.788940e+00
  1.195846e+01    2.716434e+00
  1.199021e+01    2.690135e+00
  1.202197e+01    2.680078e+00
  1.205372e+01    2.710326e+00
  1.208547e+01    2.707394e+00
  1.211722e+01    2.695418e+00
  1.214897e+01    2.729720e+00
  1.218072e+01    2.657054e+00
  1.221247e+01    2.699974e+00
  1.224422e+01    2.676902e+00
  1.227597e+01    2.704013e+00
  1.230773e+01    2.685877e+00
  1.233948e+01    2.700274e+00
  1.237123e+01    2.716129e+00
  1.240298e+01    2.691080e+00
  1.243473e+01    2.712298e+00
  1.246648e+01    2.735898e+00
  1.249823e+01    2.666178e+00
  1.252998e+01    2.677107e+00
  1.256174e+01    2.757035e+00
  1.259349e+01    2.756709e+00
  1.262524e+01    2.770164e+00
  1.265699e+01    2.825588e+00
  1.268874e+01    2.801807e+00
  1.272049e+01    2.803306e+00
  1.275224e+01    2.869941e+00
  1.278399e+01    2.907730e+00
  1.281574e+01    2.993108e+00
  1.284750e+01    3.157329e+00
  1.287925e+01    3.356058e+00
  1.291100e+01    3.635668e+00
  1.294275e+01    4.028872e+00
  1.297450e+01    4.789555e+00
  1.300625e+01    5.813035e+00
  1.303800e+01    7.651882e+00
  1.306975e+01    1.011465e+01
  1.310150e+01    1.261234e+01
  1.313326e+01    1.479617e+01
  1.316501e+01    1.621388e+01
  1.319676e+01    1.554394e+01
  1.322851e+01    1.259716e+01
  1.326026e+01    9.088506e+00
  1.329201e+01    6.759984e+00
  1.332376e+01    5.295175e+00
  1.335551e+01    4.430042e+00
  1.338727e+01    3.853965e+00
  1.341902e+01    3.473880e+00
  1.345077e+01    3.197040e+00
  1.348252e+01    2.988982e+00
  1.351427e+01    2.923833e+00
  1.354602e+01    2.805635e+00
  1.357777e+01    2.730868e+00
  1.360952e+01    2.599791e+00
  1.364127e+01    2.609102e+00
  1.367303e+01    2.585232e+00
  1.370478e+01    2.561357e+00
  1.373653e+01    2.513697e+00
  1.376828e+01    2.505748e+00
  1.380003e+01    2.457289e+00
  1.383178e+01    2.425410e+00
  1.386353e+01    2.442410e+00
  1.389528e+01    2.407783e+00
  1.392703e+01    2.406703e+00
  1.395879e+01    2.411642e+00
  1.399054e+01    2.379147e+00
  1.402229e+01    2.358735e+00
  1.405404e+01    2.362596e+00
  1.408579e+01    2.346647e+00
  1.411754e+01    2.316654e+00
  1.414929e+01    2.348037e+00
  1.418104e+01    2.315380e+00
  1.421279e+01    2.268700e+00
  1.424455e+01    2.272763e+00
  1.427630e+01    2.281061e+00
  1.430805e+01    2.246171e+00
  1.433980e+01    2.289511e+00
  1.437155e+01    2.219042e+00
  1.440330e+01    2.227082e+00
  1.443505e+01    2.201467e+00
  1.446680e+01    2.297272e+00
  1.449856e+01    2.235273e+00
  1.453031e+01    2.192916e+00
  1.456206e+01    2.211292e+00
  1.459381e+01    2.186243e+00
  1.462556e+01    2.167268e+00
  1.465731e+01    2.163779e+00
  1.468906e+01    2.220652e+00
  1.472081e+01    2.161390e+00
  1.475256e+01    2.164708e+00
  1.478432e+01    2.199596e+00
  1.481607e+01    2.192224e+00
  1.484782e+01    2.221138e+00
  1.487957e+01    2.181724e+00
  1.491132e+01    2.244315e+00
  1.494307e+01    2.287540e+00
  1.497482e+01    2.380973e+00
  1.500657e+01    2.478313e+00
  1.503832e+01    2.591140e+00
  1.507008e+01    2.841433e+00
  1.510183e+01    3.178941e+00
  1.513358e+01    3.767190e+00
  1.516533e+01    4.522184e+00
  1.519708e+01    5.177433e+00
  1.522883e+01    5.659725e+00
  1.526058e+01    5.766321e+00
  1.529233e+01    5.456418e+00
  1.532409e+01    4.652801e+00
  1.535584e+01    3.825006e+00
  1.538759e+01    3.127958e+00
  1.541934e+01    2.798779e+00
  1.545109e+01    2.525166e+00
  1.548284e+01    2.331443e+00
  1.551459e+01    2.234760e+00
  1.554634e+01    2.183474e+00
  1.557809e+01    2.119640e+00
  1.560985e+01    2.078485e+00
  1.564160e+01    2.019360e+00
  1.567335e+01    1.986071e+00
  1.570510e+01    2.007372e+00
  1.573685e+01    1.965181e+00
  1.576860e+01    1.938264e+00
  1.580035e+01    1.930823e+00
  1.583210e+01    1.922029e+00
  1.586385e+01    1.894557e+00
  1.589561e+01    1.898680e+00
  1.592736e+01    1.885402e+00
  1.595911e+01    1.894622e+00
  1.599086e+01    1.903524e+00
  1.602261e+01    1.865662e+00
  1.605436e+01    1.834930e+00
  1.608611e+01    1.848593e+00
  1.611786e+01    1.844848e+00
  1.614961e+01    1.862317e+00
  1.618137e+01    1.792529e+00
  1.621312e+01    1.816018e+00
  1.624487e+01    1.817347e+00
  1.627662e+01    1.828498e+00
  1.630837e+01    1.806241e+00
  1.634012e+01    1.792089e+00
  1.637187e+01    1.770669e+00
  1.640362e+01    1.762401e+00
  1.643538e+01    1.749282e+00
  1.646713e+01    1.721782e+00
  1.649888e+01    1.782086e+00
  1.653063e+01    1.777171e+00
  1.656238e+01    1.729352e+00
  1.659413e+01    1.742314e+00
  1.662588e+01    1.742453e+00
  1.665763e+01    1.751126e+00
  1.668938e+01    1.745564e+00
  1.672114e+01    1.690463e+00
  1.675289e+01    1.726894e+00
  1.678464e+01    1.717157e+00
  1.681639e+01    1.688285e+00
  1.684814e+01    1.684741e+00
  1.687989e+01    1.689809e+00
  1.691164e+01    1.706978e+00
  1.694339e+01    1.695176e+00
  1.697514e+01    1.661645e+00
  1.700690e+01    1.665359e+00
  1.703865e+01    1.656825e+00
  1.707040e+01    1.609550e+00
  1.710215e+01    1.646604e+00
  1.713390e+01    1.621183e+00
  1.716565e+01    1.660582e+00
  1.719740e+01    1.649810e+00
  1.722915e+01    1.628459e+00
  1.726091e+01    1.629204e+00
  1.729266e+01    1.617636e+00
  1.732441e+01    1.600794e+00
  1.735616e+01    1.624285e+00
  1.738791e+01    1.593417e+00
  1.741966e+01    1.589937e+00
  1.745141e+01    1.555926e+00
  1.748316e+01    1.569761e+00
  1.751491e+01    1.593858e+00
  1.754667e+01    1.555995e+00
  1.757842e+01    1.542086e+00
  1.761017e+01    1.543956e+00
  1.764192e+01    1.549246e+00
  1.767367e+01    1.569275e+00
  1.770542e+01    1.562396e+00
  1.773717e+01    1.553836e+00
  1.776892e+01    1.534144e+00
  1.780067e+01    1.521245e+00
  1.783243e+01    1.534120e+00
  1.786418e+01    1.544546e+00
  1.789593e+01    1.540466e+00
  1.792768e+01    1.512656e+00
  1.795943e+01    1.508467e+00
  1.799118e+01    1.520504e+00
  1.802293e+01    1.504661e+00
  1.805468e+01    1.473598e+00
  1.808643e+01    1.479033e+00
  1.811819e+01    1.528905e+00
  1.814994e+01    1.475823e+00
  1.818169e+01    1.476313e+00
  1.821344e+01    1.486048e+00
  1.824519e+01    1.487697e+00
  1.827694e+01    1.511857e+00
  1.830869e+01    1.500811e+00
  1.834044e+01    1.469690e+00
  1.837220e+01    1.468538e+00
  1.840395e+01    1.454298e+00
  1.843570e+01    1.422330e+00
  1.846745e+01    1.444276e+00
  1.849920e+01    1.451431e+00
  1.853095e+01    1.454291e+00
  1.856270e+01    1.448668e+00
  1.859445e+01    1.421773e+00
  1.862620e+01    1.416932e+00
  1.865796e+01    1.411051e+00
  1.868971e+01    1.400886e+00
  1.872146e+01    1.408288e+00
  1.875321e+01    1.448739e+00
  1.878496e+01    1.428022e+00
  1.881671e+01    1.378017e+00
  1.884846e+01    1.375396e+00
  1.888021e+01    1.372425e+00
  1.891196e+01    1.402670e+00
  1.894372e+01    1.373941e+00
  1.897547e+01    1.363279e+00
  1.900722e+01    1.395625e+00
  1.903897e+01    1.406113e+00
  1.907072e+01    1.379110e+00
  1.910247e+01    1.374850e+00
  1.913422e+01    1.342744e+00
  1.916597e+01    1.343501e+00
  1.919773e+01    1.361540e+00
  1.922948e+01    1.392176e+00
  1.926123e+01    1.369411e+00
  1.929298e+01    1.375150e+00
  1.932473e+01    1.390286e+00
  1.935648e+01    1.328232e+00
  1.938823e+01    1.338018e+00
  1.941998e+01    1.335307e+00
  1.945173e+01    1.336113e+00
  1.948349e+01    1.348200e+00
  1.951524e+01    1.311738e+00
  1.954699e+01    1.346096e+00
  1.957874e+01    1.317190e+00
  1.961049e+01    1.321171e+00
  1.964224e+01    1.307955e+00
  1.967399e+01    1.301107e+00
  1.970574e+01    1.311959e+00
  1.973749e+01    1.304080e+00
  1.976925e+01    1.303550e+00
  1.980100e+01    1.326061e+00
  1.983275e+01    1.271541e+00
  1.986450e+01    1.283158e+00
  1.989625e+01    1.285773e+00
  1.992800e+01    1.269158e+00
  1.995975e+01    1.288417e+00
  1.999150e+01    1.299905e+00
  2.002325e+01    1.286356e+00
  2.005501e+01    1.271941e+00
  2.008676e+01    1.270677e+00
  2.011851e+01    1.269770e+00
  2.015026e+01    1.286007e+00
  2.018201e+01    1.247285e+00
  2.021376e+01    1.269387e+00
  2.024551e+01    1.246390e+00
  2.027726e+01    1.272418e+00
  2.030902e+01    1.265329e+00
  2.034077e+01    1.236711e+00
  2.037252e+01    1.228256e+00
  2.040427e+01    1.261302e+00
  2.043602e+01    1.257771e+00
  2.046777e+01    1.264522e+00
  2.049952e+01    1.244334e+00
  2.053127e+01    1.232448e+00
  2.056302e+01    1.254746e+00
  2.059478e+01    1.208175e+00
  2.062653e+01    1.219882e+00
  2.065828e+01    1.250881e+00
  2.069003e+01    1.212852e+00
  2.072178e+01    1.245888e+00
  2.075353e+01    1.222104e+00
  2.078528e+01    1.211647e+00
  2.081703e+01    1.218099e+00
  2.084878e+01    1.226600e+00
  2.088054e+01    1.224541e+00
  2.091229e+01    1.195038e+00
  2.094404e+01    1.243823e+00
  2.097579e+01    1.227805e+00
  2.100754e+01    1.223806e+00
  2.103929e+01    1.208007e+00
  2.107104e+01    1.235181e+00
  2.110279e+01    1.213184e+00
  2.113455e+01    1.211016e+00
  2.116630e+01    1.240442e+00
  2.119805e+01    1.236227e+00
  2.122980e+01    1.238086e+00
  2.126155e+01    1.233392e+00
  2.129330e+01    1.271981e+00
  2.132505e+01    1.265487e+00
  2.135680e+01    1.306166e+00
  2.138855e+01    1.299609e+00
  2.142031e+01    1.331989e+00
  2.145206e+01    1.330083e+00
  2.148381e+01    1.350741e+00
  2.151556e+01    1.421228e+00
  2.154731e+01    1.511231e+00
  2.157906e+01    1.615249e+00
  2.161081e+01    1.758570e+00
  2.164256e+01    1.966358e+00
  2.167431e+01    2.255682e+00
  2.170607e+01    2.760306e+00
  2.173782e+01    3.515540e+00
  2.176957e+01    4.526330e+00
  2.180132e+01    5.814409e+00
  2.183307e+01    7.127237e+00
  2.186482e+01    8.343939e+00
  2.189657e+01    8.917343e+00
  2.192832e+01    8.321763e+00
  2.196007e+01    6.559124e+00
  2.199183e+01    4.856421e+00
  2.202358e+01    3.665596e+00
  2.205533e+01    2.857618e+00
  2.208708e+01    2.358316e+00
  2.211883e+01    2.017306e+00
  2.215058e+01    1.801846e+00
  2.218233e+01    1.592785e+00
  2.221408e+01    1.523765e+00
  2.224584e+01    1.431045e+00
  2.227759e+01    1.358384e+00
  2.230934e+01    1.288131e+00
  2.234109e+01    1.262971e+00
  2.237284e+01    1.220792e+00
  2.240459e+01    1.228564e+00
  2.243634e+01    1.195221e+00
  2.246809e+01    1.156699e+00
  2.249984e+01    1.157846e+00
  2.253160e+01    1.137911e+00
  2.256335e+01    1.124979e+00
  2.259510e+01    1.105105e+00
  2.262685e+01    1.092704e+00
  2.265860e+01    1.087342e+00
  2.269035e+01    1.076040e+00
  2.272210e+01    1.073133e+00
  2.275385e+01    1.050934e+00
  2.278560e+01    1.064299e+00
  2.281736e+01    1.047017e+00
  2.284911e+01    1.061738e+00
  2.288086e+01    1.043007e+00
  2.291261e+01    1.037027e+00
  2.294436e+01    1.026786e+00
  2.297611e+01    1.015274e+00
  2.300786e+01    1.016838e+00
  2.303961e+01    1.012994e+00
  2.307137e+01    1.004507e+00
  2.310312e+01    1.015625e+00
  2.313487e+01    1.001606e+00
  2.316662e+01    9.969158e-01
  2.319837e+01    1.017427e+00
  2.323012e+01    9.965506e-01
  2.326187e+01    9.775646e-01
  2.329362e+01    9.796808e-01
  2.332537e+01    9.831890e-01
  2.335713e+01    9.613071e-01
  2.338888e+01    9.540052e-01
  2.342063e+01    9.662438e-01
  2.345238e+01    9.598707e-01
  2.348413e+01    9.698518e-01
  2.351588e+01    9.723738e-01
  2.354763e+01    9.623222e-01
  2.357938e+01    9.520020e-01
  2.361113e+01    9.414446e-01
  2.364289e+01    9.580767e-01
  2.367464e+01    9.604602e-01
  2.370639e+01    9.430428e-01
  2.373814e+01    9.511322e-01
  2.376989e+01    9.338768e-01
  2.380164e+01    9.330835e-01
  2.383339e+01    9.245151e-01
  2.386514e+01    9.105400e-01
  2.389689e+01    9.185026e-01
  2.392865e+01    8.959248e-01
  2.396040e+01    9.084172e-01
  2.399215e+01    9.049358e-01
  2.402390e+01    9.031128e-01
  2.405565e+01    8.937417e-01
  2.408740e+01    8.650638e-01
  2.411915e+01    8.976128e-01
  2.415090e+01    8.848941e-01
  2.418266e+01    8.783749e-01
  2.421441e+01    8.910316e-01
  2.424616e+01    8.787600e-01
  2.427791e+01    8.867620e-01
  2.430966e+01    8.926007e-01
  2.434141e+01    8.909042e-01
  2.437316e+01    9.039312e-01
  2.440491e+01    8.754962e-01
  2.443666e+01    8.902582e-01
  2.446842e+01    8.983915e-01
  2.450017e+01    8.797862e-01
  2.453192e+01    8.893567e-01
  2.456367e+01    9.152119e-01
  2.459542e+01    8.800845e-01
  2.462717e+01    9.023619e-01
  2.465892e+01    8.857939e-01
  2.469067e+01    8.746253e-01
  2.472242e+01    9.073383e-01
  2.475418e+01    8.786112e-01
  2.478593e+01    8.986441e-01
  2.481768e+01    8.934928e-01
  2.484943e+01    8.960640e-01
  2.488118e+01    9.000738e-01
  2.491293e+01    8.878284e-01
  2.494468e+01    8.836876e-01
  2.497643e+01    8.910520e-01
  2.500819e+01    9.072884e-01
  2.503994e+01    8.862305e-01
  2.507169e+01    9.143503e-01
  2.510344e+01    9.083552e-01
  2.513519e+01    9.342169e-01
  2.516694e+01    8.963804e-01
  2.519869e+01    9.085362e-01
  2.523044e+01    9.244803e-01
  2.526219e+01    9.187878e-01
  2.529395e+01    9.539691e-01
  2.532570e+01    9.598083e-01
  2.535745e+01    9.483693e-01
  2.538920e+01    9.686332e-01
  2.542095e+01    1.002623e+00
  2.545270e+01    1.048348e+00
  2.548445e+01    1.032893e+00
  2.551620e+01    1.071499e+00
  2.554795e+01    1.105956e+00
  2.557971e+01    1.148336e+00
  2.561146e+01    1.224725e+00
  2.564321e+01    1.290234e+00
  2.567496e+01    1.422874e+00
  2.570671e+01    1.574863e+00
  2.573846e+01    1.803043e+00
  2.577021e+01    2.214173e+00
  2.580196e+01    2.797256e+00
  2.583371e+01    3.597583e+00
  2.586547e+01    4.650407e+00
  2.589722e+01    5.762094e+00
  2.592897e+01    6.699312e+00
  2.596072e+01    7.053375e+00
  2.599247e+01    6.552277e+00
  2.602422e+01    5.339471e+00
  2.605597e+01    4.045366e+00
  2.608772e+01    2.998199e+00
  2.611948e+01    2.382493e+00
  2.615123e+01    1.930631e+00
  2.618298e+01    1.647784e+00
  2.621473e+01    1.490246e+00
  2.624648e+01    1.353364e+00
  2.627823e+01    1.221291e+00
  2.630998e+01    1.188295e+00
  2.634173e+01    1.143662e+00
  2.637348e+01    1.102086e+00
  2.640524e+01    1.062625e+00
  2.643699e+01    1.033762e+00
  2.646874e+01    1.035052e+00
  2.650049e+01    9.954098e-01
  2.653224e+01    9.895664e-01
  2.656399e+01    9.843990e-01
  2.659574e+01    9.869995e-01
  2.662749e+01    9.835442e-01
  2.665924e+01    9.717001e-01
  2.669100e+01    9.723421e-01
  2.672275e+01    9.557590e-01
  2.675450e+01    9.554337e-01
  2.678625e+01    9.629976e-01
  2.681800e+01    9.757304e-01
  2.684975e+01    9.960054e-01
  2.688150e+01    9.710447e-01
  2.691325e+01    1.011081e+00
  2.694501e+01    1.028271e+00
  2.697676e+01    1.075036e+00
  2.700851e+01    1.112995e+00
  2.704026e+01    1.197901e+00
  2.707201e+01    1.284158e+00
  2.710376e+01    1.495720e+00
  2.713551e+01    1.699445e+00
  2.716726e+01    1.987380e+00
  2.719901e+01    2.122075e+00
  2.723077e+01    2.151575e+00
  2.726252e+01    1.968836e+00
  2.729427e+01    1.700595e+00
  2.732602e+01    1.450156e+00
  2.735777e+01    1.305831e+00
  2.738952e+01    1.157290e+00
  2.742127e+01    1.091130e+00
  2.745302e+01    1.073945e+00
  2.748477e+01    1.025471e+00
  2.751653e+01    9.763867e-01
  2.754828e+01    9.556392e-01
  2.758003e+01    9.168141e-01
  2.761178e+01    9.421420e-01
  2.764353e+01    9.072324e-01
  2.767528e+01    9.010798e-01
  2.770703e+01    9.143782e-01
  2.773878e+01    8.909337e-01
  2.777054e+01    9.008670e-01
  2.780229e+01    8.962650e-01
  2.783404e+01    8.928512e-01
  2.786579e+01    8.869417e-01
  2.789754e+01    8.656412e-01
  2.792929e+01    8.601996e-01
  2.796104e+01    8.720719e-01
  2.799279e+01    8.524528e-01
  2.802454e+01    8.581223e-01
  2.805630e+01    8.599767e-01
  2.808805e+01    8.636143e-01
  2.811980e+01    8.648667e-01
  2.815155e+01    8.602592e-01
  2.818330e+01    8.598750e-01
  2.821505e+01    8.549985e-01
  2.824680e+01    8.545594e-01
  2.827855e+01    8.282933e-01
  2.831030e+01    8.294420e-01
  2.834206e+01    8.495296e-01
  2.837381e+01    8.417317e-01
  2.840556e+01    8.358363e-01
  2.843731e+01    8.268803e-01
  2.846906e+01    8.416951e-01
  2.850081e+01    8.364922e-01
  2.853256e+01    8.409158e-01
  2.856431e+01    8.275272e-01
  2.859606e+01    8.134164e-01
  2.862782e+01    8.444150e-01
  2.865957e+01    8.079202e-01
  2.869132e+01    8.395772e-01
  2.872307e+01    7.919224e-01
  2.875482e+01    8.286830e-01
  2.878657e+01    8.023825e-01
  2.881832e+01    8.141270e-01
  2.885007e+01    8.463414e-01
  2.888183e+01    8.251830e-01
  2.891358e+01    8.160307e-01
  2.894533e+01    8.237460e-01
  2.897708e+01    8.104349e-01
  2.900883e+01    8.257338e-01
  2.904058e+01    8.160137e-01
  2.907233e+01    8.374409e-01
  2.910408e+01    8.238584e-01
  2.913583e+01    8.351191e-01
  2.916759e+01    8.076633e-01
  2.919934e+01    8.058204e-01
  2.923109e+01    8.100266e-01
  2.926284e+01    8.331234e-01
  2.929459e+01    7.988198e-01
  2.932634e+01    8.135254e-01
  2.935809e+01    7.866482e-01
  2.938984e+01    8.279619e-01
  2.942159e+01    7.941593e-01
  2.945335e+01    7.819439e-01
  2.948510e+01    7.865894e-01
  2.951685e+01    8.051140e-01
  2.954860e+01    8.109490e-01
  2.958035e+01    7.843186e-01
  2.961210e+01    7.839921e-01
  2.964385e+01    7.857946e-01
  2.967560e+01    7.896364e-01
  2.970736e+01    8.060387e-01
  2.973911e+01    7.861249e-01
  2.977086e+01    7.715318e-01
  2.980261e+01    7.897413e-01
  2.983436e+01    7.855266e-01
  2.986611e+01    7.994666e-01
  2.989786e+01    8.030254e-01
  2.992961e+01    7.843618e-01
  2.996136e+01    7.989783e-01
  2.999312e+01    8.023531e-01
  3.002487e+01    8.128507e-01
  3.005662e+01    8.030837e-01
  3.008837e+01    8.118609e-01
  3.012012e+01    8.036122e-01
  3.015187e+01    7.818808e-01
  3.018362e+01    7.813928e-01
  3.021537e+01    7.873143e-01
  3.024712e+01    8.048720e-01
  3.027888e+01    7.796166e-01
  3.031063e+01    7.925786e-01
  3.034238e+01    7.685654e-01
  3.037413e+01    7.668243e-01
  3.040588e+01    7.863367e-01
  3.043763e+01    7.911410e-01
  3.046938e+01    7.774054e-01
  3.050113e+01    7.975345e-01
  3.053288e+01    7.999064e-01
  3.056464e+01    7.632379e-01
  3.059639e+01    7.880268e-01
  3.062814e+01    7.687238e-01
  3.065989e+01    7.890622e-01
  3.069164e+01    7.733948e-01
  3.072339e+01    7.953747e-01
  3.075514e+01    7.932472e-01
  3.078689e+01    7.768066e-01
  3.081865e+01    7.926219e-01
  3.085040e+01    7.928458e-01
  3.088215e+01    7.734370e-01
  3.091390e+01    7.952525e-01
  3.094565e+01    8.001512e-01
  3.097740e+01    7.959188e-01
  3.100915e+01    7.709172e-01
  3.104090e+01    7.539998e-01
  3.107265e+01    7.930290e-01
  3.110441e+01    7.747838e-01
  3.113616e+01    7.972387e-01
  3.116791e+01    7.893022e-01
  3.119966e+01    7.792907e-01
  3.123141e+01    7.838694e-01
  3.126316e+01    7.967359e-01
  3.129491e+01    8.030486e-01
  3.132666e+01    8.136152e-01
  3.135841e+01    7.780938e-01
  3.139017e+01    8.104870e-01
  3.142192e+01    8.118060e-01
  3.145367e+01    8.009625e-01
  3.148542e+01    8.329220e-01
  3.151717e+01    7.975974e-01
  3.154892e+01    8.360670e-01
  3.158067e+01    8.801083e-01
  3.161242e+01    8.778445e-01
  3.164418e+01    8.976842e-01
  3.167593e+01    9.958202e-01
  3.170768e+01    1.026558e+00
  3.173943e+01    1.109015e+00
  3.177118e+01    1.257495e+00
  3.180293e+01    1.433413e+00
  3.183468e+01    1.722274e+00
  3.186643e+01    1.960107e+00
  3.189818e+01    2.090295e+00
  3.192994e+01    2.033597e+00
  3.196169e+01    1.861654e+00
  3.199344e+01    1.584000e+00
  3.202519e+01    1.332488e+00
  3.205694e+01    1.155362e+00
  3.208869e+01    1.048620e+00
  3.212044e+01    9.845723e-01
  3.215219e+01    9.063938e-01
  3.218394e+01    8.807752e-01
  3.221570e+01    8.695700e-01
  3.224745e+01    8.349835e-01
  3.227920e+01    8.300196e-01
  3.231095e+01    8.142327e-01
  3.234270e+01    8.017609e-01
  3.237445e+01    7.946458e-01
  3.240620e+01    7.823761e-01
  3.243795e+01    7.434516e-01
  3.246970e+01    7.636176e-01
  3.250146e+01    8.021628e-01
  3.253321e+01    7.699763e-01
  3.254908e+01    7.602514e-01