File: XRD/Reaction conditions/2024-07-27_003_Ru-CGO-ex_Reaction_dwell_000023_data_000131.dat
# == pyFAI calibration ==
# Distance Sample to Detector: 0.4 m
# PONI: 9.750e-02, 1.135e-01 m
# Rotations: -0.000175 0.000000 -0.000000 rad
#
# == Fit2d calibration ==
# Distance Sample-beamCenter: 400.000 mm
# Center: x=1514.000, y=1300.000 pix
# Tilt: 0.010 deg  TiltPlanRot: 0.010 deg
#
# Detector Detector	 Spline= None	 PixelSize= 7.500e-05, 7.500e-05 m
#    Detector has a mask: False
#    Detector has a dark current: False
#    detector has a flat field: False
#
# Wavelength: 6.888e-11 m
# Mask applied: user provided
# Dark current applied: False
# Flat field applied: False
# Polarization factor: 0.99
# Normalization factor: 1.0
# --> /home/myspot/data/2024_07_Rosario/Ru-CGO-ex/2024-07-27_003_Ru-CGO-ex_Reaction_dwell_000023_data_000131.dat
#       q_nm^-1             I
  2.003187e-02    7.712225e-02
  5.178302e-02    2.368032e-01
  8.353417e-02    1.727936e-01
  1.152853e-01    3.266994e-02
  1.470365e-01    5.182226e-02
  1.787876e-01    9.275432e-02
  2.105388e-01    4.518187e-02
  2.422899e-01    2.372841e-02
  2.740411e-01    2.512253e-02
  3.057922e-01    2.690620e-02
  3.375433e-01    3.049741e-02
  3.692945e-01    3.626153e-02
  4.010456e-01    4.555809e-02
  4.327968e-01    2.300096e-02
  4.645479e-01    3.654912e-02
  4.962991e-01    2.556925e-02
  5.280502e-01    2.813322e-02
  5.598014e-01    4.362922e-02
  5.915525e-01    3.252704e-02
  6.233037e-01    8.574852e-02
  6.550548e-01    5.536506e-02
  6.868060e-01    4.733044e-02
  7.185571e-01    3.315388e-02
  7.503083e-01    6.329786e-02
  7.820594e-01    1.146427e-01
  8.138106e-01    1.967175e-01
  8.455617e-01    3.501574e-01
  8.773129e-01    4.755413e-01
  9.090640e-01    5.880373e-01
  9.408152e-01    7.468209e-01
  9.725663e-01    8.719877e-01
  1.004317e+00    1.205054e+00
  1.036069e+00    1.262496e+00
  1.067820e+00    1.423947e+00
  1.099571e+00    1.380558e+00
  1.131322e+00    1.648797e+00
  1.163073e+00    1.804365e+00
  1.194824e+00    1.819806e+00
  1.226575e+00    2.149377e+00
  1.258327e+00    2.626934e+00
  1.290078e+00    2.504939e+00
  1.321829e+00    2.608139e+00
  1.353580e+00    2.706792e+00
  1.385331e+00    2.756553e+00
  1.417082e+00    2.954957e+00
  1.448834e+00    2.999721e+00
  1.480585e+00    2.981472e+00
  1.512336e+00    3.272446e+00
  1.544087e+00    3.242619e+00
  1.575838e+00    3.163714e+00
  1.607589e+00    3.271797e+00
  1.639340e+00    3.290620e+00
  1.671092e+00    3.121827e+00
  1.702843e+00    3.132063e+00
  1.734594e+00    2.921593e+00
  1.766345e+00    3.010311e+00
  1.798096e+00    2.989244e+00
  1.829847e+00    3.062192e+00
  1.861598e+00    3.025630e+00
  1.893350e+00    3.165997e+00
  1.925101e+00    3.117016e+00
  1.956852e+00    3.136025e+00
  1.988603e+00    3.051665e+00
  2.020354e+00    3.194767e+00
  2.052105e+00    2.998305e+00
  2.083856e+00    3.115778e+00
  2.115608e+00    3.154902e+00
  2.147359e+00    3.088311e+00
  2.179110e+00    3.167310e+00
  2.210861e+00    3.193266e+00
  2.242612e+00    3.126128e+00
  2.274363e+00    3.073854e+00
  2.306115e+00    3.120298e+00
  2.337866e+00    3.168160e+00
  2.369617e+00    3.112123e+00
  2.401368e+00    3.122449e+00
  2.433119e+00    3.158773e+00
  2.464870e+00    3.249147e+00
  2.496621e+00    3.238610e+00
  2.528373e+00    3.224989e+00
  2.560124e+00    3.157939e+00
  2.591875e+00    3.344843e+00
  2.623626e+00    3.287591e+00
  2.655377e+00    3.186697e+00
  2.687128e+00    3.247221e+00
  2.718879e+00    3.108519e+00
  2.750631e+00    3.224042e+00
  2.782382e+00    3.266853e+00
  2.814133e+00    3.318102e+00
  2.845884e+00    3.378039e+00
  2.877635e+00    3.334772e+00
  2.909386e+00    3.259789e+00
  2.941137e+00    3.347596e+00
  2.972889e+00    3.376856e+00
  3.004640e+00    3.358236e+00
  3.036391e+00    3.239760e+00
  3.068142e+00    3.294826e+00
  3.099893e+00    3.395903e+00
  3.131644e+00    3.425438e+00
  3.163395e+00    3.395803e+00
  3.195147e+00    3.309418e+00
  3.226898e+00    3.385195e+00
  3.258649e+00    3.493309e+00
  3.290400e+00    3.385773e+00
  3.322151e+00    3.498443e+00
  3.353902e+00    3.500602e+00
  3.385654e+00    3.408118e+00
  3.417405e+00    3.480808e+00
  3.449156e+00    3.404879e+00
  3.480907e+00    3.543929e+00
  3.512658e+00    3.374951e+00
  3.544409e+00    3.382925e+00
  3.576160e+00    3.459162e+00
  3.607912e+00    3.488506e+00
  3.639663e+00    3.483597e+00
  3.671414e+00    3.483664e+00
  3.703165e+00    3.435445e+00
  3.734916e+00    3.539909e+00
  3.766667e+00    3.514620e+00
  3.798418e+00    3.486727e+00
  3.830170e+00    3.595716e+00
  3.861921e+00    3.526325e+00
  3.893672e+00    3.606558e+00
  3.925423e+00    3.582976e+00
  3.957174e+00    3.445598e+00
  3.988925e+00    3.567087e+00
  4.020676e+00    3.504433e+00
  4.052428e+00    3.465667e+00
  4.084179e+00    3.477847e+00
  4.115930e+00    3.539710e+00
  4.147681e+00    3.523086e+00
  4.179432e+00    3.630232e+00
  4.211183e+00    3.562725e+00
  4.242935e+00    3.582670e+00
  4.274686e+00    3.555250e+00
  4.306437e+00    3.582087e+00
  4.338188e+00    3.510091e+00
  4.369939e+00    3.530170e+00
  4.401690e+00    3.673754e+00
  4.433441e+00    3.597498e+00
  4.465193e+00    3.569102e+00
  4.496944e+00    3.639192e+00
  4.528695e+00    3.591443e+00
  4.560446e+00    3.598716e+00
  4.592197e+00    3.664920e+00
  4.623948e+00    3.682948e+00
  4.655699e+00    3.593666e+00
  4.687451e+00    3.696346e+00
  4.719202e+00    3.641538e+00
  4.750953e+00    3.634013e+00
  4.782704e+00    3.692556e+00
  4.814455e+00    3.590449e+00
  4.846206e+00    3.631377e+00
  4.877957e+00    3.686776e+00
  4.909709e+00    3.656577e+00
  4.941460e+00    3.625822e+00
  4.973211e+00    3.712147e+00
  5.004962e+00    3.671841e+00
  5.036713e+00    3.661510e+00
  5.068464e+00    3.626053e+00
  5.100216e+00    3.640281e+00
  5.131967e+00    3.646707e+00
  5.163718e+00    3.623218e+00
  5.195469e+00    3.554892e+00
  5.227220e+00    3.679507e+00
  5.258971e+00    3.573986e+00
  5.290722e+00    3.642949e+00
  5.322474e+00    3.661686e+00
  5.354225e+00    3.701080e+00
  5.385976e+00    3.641688e+00
  5.417727e+00    3.664087e+00
  5.449478e+00    3.637096e+00
  5.481229e+00    3.682152e+00
  5.512980e+00    3.552981e+00
  5.544732e+00    3.600321e+00
  5.576483e+00    3.573174e+00
  5.608234e+00    3.646377e+00
  5.639985e+00    3.629181e+00
  5.671736e+00    3.614428e+00
  5.703487e+00    3.678452e+00
  5.735238e+00    3.587690e+00
  5.766990e+00    3.626780e+00
  5.798741e+00    3.485051e+00
  5.830492e+00    3.556211e+00
  5.862243e+00    3.555274e+00
  5.893994e+00    3.458508e+00
  5.925745e+00    3.493378e+00
  5.957497e+00    3.556898e+00
  5.989248e+00    3.579705e+00
  6.020999e+00    3.481700e+00
  6.052750e+00    3.559143e+00
  6.084501e+00    3.651881e+00
  6.116252e+00    3.632237e+00
  6.148003e+00    3.502612e+00
  6.179755e+00    3.615242e+00
  6.211506e+00    3.600574e+00
  6.243257e+00    3.640371e+00
  6.275008e+00    3.549780e+00
  6.306759e+00    3.637926e+00
  6.338510e+00    3.596777e+00
  6.370261e+00    3.667827e+00
  6.402013e+00    3.548780e+00
  6.433764e+00    3.528005e+00
  6.465515e+00    3.608085e+00
  6.497266e+00    3.493271e+00
  6.529017e+00    3.571221e+00
  6.560768e+00    3.626695e+00
  6.592519e+00    3.586832e+00
  6.624271e+00    3.560467e+00
  6.656022e+00    3.656483e+00
  6.687773e+00    3.520744e+00
  6.719524e+00    3.590910e+00
  6.751275e+00    3.587965e+00
  6.783026e+00    3.489487e+00
  6.814777e+00    3.519965e+00
  6.846529e+00    3.551276e+00
  6.878280e+00    3.543441e+00
  6.910031e+00    3.539062e+00
  6.941782e+00    3.588911e+00
  6.973533e+00    3.546137e+00
  7.005284e+00    3.594380e+00
  7.037036e+00    3.462694e+00
  7.068787e+00    3.528139e+00
  7.100538e+00    3.557856e+00
  7.132289e+00    3.547728e+00
  7.164040e+00    3.541762e+00
  7.195791e+00    3.493711e+00
  7.227542e+00    3.556718e+00
  7.259294e+00    3.430015e+00
  7.291045e+00    3.452856e+00
  7.322796e+00    3.498417e+00
  7.354547e+00    3.520958e+00
  7.386298e+00    3.490938e+00
  7.418049e+00    3.473096e+00
  7.449800e+00    3.454590e+00
  7.481552e+00    3.490147e+00
  7.513303e+00    3.425392e+00
  7.545054e+00    3.480062e+00
  7.576805e+00    3.498797e+00
  7.608556e+00    3.517497e+00
  7.640307e+00    3.488465e+00
  7.672058e+00    3.511782e+00
  7.703810e+00    3.464113e+00
  7.735561e+00    3.454802e+00
  7.767312e+00    3.405622e+00
  7.799063e+00    3.496170e+00
  7.830814e+00    3.474258e+00
  7.862565e+00    3.484002e+00
  7.894317e+00    3.396902e+00
  7.926068e+00    3.494314e+00
  7.957819e+00    3.400723e+00
  7.989570e+00    3.441203e+00
  8.021321e+00    3.346817e+00
  8.053072e+00    3.471341e+00
  8.084823e+00    3.443718e+00
  8.116575e+00    3.479518e+00
  8.148326e+00    3.429056e+00
  8.180077e+00    3.487625e+00
  8.211828e+00    3.460163e+00
  8.243579e+00    3.500449e+00
  8.275330e+00    3.449630e+00
  8.307081e+00    3.357892e+00
  8.338833e+00    3.466820e+00
  8.370584e+00    3.391068e+00
  8.402335e+00    3.365647e+00
  8.434086e+00    3.380375e+00
  8.465837e+00    3.350093e+00
  8.497588e+00    3.430541e+00
  8.529339e+00    3.403589e+00
  8.561091e+00    3.372067e+00
  8.592842e+00    3.371989e+00
  8.624593e+00    3.342530e+00
  8.656344e+00    3.316815e+00
  8.688095e+00    3.358908e+00
  8.719846e+00    3.330056e+00
  8.751598e+00    3.311497e+00
  8.783349e+00    3.282111e+00
  8.815100e+00    3.402433e+00
  8.846851e+00    3.311589e+00
  8.878602e+00    3.335861e+00
  8.910353e+00    3.311060e+00
  8.942104e+00    3.276750e+00
  8.973856e+00    3.336358e+00
  9.005607e+00    3.283027e+00
  9.037358e+00    3.300188e+00
  9.069109e+00    3.254650e+00
  9.100860e+00    3.230493e+00
  9.132611e+00    3.297435e+00
  9.164362e+00    3.263379e+00
  9.196114e+00    3.295285e+00
  9.227865e+00    3.275561e+00
  9.259616e+00    3.225110e+00
  9.291367e+00    3.228440e+00
  9.323118e+00    3.268977e+00
  9.354869e+00    3.251233e+00
  9.386620e+00    3.273327e+00
  9.418372e+00    3.200605e+00
  9.450123e+00    3.170920e+00
  9.481874e+00    3.282219e+00
  9.513625e+00    3.184686e+00
  9.545376e+00    3.219242e+00
  9.577127e+00    3.249911e+00
  9.608878e+00    3.247973e+00
  9.640630e+00    3.191772e+00
  9.672381e+00    3.178649e+00
  9.704132e+00    3.205061e+00
  9.735883e+00    3.152668e+00
  9.767634e+00    3.139424e+00
  9.799385e+00    3.273046e+00
  9.831137e+00    3.192718e+00
  9.862888e+00    3.167417e+00
  9.894639e+00    3.173159e+00
  9.926390e+00    3.095634e+00
  9.958141e+00    3.183812e+00
  9.989892e+00    3.128844e+00
  1.002164e+01    3.082031e+00
  1.005339e+01    3.165697e+00
  1.008515e+01    3.159726e+00
  1.011690e+01    3.126934e+00
  1.014865e+01    3.101707e+00
  1.018040e+01    3.102960e+00
  1.021215e+01    3.163176e+00
  1.024390e+01    3.095381e+00
  1.027565e+01    3.067804e+00
  1.030740e+01    3.065160e+00
  1.033915e+01    3.022058e+00
  1.037091e+01    3.034322e+00
  1.040266e+01    3.036534e+00
  1.043441e+01    3.025901e+00
  1.046616e+01    3.011747e+00
  1.049791e+01    3.025686e+00
  1.052966e+01    3.063289e+00
  1.056141e+01    3.021217e+00
  1.059316e+01    2.988960e+00
  1.062492e+01    3.016069e+00
  1.065667e+01    3.030003e+00
  1.068842e+01    2.916250e+00
  1.072017e+01    2.943691e+00
  1.075192e+01    2.930301e+00
  1.078367e+01    2.999381e+00
  1.081542e+01    3.003982e+00
  1.084717e+01    2.962440e+00
  1.087892e+01    2.932500e+00
  1.091068e+01    2.926439e+00
  1.094243e+01    2.875769e+00
  1.097418e+01    2.889971e+00
  1.100593e+01    2.890113e+00
  1.103768e+01    2.925288e+00
  1.106943e+01    2.890955e+00
  1.110118e+01    2.915944e+00
  1.113293e+01    2.862548e+00
  1.116468e+01    2.961822e+00
  1.119644e+01    2.832241e+00
  1.122819e+01    2.870690e+00
  1.125994e+01    2.828764e+00
  1.129169e+01    2.861709e+00
  1.132344e+01    2.857351e+00
  1.135519e+01    2.858565e+00
  1.138694e+01    2.838528e+00
  1.141869e+01    2.854406e+00
  1.145045e+01    2.840329e+00
  1.148220e+01    2.806591e+00
  1.151395e+01    2.786741e+00
  1.154570e+01    2.757169e+00
  1.157745e+01    2.778574e+00
  1.160920e+01    2.799057e+00
  1.164095e+01    2.755829e+00
  1.167270e+01    2.788745e+00
  1.170445e+01    2.845686e+00
  1.173621e+01    2.789145e+00
  1.176796e+01    2.724655e+00
  1.179971e+01    2.738298e+00
  1.183146e+01    2.726050e+00
  1.186321e+01    2.741534e+00
  1.189496e+01    2.737797e+00
  1.192671e+01    2.707503e+00
  1.195846e+01    2.742944e+00
  1.199021e+01    2.688555e+00
  1.202197e+01    2.785645e+00
  1.205372e+01    2.699455e+00
  1.208547e+01    2.672601e+00
  1.211722e+01    2.713199e+00
  1.214897e+01    2.716203e+00
  1.218072e+01    2.734297e+00
  1.221247e+01    2.723222e+00
  1.224422e+01    2.647057e+00
  1.227597e+01    2.639793e+00
  1.230773e+01    2.689700e+00
  1.233948e+01    2.716443e+00
  1.237123e+01    2.662665e+00
  1.240298e+01    2.743187e+00
  1.243473e+01    2.732703e+00
  1.246648e+01    2.701475e+00
  1.249823e+01    2.679242e+00
  1.252998e+01    2.664887e+00
  1.256174e+01    2.762075e+00
  1.259349e+01    2.718076e+00
  1.262524e+01    2.748379e+00
  1.265699e+01    2.790488e+00
  1.268874e+01    2.783685e+00
  1.272049e+01    2.860040e+00
  1.275224e+01    2.881842e+00
  1.278399e+01    2.934329e+00
  1.281574e+01    3.105923e+00
  1.284750e+01    3.170129e+00
  1.287925e+01    3.356937e+00
  1.291100e+01    3.670560e+00
  1.294275e+01    4.038930e+00
  1.297450e+01    4.756129e+00
  1.300625e+01    5.922018e+00
  1.303800e+01    7.674079e+00
  1.306975e+01    1.014360e+01
  1.310150e+01    1.261094e+01
  1.313326e+01    1.470400e+01
  1.316501e+01    1.616560e+01
  1.319676e+01    1.559921e+01
  1.322851e+01    1.253427e+01
  1.326026e+01    9.070767e+00
  1.329201e+01    6.789870e+00
  1.332376e+01    5.349375e+00
  1.335551e+01    4.439363e+00
  1.338727e+01    3.890464e+00
  1.341902e+01    3.503198e+00
  1.345077e+01    3.279678e+00
  1.348252e+01    3.084222e+00
  1.351427e+01    2.934151e+00
  1.354602e+01    2.857971e+00
  1.357777e+01    2.729179e+00
  1.360952e+01    2.668089e+00
  1.364127e+01    2.668794e+00
  1.367303e+01    2.593477e+00
  1.370478e+01    2.553919e+00
  1.373653e+01    2.517671e+00
  1.376828e+01    2.519186e+00
  1.380003e+01    2.424162e+00
  1.383178e+01    2.393655e+00
  1.386353e+01    2.465006e+00
  1.389528e+01    2.417044e+00
  1.392703e+01    2.421215e+00
  1.395879e+01    2.379611e+00
  1.399054e+01    2.344583e+00
  1.402229e+01    2.357020e+00
  1.405404e+01    2.299823e+00
  1.408579e+01    2.344108e+00
  1.411754e+01    2.346365e+00
  1.414929e+01    2.331049e+00
  1.418104e+01    2.319468e+00
  1.421279e+01    2.272407e+00
  1.424455e+01    2.296730e+00
  1.427630e+01    2.259057e+00
  1.430805e+01    2.271326e+00
  1.433980e+01    2.224427e+00
  1.437155e+01    2.256559e+00
  1.440330e+01    2.243596e+00
  1.443505e+01    2.218873e+00
  1.446680e+01    2.208968e+00
  1.449856e+01    2.221057e+00
  1.453031e+01    2.231119e+00
  1.456206e+01    2.227877e+00
  1.459381e+01    2.227511e+00
  1.462556e+01    2.205813e+00
  1.465731e+01    2.248269e+00
  1.468906e+01    2.255194e+00
  1.472081e+01    2.248887e+00
  1.475256e+01    2.178340e+00
  1.478432e+01    2.220531e+00
  1.481607e+01    2.218331e+00
  1.484782e+01    2.194246e+00
  1.487957e+01    2.235356e+00
  1.491132e+01    2.247748e+00
  1.494307e+01    2.298493e+00
  1.497482e+01    2.338423e+00
  1.500657e+01    2.470786e+00
  1.503832e+01    2.554545e+00
  1.507008e+01    2.867507e+00
  1.510183e+01    3.209739e+00
  1.513358e+01    3.783611e+00
  1.516533e+01    4.457142e+00
  1.519708e+01    5.149467e+00
  1.522883e+01    5.592744e+00
  1.526058e+01    5.723527e+00
  1.529233e+01    5.425241e+00
  1.532409e+01    4.645764e+00
  1.535584e+01    3.731510e+00
  1.538759e+01    3.132990e+00
  1.541934e+01    2.787519e+00
  1.545109e+01    2.555055e+00
  1.548284e+01    2.359511e+00
  1.551459e+01    2.240620e+00
  1.554634e+01    2.172202e+00
  1.557809e+01    2.133006e+00
  1.560985e+01    2.081038e+00
  1.564160e+01    2.016588e+00
  1.567335e+01    2.011159e+00
  1.570510e+01    2.021055e+00
  1.573685e+01    1.962266e+00
  1.576860e+01    1.967024e+00
  1.580035e+01    1.944566e+00
  1.583210e+01    1.936978e+00
  1.586385e+01    1.923422e+00
  1.589561e+01    1.891274e+00
  1.592736e+01    1.910234e+00
  1.595911e+01    1.880854e+00
  1.599086e+01    1.892854e+00
  1.602261e+01    1.881349e+00
  1.605436e+01    1.854305e+00
  1.608611e+01    1.827754e+00
  1.611786e+01    1.808816e+00
  1.614961e+01    1.833807e+00
  1.618137e+01    1.848538e+00
  1.621312e+01    1.816739e+00
  1.624487e+01    1.839097e+00
  1.627662e+01    1.818309e+00
  1.630837e+01    1.796526e+00
  1.634012e+01    1.812324e+00
  1.637187e+01    1.840728e+00
  1.640362e+01    1.779718e+00
  1.643538e+01    1.817045e+00
  1.646713e+01    1.739012e+00
  1.649888e+01    1.771930e+00
  1.653063e+01    1.774489e+00
  1.656238e+01    1.764633e+00
  1.659413e+01    1.730577e+00
  1.662588e+01    1.728011e+00
  1.665763e+01    1.753595e+00
  1.668938e+01    1.745887e+00
  1.672114e+01    1.722450e+00
  1.675289e+01    1.697685e+00
  1.678464e+01    1.745444e+00
  1.681639e+01    1.695326e+00
  1.684814e+01    1.656364e+00
  1.687989e+01    1.686088e+00
  1.691164e+01    1.686437e+00
  1.694339e+01    1.691073e+00
  1.697514e+01    1.675046e+00
  1.700690e+01    1.698410e+00
  1.703865e+01    1.660582e+00
  1.707040e+01    1.648631e+00
  1.710215e+01    1.632411e+00
  1.713390e+01    1.653426e+00
  1.716565e+01    1.652432e+00
  1.719740e+01    1.642252e+00
  1.722915e+01    1.652202e+00
  1.726091e+01    1.605005e+00
  1.729266e+01    1.618239e+00
  1.732441e+01    1.614476e+00
  1.735616e+01    1.620466e+00
  1.738791e+01    1.635208e+00
  1.741966e+01    1.609771e+00
  1.745141e+01    1.574453e+00
  1.748316e+01    1.571960e+00
  1.751491e+01    1.573538e+00
  1.754667e+01    1.582041e+00
  1.757842e+01    1.564549e+00
  1.761017e+01    1.568050e+00
  1.764192e+01    1.556413e+00
  1.767367e+01    1.586153e+00
  1.770542e+01    1.543893e+00
  1.773717e+01    1.554928e+00
  1.776892e+01    1.548404e+00
  1.780067e+01    1.563802e+00
  1.783243e+01    1.552066e+00
  1.786418e+01    1.539729e+00
  1.789593e+01    1.541386e+00
  1.792768e+01    1.546271e+00
  1.795943e+01    1.535268e+00
  1.799118e+01    1.526447e+00
  1.802293e+01    1.490736e+00
  1.805468e+01    1.498310e+00
  1.808643e+01    1.505736e+00
  1.811819e+01    1.512490e+00
  1.814994e+01    1.484848e+00
  1.818169e+01    1.512532e+00
  1.821344e+01    1.460314e+00
  1.824519e+01    1.486603e+00
  1.827694e+01    1.477591e+00
  1.830869e+01    1.466863e+00
  1.834044e+01    1.469996e+00
  1.837220e+01    1.479766e+00
  1.840395e+01    1.507223e+00
  1.843570e+01    1.465385e+00
  1.846745e+01    1.462645e+00
  1.849920e+01    1.426336e+00
  1.853095e+01    1.417391e+00
  1.856270e+01    1.448856e+00
  1.859445e+01    1.431287e+00
  1.862620e+01    1.406565e+00
  1.865796e+01    1.427050e+00
  1.868971e+01    1.460418e+00
  1.872146e+01    1.419732e+00
  1.875321e+01    1.428222e+00
  1.878496e+01    1.415860e+00
  1.881671e+01    1.407917e+00
  1.884846e+01    1.419484e+00
  1.888021e+01    1.404508e+00
  1.891196e+01    1.397176e+00
  1.894372e+01    1.388963e+00
  1.897547e+01    1.400985e+00
  1.900722e+01    1.367641e+00
  1.903897e+01    1.379553e+00
  1.907072e+01    1.380825e+00
  1.910247e+01    1.378837e+00
  1.913422e+01    1.349942e+00
  1.916597e+01    1.340606e+00
  1.919773e+01    1.364681e+00
  1.922948e+01    1.354676e+00
  1.926123e+01    1.354946e+00
  1.929298e+01    1.363082e+00
  1.932473e+01    1.336370e+00
  1.935648e+01    1.360900e+00
  1.938823e+01    1.347753e+00
  1.941998e+01    1.331722e+00
  1.945173e+01    1.339244e+00
  1.948349e+01    1.349381e+00
  1.951524e+01    1.359168e+00
  1.954699e+01    1.327929e+00
  1.957874e+01    1.336338e+00
  1.961049e+01    1.328438e+00
  1.964224e+01    1.323408e+00
  1.967399e+01    1.318254e+00
  1.970574e+01    1.305531e+00
  1.973749e+01    1.297947e+00
  1.976925e+01    1.328658e+00
  1.980100e+01    1.289568e+00
  1.983275e+01    1.293813e+00
  1.986450e+01    1.313243e+00
  1.989625e+01    1.289077e+00
  1.992800e+01    1.282071e+00
  1.995975e+01    1.295841e+00
  1.999150e+01    1.290114e+00
  2.002325e+01    1.281139e+00
  2.005501e+01    1.263577e+00
  2.008676e+01    1.255943e+00
  2.011851e+01    1.279480e+00
  2.015026e+01    1.276161e+00
  2.018201e+01    1.279756e+00
  2.021376e+01    1.257930e+00
  2.024551e+01    1.254927e+00
  2.027726e+01    1.280871e+00
  2.030902e+01    1.243629e+00
  2.034077e+01    1.242246e+00
  2.037252e+01    1.262324e+00
  2.040427e+01    1.246857e+00
  2.043602e+01    1.263461e+00
  2.046777e+01    1.236699e+00
  2.049952e+01    1.243079e+00
  2.053127e+01    1.242858e+00
  2.056302e+01    1.249839e+00
  2.059478e+01    1.243772e+00
  2.062653e+01    1.213152e+00
  2.065828e+01    1.245977e+00
  2.069003e+01    1.259863e+00
  2.072178e+01    1.227877e+00
  2.075353e+01    1.229057e+00
  2.078528e+01    1.217054e+00
  2.081703e+01    1.229074e+00
  2.084878e+01    1.234437e+00
  2.088054e+01    1.239519e+00
  2.091229e+01    1.214602e+00
  2.094404e+01    1.248887e+00
  2.097579e+01    1.221915e+00
  2.100754e+01    1.226518e+00
  2.103929e+01    1.230877e+00
  2.107104e+01    1.227903e+00
  2.110279e+01    1.242766e+00
  2.113455e+01    1.229413e+00
  2.116630e+01    1.232626e+00
  2.119805e+01    1.226711e+00
  2.122980e+01    1.254816e+00
  2.126155e+01    1.228622e+00
  2.129330e+01    1.267327e+00
  2.132505e+01    1.283222e+00
  2.135680e+01    1.308430e+00
  2.138855e+01    1.302713e+00
  2.142031e+01    1.323023e+00
  2.145206e+01    1.337054e+00
  2.148381e+01    1.390079e+00
  2.151556e+01    1.409904e+00
  2.154731e+01    1.511251e+00
  2.157906e+01    1.596628e+00
  2.161081e+01    1.741616e+00
  2.164256e+01    1.943287e+00
  2.167431e+01    2.303822e+00
  2.170607e+01    2.724929e+00
  2.173782e+01    3.476398e+00
  2.176957e+01    4.530196e+00
  2.180132e+01    5.748914e+00
  2.183307e+01    7.095155e+00
  2.186482e+01    8.291764e+00
  2.189657e+01    8.814519e+00
  2.192832e+01    8.262542e+00
  2.196007e+01    6.602572e+00
  2.199183e+01    4.907989e+00
  2.202358e+01    3.712263e+00
  2.205533e+01    2.835001e+00
  2.208708e+01    2.328269e+00
  2.211883e+01    1.993454e+00
  2.215058e+01    1.772974e+00
  2.218233e+01    1.607478e+00
  2.221408e+01    1.483711e+00
  2.224584e+01    1.423967e+00
  2.227759e+01    1.372028e+00
  2.230934e+01    1.303715e+00
  2.234109e+01    1.280842e+00
  2.237284e+01    1.243715e+00
  2.240459e+01    1.213282e+00
  2.243634e+01    1.176813e+00
  2.246809e+01    1.173917e+00
  2.249984e+01    1.144938e+00
  2.253160e+01    1.134433e+00
  2.256335e+01    1.104455e+00
  2.259510e+01    1.097525e+00
  2.262685e+01    1.130152e+00
  2.265860e+01    1.093541e+00
  2.269035e+01    1.080302e+00
  2.272210e+01    1.068511e+00
  2.275385e+01    1.094898e+00
  2.278560e+01    1.061271e+00
  2.281736e+01    1.054643e+00
  2.284911e+01    1.047403e+00
  2.288086e+01    1.048354e+00
  2.291261e+01    1.037620e+00
  2.294436e+01    1.034836e+00
  2.297611e+01    1.027298e+00
  2.300786e+01    1.024652e+00
  2.303961e+01    1.028540e+00
  2.307137e+01    1.021388e+00
  2.310312e+01    1.016993e+00
  2.313487e+01    1.005297e+00
  2.316662e+01    9.850183e-01
  2.319837e+01    9.959259e-01
  2.323012e+01    9.969560e-01
  2.326187e+01    9.805197e-01
  2.329362e+01    9.806733e-01
  2.332537e+01    9.762108e-01
  2.335713e+01    9.795228e-01
  2.338888e+01    9.660553e-01
  2.342063e+01    9.720204e-01
  2.345238e+01    9.686303e-01
  2.348413e+01    9.719792e-01
  2.351588e+01    9.519426e-01
  2.354763e+01    9.767060e-01
  2.357938e+01    9.551604e-01
  2.361113e+01    9.603359e-01
  2.364289e+01    9.595236e-01
  2.367464e+01    9.308928e-01
  2.370639e+01    9.229992e-01
  2.373814e+01    9.134690e-01
  2.376989e+01    9.344718e-01
  2.380164e+01    9.148499e-01
  2.383339e+01    9.205471e-01
  2.386514e+01    9.205456e-01
  2.389689e+01    9.058487e-01
  2.392865e+01    9.045624e-01
  2.396040e+01    9.108242e-01
  2.399215e+01    9.012247e-01
  2.402390e+01    9.043306e-01
  2.405565e+01    8.786032e-01
  2.408740e+01    9.016796e-01
  2.411915e+01    9.011509e-01
  2.415090e+01    8.844262e-01
  2.418266e+01    8.636535e-01
  2.421441e+01    8.742219e-01
  2.424616e+01    8.987321e-01
  2.427791e+01    8.985643e-01
  2.430966e+01    9.026207e-01
  2.434141e+01    8.986076e-01
  2.437316e+01    8.906606e-01
  2.440491e+01    9.021556e-01
  2.443666e+01    8.872600e-01
  2.446842e+01    9.051420e-01
  2.450017e+01    8.922991e-01
  2.453192e+01    8.999779e-01
  2.456367e+01    8.813151e-01
  2.459542e+01    8.887060e-01
  2.462717e+01    9.044290e-01
  2.465892e+01    9.086271e-01
  2.469067e+01    8.922255e-01
  2.472242e+01    8.896629e-01
  2.475418e+01    8.852662e-01
  2.478593e+01    9.026169e-01
  2.481768e+01    8.721119e-01
  2.484943e+01    8.914380e-01
  2.488118e+01    9.020960e-01
  2.491293e+01    8.985627e-01
  2.494468e+01    8.801393e-01
  2.497643e+01    8.957598e-01
  2.500819e+01    9.088355e-01
  2.503994e+01    9.269063e-01
  2.507169e+01    8.879896e-01
  2.510344e+01    9.109747e-01
  2.513519e+01    9.108999e-01
  2.516694e+01    9.178714e-01
  2.519869e+01    9.390342e-01
  2.523044e+01    9.153093e-01
  2.526219e+01    9.312158e-01
  2.529395e+01    9.678603e-01
  2.532570e+01    9.708397e-01
  2.535745e+01    9.721431e-01
  2.538920e+01    9.848049e-01
  2.542095e+01    1.010945e+00
  2.545270e+01    9.906160e-01
  2.548445e+01    1.047466e+00
  2.551620e+01    1.078352e+00
  2.554795e+01    1.097285e+00
  2.557971e+01    1.163516e+00
  2.561146e+01    1.225547e+00
  2.564321e+01    1.301145e+00
  2.567496e+01    1.424498e+00
  2.570671e+01    1.591049e+00
  2.573846e+01    1.834855e+00
  2.577021e+01    2.219948e+00
  2.580196e+01    2.767248e+00
  2.583371e+01    3.590960e+00
  2.586547e+01    4.614327e+00
  2.589722e+01    5.760101e+00
  2.592897e+01    6.708044e+00
  2.596072e+01    7.126163e+00
  2.599247e+01    6.520386e+00
  2.602422e+01    5.326043e+00
  2.605597e+01    4.005559e+00
  2.608772e+01    3.024829e+00
  2.611948e+01    2.388694e+00
  2.615123e+01    1.993013e+00
  2.618298e+01    1.694786e+00
  2.621473e+01    1.493150e+00
  2.624648e+01    1.334622e+00
  2.627823e+01    1.240980e+00
  2.630998e+01    1.182649e+00
  2.634173e+01    1.133458e+00
  2.637348e+01    1.119610e+00
  2.640524e+01    1.033227e+00
  2.643699e+01    1.037806e+00
  2.646874e+01    1.038183e+00
  2.650049e+01    1.030481e+00
  2.653224e+01    1.048959e+00
  2.656399e+01    1.024895e+00
  2.659574e+01    1.014834e+00
  2.662749e+01    9.835519e-01
  2.665924e+01    9.851081e-01
  2.669100e+01    9.809641e-01
  2.672275e+01    9.457593e-01
  2.675450e+01    9.451947e-01
  2.678625e+01    9.950770e-01
  2.681800e+01    9.689138e-01
  2.684975e+01    9.766025e-01
  2.688150e+01    1.011441e+00
  2.691325e+01    1.011296e+00
  2.694501e+01    1.034209e+00
  2.697676e+01    1.042516e+00
  2.700851e+01    1.139998e+00
  2.704026e+01    1.204755e+00
  2.707201e+01    1.295132e+00
  2.710376e+01    1.473554e+00
  2.713551e+01    1.724464e+00
  2.716726e+01    1.952632e+00
  2.719901e+01    2.155049e+00
  2.723077e+01    2.175820e+00
  2.726252e+01    1.970237e+00
  2.729427e+01    1.712455e+00
  2.732602e+01    1.447021e+00
  2.735777e+01    1.333684e+00
  2.738952e+01    1.170923e+00
  2.742127e+01    1.111034e+00
  2.745302e+01    1.053538e+00
  2.748477e+01    1.025595e+00
  2.751653e+01    9.636143e-01
  2.754828e+01    9.288291e-01
  2.758003e+01    9.282543e-01
  2.761178e+01    9.209262e-01
  2.764353e+01    9.291815e-01
  2.767528e+01    8.982593e-01
  2.770703e+01    8.771414e-01
  2.773878e+01    8.948191e-01
  2.777054e+01    8.912786e-01
  2.780229e+01    9.141245e-01
  2.783404e+01    8.625292e-01
  2.786579e+01    8.795959e-01
  2.789754e+01    8.857497e-01
  2.792929e+01    8.663238e-01
  2.796104e+01    8.677077e-01
  2.799279e+01    8.738501e-01
  2.802454e+01    8.971382e-01
  2.805630e+01    8.619156e-01
  2.808805e+01    8.758706e-01
  2.811980e+01    8.649114e-01
  2.815155e+01    8.563964e-01
  2.818330e+01    8.788316e-01
  2.821505e+01    8.720084e-01
  2.824680e+01    8.677859e-01
  2.827855e+01    8.786641e-01
  2.831030e+01    8.379070e-01
  2.834206e+01    8.441265e-01
  2.837381e+01    8.466523e-01
  2.840556e+01    8.611892e-01
  2.843731e+01    8.564858e-01
  2.846906e+01    8.256082e-01
  2.850081e+01    8.298413e-01
  2.853256e+01    8.416977e-01
  2.856431e+01    8.359840e-01
  2.859606e+01    8.453740e-01
  2.862782e+01    8.442103e-01
  2.865957e+01    8.340858e-01
  2.869132e+01    8.229399e-01
  2.872307e+01    8.229456e-01
  2.875482e+01    8.273928e-01
  2.878657e+01    8.214025e-01
  2.881832e+01    8.159053e-01
  2.885007e+01    8.523244e-01
  2.888183e+01    8.311729e-01
  2.891358e+01    8.302313e-01
  2.894533e+01    8.320958e-01
  2.897708e+01    8.160778e-01
  2.900883e+01    8.255848e-01
  2.904058e+01    8.067059e-01
  2.907233e+01    8.228313e-01
  2.910408e+01    8.114363e-01
  2.913583e+01    8.214009e-01
  2.916759e+01    8.278279e-01
  2.919934e+01    8.181697e-01
  2.923109e+01    8.021698e-01
  2.926284e+01    8.148610e-01
  2.929459e+01    7.961060e-01
  2.932634e+01    8.162806e-01
  2.935809e+01    8.142423e-01
  2.938984e+01    8.100999e-01
  2.942159e+01    8.206888e-01
  2.945335e+01    7.985893e-01
  2.948510e+01    8.116328e-01
  2.951685e+01    8.066584e-01
  2.954860e+01    8.003846e-01
  2.958035e+01    8.009849e-01
  2.961210e+01    8.084658e-01
  2.964385e+01    8.165919e-01
  2.967560e+01    8.002688e-01
  2.970736e+01    7.975363e-01
  2.973911e+01    7.886306e-01
  2.977086e+01    8.021871e-01
  2.980261e+01    7.810376e-01
  2.983436e+01    7.992980e-01
  2.986611e+01    7.887762e-01
  2.989786e+01    8.157992e-01
  2.992961e+01    7.944172e-01
  2.996136e+01    8.079279e-01
  2.999312e+01    8.040565e-01
  3.002487e+01    8.318723e-01
  3.005662e+01    8.126183e-01
  3.008837e+01    8.177304e-01
  3.012012e+01    7.966595e-01
  3.015187e+01    7.851419e-01
  3.018362e+01    7.822667e-01
  3.021537e+01    7.899985e-01
  3.024712e+01    8.001553e-01
  3.027888e+01    7.821072e-01
  3.031063e+01    7.842830e-01
  3.034238e+01    7.725528e-01
  3.037413e+01    8.269935e-01
  3.040588e+01    7.968103e-01
  3.043763e+01    7.812967e-01
  3.046938e+01    7.877823e-01
  3.050113e+01    7.736580e-01
  3.053288e+01    7.807819e-01
  3.056464e+01    7.788709e-01
  3.059639e+01    7.908981e-01
  3.062814e+01    7.952605e-01
  3.065989e+01    7.900700e-01
  3.069164e+01    7.785916e-01
  3.072339e+01    7.715732e-01
  3.075514e+01    7.814300e-01
  3.078689e+01    7.724110e-01
  3.081865e+01    7.865041e-01
  3.085040e+01    7.881479e-01
  3.088215e+01    7.776157e-01
  3.091390e+01    7.803451e-01
  3.094565e+01    7.987570e-01
  3.097740e+01    7.923198e-01
  3.100915e+01    7.857143e-01
  3.104090e+01    7.930661e-01
  3.107265e+01    8.014436e-01
  3.110441e+01    7.906765e-01
  3.113616e+01    7.785829e-01
  3.116791e+01    8.264123e-01
  3.119966e+01    7.946693e-01
  3.123141e+01    7.867205e-01
  3.126316e+01    7.827957e-01
  3.129491e+01    7.726613e-01
  3.132666e+01    8.059849e-01
  3.135841e+01    8.169432e-01
  3.139017e+01    8.078255e-01
  3.142192e+01    8.097708e-01
  3.145367e+01    8.180226e-01
  3.148542e+01    8.322230e-01
  3.151717e+01    8.097472e-01
  3.154892e+01    8.610085e-01
  3.158067e+01    8.421384e-01
  3.161242e+01    9.073376e-01
  3.164418e+01    8.843606e-01
  3.167593e+01    9.746230e-01
  3.170768e+01    1.008216e+00
  3.173943e+01    1.136582e+00
  3.177118e+01    1.245482e+00
  3.180293e+01    1.440364e+00
  3.183468e+01    1.714754e+00
  3.186643e+01    1.956347e+00
  3.189818e+01    2.071644e+00
  3.192994e+01    2.005018e+00
  3.196169e+01    1.874960e+00
  3.199344e+01    1.550415e+00
  3.202519e+01    1.334647e+00
  3.205694e+01    1.157318e+00
  3.208869e+01    1.041287e+00
  3.212044e+01    9.721745e-01
  3.215219e+01    9.212794e-01
  3.218394e+01    8.826615e-01
  3.221570e+01    8.257877e-01
  3.224745e+01    8.199415e-01
  3.227920e+01    8.250498e-01
  3.231095e+01    8.186549e-01
  3.234270e+01    8.111587e-01
  3.237445e+01    7.944733e-01
  3.240620e+01    7.787507e-01
  3.243795e+01    7.943898e-01
  3.246970e+01    7.677875e-01
  3.250146e+01    7.826895e-01
  3.253321e+01    7.633299e-01
  3.254908e+01    7.686324e-01