File: XRD/Reaction conditions/2024-07-27_003_Ru-CGO-ex_Reaction_dwell_000023_data_000119.dat
# == pyFAI calibration ==
# Distance Sample to Detector: 0.4 m
# PONI: 9.750e-02, 1.135e-01 m
# Rotations: -0.000175 0.000000 -0.000000 rad
#
# == Fit2d calibration ==
# Distance Sample-beamCenter: 400.000 mm
# Center: x=1514.000, y=1300.000 pix
# Tilt: 0.010 deg  TiltPlanRot: 0.010 deg
#
# Detector Detector	 Spline= None	 PixelSize= 7.500e-05, 7.500e-05 m
#    Detector has a mask: False
#    Detector has a dark current: False
#    detector has a flat field: False
#
# Wavelength: 6.888e-11 m
# Mask applied: user provided
# Dark current applied: False
# Flat field applied: False
# Polarization factor: 0.99
# Normalization factor: 1.0
# --> /home/myspot/data/2024_07_Rosario/Ru-CGO-ex/2024-07-27_003_Ru-CGO-ex_Reaction_dwell_000023_data_000119.dat
#       q_nm^-1             I
  2.003187e-02    1.542422e-01
  5.178302e-02    1.982046e-01
  8.353417e-02    1.766687e-01
  1.152853e-01    4.593313e-02
  1.470365e-01    3.153719e-02
  1.787876e-01    5.027913e-02
  2.105388e-01    2.517807e-02
  2.422899e-01    6.416380e-02
  2.740411e-01    6.544951e-02
  3.057922e-01    5.367139e-02
  3.375433e-01    4.680463e-02
  3.692945e-01    7.431662e-02
  4.010456e-01    2.535720e-02
  4.327968e-01    2.614252e-02
  4.645479e-01    4.573776e-02
  4.962991e-01    3.544450e-02
  5.280502e-01    1.282009e-02
  5.598014e-01    5.098982e-02
  5.915525e-01    5.771510e-02
  6.233037e-01    5.036095e-02
  6.550548e-01    3.839267e-02
  6.868060e-01    3.006322e-02
  7.185571e-01    6.370935e-02
  7.503083e-01    5.637161e-02
  7.820594e-01    9.055490e-02
  8.138106e-01    2.311448e-01
  8.455617e-01    3.618626e-01
  8.773129e-01    5.218129e-01
  9.090640e-01    6.863545e-01
  9.408152e-01    8.078303e-01
  9.725663e-01    1.010692e+00
  1.004317e+00    1.187888e+00
  1.036069e+00    1.331421e+00
  1.067820e+00    1.430852e+00
  1.099571e+00    1.577688e+00
  1.131322e+00    1.539162e+00
  1.163073e+00    1.695389e+00
  1.194824e+00    1.796035e+00
  1.226575e+00    2.277675e+00
  1.258327e+00    2.407392e+00
  1.290078e+00    2.727522e+00
  1.321829e+00    2.769170e+00
  1.353580e+00    2.636184e+00
  1.385331e+00    2.795057e+00
  1.417082e+00    2.936065e+00
  1.448834e+00    2.959739e+00
  1.480585e+00    3.133136e+00
  1.512336e+00    3.345924e+00
  1.544087e+00    3.175134e+00
  1.575838e+00    3.195005e+00
  1.607589e+00    3.152773e+00
  1.639340e+00    3.115006e+00
  1.671092e+00    3.077501e+00
  1.702843e+00    3.059531e+00
  1.734594e+00    3.003595e+00
  1.766345e+00    3.023856e+00
  1.798096e+00    3.069205e+00
  1.829847e+00    3.150115e+00
  1.861598e+00    3.032274e+00
  1.893350e+00    3.041827e+00
  1.925101e+00    3.072773e+00
  1.956852e+00    2.993943e+00
  1.988603e+00    3.016675e+00
  2.020354e+00    3.019164e+00
  2.052105e+00    3.048577e+00
  2.083856e+00    3.049109e+00
  2.115608e+00    3.176141e+00
  2.147359e+00    3.171958e+00
  2.179110e+00    3.187323e+00
  2.210861e+00    3.097321e+00
  2.242612e+00    3.145804e+00
  2.274363e+00    3.044389e+00
  2.306115e+00    3.220378e+00
  2.337866e+00    3.122450e+00
  2.369617e+00    3.229523e+00
  2.401368e+00    3.226123e+00
  2.433119e+00    3.142019e+00
  2.464870e+00    3.216115e+00
  2.496621e+00    3.252735e+00
  2.528373e+00    3.153738e+00
  2.560124e+00    3.254288e+00
  2.591875e+00    3.294166e+00
  2.623626e+00    3.139534e+00
  2.655377e+00    3.196018e+00
  2.687128e+00    3.378558e+00
  2.718879e+00    3.286664e+00
  2.750631e+00    3.289112e+00
  2.782382e+00    3.095691e+00
  2.814133e+00    3.287487e+00
  2.845884e+00    3.288122e+00
  2.877635e+00    3.387979e+00
  2.909386e+00    3.445147e+00
  2.941137e+00    3.284726e+00
  2.972889e+00    3.358031e+00
  3.004640e+00    3.293114e+00
  3.036391e+00    3.374900e+00
  3.068142e+00    3.376652e+00
  3.099893e+00    3.494395e+00
  3.131644e+00    3.315003e+00
  3.163395e+00    3.302929e+00
  3.195147e+00    3.469470e+00
  3.226898e+00    3.411620e+00
  3.258649e+00    3.268285e+00
  3.290400e+00    3.349478e+00
  3.322151e+00    3.351351e+00
  3.353902e+00    3.402484e+00
  3.385654e+00    3.333501e+00
  3.417405e+00    3.413001e+00
  3.449156e+00    3.355700e+00
  3.480907e+00    3.447293e+00
  3.512658e+00    3.501022e+00
  3.544409e+00    3.517009e+00
  3.576160e+00    3.446793e+00
  3.607912e+00    3.509533e+00
  3.639663e+00    3.512638e+00
  3.671414e+00    3.455611e+00
  3.703165e+00    3.562126e+00
  3.734916e+00    3.551050e+00
  3.766667e+00    3.477087e+00
  3.798418e+00    3.498017e+00
  3.830170e+00    3.456732e+00
  3.861921e+00    3.461585e+00
  3.893672e+00    3.460011e+00
  3.925423e+00    3.600186e+00
  3.957174e+00    3.511970e+00
  3.988925e+00    3.495570e+00
  4.020676e+00    3.428721e+00
  4.052428e+00    3.479246e+00
  4.084179e+00    3.599576e+00
  4.115930e+00    3.592383e+00
  4.147681e+00    3.417412e+00
  4.179432e+00    3.611729e+00
  4.211183e+00    3.509931e+00
  4.242935e+00    3.602870e+00
  4.274686e+00    3.663662e+00
  4.306437e+00    3.551705e+00
  4.338188e+00    3.560994e+00
  4.369939e+00    3.620298e+00
  4.401690e+00    3.563766e+00
  4.433441e+00    3.569242e+00
  4.465193e+00    3.609602e+00
  4.496944e+00    3.563625e+00
  4.528695e+00    3.577463e+00
  4.560446e+00    3.622204e+00
  4.592197e+00    3.680639e+00
  4.623948e+00    3.694650e+00
  4.655699e+00    3.639462e+00
  4.687451e+00    3.611059e+00
  4.719202e+00    3.628743e+00
  4.750953e+00    3.799061e+00
  4.782704e+00    3.549340e+00
  4.814455e+00    3.616827e+00
  4.846206e+00    3.694212e+00
  4.877957e+00    3.673735e+00
  4.909709e+00    3.675043e+00
  4.941460e+00    3.660101e+00
  4.973211e+00    3.736831e+00
  5.004962e+00    3.589385e+00
  5.036713e+00    3.676627e+00
  5.068464e+00    3.639907e+00
  5.100216e+00    3.642555e+00
  5.131967e+00    3.613890e+00
  5.163718e+00    3.640683e+00
  5.195469e+00    3.596147e+00
  5.227220e+00    3.599125e+00
  5.258971e+00    3.633605e+00
  5.290722e+00    3.593800e+00
  5.322474e+00    3.685451e+00
  5.354225e+00    3.645191e+00
  5.385976e+00    3.672975e+00
  5.417727e+00    3.702036e+00
  5.449478e+00    3.604464e+00
  5.481229e+00    3.705624e+00
  5.512980e+00    3.626715e+00
  5.544732e+00    3.571122e+00
  5.576483e+00    3.474652e+00
  5.608234e+00    3.574558e+00
  5.639985e+00    3.624056e+00
  5.671736e+00    3.566461e+00
  5.703487e+00    3.568169e+00
  5.735238e+00    3.579889e+00
  5.766990e+00    3.487036e+00
  5.798741e+00    3.570190e+00
  5.830492e+00    3.561799e+00
  5.862243e+00    3.586140e+00
  5.893994e+00    3.609915e+00
  5.925745e+00    3.559408e+00
  5.957497e+00    3.530316e+00
  5.989248e+00    3.569326e+00
  6.020999e+00    3.553119e+00
  6.052750e+00    3.548885e+00
  6.084501e+00    3.596805e+00
  6.116252e+00    3.650487e+00
  6.148003e+00    3.584051e+00
  6.179755e+00    3.636091e+00
  6.211506e+00    3.486881e+00
  6.243257e+00    3.573510e+00
  6.275008e+00    3.540143e+00
  6.306759e+00    3.512487e+00
  6.338510e+00    3.549263e+00
  6.370261e+00    3.571728e+00
  6.402013e+00    3.537831e+00
  6.433764e+00    3.570139e+00
  6.465515e+00    3.589611e+00
  6.497266e+00    3.482884e+00
  6.529017e+00    3.499390e+00
  6.560768e+00    3.622750e+00
  6.592519e+00    3.537141e+00
  6.624271e+00    3.595773e+00
  6.656022e+00    3.585883e+00
  6.687773e+00    3.599183e+00
  6.719524e+00    3.598427e+00
  6.751275e+00    3.538557e+00
  6.783026e+00    3.561953e+00
  6.814777e+00    3.481772e+00
  6.846529e+00    3.529137e+00
  6.878280e+00    3.511494e+00
  6.910031e+00    3.483884e+00
  6.941782e+00    3.512357e+00
  6.973533e+00    3.521503e+00
  7.005284e+00    3.517112e+00
  7.037036e+00    3.457849e+00
  7.068787e+00    3.496282e+00
  7.100538e+00    3.480325e+00
  7.132289e+00    3.529659e+00
  7.164040e+00    3.511592e+00
  7.195791e+00    3.535328e+00
  7.227542e+00    3.530171e+00
  7.259294e+00    3.547546e+00
  7.291045e+00    3.480473e+00
  7.322796e+00    3.489589e+00
  7.354547e+00    3.454792e+00
  7.386298e+00    3.591456e+00
  7.418049e+00    3.535897e+00
  7.449800e+00    3.523786e+00
  7.481552e+00    3.466624e+00
  7.513303e+00    3.424839e+00
  7.545054e+00    3.499293e+00
  7.576805e+00    3.458803e+00
  7.608556e+00    3.463057e+00
  7.640307e+00    3.440876e+00
  7.672058e+00    3.512613e+00
  7.703810e+00    3.431264e+00
  7.735561e+00    3.423038e+00
  7.767312e+00    3.465634e+00
  7.799063e+00    3.483156e+00
  7.830814e+00    3.413394e+00
  7.862565e+00    3.407753e+00
  7.894317e+00    3.432306e+00
  7.926068e+00    3.430638e+00
  7.957819e+00    3.455002e+00
  7.989570e+00    3.493505e+00
  8.021321e+00    3.404564e+00
  8.053072e+00    3.399656e+00
  8.084823e+00    3.402109e+00
  8.116575e+00    3.450768e+00
  8.148326e+00    3.449492e+00
  8.180077e+00    3.476957e+00
  8.211828e+00    3.444467e+00
  8.243579e+00    3.450961e+00
  8.275330e+00    3.418107e+00
  8.307081e+00    3.425262e+00
  8.338833e+00    3.473365e+00
  8.370584e+00    3.401955e+00
  8.402335e+00    3.451144e+00
  8.434086e+00    3.415429e+00
  8.465837e+00    3.353470e+00
  8.497588e+00    3.367200e+00
  8.529339e+00    3.397177e+00
  8.561091e+00    3.325786e+00
  8.592842e+00    3.330935e+00
  8.624593e+00    3.363712e+00
  8.656344e+00    3.343495e+00
  8.688095e+00    3.319385e+00
  8.719846e+00    3.278940e+00
  8.751598e+00    3.349162e+00
  8.783349e+00    3.257960e+00
  8.815100e+00    3.324198e+00
  8.846851e+00    3.300553e+00
  8.878602e+00    3.273534e+00
  8.910353e+00    3.298158e+00
  8.942104e+00    3.338107e+00
  8.973856e+00    3.292018e+00
  9.005607e+00    3.291149e+00
  9.037358e+00    3.261692e+00
  9.069109e+00    3.272556e+00
  9.100860e+00    3.319506e+00
  9.132611e+00    3.223526e+00
  9.164362e+00    3.256887e+00
  9.196114e+00    3.283262e+00
  9.227865e+00    3.265061e+00
  9.259616e+00    3.252750e+00
  9.291367e+00    3.268265e+00
  9.323118e+00    3.221503e+00
  9.354869e+00    3.265910e+00
  9.386620e+00    3.213173e+00
  9.418372e+00    3.214018e+00
  9.450123e+00    3.183001e+00
  9.481874e+00    3.219616e+00
  9.513625e+00    3.242452e+00
  9.545376e+00    3.239626e+00
  9.577127e+00    3.214273e+00
  9.608878e+00    3.172104e+00
  9.640630e+00    3.186640e+00
  9.672381e+00    3.196138e+00
  9.704132e+00    3.153494e+00
  9.735883e+00    3.197189e+00
  9.767634e+00    3.174254e+00
  9.799385e+00    3.135643e+00
  9.831137e+00    3.124589e+00
  9.862888e+00    3.127668e+00
  9.894639e+00    3.160811e+00
  9.926390e+00    3.082558e+00
  9.958141e+00    3.063083e+00
  9.989892e+00    3.050068e+00
  1.002164e+01    3.107525e+00
  1.005339e+01    3.118750e+00
  1.008515e+01    3.144536e+00
  1.011690e+01    3.083289e+00
  1.014865e+01    3.116418e+00
  1.018040e+01    3.118244e+00
  1.021215e+01    3.055228e+00
  1.024390e+01    3.041521e+00
  1.027565e+01    3.047984e+00
  1.030740e+01    3.063770e+00
  1.033915e+01    3.038298e+00
  1.037091e+01    3.053227e+00
  1.040266e+01    3.020746e+00
  1.043441e+01    3.056104e+00
  1.046616e+01    3.070029e+00
  1.049791e+01    3.012057e+00
  1.052966e+01    2.993588e+00
  1.056141e+01    3.020819e+00
  1.059316e+01    2.961290e+00
  1.062492e+01    3.022706e+00
  1.065667e+01    2.963862e+00
  1.068842e+01    2.982132e+00
  1.072017e+01    2.965258e+00
  1.075192e+01    2.985080e+00
  1.078367e+01    2.998896e+00
  1.081542e+01    2.921281e+00
  1.084717e+01    2.972674e+00
  1.087892e+01    2.954946e+00
  1.091068e+01    2.944597e+00
  1.094243e+01    2.928167e+00
  1.097418e+01    2.870412e+00
  1.100593e+01    2.886430e+00
  1.103768e+01    2.933358e+00
  1.106943e+01    2.885531e+00
  1.110118e+01    2.908604e+00
  1.113293e+01    2.902578e+00
  1.116468e+01    2.897154e+00
  1.119644e+01    2.838655e+00
  1.122819e+01    2.843734e+00
  1.125994e+01    2.831525e+00
  1.129169e+01    2.829320e+00
  1.132344e+01    2.839929e+00
  1.135519e+01    2.863163e+00
  1.138694e+01    2.829327e+00
  1.141869e+01    2.819480e+00
  1.145045e+01    2.760675e+00
  1.148220e+01    2.766814e+00
  1.151395e+01    2.772754e+00
  1.154570e+01    2.780209e+00
  1.157745e+01    2.809600e+00
  1.160920e+01    2.827919e+00
  1.164095e+01    2.764522e+00
  1.167270e+01    2.783215e+00
  1.170445e+01    2.780632e+00
  1.173621e+01    2.707270e+00
  1.176796e+01    2.729632e+00
  1.179971e+01    2.718906e+00
  1.183146e+01    2.704421e+00
  1.186321e+01    2.737877e+00
  1.189496e+01    2.707697e+00
  1.192671e+01    2.714416e+00
  1.195846e+01    2.717137e+00
  1.199021e+01    2.792679e+00
  1.202197e+01    2.695609e+00
  1.205372e+01    2.690535e+00
  1.208547e+01    2.722280e+00
  1.211722e+01    2.688284e+00
  1.214897e+01    2.694317e+00
  1.218072e+01    2.719613e+00
  1.221247e+01    2.705470e+00
  1.224422e+01    2.707568e+00
  1.227597e+01    2.702893e+00
  1.230773e+01    2.708971e+00
  1.233948e+01    2.741635e+00
  1.237123e+01    2.726615e+00
  1.240298e+01    2.733643e+00
  1.243473e+01    2.736395e+00
  1.246648e+01    2.678855e+00
  1.249823e+01    2.683805e+00
  1.252998e+01    2.694535e+00
  1.256174e+01    2.710288e+00
  1.259349e+01    2.729336e+00
  1.262524e+01    2.724636e+00
  1.265699e+01    2.778821e+00
  1.268874e+01    2.823826e+00
  1.272049e+01    2.868274e+00
  1.275224e+01    2.905474e+00
  1.278399e+01    2.910095e+00
  1.281574e+01    3.042971e+00
  1.284750e+01    3.219467e+00
  1.287925e+01    3.414570e+00
  1.291100e+01    3.654674e+00
  1.294275e+01    4.088827e+00
  1.297450e+01    4.789781e+00
  1.300625e+01    5.939852e+00
  1.303800e+01    7.715693e+00
  1.306975e+01    1.024283e+01
  1.310150e+01    1.276445e+01
  1.313326e+01    1.487675e+01
  1.316501e+01    1.626530e+01
  1.319676e+01    1.562147e+01
  1.322851e+01    1.253013e+01
  1.326026e+01    9.063800e+00
  1.329201e+01    6.785388e+00
  1.332376e+01    5.290946e+00
  1.335551e+01    4.444936e+00
  1.338727e+01    3.846307e+00
  1.341902e+01    3.494195e+00
  1.345077e+01    3.229208e+00
  1.348252e+01    3.062130e+00
  1.351427e+01    2.918844e+00
  1.354602e+01    2.877843e+00
  1.357777e+01    2.722376e+00
  1.360952e+01    2.664930e+00
  1.364127e+01    2.629345e+00
  1.367303e+01    2.560910e+00
  1.370478e+01    2.544128e+00
  1.373653e+01    2.569463e+00
  1.376828e+01    2.498626e+00
  1.380003e+01    2.438680e+00
  1.383178e+01    2.482513e+00
  1.386353e+01    2.437010e+00
  1.389528e+01    2.406873e+00
  1.392703e+01    2.402333e+00
  1.395879e+01    2.365880e+00
  1.399054e+01    2.381284e+00
  1.402229e+01    2.361947e+00
  1.405404e+01    2.344731e+00
  1.408579e+01    2.354226e+00
  1.411754e+01    2.286746e+00
  1.414929e+01    2.321696e+00
  1.418104e+01    2.312904e+00
  1.421279e+01    2.312041e+00
  1.424455e+01    2.244321e+00
  1.427630e+01    2.265628e+00
  1.430805e+01    2.253267e+00
  1.433980e+01    2.249846e+00
  1.437155e+01    2.260867e+00
  1.440330e+01    2.283110e+00
  1.443505e+01    2.238617e+00
  1.446680e+01    2.223574e+00
  1.449856e+01    2.234368e+00
  1.453031e+01    2.220087e+00
  1.456206e+01    2.182393e+00
  1.459381e+01    2.192683e+00
  1.462556e+01    2.195665e+00
  1.465731e+01    2.252215e+00
  1.468906e+01    2.214289e+00
  1.472081e+01    2.214789e+00
  1.475256e+01    2.167795e+00
  1.478432e+01    2.192131e+00
  1.481607e+01    2.225527e+00
  1.484782e+01    2.241340e+00
  1.487957e+01    2.231558e+00
  1.491132e+01    2.240061e+00
  1.494307e+01    2.275396e+00
  1.497482e+01    2.292846e+00
  1.500657e+01    2.445235e+00
  1.503832e+01    2.606210e+00
  1.507008e+01    2.824230e+00
  1.510183e+01    3.267615e+00
  1.513358e+01    3.868885e+00
  1.516533e+01    4.540155e+00
  1.519708e+01    5.239424e+00
  1.522883e+01    5.579921e+00
  1.526058e+01    5.739408e+00
  1.529233e+01    5.467838e+00
  1.532409e+01    4.632596e+00
  1.535584e+01    3.756129e+00
  1.538759e+01    3.104332e+00
  1.541934e+01    2.733070e+00
  1.545109e+01    2.550277e+00
  1.548284e+01    2.384258e+00
  1.551459e+01    2.225131e+00
  1.554634e+01    2.163476e+00
  1.557809e+01    2.119581e+00
  1.560985e+01    2.057715e+00
  1.564160e+01    2.054729e+00
  1.567335e+01    2.040919e+00
  1.570510e+01    1.968748e+00
  1.573685e+01    1.951490e+00
  1.576860e+01    1.983397e+00
  1.580035e+01    1.910778e+00
  1.583210e+01    1.918722e+00
  1.586385e+01    1.945637e+00
  1.589561e+01    1.902045e+00
  1.592736e+01    1.871584e+00
  1.595911e+01    1.869229e+00
  1.599086e+01    1.875043e+00
  1.602261e+01    1.847988e+00
  1.605436e+01    1.848347e+00
  1.608611e+01    1.901793e+00
  1.611786e+01    1.852889e+00
  1.614961e+01    1.834304e+00
  1.618137e+01    1.836961e+00
  1.621312e+01    1.837369e+00
  1.624487e+01    1.826193e+00
  1.627662e+01    1.825298e+00
  1.630837e+01    1.797003e+00
  1.634012e+01    1.763662e+00
  1.637187e+01    1.801809e+00
  1.640362e+01    1.783582e+00
  1.643538e+01    1.795221e+00
  1.646713e+01    1.762487e+00
  1.649888e+01    1.731898e+00
  1.653063e+01    1.756622e+00
  1.656238e+01    1.742557e+00
  1.659413e+01    1.745418e+00
  1.662588e+01    1.716130e+00
  1.665763e+01    1.740764e+00
  1.668938e+01    1.727423e+00
  1.672114e+01    1.716068e+00
  1.675289e+01    1.725921e+00
  1.678464e+01    1.687962e+00
  1.681639e+01    1.701466e+00
  1.684814e+01    1.705563e+00
  1.687989e+01    1.697342e+00
  1.691164e+01    1.669407e+00
  1.694339e+01    1.661889e+00
  1.697514e+01    1.686204e+00
  1.700690e+01    1.670888e+00
  1.703865e+01    1.685302e+00
  1.707040e+01    1.664954e+00
  1.710215e+01    1.638226e+00
  1.713390e+01    1.618733e+00
  1.716565e+01    1.630720e+00
  1.719740e+01    1.634950e+00
  1.722915e+01    1.636515e+00
  1.726091e+01    1.633128e+00
  1.729266e+01    1.615873e+00
  1.732441e+01    1.613714e+00
  1.735616e+01    1.607407e+00
  1.738791e+01    1.609398e+00
  1.741966e+01    1.606760e+00
  1.745141e+01    1.611202e+00
  1.748316e+01    1.608122e+00
  1.751491e+01    1.594325e+00
  1.754667e+01    1.563500e+00
  1.757842e+01    1.559070e+00
  1.761017e+01    1.558868e+00
  1.764192e+01    1.580234e+00
  1.767367e+01    1.563515e+00
  1.770542e+01    1.533504e+00
  1.773717e+01    1.561579e+00
  1.776892e+01    1.553213e+00
  1.780067e+01    1.543505e+00
  1.783243e+01    1.558163e+00
  1.786418e+01    1.555095e+00
  1.789593e+01    1.565643e+00
  1.792768e+01    1.519137e+00
  1.795943e+01    1.523035e+00
  1.799118e+01    1.506441e+00
  1.802293e+01    1.499233e+00
  1.805468e+01    1.490891e+00
  1.808643e+01    1.488966e+00
  1.811819e+01    1.464257e+00
  1.814994e+01    1.482905e+00
  1.818169e+01    1.504389e+00
  1.821344e+01    1.491165e+00
  1.824519e+01    1.466835e+00
  1.827694e+01    1.441768e+00
  1.830869e+01    1.472127e+00
  1.834044e+01    1.451072e+00
  1.837220e+01    1.433946e+00
  1.840395e+01    1.472370e+00
  1.843570e+01    1.465102e+00
  1.846745e+01    1.433098e+00
  1.849920e+01    1.434055e+00
  1.853095e+01    1.442552e+00
  1.856270e+01    1.429333e+00
  1.859445e+01    1.436467e+00
  1.862620e+01    1.389412e+00
  1.865796e+01    1.397509e+00
  1.868971e+01    1.417070e+00
  1.872146e+01    1.410595e+00
  1.875321e+01    1.411932e+00
  1.878496e+01    1.408460e+00
  1.881671e+01    1.426916e+00
  1.884846e+01    1.407418e+00
  1.888021e+01    1.392092e+00
  1.891196e+01    1.385602e+00
  1.894372e+01    1.374677e+00
  1.897547e+01    1.382057e+00
  1.900722e+01    1.380390e+00
  1.903897e+01    1.352685e+00
  1.907072e+01    1.419118e+00
  1.910247e+01    1.366389e+00
  1.913422e+01    1.363496e+00
  1.916597e+01    1.351254e+00
  1.919773e+01    1.349335e+00
  1.922948e+01    1.348243e+00
  1.926123e+01    1.370132e+00
  1.929298e+01    1.352198e+00
  1.932473e+01    1.335613e+00
  1.935648e+01    1.359713e+00
  1.938823e+01    1.335086e+00
  1.941998e+01    1.357772e+00
  1.945173e+01    1.340350e+00
  1.948349e+01    1.329773e+00
  1.951524e+01    1.340726e+00
  1.954699e+01    1.336034e+00
  1.957874e+01    1.318879e+00
  1.961049e+01    1.323225e+00
  1.964224e+01    1.316246e+00
  1.967399e+01    1.312650e+00
  1.970574e+01    1.292835e+00
  1.973749e+01    1.322208e+00
  1.976925e+01    1.303522e+00
  1.980100e+01    1.304430e+00
  1.983275e+01    1.283814e+00
  1.986450e+01    1.276746e+00
  1.989625e+01    1.274657e+00
  1.992800e+01    1.279104e+00
  1.995975e+01    1.310764e+00
  1.999150e+01    1.293124e+00
  2.002325e+01    1.279792e+00
  2.005501e+01    1.261708e+00
  2.008676e+01    1.260532e+00
  2.011851e+01    1.253530e+00
  2.015026e+01    1.261021e+00
  2.018201e+01    1.267202e+00
  2.021376e+01    1.263736e+00
  2.024551e+01    1.259521e+00
  2.027726e+01    1.264724e+00
  2.030902e+01    1.276184e+00
  2.034077e+01    1.252230e+00
  2.037252e+01    1.226767e+00
  2.040427e+01    1.252308e+00
  2.043602e+01    1.240848e+00
  2.046777e+01    1.273674e+00
  2.049952e+01    1.245308e+00
  2.053127e+01    1.245445e+00
  2.056302e+01    1.210349e+00
  2.059478e+01    1.250829e+00
  2.062653e+01    1.260077e+00
  2.065828e+01    1.231789e+00
  2.069003e+01    1.236316e+00
  2.072178e+01    1.215846e+00
  2.075353e+01    1.230832e+00
  2.078528e+01    1.250819e+00
  2.081703e+01    1.232272e+00
  2.084878e+01    1.222927e+00
  2.088054e+01    1.204346e+00
  2.091229e+01    1.218039e+00
  2.094404e+01    1.232037e+00
  2.097579e+01    1.244835e+00
  2.100754e+01    1.215969e+00
  2.103929e+01    1.219601e+00
  2.107104e+01    1.237331e+00
  2.110279e+01    1.226544e+00
  2.113455e+01    1.251042e+00
  2.116630e+01    1.231061e+00
  2.119805e+01    1.242820e+00
  2.122980e+01    1.256092e+00
  2.126155e+01    1.270390e+00
  2.129330e+01    1.257280e+00
  2.132505e+01    1.266790e+00
  2.135680e+01    1.285865e+00
  2.138855e+01    1.284599e+00
  2.142031e+01    1.296564e+00
  2.145206e+01    1.356156e+00
  2.148381e+01    1.430938e+00
  2.151556e+01    1.424662e+00
  2.154731e+01    1.514974e+00
  2.157906e+01    1.624802e+00
  2.161081e+01    1.745284e+00
  2.164256e+01    1.977104e+00
  2.167431e+01    2.294746e+00
  2.170607e+01    2.813284e+00
  2.173782e+01    3.529137e+00
  2.176957e+01    4.646395e+00
  2.180132e+01    5.851902e+00
  2.183307e+01    7.180726e+00
  2.186482e+01    8.435875e+00
  2.189657e+01    8.965881e+00
  2.192832e+01    8.253520e+00
  2.196007e+01    6.548156e+00
  2.199183e+01    4.783133e+00
  2.202358e+01    3.586012e+00
  2.205533e+01    2.814118e+00
  2.208708e+01    2.316992e+00
  2.211883e+01    1.985833e+00
  2.215058e+01    1.750084e+00
  2.218233e+01    1.585141e+00
  2.221408e+01    1.502295e+00
  2.224584e+01    1.408436e+00
  2.227759e+01    1.358776e+00
  2.230934e+01    1.299807e+00
  2.234109e+01    1.259341e+00
  2.237284e+01    1.227638e+00
  2.240459e+01    1.182738e+00
  2.243634e+01    1.182189e+00
  2.246809e+01    1.153098e+00
  2.249984e+01    1.138368e+00
  2.253160e+01    1.138612e+00
  2.256335e+01    1.138949e+00
  2.259510e+01    1.106325e+00
  2.262685e+01    1.085015e+00
  2.265860e+01    1.077822e+00
  2.269035e+01    1.103477e+00
  2.272210e+01    1.091282e+00
  2.275385e+01    1.056965e+00
  2.278560e+01    1.082489e+00
  2.281736e+01    1.035433e+00
  2.284911e+01    1.055497e+00
  2.288086e+01    1.048607e+00
  2.291261e+01    1.011877e+00
  2.294436e+01    1.026051e+00
  2.297611e+01    1.028137e+00
  2.300786e+01    1.031210e+00
  2.303961e+01    1.017123e+00
  2.307137e+01    9.937726e-01
  2.310312e+01    1.014077e+00
  2.313487e+01    9.916892e-01
  2.316662e+01    1.004150e+00
  2.319837e+01    9.733058e-01
  2.323012e+01    9.775481e-01
  2.326187e+01    9.829882e-01
  2.329362e+01    9.838682e-01
  2.332537e+01    9.874514e-01
  2.335713e+01    9.861289e-01
  2.338888e+01    9.724597e-01
  2.342063e+01    1.006024e+00
  2.345238e+01    9.484537e-01
  2.348413e+01    9.753097e-01
  2.351588e+01    9.496232e-01
  2.354763e+01    9.727041e-01
  2.357938e+01    9.672966e-01
  2.361113e+01    9.713076e-01
  2.364289e+01    9.657150e-01
  2.367464e+01    9.236751e-01
  2.370639e+01    9.392176e-01
  2.373814e+01    9.267663e-01
  2.376989e+01    9.250499e-01
  2.380164e+01    9.154582e-01
  2.383339e+01    9.256255e-01
  2.386514e+01    9.285994e-01
  2.389689e+01    8.915535e-01
  2.392865e+01    8.882636e-01
  2.396040e+01    9.093864e-01
  2.399215e+01    8.803930e-01
  2.402390e+01    8.914236e-01
  2.405565e+01    8.865929e-01
  2.408740e+01    8.876557e-01
  2.411915e+01    8.784813e-01
  2.415090e+01    8.543743e-01
  2.418266e+01    8.954676e-01
  2.421441e+01    8.836477e-01
  2.424616e+01    8.980373e-01
  2.427791e+01    8.939683e-01
  2.430966e+01    9.065138e-01
  2.434141e+01    9.056855e-01
  2.437316e+01    8.834893e-01
  2.440491e+01    8.933737e-01
  2.443666e+01    8.794345e-01
  2.446842e+01    8.737485e-01
  2.450017e+01    8.931654e-01
  2.453192e+01    8.903625e-01
  2.456367e+01    8.890791e-01
  2.459542e+01    8.794939e-01
  2.462717e+01    9.035239e-01
  2.465892e+01    9.241647e-01
  2.469067e+01    8.969985e-01
  2.472242e+01    8.799052e-01
  2.475418e+01    8.922536e-01
  2.478593e+01    8.893675e-01
  2.481768e+01    9.057540e-01
  2.484943e+01    8.952158e-01
  2.488118e+01    8.920159e-01
  2.491293e+01    8.849999e-01
  2.494468e+01    8.967614e-01
  2.497643e+01    8.931050e-01
  2.500819e+01    8.865103e-01
  2.503994e+01    9.051006e-01
  2.507169e+01    9.098298e-01
  2.510344e+01    9.078807e-01
  2.513519e+01    8.918000e-01
  2.516694e+01    8.999701e-01
  2.519869e+01    9.345855e-01
  2.523044e+01    9.281220e-01
  2.526219e+01    9.360743e-01
  2.529395e+01    9.503593e-01
  2.532570e+01    9.548499e-01
  2.535745e+01    9.598037e-01
  2.538920e+01    1.013694e+00
  2.542095e+01    9.770667e-01
  2.545270e+01    1.025364e+00
  2.548445e+01    1.019987e+00
  2.551620e+01    1.076494e+00
  2.554795e+01    1.121427e+00
  2.557971e+01    1.146227e+00
  2.561146e+01    1.227004e+00
  2.564321e+01    1.301038e+00
  2.567496e+01    1.404806e+00
  2.570671e+01    1.602891e+00
  2.573846e+01    1.863853e+00
  2.577021e+01    2.277681e+00
  2.580196e+01    2.855377e+00
  2.583371e+01    3.623350e+00
  2.586547e+01    4.714921e+00
  2.589722e+01    5.895674e+00
  2.592897e+01    6.852380e+00
  2.596072e+01    7.156283e+00
  2.599247e+01    6.563255e+00
  2.602422e+01    5.292564e+00
  2.605597e+01    3.958520e+00
  2.608772e+01    2.944096e+00
  2.611948e+01    2.374185e+00
  2.615123e+01    1.947349e+00
  2.618298e+01    1.692903e+00
  2.621473e+01    1.493394e+00
  2.624648e+01    1.328714e+00
  2.627823e+01    1.248665e+00
  2.630998e+01    1.194903e+00
  2.634173e+01    1.126921e+00
  2.637348e+01    1.101289e+00
  2.640524e+01    1.042112e+00
  2.643699e+01    1.049304e+00
  2.646874e+01    1.015854e+00
  2.650049e+01    1.018408e+00
  2.653224e+01    1.019554e+00
  2.656399e+01    9.781832e-01
  2.659574e+01    9.583837e-01
  2.662749e+01    9.803571e-01
  2.665924e+01    9.636871e-01
  2.669100e+01    9.874688e-01
  2.672275e+01    9.816542e-01
  2.675450e+01    9.816300e-01
  2.678625e+01    9.626983e-01
  2.681800e+01    9.797097e-01
  2.684975e+01    9.955604e-01
  2.688150e+01    9.914423e-01
  2.691325e+01    9.747052e-01
  2.694501e+01    1.035241e+00
  2.697676e+01    1.065139e+00
  2.700851e+01    1.120813e+00
  2.704026e+01    1.192917e+00
  2.707201e+01    1.301155e+00
  2.710376e+01    1.498675e+00
  2.713551e+01    1.747863e+00
  2.716726e+01    1.982169e+00
  2.719901e+01    2.135497e+00
  2.723077e+01    2.152722e+00
  2.726252e+01    1.961879e+00
  2.729427e+01    1.709306e+00
  2.732602e+01    1.447354e+00
  2.735777e+01    1.270377e+00
  2.738952e+01    1.174134e+00
  2.742127e+01    1.101493e+00
  2.745302e+01    1.029507e+00
  2.748477e+01    1.001550e+00
  2.751653e+01    9.644563e-01
  2.754828e+01    9.496924e-01
  2.758003e+01    9.517878e-01
  2.761178e+01    9.480784e-01
  2.764353e+01    9.104020e-01
  2.767528e+01    9.036906e-01
  2.770703e+01    9.061444e-01
  2.773878e+01    9.014826e-01
  2.777054e+01    8.904619e-01
  2.780229e+01    8.691365e-01
  2.783404e+01    8.811064e-01
  2.786579e+01    8.881410e-01
  2.789754e+01    8.877444e-01
  2.792929e+01    9.035375e-01
  2.796104e+01    8.450633e-01
  2.799279e+01    8.784812e-01
  2.802454e+01    8.737535e-01
  2.805630e+01    8.476459e-01
  2.808805e+01    8.655412e-01
  2.811980e+01    8.480067e-01
  2.815155e+01    8.473144e-01
  2.818330e+01    8.472151e-01
  2.821505e+01    8.411433e-01
  2.824680e+01    8.447688e-01
  2.827855e+01    8.354037e-01
  2.831030e+01    8.545932e-01
  2.834206e+01    8.181926e-01
  2.837381e+01    8.632991e-01
  2.840556e+01    8.227631e-01
  2.843731e+01    8.094059e-01
  2.846906e+01    8.483046e-01
  2.850081e+01    8.227380e-01
  2.853256e+01    8.658134e-01
  2.856431e+01    8.354877e-01
  2.859606e+01    8.610654e-01
  2.862782e+01    8.371325e-01
  2.865957e+01    8.447655e-01
  2.869132e+01    8.274907e-01
  2.872307e+01    8.288984e-01
  2.875482e+01    8.461593e-01
  2.878657e+01    8.284737e-01
  2.881832e+01    8.140931e-01
  2.885007e+01    8.128187e-01
  2.888183e+01    8.329793e-01
  2.891358e+01    8.358997e-01
  2.894533e+01    8.312029e-01
  2.897708e+01    8.205758e-01
  2.900883e+01    8.306395e-01
  2.904058e+01    8.169588e-01
  2.907233e+01    8.060254e-01
  2.910408e+01    8.262542e-01
  2.913583e+01    8.240017e-01
  2.916759e+01    8.102481e-01
  2.919934e+01    8.139462e-01
  2.923109e+01    8.069080e-01
  2.926284e+01    8.169896e-01
  2.929459e+01    8.167778e-01
  2.932634e+01    8.146861e-01
  2.935809e+01    8.227367e-01
  2.938984e+01    8.000987e-01
  2.942159e+01    7.993990e-01
  2.945335e+01    8.153341e-01
  2.948510e+01    8.030783e-01
  2.951685e+01    8.074037e-01
  2.954860e+01    8.037730e-01
  2.958035e+01    8.123441e-01
  2.961210e+01    7.964812e-01
  2.964385e+01    7.987289e-01
  2.967560e+01    8.010481e-01
  2.970736e+01    8.016908e-01
  2.973911e+01    7.913191e-01
  2.977086e+01    7.992377e-01
  2.980261e+01    7.845225e-01
  2.983436e+01    7.865563e-01
  2.986611e+01    7.810397e-01
  2.989786e+01    7.800409e-01
  2.992961e+01    8.137285e-01
  2.996136e+01    8.087967e-01
  2.999312e+01    7.832345e-01
  3.002487e+01    8.033420e-01
  3.005662e+01    8.261024e-01
  3.008837e+01    8.105519e-01
  3.012012e+01    8.187886e-01
  3.015187e+01    7.782521e-01
  3.018362e+01    7.967260e-01
  3.021537e+01    7.786071e-01
  3.024712e+01    7.776627e-01
  3.027888e+01    7.954271e-01
  3.031063e+01    8.006988e-01
  3.034238e+01    8.001806e-01
  3.037413e+01    7.821184e-01
  3.040588e+01    8.070508e-01
  3.043763e+01    7.728491e-01
  3.046938e+01    7.832122e-01
  3.050113e+01    7.973130e-01
  3.053288e+01    7.864569e-01
  3.056464e+01    7.540944e-01
  3.059639e+01    7.697699e-01
  3.062814e+01    7.677257e-01
  3.065989e+01    7.912382e-01
  3.069164e+01    7.796822e-01
  3.072339e+01    7.791431e-01
  3.075514e+01    7.727877e-01
  3.078689e+01    7.739037e-01
  3.081865e+01    7.610523e-01
  3.085040e+01    8.083373e-01
  3.088215e+01    7.860622e-01
  3.091390e+01    7.893941e-01
  3.094565e+01    7.985580e-01
  3.097740e+01    7.669641e-01
  3.100915e+01    7.816993e-01
  3.104090e+01    7.742425e-01
  3.107265e+01    8.042811e-01
  3.110441e+01    7.888573e-01
  3.113616e+01    7.861025e-01
  3.116791e+01    7.952559e-01
  3.119966e+01    7.925123e-01
  3.123141e+01    7.821006e-01
  3.126316e+01    7.833486e-01
  3.129491e+01    8.029674e-01
  3.132666e+01    8.008196e-01
  3.135841e+01    8.023499e-01
  3.139017e+01    8.111232e-01
  3.142192e+01    7.951367e-01
  3.145367e+01    8.272559e-01
  3.148542e+01    8.198306e-01
  3.151717e+01    8.472688e-01
  3.154892e+01    8.283241e-01
  3.158067e+01    8.712761e-01
  3.161242e+01    8.864934e-01
  3.164418e+01    9.171009e-01
  3.167593e+01    9.819525e-01
  3.170768e+01    1.019165e+00
  3.173943e+01    1.100194e+00
  3.177118e+01    1.231705e+00
  3.180293e+01    1.457305e+00
  3.183468e+01    1.728540e+00
  3.186643e+01    1.948944e+00
  3.189818e+01    2.072830e+00
  3.192994e+01    2.039882e+00
  3.196169e+01    1.809119e+00
  3.199344e+01    1.533873e+00
  3.202519e+01    1.309661e+00
  3.205694e+01    1.154150e+00
  3.208869e+01    1.031556e+00
  3.212044e+01    9.544745e-01
  3.215219e+01    9.124930e-01
  3.218394e+01    8.673577e-01
  3.221570e+01    8.589103e-01
  3.224745e+01    8.317314e-01
  3.227920e+01    8.353262e-01
  3.231095e+01    8.209377e-01
  3.234270e+01    8.017101e-01
  3.237445e+01    7.927452e-01
  3.240620e+01    7.731874e-01
  3.243795e+01    7.749804e-01
  3.246970e+01    7.821818e-01
  3.250146e+01    7.866988e-01
  3.253321e+01    7.572812e-01
  3.254908e+01    7.780892e-01