File: XRD/Reaction conditions/2024-07-27_003_Ru-CGO-ex_Reaction_dwell_000023_data_000126.dat
# == pyFAI calibration ==
# Distance Sample to Detector: 0.4 m
# PONI: 9.750e-02, 1.135e-01 m
# Rotations: -0.000175 0.000000 -0.000000 rad
#
# == Fit2d calibration ==
# Distance Sample-beamCenter: 400.000 mm
# Center: x=1514.000, y=1300.000 pix
# Tilt: 0.010 deg  TiltPlanRot: 0.010 deg
#
# Detector Detector	 Spline= None	 PixelSize= 7.500e-05, 7.500e-05 m
#    Detector has a mask: False
#    Detector has a dark current: False
#    detector has a flat field: False
#
# Wavelength: 6.888e-11 m
# Mask applied: user provided
# Dark current applied: False
# Flat field applied: False
# Polarization factor: 0.99
# Normalization factor: 1.0
# --> /home/myspot/data/2024_07_Rosario/Ru-CGO-ex/2024-07-27_003_Ru-CGO-ex_Reaction_dwell_000023_data_000126.dat
#       q_nm^-1             I
  2.003187e-02    1.424646e-01
  5.178302e-02    0.000000e+00
  8.353417e-02    1.450632e-01
  1.152853e-01    1.577581e-02
  1.470365e-01    1.193600e-01
  1.787876e-01    3.108886e-02
  2.105388e-01    8.934446e-02
  2.422899e-01    7.747602e-02
  2.740411e-01    7.350565e-02
  3.057922e-01    2.762745e-02
  3.375433e-01    3.575311e-02
  3.692945e-01    3.979981e-02
  4.010456e-01    4.869455e-02
  4.327968e-01    4.132147e-02
  4.645479e-01    4.831734e-02
  4.962991e-01    8.868389e-02
  5.280502e-01    3.838825e-02
  5.598014e-01    4.960753e-02
  5.915525e-01    3.923236e-02
  6.233037e-01    5.169360e-02
  6.550548e-01    3.375203e-02
  6.868060e-01    3.321889e-02
  7.185571e-01    4.729384e-02
  7.503083e-01    4.026866e-02
  7.820594e-01    1.093050e-01
  8.138106e-01    2.349889e-01
  8.455617e-01    3.619843e-01
  8.773129e-01    4.449373e-01
  9.090640e-01    5.858192e-01
  9.408152e-01    8.456759e-01
  9.725663e-01    9.649612e-01
  1.004317e+00    1.248532e+00
  1.036069e+00    1.400163e+00
  1.067820e+00    1.464684e+00
  1.099571e+00    1.656224e+00
  1.131322e+00    1.566400e+00
  1.163073e+00    1.643657e+00
  1.194824e+00    1.758946e+00
  1.226575e+00    2.148213e+00
  1.258327e+00    2.475597e+00
  1.290078e+00    2.547115e+00
  1.321829e+00    2.667198e+00
  1.353580e+00    2.711713e+00
  1.385331e+00    2.882915e+00
  1.417082e+00    2.856906e+00
  1.448834e+00    2.877115e+00
  1.480585e+00    2.919069e+00
  1.512336e+00    3.032556e+00
  1.544087e+00    3.227249e+00
  1.575838e+00    3.083751e+00
  1.607589e+00    3.180060e+00
  1.639340e+00    3.225223e+00
  1.671092e+00    3.174186e+00
  1.702843e+00    3.020683e+00
  1.734594e+00    3.075970e+00
  1.766345e+00    3.075441e+00
  1.798096e+00    2.980652e+00
  1.829847e+00    3.182852e+00
  1.861598e+00    2.917542e+00
  1.893350e+00    3.023990e+00
  1.925101e+00    3.024417e+00
  1.956852e+00    3.094859e+00
  1.988603e+00    3.110413e+00
  2.020354e+00    3.042532e+00
  2.052105e+00    3.149291e+00
  2.083856e+00    3.065106e+00
  2.115608e+00    3.029720e+00
  2.147359e+00    3.026014e+00
  2.179110e+00    3.082781e+00
  2.210861e+00    3.103029e+00
  2.242612e+00    3.078491e+00
  2.274363e+00    3.090716e+00
  2.306115e+00    3.004948e+00
  2.337866e+00    3.099947e+00
  2.369617e+00    3.066111e+00
  2.401368e+00    3.210206e+00
  2.433119e+00    3.263541e+00
  2.464870e+00    3.102726e+00
  2.496621e+00    3.141227e+00
  2.528373e+00    3.129843e+00
  2.560124e+00    3.129617e+00
  2.591875e+00    3.262894e+00
  2.623626e+00    3.172565e+00
  2.655377e+00    3.256418e+00
  2.687128e+00    3.080336e+00
  2.718879e+00    3.212857e+00
  2.750631e+00    3.303925e+00
  2.782382e+00    3.317861e+00
  2.814133e+00    3.172556e+00
  2.845884e+00    3.368330e+00
  2.877635e+00    3.355060e+00
  2.909386e+00    3.311051e+00
  2.941137e+00    3.304285e+00
  2.972889e+00    3.246871e+00
  3.004640e+00    3.320724e+00
  3.036391e+00    3.263427e+00
  3.068142e+00    3.361303e+00
  3.099893e+00    3.347100e+00
  3.131644e+00    3.305283e+00
  3.163395e+00    3.405559e+00
  3.195147e+00    3.441459e+00
  3.226898e+00    3.374707e+00
  3.258649e+00    3.404467e+00
  3.290400e+00    3.351640e+00
  3.322151e+00    3.339969e+00
  3.353902e+00    3.410552e+00
  3.385654e+00    3.376168e+00
  3.417405e+00    3.465528e+00
  3.449156e+00    3.383349e+00
  3.480907e+00    3.484089e+00
  3.512658e+00    3.491785e+00
  3.544409e+00    3.400662e+00
  3.576160e+00    3.400286e+00
  3.607912e+00    3.457237e+00
  3.639663e+00    3.568380e+00
  3.671414e+00    3.418825e+00
  3.703165e+00    3.426688e+00
  3.734916e+00    3.474099e+00
  3.766667e+00    3.424997e+00
  3.798418e+00    3.560669e+00
  3.830170e+00    3.418048e+00
  3.861921e+00    3.515300e+00
  3.893672e+00    3.451167e+00
  3.925423e+00    3.512126e+00
  3.957174e+00    3.466108e+00
  3.988925e+00    3.426898e+00
  4.020676e+00    3.440751e+00
  4.052428e+00    3.429896e+00
  4.084179e+00    3.492945e+00
  4.115930e+00    3.536211e+00
  4.147681e+00    3.511844e+00
  4.179432e+00    3.563602e+00
  4.211183e+00    3.467502e+00
  4.242935e+00    3.449126e+00
  4.274686e+00    3.525406e+00
  4.306437e+00    3.617919e+00
  4.338188e+00    3.535653e+00
  4.369939e+00    3.567615e+00
  4.401690e+00    3.543732e+00
  4.433441e+00    3.621780e+00
  4.465193e+00    3.605491e+00
  4.496944e+00    3.572750e+00
  4.528695e+00    3.587140e+00
  4.560446e+00    3.530268e+00
  4.592197e+00    3.598107e+00
  4.623948e+00    3.496347e+00
  4.655699e+00    3.664421e+00
  4.687451e+00    3.599078e+00
  4.719202e+00    3.558822e+00
  4.750953e+00    3.639970e+00
  4.782704e+00    3.672437e+00
  4.814455e+00    3.517570e+00
  4.846206e+00    3.650174e+00
  4.877957e+00    3.659577e+00
  4.909709e+00    3.657039e+00
  4.941460e+00    3.709107e+00
  4.973211e+00    3.633830e+00
  5.004962e+00    3.563328e+00
  5.036713e+00    3.565563e+00
  5.068464e+00    3.652496e+00
  5.100216e+00    3.643240e+00
  5.131967e+00    3.595318e+00
  5.163718e+00    3.579753e+00
  5.195469e+00    3.643262e+00
  5.227220e+00    3.639085e+00
  5.258971e+00    3.599917e+00
  5.290722e+00    3.561052e+00
  5.322474e+00    3.665551e+00
  5.354225e+00    3.683938e+00
  5.385976e+00    3.628247e+00
  5.417727e+00    3.575987e+00
  5.449478e+00    3.566913e+00
  5.481229e+00    3.589948e+00
  5.512980e+00    3.634729e+00
  5.544732e+00    3.629474e+00
  5.576483e+00    3.627028e+00
  5.608234e+00    3.567828e+00
  5.639985e+00    3.595113e+00
  5.671736e+00    3.616159e+00
  5.703487e+00    3.601175e+00
  5.735238e+00    3.601574e+00
  5.766990e+00    3.567238e+00
  5.798741e+00    3.455442e+00
  5.830492e+00    3.544760e+00
  5.862243e+00    3.561465e+00
  5.893994e+00    3.519724e+00
  5.925745e+00    3.465219e+00
  5.957497e+00    3.533636e+00
  5.989248e+00    3.500080e+00
  6.020999e+00    3.549786e+00
  6.052750e+00    3.509042e+00
  6.084501e+00    3.571672e+00
  6.116252e+00    3.539219e+00
  6.148003e+00    3.585660e+00
  6.179755e+00    3.525794e+00
  6.211506e+00    3.575516e+00
  6.243257e+00    3.520154e+00
  6.275008e+00    3.535650e+00
  6.306759e+00    3.537684e+00
  6.338510e+00    3.573684e+00
  6.370261e+00    3.466593e+00
  6.402013e+00    3.497832e+00
  6.433764e+00    3.591546e+00
  6.465515e+00    3.549581e+00
  6.497266e+00    3.580338e+00
  6.529017e+00    3.626099e+00
  6.560768e+00    3.529932e+00
  6.592519e+00    3.561991e+00
  6.624271e+00    3.577854e+00
  6.656022e+00    3.503755e+00
  6.687773e+00    3.514249e+00
  6.719524e+00    3.528017e+00
  6.751275e+00    3.522585e+00
  6.783026e+00    3.593283e+00
  6.814777e+00    3.549161e+00
  6.846529e+00    3.441110e+00
  6.878280e+00    3.620950e+00
  6.910031e+00    3.525618e+00
  6.941782e+00    3.580492e+00
  6.973533e+00    3.537258e+00
  7.005284e+00    3.499343e+00
  7.037036e+00    3.486933e+00
  7.068787e+00    3.528480e+00
  7.100538e+00    3.467914e+00
  7.132289e+00    3.530332e+00
  7.164040e+00    3.547284e+00
  7.195791e+00    3.463846e+00
  7.227542e+00    3.513756e+00
  7.259294e+00    3.557598e+00
  7.291045e+00    3.506560e+00
  7.322796e+00    3.531071e+00
  7.354547e+00    3.539353e+00
  7.386298e+00    3.491998e+00
  7.418049e+00    3.522814e+00
  7.449800e+00    3.452203e+00
  7.481552e+00    3.427694e+00
  7.513303e+00    3.508928e+00
  7.545054e+00    3.532164e+00
  7.576805e+00    3.470329e+00
  7.608556e+00    3.403052e+00
  7.640307e+00    3.484800e+00
  7.672058e+00    3.418036e+00
  7.703810e+00    3.448974e+00
  7.735561e+00    3.463041e+00
  7.767312e+00    3.433636e+00
  7.799063e+00    3.436578e+00
  7.830814e+00    3.450866e+00
  7.862565e+00    3.378674e+00
  7.894317e+00    3.435228e+00
  7.926068e+00    3.471551e+00
  7.957819e+00    3.339325e+00
  7.989570e+00    3.420788e+00
  8.021321e+00    3.447487e+00
  8.053072e+00    3.412456e+00
  8.084823e+00    3.441959e+00
  8.116575e+00    3.458305e+00
  8.148326e+00    3.452228e+00
  8.180077e+00    3.437835e+00
  8.211828e+00    3.465886e+00
  8.243579e+00    3.410146e+00
  8.275330e+00    3.375780e+00
  8.307081e+00    3.477137e+00
  8.338833e+00    3.381260e+00
  8.370584e+00    3.383424e+00
  8.402335e+00    3.292503e+00
  8.434086e+00    3.397672e+00
  8.465837e+00    3.387392e+00
  8.497588e+00    3.424054e+00
  8.529339e+00    3.351664e+00
  8.561091e+00    3.364354e+00
  8.592842e+00    3.322296e+00
  8.624593e+00    3.388815e+00
  8.656344e+00    3.373692e+00
  8.688095e+00    3.307524e+00
  8.719846e+00    3.250643e+00
  8.751598e+00    3.335360e+00
  8.783349e+00    3.269056e+00
  8.815100e+00    3.294840e+00
  8.846851e+00    3.299950e+00
  8.878602e+00    3.255142e+00
  8.910353e+00    3.193946e+00
  8.942104e+00    3.296498e+00
  8.973856e+00    3.275223e+00
  9.005607e+00    3.270528e+00
  9.037358e+00    3.271340e+00
  9.069109e+00    3.294743e+00
  9.100860e+00    3.392449e+00
  9.132611e+00    3.289638e+00
  9.164362e+00    3.182378e+00
  9.196114e+00    3.251151e+00
  9.227865e+00    3.197284e+00
  9.259616e+00    3.189883e+00
  9.291367e+00    3.208406e+00
  9.323118e+00    3.195987e+00
  9.354869e+00    3.241515e+00
  9.386620e+00    3.191906e+00
  9.418372e+00    3.208571e+00
  9.450123e+00    3.286648e+00
  9.481874e+00    3.205372e+00
  9.513625e+00    3.243854e+00
  9.545376e+00    3.219858e+00
  9.577127e+00    3.204091e+00
  9.608878e+00    3.230605e+00
  9.640630e+00    3.187065e+00
  9.672381e+00    3.217299e+00
  9.704132e+00    3.189258e+00
  9.735883e+00    3.136495e+00
  9.767634e+00    3.221201e+00
  9.799385e+00    3.118490e+00
  9.831137e+00    3.150563e+00
  9.862888e+00    3.175317e+00
  9.894639e+00    3.128717e+00
  9.926390e+00    3.096021e+00
  9.958141e+00    3.140506e+00
  9.989892e+00    3.175110e+00
  1.002164e+01    3.122309e+00
  1.005339e+01    3.108855e+00
  1.008515e+01    3.089131e+00
  1.011690e+01    3.085399e+00
  1.014865e+01    3.097955e+00
  1.018040e+01    3.057742e+00
  1.021215e+01    3.078527e+00
  1.024390e+01    3.140919e+00
  1.027565e+01    3.120788e+00
  1.030740e+01    3.039509e+00
  1.033915e+01    2.970915e+00
  1.037091e+01    3.049241e+00
  1.040266e+01    3.031276e+00
  1.043441e+01    2.999591e+00
  1.046616e+01    2.995695e+00
  1.049791e+01    3.009147e+00
  1.052966e+01    3.011752e+00
  1.056141e+01    2.976556e+00
  1.059316e+01    2.952644e+00
  1.062492e+01    2.924958e+00
  1.065667e+01    2.964294e+00
  1.068842e+01    2.935138e+00
  1.072017e+01    2.965336e+00
  1.075192e+01    2.963669e+00
  1.078367e+01    2.944444e+00
  1.081542e+01    2.973020e+00
  1.084717e+01    2.924055e+00
  1.087892e+01    2.901411e+00
  1.091068e+01    2.894748e+00
  1.094243e+01    2.915058e+00
  1.097418e+01    2.909239e+00
  1.100593e+01    2.909169e+00
  1.103768e+01    2.908170e+00
  1.106943e+01    2.856337e+00
  1.110118e+01    2.839240e+00
  1.113293e+01    2.900996e+00
  1.116468e+01    2.862737e+00
  1.119644e+01    2.867772e+00
  1.122819e+01    2.841745e+00
  1.125994e+01    2.870190e+00
  1.129169e+01    2.812254e+00
  1.132344e+01    2.844389e+00
  1.135519e+01    2.825261e+00
  1.138694e+01    2.866284e+00
  1.141869e+01    2.785138e+00
  1.145045e+01    2.821238e+00
  1.148220e+01    2.828400e+00
  1.151395e+01    2.837789e+00
  1.154570e+01    2.782076e+00
  1.157745e+01    2.748324e+00
  1.160920e+01    2.736192e+00
  1.164095e+01    2.736409e+00
  1.167270e+01    2.789414e+00
  1.170445e+01    2.753091e+00
  1.173621e+01    2.727850e+00
  1.176796e+01    2.780009e+00
  1.179971e+01    2.708484e+00
  1.183146e+01    2.721982e+00
  1.186321e+01    2.776297e+00
  1.189496e+01    2.779159e+00
  1.192671e+01    2.718264e+00
  1.195846e+01    2.735910e+00
  1.199021e+01    2.689160e+00
  1.202197e+01    2.689554e+00
  1.205372e+01    2.704665e+00
  1.208547e+01    2.710975e+00
  1.211722e+01    2.707795e+00
  1.214897e+01    2.708824e+00
  1.218072e+01    2.709234e+00
  1.221247e+01    2.642626e+00
  1.224422e+01    2.690416e+00
  1.227597e+01    2.654034e+00
  1.230773e+01    2.675168e+00
  1.233948e+01    2.707141e+00
  1.237123e+01    2.646657e+00
  1.240298e+01    2.721942e+00
  1.243473e+01    2.715629e+00
  1.246648e+01    2.666920e+00
  1.249823e+01    2.715791e+00
  1.252998e+01    2.713921e+00
  1.256174e+01    2.714654e+00
  1.259349e+01    2.731053e+00
  1.262524e+01    2.705757e+00
  1.265699e+01    2.772032e+00
  1.268874e+01    2.854089e+00
  1.272049e+01    2.829704e+00
  1.275224e+01    2.882906e+00
  1.278399e+01    2.962564e+00
  1.281574e+01    3.030321e+00
  1.284750e+01    3.181274e+00
  1.287925e+01    3.359922e+00
  1.291100e+01    3.644738e+00
  1.294275e+01    4.057108e+00
  1.297450e+01    4.793255e+00
  1.300625e+01    5.791171e+00
  1.303800e+01    7.681220e+00
  1.306975e+01    1.012517e+01
  1.310150e+01    1.270238e+01
  1.313326e+01    1.476541e+01
  1.316501e+01    1.613960e+01
  1.319676e+01    1.560635e+01
  1.322851e+01    1.238055e+01
  1.326026e+01    9.008949e+00
  1.329201e+01    6.723183e+00
  1.332376e+01    5.261311e+00
  1.335551e+01    4.401464e+00
  1.338727e+01    3.843884e+00
  1.341902e+01    3.440487e+00
  1.345077e+01    3.180665e+00
  1.348252e+01    3.026407e+00
  1.351427e+01    2.921654e+00
  1.354602e+01    2.810950e+00
  1.357777e+01    2.729192e+00
  1.360952e+01    2.683763e+00
  1.364127e+01    2.612172e+00
  1.367303e+01    2.596381e+00
  1.370478e+01    2.555322e+00
  1.373653e+01    2.528224e+00
  1.376828e+01    2.478180e+00
  1.380003e+01    2.527174e+00
  1.383178e+01    2.450230e+00
  1.386353e+01    2.405943e+00
  1.389528e+01    2.423254e+00
  1.392703e+01    2.376013e+00
  1.395879e+01    2.390997e+00
  1.399054e+01    2.369235e+00
  1.402229e+01    2.369496e+00
  1.405404e+01    2.315474e+00
  1.408579e+01    2.314103e+00
  1.411754e+01    2.325359e+00
  1.414929e+01    2.331752e+00
  1.418104e+01    2.304190e+00
  1.421279e+01    2.206880e+00
  1.424455e+01    2.264797e+00
  1.427630e+01    2.254650e+00
  1.430805e+01    2.290365e+00
  1.433980e+01    2.209864e+00
  1.437155e+01    2.242132e+00
  1.440330e+01    2.259558e+00
  1.443505e+01    2.219675e+00
  1.446680e+01    2.210275e+00
  1.449856e+01    2.216078e+00
  1.453031e+01    2.191561e+00
  1.456206e+01    2.221936e+00
  1.459381e+01    2.202818e+00
  1.462556e+01    2.233003e+00
  1.465731e+01    2.210583e+00
  1.468906e+01    2.151967e+00
  1.472081e+01    2.191491e+00
  1.475256e+01    2.194299e+00
  1.478432e+01    2.214930e+00
  1.481607e+01    2.231066e+00
  1.484782e+01    2.240606e+00
  1.487957e+01    2.185122e+00
  1.491132e+01    2.238886e+00
  1.494307e+01    2.269760e+00
  1.497482e+01    2.358049e+00
  1.500657e+01    2.452148e+00
  1.503832e+01    2.569297e+00
  1.507008e+01    2.758663e+00
  1.510183e+01    3.244292e+00
  1.513358e+01    3.768002e+00
  1.516533e+01    4.530029e+00
  1.519708e+01    5.133375e+00
  1.522883e+01    5.573138e+00
  1.526058e+01    5.729858e+00
  1.529233e+01    5.486316e+00
  1.532409e+01    4.652488e+00
  1.535584e+01    3.710001e+00
  1.538759e+01    3.146392e+00
  1.541934e+01    2.765092e+00
  1.545109e+01    2.493967e+00
  1.548284e+01    2.409072e+00
  1.551459e+01    2.253608e+00
  1.554634e+01    2.168147e+00
  1.557809e+01    2.134406e+00
  1.560985e+01    2.127028e+00
  1.564160e+01    2.053047e+00
  1.567335e+01    2.063128e+00
  1.570510e+01    1.989236e+00
  1.573685e+01    2.009662e+00
  1.576860e+01    1.957683e+00
  1.580035e+01    1.945289e+00
  1.583210e+01    1.899405e+00
  1.586385e+01    1.944940e+00
  1.589561e+01    1.947304e+00
  1.592736e+01    1.872494e+00
  1.595911e+01    1.883671e+00
  1.599086e+01    1.860553e+00
  1.602261e+01    1.809978e+00
  1.605436e+01    1.839775e+00
  1.608611e+01    1.822747e+00
  1.611786e+01    1.846926e+00
  1.614961e+01    1.822188e+00
  1.618137e+01    1.817761e+00
  1.621312e+01    1.794107e+00
  1.624487e+01    1.808664e+00
  1.627662e+01    1.795070e+00
  1.630837e+01    1.758772e+00
  1.634012e+01    1.798648e+00
  1.637187e+01    1.759917e+00
  1.640362e+01    1.765221e+00
  1.643538e+01    1.795445e+00
  1.646713e+01    1.767030e+00
  1.649888e+01    1.739604e+00
  1.653063e+01    1.734265e+00
  1.656238e+01    1.747942e+00
  1.659413e+01    1.731007e+00
  1.662588e+01    1.714960e+00
  1.665763e+01    1.762751e+00
  1.668938e+01    1.723071e+00
  1.672114e+01    1.724302e+00
  1.675289e+01    1.691437e+00
  1.678464e+01    1.677871e+00
  1.681639e+01    1.730085e+00
  1.684814e+01    1.662563e+00
  1.687989e+01    1.696021e+00
  1.691164e+01    1.645977e+00
  1.694339e+01    1.672390e+00
  1.697514e+01    1.645808e+00
  1.700690e+01    1.674117e+00
  1.703865e+01    1.642916e+00
  1.707040e+01    1.631036e+00
  1.710215e+01    1.647059e+00
  1.713390e+01    1.614811e+00
  1.716565e+01    1.656937e+00
  1.719740e+01    1.636046e+00
  1.722915e+01    1.646964e+00
  1.726091e+01    1.627941e+00
  1.729266e+01    1.614852e+00
  1.732441e+01    1.604540e+00
  1.735616e+01    1.621152e+00
  1.738791e+01    1.619436e+00
  1.741966e+01    1.625234e+00
  1.745141e+01    1.580510e+00
  1.748316e+01    1.589578e+00
  1.751491e+01    1.564994e+00
  1.754667e+01    1.601046e+00
  1.757842e+01    1.567673e+00
  1.761017e+01    1.581994e+00
  1.764192e+01    1.537271e+00
  1.767367e+01    1.552077e+00
  1.770542e+01    1.531195e+00
  1.773717e+01    1.563357e+00
  1.776892e+01    1.516567e+00
  1.780067e+01    1.551407e+00
  1.783243e+01    1.545305e+00
  1.786418e+01    1.490689e+00
  1.789593e+01    1.509590e+00
  1.792768e+01    1.543698e+00
  1.795943e+01    1.506665e+00
  1.799118e+01    1.497912e+00
  1.802293e+01    1.483411e+00
  1.805468e+01    1.507809e+00
  1.808643e+01    1.513654e+00
  1.811819e+01    1.491575e+00
  1.814994e+01    1.493361e+00
  1.818169e+01    1.492632e+00
  1.821344e+01    1.467883e+00
  1.824519e+01    1.473531e+00
  1.827694e+01    1.470579e+00
  1.830869e+01    1.457061e+00
  1.834044e+01    1.472212e+00
  1.837220e+01    1.496991e+00
  1.840395e+01    1.431280e+00
  1.843570e+01    1.484766e+00
  1.846745e+01    1.465481e+00
  1.849920e+01    1.438589e+00
  1.853095e+01    1.420239e+00
  1.856270e+01    1.436976e+00
  1.859445e+01    1.442145e+00
  1.862620e+01    1.447750e+00
  1.865796e+01    1.423563e+00
  1.868971e+01    1.422461e+00
  1.872146e+01    1.431587e+00
  1.875321e+01    1.434106e+00
  1.878496e+01    1.426980e+00
  1.881671e+01    1.397468e+00
  1.884846e+01    1.401416e+00
  1.888021e+01    1.399486e+00
  1.891196e+01    1.387322e+00
  1.894372e+01    1.403165e+00
  1.897547e+01    1.396558e+00
  1.900722e+01    1.375139e+00
  1.903897e+01    1.392921e+00
  1.907072e+01    1.355158e+00
  1.910247e+01    1.385865e+00
  1.913422e+01    1.377739e+00
  1.916597e+01    1.346624e+00
  1.919773e+01    1.339645e+00
  1.922948e+01    1.345326e+00
  1.926123e+01    1.369883e+00
  1.929298e+01    1.356109e+00
  1.932473e+01    1.356423e+00
  1.935648e+01    1.331906e+00
  1.938823e+01    1.355206e+00
  1.941998e+01    1.345505e+00
  1.945173e+01    1.344804e+00
  1.948349e+01    1.307290e+00
  1.951524e+01    1.318234e+00
  1.954699e+01    1.321347e+00
  1.957874e+01    1.342439e+00
  1.961049e+01    1.311567e+00
  1.964224e+01    1.293915e+00
  1.967399e+01    1.303864e+00
  1.970574e+01    1.305143e+00
  1.973749e+01    1.310882e+00
  1.976925e+01    1.273650e+00
  1.980100e+01    1.306257e+00
  1.983275e+01    1.285368e+00
  1.986450e+01    1.296071e+00
  1.989625e+01    1.258454e+00
  1.992800e+01    1.274622e+00
  1.995975e+01    1.308226e+00
  1.999150e+01    1.283492e+00
  2.002325e+01    1.267818e+00
  2.005501e+01    1.289405e+00
  2.008676e+01    1.241958e+00
  2.011851e+01    1.280003e+00
  2.015026e+01    1.278283e+00
  2.018201e+01    1.256684e+00
  2.021376e+01    1.279611e+00
  2.024551e+01    1.249458e+00
  2.027726e+01    1.288201e+00
  2.030902e+01    1.250755e+00
  2.034077e+01    1.267011e+00
  2.037252e+01    1.230631e+00
  2.040427e+01    1.246628e+00
  2.043602e+01    1.269089e+00
  2.046777e+01    1.251788e+00
  2.049952e+01    1.230976e+00
  2.053127e+01    1.249431e+00
  2.056302e+01    1.235654e+00
  2.059478e+01    1.243519e+00
  2.062653e+01    1.197819e+00
  2.065828e+01    1.201938e+00
  2.069003e+01    1.216964e+00
  2.072178e+01    1.232485e+00
  2.075353e+01    1.239549e+00
  2.078528e+01    1.211000e+00
  2.081703e+01    1.236899e+00
  2.084878e+01    1.195679e+00
  2.088054e+01    1.226438e+00
  2.091229e+01    1.216575e+00
  2.094404e+01    1.241674e+00
  2.097579e+01    1.213324e+00
  2.100754e+01    1.209555e+00
  2.103929e+01    1.191823e+00
  2.107104e+01    1.209883e+00
  2.110279e+01    1.228916e+00
  2.113455e+01    1.229511e+00
  2.116630e+01    1.235948e+00
  2.119805e+01    1.188433e+00
  2.122980e+01    1.262726e+00
  2.126155e+01    1.231220e+00
  2.129330e+01    1.228800e+00
  2.132505e+01    1.269649e+00
  2.135680e+01    1.294023e+00
  2.138855e+01    1.287909e+00
  2.142031e+01    1.326396e+00
  2.145206e+01    1.362816e+00
  2.148381e+01    1.376054e+00
  2.151556e+01    1.446651e+00
  2.154731e+01    1.514251e+00
  2.157906e+01    1.587845e+00
  2.161081e+01    1.775371e+00
  2.164256e+01    2.032668e+00
  2.167431e+01    2.298020e+00
  2.170607e+01    2.767938e+00
  2.173782e+01    3.481196e+00
  2.176957e+01    4.577795e+00
  2.180132e+01    5.807583e+00
  2.183307e+01    7.226223e+00
  2.186482e+01    8.313382e+00
  2.189657e+01    8.854775e+00
  2.192832e+01    8.177294e+00
  2.196007e+01    6.540716e+00
  2.199183e+01    4.803091e+00
  2.202358e+01    3.588934e+00
  2.205533e+01    2.806862e+00
  2.208708e+01    2.300379e+00
  2.211883e+01    1.975630e+00
  2.215058e+01    1.745648e+00
  2.218233e+01    1.598075e+00
  2.221408e+01    1.521155e+00
  2.224584e+01    1.410747e+00
  2.227759e+01    1.337020e+00
  2.230934e+01    1.288349e+00
  2.234109e+01    1.245663e+00
  2.237284e+01    1.242441e+00
  2.240459e+01    1.205502e+00
  2.243634e+01    1.190453e+00
  2.246809e+01    1.152363e+00
  2.249984e+01    1.153556e+00
  2.253160e+01    1.126315e+00
  2.256335e+01    1.134134e+00
  2.259510e+01    1.092951e+00
  2.262685e+01    1.094400e+00
  2.265860e+01    1.090716e+00
  2.269035e+01    1.090340e+00
  2.272210e+01    1.068244e+00
  2.275385e+01    1.081099e+00
  2.278560e+01    1.069262e+00
  2.281736e+01    1.084339e+00
  2.284911e+01    1.055205e+00
  2.288086e+01    1.063555e+00
  2.291261e+01    1.032779e+00
  2.294436e+01    1.036384e+00
  2.297611e+01    1.021268e+00
  2.300786e+01    1.032108e+00
  2.303961e+01    9.986553e-01
  2.307137e+01    1.013612e+00
  2.310312e+01    1.016293e+00
  2.313487e+01    1.007647e+00
  2.316662e+01    1.012339e+00
  2.319837e+01    1.019177e+00
  2.323012e+01    9.953484e-01
  2.326187e+01    9.909121e-01
  2.329362e+01    9.893826e-01
  2.332537e+01    9.780484e-01
  2.335713e+01    9.850435e-01
  2.338888e+01    9.718747e-01
  2.342063e+01    9.913968e-01
  2.345238e+01    9.815621e-01
  2.348413e+01    9.650474e-01
  2.351588e+01    9.594049e-01
  2.354763e+01    9.627640e-01
  2.357938e+01    9.475501e-01
  2.361113e+01    9.651206e-01
  2.364289e+01    9.649796e-01
  2.367464e+01    9.364324e-01
  2.370639e+01    9.249985e-01
  2.373814e+01    9.568248e-01
  2.376989e+01    9.060988e-01
  2.380164e+01    9.144915e-01
  2.383339e+01    9.272224e-01
  2.386514e+01    9.046615e-01
  2.389689e+01    8.954087e-01
  2.392865e+01    8.991410e-01
  2.396040e+01    8.968339e-01
  2.399215e+01    8.911523e-01
  2.402390e+01    8.933922e-01
  2.405565e+01    8.702047e-01
  2.408740e+01    8.884545e-01
  2.411915e+01    8.806242e-01
  2.415090e+01    8.643169e-01
  2.418266e+01    8.775848e-01
  2.421441e+01    8.765447e-01
  2.424616e+01    8.860203e-01
  2.427791e+01    8.863562e-01
  2.430966e+01    8.886527e-01
  2.434141e+01    8.990552e-01
  2.437316e+01    8.964805e-01
  2.440491e+01    8.932866e-01
  2.443666e+01    9.048143e-01
  2.446842e+01    9.032652e-01
  2.450017e+01    8.798647e-01
  2.453192e+01    8.845853e-01
  2.456367e+01    8.845427e-01
  2.459542e+01    8.838056e-01
  2.462717e+01    8.980119e-01
  2.465892e+01    8.748640e-01
  2.469067e+01    9.024497e-01
  2.472242e+01    8.844502e-01
  2.475418e+01    8.994721e-01
  2.478593e+01    8.941545e-01
  2.481768e+01    8.959957e-01
  2.484943e+01    8.963315e-01
  2.488118e+01    8.780700e-01
  2.491293e+01    8.865696e-01
  2.494468e+01    8.954893e-01
  2.497643e+01    8.901297e-01
  2.500819e+01    8.789388e-01
  2.503994e+01    8.838382e-01
  2.507169e+01    9.006765e-01
  2.510344e+01    8.827444e-01
  2.513519e+01    8.903242e-01
  2.516694e+01    8.922880e-01
  2.519869e+01    9.289656e-01
  2.523044e+01    9.151614e-01
  2.526219e+01    9.550012e-01
  2.529395e+01    9.128958e-01
  2.532570e+01    9.636093e-01
  2.535745e+01    9.685822e-01
  2.538920e+01    9.706016e-01
  2.542095e+01    1.008574e+00
  2.545270e+01    1.004351e+00
  2.548445e+01    1.020240e+00
  2.551620e+01    1.060612e+00
  2.554795e+01    1.106128e+00
  2.557971e+01    1.156894e+00
  2.561146e+01    1.229844e+00
  2.564321e+01    1.285557e+00
  2.567496e+01    1.415647e+00
  2.570671e+01    1.585005e+00
  2.573846e+01    1.882076e+00
  2.577021e+01    2.223294e+00
  2.580196e+01    2.796098e+00
  2.583371e+01    3.648932e+00
  2.586547e+01    4.694684e+00
  2.589722e+01    5.807288e+00
  2.592897e+01    6.711446e+00
  2.596072e+01    7.085088e+00
  2.599247e+01    6.511620e+00
  2.602422e+01    5.192369e+00
  2.605597e+01    3.900840e+00
  2.608772e+01    2.975205e+00
  2.611948e+01    2.356128e+00
  2.615123e+01    1.926789e+00
  2.618298e+01    1.660192e+00
  2.621473e+01    1.465926e+00
  2.624648e+01    1.360293e+00
  2.627823e+01    1.231567e+00
  2.630998e+01    1.189045e+00
  2.634173e+01    1.133157e+00
  2.637348e+01    1.093198e+00
  2.640524e+01    1.040240e+00
  2.643699e+01    1.022427e+00
  2.646874e+01    1.018492e+00
  2.650049e+01    9.990081e-01
  2.653224e+01    9.867340e-01
  2.656399e+01    9.731160e-01
  2.659574e+01    9.807721e-01
  2.662749e+01    9.850965e-01
  2.665924e+01    9.719390e-01
  2.669100e+01    9.780326e-01
  2.672275e+01    9.657719e-01
  2.675450e+01    9.460261e-01
  2.678625e+01    9.704106e-01
  2.681800e+01    9.828546e-01
  2.684975e+01    1.004564e+00
  2.688150e+01    9.831777e-01
  2.691325e+01    1.008326e+00
  2.694501e+01    1.020983e+00
  2.697676e+01    1.079095e+00
  2.700851e+01    1.114259e+00
  2.704026e+01    1.194453e+00
  2.707201e+01    1.316323e+00
  2.710376e+01    1.480366e+00
  2.713551e+01    1.708275e+00
  2.716726e+01    1.925053e+00
  2.719901e+01    2.162499e+00
  2.723077e+01    2.163434e+00
  2.726252e+01    1.951839e+00
  2.729427e+01    1.670383e+00
  2.732602e+01    1.472746e+00
  2.735777e+01    1.281977e+00
  2.738952e+01    1.166297e+00
  2.742127e+01    1.061237e+00
  2.745302e+01    1.045889e+00
  2.748477e+01    9.865021e-01
  2.751653e+01    9.498326e-01
  2.754828e+01    9.562780e-01
  2.758003e+01    9.329367e-01
  2.761178e+01    9.451391e-01
  2.764353e+01    9.087806e-01
  2.767528e+01    8.893010e-01
  2.770703e+01    8.968501e-01
  2.773878e+01    9.073724e-01
  2.777054e+01    8.835922e-01
  2.780229e+01    8.936759e-01
  2.783404e+01    8.582931e-01
  2.786579e+01    8.700550e-01
  2.789754e+01    8.813754e-01
  2.792929e+01    8.718291e-01
  2.796104e+01    8.633473e-01
  2.799279e+01    8.698827e-01
  2.802454e+01    8.547343e-01
  2.805630e+01    8.590349e-01
  2.808805e+01    8.495828e-01
  2.811980e+01    8.594133e-01
  2.815155e+01    8.674200e-01
  2.818330e+01    8.508464e-01
  2.821505e+01    8.644534e-01
  2.824680e+01    8.345515e-01
  2.827855e+01    8.668289e-01
  2.831030e+01    8.534811e-01
  2.834206e+01    8.384544e-01
  2.837381e+01    8.218699e-01
  2.840556e+01    8.555325e-01
  2.843731e+01    8.479355e-01
  2.846906e+01    8.645069e-01
  2.850081e+01    8.138878e-01
  2.853256e+01    8.462348e-01
  2.856431e+01    8.167017e-01
  2.859606e+01    8.368823e-01
  2.862782e+01    8.175405e-01
  2.865957e+01    8.306881e-01
  2.869132e+01    8.177016e-01
  2.872307e+01    8.223065e-01
  2.875482e+01    8.236481e-01
  2.878657e+01    8.317997e-01
  2.881832e+01    8.117812e-01
  2.885007e+01    8.143829e-01
  2.888183e+01    8.295217e-01
  2.891358e+01    8.350431e-01
  2.894533e+01    8.270037e-01
  2.897708e+01    8.231806e-01
  2.900883e+01    8.234249e-01
  2.904058e+01    8.238595e-01
  2.907233e+01    7.966157e-01
  2.910408e+01    8.071525e-01
  2.913583e+01    8.353611e-01
  2.916759e+01    8.133153e-01
  2.919934e+01    7.983471e-01
  2.923109e+01    7.955964e-01
  2.926284e+01    8.110973e-01
  2.929459e+01    7.988061e-01
  2.932634e+01    8.107253e-01
  2.935809e+01    7.986754e-01
  2.938984e+01    8.190559e-01
  2.942159e+01    8.157523e-01
  2.945335e+01    8.288019e-01
  2.948510e+01    8.108165e-01
  2.951685e+01    8.023859e-01
  2.954860e+01    7.921317e-01
  2.958035e+01    7.948727e-01
  2.961210e+01    8.073073e-01
  2.964385e+01    8.164024e-01
  2.967560e+01    7.950708e-01
  2.970736e+01    7.743139e-01
  2.973911e+01    8.043523e-01
  2.977086e+01    7.940698e-01
  2.980261e+01    7.961403e-01
  2.983436e+01    7.979186e-01
  2.986611e+01    7.949471e-01
  2.989786e+01    7.929027e-01
  2.992961e+01    7.773785e-01
  2.996136e+01    7.948676e-01
  2.999312e+01    7.954933e-01
  3.002487e+01    7.960594e-01
  3.005662e+01    8.326459e-01
  3.008837e+01    7.773989e-01
  3.012012e+01    8.057033e-01
  3.015187e+01    7.873628e-01
  3.018362e+01    7.863849e-01
  3.021537e+01    7.977897e-01
  3.024712e+01    7.714994e-01
  3.027888e+01    7.750997e-01
  3.031063e+01    7.831568e-01
  3.034238e+01    7.725871e-01
  3.037413e+01    7.735865e-01
  3.040588e+01    7.806707e-01
  3.043763e+01    7.700885e-01
  3.046938e+01    7.794493e-01
  3.050113e+01    7.824817e-01
  3.053288e+01    7.725168e-01
  3.056464e+01    7.776605e-01
  3.059639e+01    7.693487e-01
  3.062814e+01    7.728034e-01
  3.065989e+01    7.869805e-01
  3.069164e+01    7.907874e-01
  3.072339e+01    7.957121e-01
  3.075514e+01    7.818248e-01
  3.078689e+01    7.942624e-01
  3.081865e+01    7.763891e-01
  3.085040e+01    7.955986e-01
  3.088215e+01    7.745410e-01
  3.091390e+01    7.721547e-01
  3.094565e+01    7.794880e-01
  3.097740e+01    7.806965e-01
  3.100915e+01    7.829280e-01
  3.104090e+01    7.928109e-01
  3.107265e+01    7.964925e-01
  3.110441e+01    7.777979e-01
  3.113616e+01    7.901348e-01
  3.116791e+01    7.808532e-01
  3.119966e+01    7.932734e-01
  3.123141e+01    7.813439e-01
  3.126316e+01    7.943509e-01
  3.129491e+01    8.050975e-01
  3.132666e+01    7.806368e-01
  3.135841e+01    7.961856e-01
  3.139017e+01    8.017665e-01
  3.142192e+01    7.965636e-01
  3.145367e+01    8.112168e-01
  3.148542e+01    8.257713e-01
  3.151717e+01    8.387175e-01
  3.154892e+01    8.230785e-01
  3.158067e+01    8.593032e-01
  3.161242e+01    8.622363e-01
  3.164418e+01    9.237396e-01
  3.167593e+01    9.582955e-01
  3.170768e+01    1.013506e+00
  3.173943e+01    1.092031e+00
  3.177118e+01    1.248950e+00
  3.180293e+01    1.432515e+00
  3.183468e+01    1.724337e+00
  3.186643e+01    1.926802e+00
  3.189818e+01    2.107390e+00
  3.192994e+01    2.061694e+00
  3.196169e+01    1.814523e+00
  3.199344e+01    1.520834e+00
  3.202519e+01    1.297443e+00
  3.205694e+01    1.115103e+00
  3.208869e+01    1.028725e+00
  3.212044e+01    9.757369e-01
  3.215219e+01    9.226625e-01
  3.218394e+01    8.529035e-01
  3.221570e+01    8.573723e-01
  3.224745e+01    8.197915e-01
  3.227920e+01    8.227519e-01
  3.231095e+01    8.084357e-01
  3.234270e+01    8.136281e-01
  3.237445e+01    7.960756e-01
  3.240620e+01    7.893044e-01
  3.243795e+01    7.843411e-01
  3.246970e+01    7.788372e-01
  3.250146e+01    7.941931e-01
  3.253321e+01    7.636039e-01
  3.254908e+01    7.463300e-01