File: XRD/Reaction conditions/2024-07-27_003_Ru-CGO-ex_Reaction_dwell_000023_data_000075.dat
# == pyFAI calibration ==
# Distance Sample to Detector: 0.4 m
# PONI: 9.750e-02, 1.135e-01 m
# Rotations: -0.000175 0.000000 -0.000000 rad
#
# == Fit2d calibration ==
# Distance Sample-beamCenter: 400.000 mm
# Center: x=1514.000, y=1300.000 pix
# Tilt: 0.010 deg  TiltPlanRot: 0.010 deg
#
# Detector Detector	 Spline= None	 PixelSize= 7.500e-05, 7.500e-05 m
#    Detector has a mask: False
#    Detector has a dark current: False
#    detector has a flat field: False
#
# Wavelength: 6.888e-11 m
# Mask applied: user provided
# Dark current applied: False
# Flat field applied: False
# Polarization factor: 0.99
# Normalization factor: 1.0
# --> /home/myspot/data/2024_07_Rosario/Ru-CGO-ex/2024-07-27_003_Ru-CGO-ex_Reaction_dwell_000023_data_000075.dat
#       q_nm^-1             I
  2.003187e-02    0.000000e+00
  5.178302e-02    2.169825e-01
  8.353417e-02    2.887941e-01
  1.152853e-01    8.125853e-02
  1.470365e-01    9.895712e-02
  1.787876e-01    2.471681e-02
  2.105388e-01    6.684233e-02
  2.422899e-01    4.995752e-02
  2.740411e-01    4.739997e-02
  3.057922e-01    4.041030e-02
  3.375433e-01    8.532078e-02
  3.692945e-01    1.530776e-02
  4.010456e-01    3.331218e-02
  4.327968e-01    4.661079e-02
  4.645479e-01    2.823268e-02
  4.962991e-01    4.937327e-02
  5.280502e-01    4.254555e-02
  5.598014e-01    7.049227e-02
  5.915525e-01    5.426139e-02
  6.233037e-01    4.261769e-02
  6.550548e-01    5.374011e-02
  6.868060e-01    2.778238e-02
  7.185571e-01    4.973140e-02
  7.503083e-01    4.244484e-02
  7.820594e-01    9.433611e-02
  8.138106e-01    2.303321e-01
  8.455617e-01    3.639453e-01
  8.773129e-01    4.976232e-01
  9.090640e-01    6.915416e-01
  9.408152e-01    7.847028e-01
  9.725663e-01    1.111733e+00
  1.004317e+00    1.158216e+00
  1.036069e+00    1.363260e+00
  1.067820e+00    1.418173e+00
  1.099571e+00    1.556377e+00
  1.131322e+00    1.688485e+00
  1.163073e+00    1.717010e+00
  1.194824e+00    1.866559e+00
  1.226575e+00    2.269439e+00
  1.258327e+00    2.397434e+00
  1.290078e+00    2.611187e+00
  1.321829e+00    2.737751e+00
  1.353580e+00    2.828025e+00
  1.385331e+00    2.716716e+00
  1.417082e+00    2.897932e+00
  1.448834e+00    3.039705e+00
  1.480585e+00    3.304300e+00
  1.512336e+00    3.199867e+00
  1.544087e+00    3.268046e+00
  1.575838e+00    3.198489e+00
  1.607589e+00    3.178608e+00
  1.639340e+00    3.162802e+00
  1.671092e+00    3.126126e+00
  1.702843e+00    3.126866e+00
  1.734594e+00    3.066124e+00
  1.766345e+00    3.006123e+00
  1.798096e+00    3.039046e+00
  1.829847e+00    3.051702e+00
  1.861598e+00    3.191621e+00
  1.893350e+00    2.996330e+00
  1.925101e+00    3.093663e+00
  1.956852e+00    3.050119e+00
  1.988603e+00    3.074557e+00
  2.020354e+00    3.095047e+00
  2.052105e+00    3.058753e+00
  2.083856e+00    3.139574e+00
  2.115608e+00    3.102458e+00
  2.147359e+00    3.135682e+00
  2.179110e+00    3.155926e+00
  2.210861e+00    3.160194e+00
  2.242612e+00    3.206192e+00
  2.274363e+00    3.172972e+00
  2.306115e+00    3.285390e+00
  2.337866e+00    3.100894e+00
  2.369617e+00    3.168156e+00
  2.401368e+00    3.297116e+00
  2.433119e+00    3.141021e+00
  2.464870e+00    3.161294e+00
  2.496621e+00    3.194858e+00
  2.528373e+00    3.216371e+00
  2.560124e+00    3.170217e+00
  2.591875e+00    3.195521e+00
  2.623626e+00    3.321459e+00
  2.655377e+00    3.333868e+00
  2.687128e+00    3.123989e+00
  2.718879e+00    3.166725e+00
  2.750631e+00    3.173057e+00
  2.782382e+00    3.262387e+00
  2.814133e+00    3.333850e+00
  2.845884e+00    3.142159e+00
  2.877635e+00    3.385137e+00
  2.909386e+00    3.328375e+00
  2.941137e+00    3.389759e+00
  2.972889e+00    3.297665e+00
  3.004640e+00    3.356556e+00
  3.036391e+00    3.383003e+00
  3.068142e+00    3.343019e+00
  3.099893e+00    3.329323e+00
  3.131644e+00    3.432972e+00
  3.163395e+00    3.318881e+00
  3.195147e+00    3.329813e+00
  3.226898e+00    3.384313e+00
  3.258649e+00    3.368027e+00
  3.290400e+00    3.312194e+00
  3.322151e+00    3.363183e+00
  3.353902e+00    3.422902e+00
  3.385654e+00    3.477089e+00
  3.417405e+00    3.425460e+00
  3.449156e+00    3.432276e+00
  3.480907e+00    3.463841e+00
  3.512658e+00    3.477786e+00
  3.544409e+00    3.422185e+00
  3.576160e+00    3.396378e+00
  3.607912e+00    3.366314e+00
  3.639663e+00    3.531549e+00
  3.671414e+00    3.491292e+00
  3.703165e+00    3.412314e+00
  3.734916e+00    3.430019e+00
  3.766667e+00    3.529131e+00
  3.798418e+00    3.414814e+00
  3.830170e+00    3.533598e+00
  3.861921e+00    3.517689e+00
  3.893672e+00    3.488000e+00
  3.925423e+00    3.511269e+00
  3.957174e+00    3.546344e+00
  3.988925e+00    3.476642e+00
  4.020676e+00    3.565523e+00
  4.052428e+00    3.519035e+00
  4.084179e+00    3.517045e+00
  4.115930e+00    3.564618e+00
  4.147681e+00    3.574936e+00
  4.179432e+00    3.564622e+00
  4.211183e+00    3.605496e+00
  4.242935e+00    3.646360e+00
  4.274686e+00    3.559929e+00
  4.306437e+00    3.597922e+00
  4.338188e+00    3.554225e+00
  4.369939e+00    3.649034e+00
  4.401690e+00    3.574936e+00
  4.433441e+00    3.648591e+00
  4.465193e+00    3.599224e+00
  4.496944e+00    3.475276e+00
  4.528695e+00    3.525868e+00
  4.560446e+00    3.598165e+00
  4.592197e+00    3.552264e+00
  4.623948e+00    3.628202e+00
  4.655699e+00    3.611969e+00
  4.687451e+00    3.615161e+00
  4.719202e+00    3.643312e+00
  4.750953e+00    3.627648e+00
  4.782704e+00    3.565455e+00
  4.814455e+00    3.539429e+00
  4.846206e+00    3.644727e+00
  4.877957e+00    3.645754e+00
  4.909709e+00    3.709788e+00
  4.941460e+00    3.712915e+00
  4.973211e+00    3.683566e+00
  5.004962e+00    3.596056e+00
  5.036713e+00    3.666597e+00
  5.068464e+00    3.659743e+00
  5.100216e+00    3.698091e+00
  5.131967e+00    3.644733e+00
  5.163718e+00    3.619843e+00
  5.195469e+00    3.686988e+00
  5.227220e+00    3.668900e+00
  5.258971e+00    3.691136e+00
  5.290722e+00    3.585400e+00
  5.322474e+00    3.635096e+00
  5.354225e+00    3.755807e+00
  5.385976e+00    3.708819e+00
  5.417727e+00    3.645520e+00
  5.449478e+00    3.600693e+00
  5.481229e+00    3.550136e+00
  5.512980e+00    3.611261e+00
  5.544732e+00    3.623144e+00
  5.576483e+00    3.643095e+00
  5.608234e+00    3.621804e+00
  5.639985e+00    3.558790e+00
  5.671736e+00    3.515917e+00
  5.703487e+00    3.480793e+00
  5.735238e+00    3.655691e+00
  5.766990e+00    3.517258e+00
  5.798741e+00    3.611916e+00
  5.830492e+00    3.549113e+00
  5.862243e+00    3.536683e+00
  5.893994e+00    3.519090e+00
  5.925745e+00    3.449428e+00
  5.957497e+00    3.412272e+00
  5.989248e+00    3.419550e+00
  6.020999e+00    3.537733e+00
  6.052750e+00    3.580980e+00
  6.084501e+00    3.630796e+00
  6.116252e+00    3.614812e+00
  6.148003e+00    3.534219e+00
  6.179755e+00    3.651834e+00
  6.211506e+00    3.505452e+00
  6.243257e+00    3.536204e+00
  6.275008e+00    3.556494e+00
  6.306759e+00    3.558160e+00
  6.338510e+00    3.514670e+00
  6.370261e+00    3.587406e+00
  6.402013e+00    3.511177e+00
  6.433764e+00    3.486238e+00
  6.465515e+00    3.550313e+00
  6.497266e+00    3.540775e+00
  6.529017e+00    3.488683e+00
  6.560768e+00    3.511293e+00
  6.592519e+00    3.574699e+00
  6.624271e+00    3.534582e+00
  6.656022e+00    3.534264e+00
  6.687773e+00    3.545529e+00
  6.719524e+00    3.515889e+00
  6.751275e+00    3.571702e+00
  6.783026e+00    3.539519e+00
  6.814777e+00    3.600576e+00
  6.846529e+00    3.500612e+00
  6.878280e+00    3.565089e+00
  6.910031e+00    3.591665e+00
  6.941782e+00    3.466477e+00
  6.973533e+00    3.561645e+00
  7.005284e+00    3.534189e+00
  7.037036e+00    3.466151e+00
  7.068787e+00    3.507980e+00
  7.100538e+00    3.461511e+00
  7.132289e+00    3.544574e+00
  7.164040e+00    3.524010e+00
  7.195791e+00    3.557893e+00
  7.227542e+00    3.425763e+00
  7.259294e+00    3.528810e+00
  7.291045e+00    3.579608e+00
  7.322796e+00    3.477569e+00
  7.354547e+00    3.463052e+00
  7.386298e+00    3.496139e+00
  7.418049e+00    3.519719e+00
  7.449800e+00    3.503269e+00
  7.481552e+00    3.482061e+00
  7.513303e+00    3.505529e+00
  7.545054e+00    3.521584e+00
  7.576805e+00    3.445474e+00
  7.608556e+00    3.511590e+00
  7.640307e+00    3.496015e+00
  7.672058e+00    3.448225e+00
  7.703810e+00    3.436316e+00
  7.735561e+00    3.441077e+00
  7.767312e+00    3.431774e+00
  7.799063e+00    3.446713e+00
  7.830814e+00    3.439702e+00
  7.862565e+00    3.432032e+00
  7.894317e+00    3.318058e+00
  7.926068e+00    3.462074e+00
  7.957819e+00    3.339963e+00
  7.989570e+00    3.418982e+00
  8.021321e+00    3.382354e+00
  8.053072e+00    3.340442e+00
  8.084823e+00    3.470429e+00
  8.116575e+00    3.478710e+00
  8.148326e+00    3.516593e+00
  8.180077e+00    3.449131e+00
  8.211828e+00    3.512698e+00
  8.243579e+00    3.454287e+00
  8.275330e+00    3.442451e+00
  8.307081e+00    3.397062e+00
  8.338833e+00    3.402247e+00
  8.370584e+00    3.410203e+00
  8.402335e+00    3.311114e+00
  8.434086e+00    3.410512e+00
  8.465837e+00    3.335256e+00
  8.497588e+00    3.307025e+00
  8.529339e+00    3.394463e+00
  8.561091e+00    3.307822e+00
  8.592842e+00    3.365139e+00
  8.624593e+00    3.320235e+00
  8.656344e+00    3.320904e+00
  8.688095e+00    3.345999e+00
  8.719846e+00    3.346117e+00
  8.751598e+00    3.353192e+00
  8.783349e+00    3.240888e+00
  8.815100e+00    3.301328e+00
  8.846851e+00    3.352973e+00
  8.878602e+00    3.302645e+00
  8.910353e+00    3.272094e+00
  8.942104e+00    3.313610e+00
  8.973856e+00    3.239629e+00
  9.005607e+00    3.203621e+00
  9.037358e+00    3.287036e+00
  9.069109e+00    3.297399e+00
  9.100860e+00    3.281742e+00
  9.132611e+00    3.255596e+00
  9.164362e+00    3.227449e+00
  9.196114e+00    3.223668e+00
  9.227865e+00    3.286593e+00
  9.259616e+00    3.294251e+00
  9.291367e+00    3.202069e+00
  9.323118e+00    3.265238e+00
  9.354869e+00    3.198921e+00
  9.386620e+00    3.187935e+00
  9.418372e+00    3.164955e+00
  9.450123e+00    3.168921e+00
  9.481874e+00    3.197367e+00
  9.513625e+00    3.193423e+00
  9.545376e+00    3.306813e+00
  9.577127e+00    3.224549e+00
  9.608878e+00    3.170225e+00
  9.640630e+00    3.141627e+00
  9.672381e+00    3.200504e+00
  9.704132e+00    3.172754e+00
  9.735883e+00    3.157417e+00
  9.767634e+00    3.090673e+00
  9.799385e+00    3.237971e+00
  9.831137e+00    3.149221e+00
  9.862888e+00    3.146863e+00
  9.894639e+00    3.101498e+00
  9.926390e+00    3.056706e+00
  9.958141e+00    3.074027e+00
  9.989892e+00    3.075957e+00
  1.002164e+01    3.101900e+00
  1.005339e+01    3.038187e+00
  1.008515e+01    3.153506e+00
  1.011690e+01    3.061604e+00
  1.014865e+01    3.113881e+00
  1.018040e+01    3.053953e+00
  1.021215e+01    3.062248e+00
  1.024390e+01    3.061520e+00
  1.027565e+01    3.082291e+00
  1.030740e+01    3.042332e+00
  1.033915e+01    3.011302e+00
  1.037091e+01    2.980671e+00
  1.040266e+01    2.996845e+00
  1.043441e+01    3.078418e+00
  1.046616e+01    3.018512e+00
  1.049791e+01    2.993126e+00
  1.052966e+01    3.008658e+00
  1.056141e+01    2.994173e+00
  1.059316e+01    2.947979e+00
  1.062492e+01    3.020647e+00
  1.065667e+01    2.979288e+00
  1.068842e+01    3.008617e+00
  1.072017e+01    2.946123e+00
  1.075192e+01    2.975849e+00
  1.078367e+01    2.918485e+00
  1.081542e+01    2.929592e+00
  1.084717e+01    2.898219e+00
  1.087892e+01    2.955053e+00
  1.091068e+01    2.893695e+00
  1.094243e+01    2.935679e+00
  1.097418e+01    2.865793e+00
  1.100593e+01    2.847473e+00
  1.103768e+01    2.867541e+00
  1.106943e+01    2.819071e+00
  1.110118e+01    2.831408e+00
  1.113293e+01    2.883440e+00
  1.116468e+01    2.813936e+00
  1.119644e+01    2.872001e+00
  1.122819e+01    2.823545e+00
  1.125994e+01    2.824585e+00
  1.129169e+01    2.812283e+00
  1.132344e+01    2.789453e+00
  1.135519e+01    2.846925e+00
  1.138694e+01    2.794530e+00
  1.141869e+01    2.819898e+00
  1.145045e+01    2.775045e+00
  1.148220e+01    2.796564e+00
  1.151395e+01    2.761356e+00
  1.154570e+01    2.776650e+00
  1.157745e+01    2.801296e+00
  1.160920e+01    2.770354e+00
  1.164095e+01    2.752577e+00
  1.167270e+01    2.770696e+00
  1.170445e+01    2.745387e+00
  1.173621e+01    2.749127e+00
  1.176796e+01    2.666729e+00
  1.179971e+01    2.762614e+00
  1.183146e+01    2.685876e+00
  1.186321e+01    2.736489e+00
  1.189496e+01    2.667089e+00
  1.192671e+01    2.685107e+00
  1.195846e+01    2.723714e+00
  1.199021e+01    2.686195e+00
  1.202197e+01    2.708186e+00
  1.205372e+01    2.732038e+00
  1.208547e+01    2.650978e+00
  1.211722e+01    2.654226e+00
  1.214897e+01    2.709354e+00
  1.218072e+01    2.702307e+00
  1.221247e+01    2.692067e+00
  1.224422e+01    2.682310e+00
  1.227597e+01    2.690043e+00
  1.230773e+01    2.660154e+00
  1.233948e+01    2.659646e+00
  1.237123e+01    2.726233e+00
  1.240298e+01    2.704078e+00
  1.243473e+01    2.683826e+00
  1.246648e+01    2.671381e+00
  1.249823e+01    2.710932e+00
  1.252998e+01    2.700740e+00
  1.256174e+01    2.739021e+00
  1.259349e+01    2.729260e+00
  1.262524e+01    2.733615e+00
  1.265699e+01    2.795276e+00
  1.268874e+01    2.766415e+00
  1.272049e+01    2.839788e+00
  1.275224e+01    2.928945e+00
  1.278399e+01    2.910781e+00
  1.281574e+01    3.026699e+00
  1.284750e+01    3.187403e+00
  1.287925e+01    3.339092e+00
  1.291100e+01    3.690485e+00
  1.294275e+01    4.106157e+00
  1.297450e+01    4.780590e+00
  1.300625e+01    5.999485e+00
  1.303800e+01    7.932809e+00
  1.306975e+01    1.030232e+01
  1.310150e+01    1.296153e+01
  1.313326e+01    1.504861e+01
  1.316501e+01    1.651316e+01
  1.319676e+01    1.555455e+01
  1.322851e+01    1.216461e+01
  1.326026e+01    8.881941e+00
  1.329201e+01    6.600748e+00
  1.332376e+01    5.212369e+00
  1.335551e+01    4.405731e+00
  1.338727e+01    3.787467e+00
  1.341902e+01    3.489693e+00
  1.345077e+01    3.214548e+00
  1.348252e+01    3.037503e+00
  1.351427e+01    2.860691e+00
  1.354602e+01    2.804667e+00
  1.357777e+01    2.736003e+00
  1.360952e+01    2.653568e+00
  1.364127e+01    2.649764e+00
  1.367303e+01    2.587137e+00
  1.370478e+01    2.551359e+00
  1.373653e+01    2.525778e+00
  1.376828e+01    2.524024e+00
  1.380003e+01    2.478079e+00
  1.383178e+01    2.467564e+00
  1.386353e+01    2.409938e+00
  1.389528e+01    2.424139e+00
  1.392703e+01    2.396907e+00
  1.395879e+01    2.382556e+00
  1.399054e+01    2.372786e+00
  1.402229e+01    2.385705e+00
  1.405404e+01    2.313574e+00
  1.408579e+01    2.308744e+00
  1.411754e+01    2.311450e+00
  1.414929e+01    2.304481e+00
  1.418104e+01    2.284570e+00
  1.421279e+01    2.250633e+00
  1.424455e+01    2.325039e+00
  1.427630e+01    2.303795e+00
  1.430805e+01    2.269777e+00
  1.433980e+01    2.213650e+00
  1.437155e+01    2.243959e+00
  1.440330e+01    2.250688e+00
  1.443505e+01    2.216932e+00
  1.446680e+01    2.242205e+00
  1.449856e+01    2.232379e+00
  1.453031e+01    2.216906e+00
  1.456206e+01    2.196517e+00
  1.459381e+01    2.237638e+00
  1.462556e+01    2.211927e+00
  1.465731e+01    2.246330e+00
  1.468906e+01    2.209344e+00
  1.472081e+01    2.191134e+00
  1.475256e+01    2.226600e+00
  1.478432e+01    2.182231e+00
  1.481607e+01    2.147358e+00
  1.484782e+01    2.212780e+00
  1.487957e+01    2.215669e+00
  1.491132e+01    2.243191e+00
  1.494307e+01    2.277890e+00
  1.497482e+01    2.329255e+00
  1.500657e+01    2.456104e+00
  1.503832e+01    2.618460e+00
  1.507008e+01    2.880882e+00
  1.510183e+01    3.215915e+00
  1.513358e+01    3.841630e+00
  1.516533e+01    4.592474e+00
  1.519708e+01    5.252282e+00
  1.522883e+01    5.672492e+00
  1.526058e+01    5.793566e+00
  1.529233e+01    5.394304e+00
  1.532409e+01    4.591045e+00
  1.535584e+01    3.728317e+00
  1.538759e+01    3.125145e+00
  1.541934e+01    2.753659e+00
  1.545109e+01    2.498380e+00
  1.548284e+01    2.359138e+00
  1.551459e+01    2.233754e+00
  1.554634e+01    2.163935e+00
  1.557809e+01    2.120097e+00
  1.560985e+01    2.075224e+00
  1.564160e+01    2.032388e+00
  1.567335e+01    1.993892e+00
  1.570510e+01    1.982605e+00
  1.573685e+01    2.004749e+00
  1.576860e+01    1.973733e+00
  1.580035e+01    1.929610e+00
  1.583210e+01    1.895916e+00
  1.586385e+01    1.924924e+00
  1.589561e+01    1.880212e+00
  1.592736e+01    1.907831e+00
  1.595911e+01    1.889207e+00
  1.599086e+01    1.873569e+00
  1.602261e+01    1.889277e+00
  1.605436e+01    1.854452e+00
  1.608611e+01    1.843840e+00
  1.611786e+01    1.830896e+00
  1.614961e+01    1.841819e+00
  1.618137e+01    1.794209e+00
  1.621312e+01    1.791485e+00
  1.624487e+01    1.825545e+00
  1.627662e+01    1.817046e+00
  1.630837e+01    1.843468e+00
  1.634012e+01    1.800596e+00
  1.637187e+01    1.792995e+00
  1.640362e+01    1.794676e+00
  1.643538e+01    1.762475e+00
  1.646713e+01    1.752172e+00
  1.649888e+01    1.753082e+00
  1.653063e+01    1.744803e+00
  1.656238e+01    1.767561e+00
  1.659413e+01    1.724772e+00
  1.662588e+01    1.729758e+00
  1.665763e+01    1.729265e+00
  1.668938e+01    1.724028e+00
  1.672114e+01    1.722154e+00
  1.675289e+01    1.727797e+00
  1.678464e+01    1.721356e+00
  1.681639e+01    1.688019e+00
  1.684814e+01    1.662585e+00
  1.687989e+01    1.662032e+00
  1.691164e+01    1.671571e+00
  1.694339e+01    1.704365e+00
  1.697514e+01    1.668872e+00
  1.700690e+01    1.680834e+00
  1.703865e+01    1.632032e+00
  1.707040e+01    1.640743e+00
  1.710215e+01    1.648909e+00
  1.713390e+01    1.616332e+00
  1.716565e+01    1.613497e+00
  1.719740e+01    1.620242e+00
  1.722915e+01    1.617363e+00
  1.726091e+01    1.612779e+00
  1.729266e+01    1.624976e+00
  1.732441e+01    1.591529e+00
  1.735616e+01    1.620823e+00
  1.738791e+01    1.578367e+00
  1.741966e+01    1.619444e+00
  1.745141e+01    1.628586e+00
  1.748316e+01    1.601541e+00
  1.751491e+01    1.586234e+00
  1.754667e+01    1.566991e+00
  1.757842e+01    1.567574e+00
  1.761017e+01    1.586610e+00
  1.764192e+01    1.541798e+00
  1.767367e+01    1.538296e+00
  1.770542e+01    1.565756e+00
  1.773717e+01    1.580495e+00
  1.776892e+01    1.538275e+00
  1.780067e+01    1.500299e+00
  1.783243e+01    1.543863e+00
  1.786418e+01    1.532138e+00
  1.789593e+01    1.527813e+00
  1.792768e+01    1.509206e+00
  1.795943e+01    1.520158e+00
  1.799118e+01    1.495533e+00
  1.802293e+01    1.522575e+00
  1.805468e+01    1.482142e+00
  1.808643e+01    1.474765e+00
  1.811819e+01    1.507085e+00
  1.814994e+01    1.479080e+00
  1.818169e+01    1.492978e+00
  1.821344e+01    1.487000e+00
  1.824519e+01    1.461733e+00
  1.827694e+01    1.481820e+00
  1.830869e+01    1.454072e+00
  1.834044e+01    1.462062e+00
  1.837220e+01    1.442271e+00
  1.840395e+01    1.469812e+00
  1.843570e+01    1.444794e+00
  1.846745e+01    1.469355e+00
  1.849920e+01    1.418967e+00
  1.853095e+01    1.410733e+00
  1.856270e+01    1.417778e+00
  1.859445e+01    1.445968e+00
  1.862620e+01    1.416231e+00
  1.865796e+01    1.393281e+00
  1.868971e+01    1.406592e+00
  1.872146e+01    1.387093e+00
  1.875321e+01    1.399130e+00
  1.878496e+01    1.400876e+00
  1.881671e+01    1.383693e+00
  1.884846e+01    1.394307e+00
  1.888021e+01    1.415462e+00
  1.891196e+01    1.379973e+00
  1.894372e+01    1.348148e+00
  1.897547e+01    1.369876e+00
  1.900722e+01    1.393587e+00
  1.903897e+01    1.372893e+00
  1.907072e+01    1.430219e+00
  1.910247e+01    1.373040e+00
  1.913422e+01    1.342022e+00
  1.916597e+01    1.362631e+00
  1.919773e+01    1.392960e+00
  1.922948e+01    1.368288e+00
  1.926123e+01    1.326487e+00
  1.929298e+01    1.356359e+00
  1.932473e+01    1.327949e+00
  1.935648e+01    1.360842e+00
  1.938823e+01    1.332875e+00
  1.941998e+01    1.323568e+00
  1.945173e+01    1.320890e+00
  1.948349e+01    1.315765e+00
  1.951524e+01    1.319732e+00
  1.954699e+01    1.368936e+00
  1.957874e+01    1.303174e+00
  1.961049e+01    1.347571e+00
  1.964224e+01    1.316747e+00
  1.967399e+01    1.296947e+00
  1.970574e+01    1.272399e+00
  1.973749e+01    1.296006e+00
  1.976925e+01    1.300053e+00
  1.980100e+01    1.299405e+00
  1.983275e+01    1.304493e+00
  1.986450e+01    1.277375e+00
  1.989625e+01    1.271994e+00
  1.992800e+01    1.306766e+00
  1.995975e+01    1.299289e+00
  1.999150e+01    1.262014e+00
  2.002325e+01    1.291184e+00
  2.005501e+01    1.266948e+00
  2.008676e+01    1.276111e+00
  2.011851e+01    1.262506e+00
  2.015026e+01    1.280151e+00
  2.018201e+01    1.249663e+00
  2.021376e+01    1.261901e+00
  2.024551e+01    1.268237e+00
  2.027726e+01    1.272655e+00
  2.030902e+01    1.254413e+00
  2.034077e+01    1.278636e+00
  2.037252e+01    1.274553e+00
  2.040427e+01    1.249101e+00
  2.043602e+01    1.238692e+00
  2.046777e+01    1.229427e+00
  2.049952e+01    1.246609e+00
  2.053127e+01    1.217168e+00
  2.056302e+01    1.251441e+00
  2.059478e+01    1.260573e+00
  2.062653e+01    1.207757e+00
  2.065828e+01    1.229770e+00
  2.069003e+01    1.230016e+00
  2.072178e+01    1.237205e+00
  2.075353e+01    1.224311e+00
  2.078528e+01    1.242890e+00
  2.081703e+01    1.228297e+00
  2.084878e+01    1.205981e+00
  2.088054e+01    1.248276e+00
  2.091229e+01    1.245790e+00
  2.094404e+01    1.195102e+00
  2.097579e+01    1.203196e+00
  2.100754e+01    1.213932e+00
  2.103929e+01    1.212668e+00
  2.107104e+01    1.232338e+00
  2.110279e+01    1.214514e+00
  2.113455e+01    1.205900e+00
  2.116630e+01    1.230940e+00
  2.119805e+01    1.242579e+00
  2.122980e+01    1.225455e+00
  2.126155e+01    1.227283e+00
  2.129330e+01    1.262289e+00
  2.132505e+01    1.279353e+00
  2.135680e+01    1.274040e+00
  2.138855e+01    1.288377e+00
  2.142031e+01    1.342235e+00
  2.145206e+01    1.348272e+00
  2.148381e+01    1.410787e+00
  2.151556e+01    1.438993e+00
  2.154731e+01    1.525256e+00
  2.157906e+01    1.654665e+00
  2.161081e+01    1.800889e+00
  2.164256e+01    2.009436e+00
  2.167431e+01    2.296877e+00
  2.170607e+01    2.837297e+00
  2.173782e+01    3.633888e+00
  2.176957e+01    4.747354e+00
  2.180132e+01    5.979919e+00
  2.183307e+01    7.337924e+00
  2.186482e+01    8.508466e+00
  2.189657e+01    9.004088e+00
  2.192832e+01    8.116493e+00
  2.196007e+01    6.404170e+00
  2.199183e+01    4.713084e+00
  2.202358e+01    3.535974e+00
  2.205533e+01    2.741150e+00
  2.208708e+01    2.296735e+00
  2.211883e+01    1.952819e+00
  2.215058e+01    1.762527e+00
  2.218233e+01    1.566194e+00
  2.221408e+01    1.490209e+00
  2.224584e+01    1.407818e+00
  2.227759e+01    1.323290e+00
  2.230934e+01    1.325115e+00
  2.234109e+01    1.256111e+00
  2.237284e+01    1.227016e+00
  2.240459e+01    1.220374e+00
  2.243634e+01    1.188834e+00
  2.246809e+01    1.158935e+00
  2.249984e+01    1.135614e+00
  2.253160e+01    1.122970e+00
  2.256335e+01    1.114450e+00
  2.259510e+01    1.132430e+00
  2.262685e+01    1.105111e+00
  2.265860e+01    1.096283e+00
  2.269035e+01    1.066842e+00
  2.272210e+01    1.082206e+00
  2.275385e+01    1.054926e+00
  2.278560e+01    1.043421e+00
  2.281736e+01    1.065271e+00
  2.284911e+01    1.043706e+00
  2.288086e+01    1.032393e+00
  2.291261e+01    1.051929e+00
  2.294436e+01    1.025257e+00
  2.297611e+01    1.028763e+00
  2.300786e+01    1.020905e+00
  2.303961e+01    1.014028e+00
  2.307137e+01    1.022003e+00
  2.310312e+01    1.007994e+00
  2.313487e+01    9.934704e-01
  2.316662e+01    1.014651e+00
  2.319837e+01    1.020759e+00
  2.323012e+01    9.815289e-01
  2.326187e+01    9.691919e-01
  2.329362e+01    9.792675e-01
  2.332537e+01    9.670547e-01
  2.335713e+01    9.849964e-01
  2.338888e+01    9.986975e-01
  2.342063e+01    9.745037e-01
  2.345238e+01    9.426626e-01
  2.348413e+01    9.568717e-01
  2.351588e+01    9.765795e-01
  2.354763e+01    9.401366e-01
  2.357938e+01    9.704722e-01
  2.361113e+01    9.584077e-01
  2.364289e+01    9.304484e-01
  2.367464e+01    9.631371e-01
  2.370639e+01    9.549575e-01
  2.373814e+01    9.115145e-01
  2.376989e+01    9.361448e-01
  2.380164e+01    9.325084e-01
  2.383339e+01    9.008954e-01
  2.386514e+01    9.126714e-01
  2.389689e+01    9.194152e-01
  2.392865e+01    9.045340e-01
  2.396040e+01    9.052382e-01
  2.399215e+01    8.897473e-01
  2.402390e+01    8.742414e-01
  2.405565e+01    9.022403e-01
  2.408740e+01    8.950154e-01
  2.411915e+01    8.775443e-01
  2.415090e+01    8.840579e-01
  2.418266e+01    8.728861e-01
  2.421441e+01    8.653067e-01
  2.424616e+01    8.760194e-01
  2.427791e+01    9.080842e-01
  2.430966e+01    8.954456e-01
  2.434141e+01    8.922583e-01
  2.437316e+01    8.886564e-01
  2.440491e+01    8.902848e-01
  2.443666e+01    8.839614e-01
  2.446842e+01    8.963112e-01
  2.450017e+01    8.729640e-01
  2.453192e+01    8.976015e-01
  2.456367e+01    8.863573e-01
  2.459542e+01    8.943096e-01
  2.462717e+01    8.890315e-01
  2.465892e+01    8.700134e-01
  2.469067e+01    8.807399e-01
  2.472242e+01    8.898246e-01
  2.475418e+01    8.936617e-01
  2.478593e+01    8.926401e-01
  2.481768e+01    8.786519e-01
  2.484943e+01    8.819163e-01
  2.488118e+01    8.819345e-01
  2.491293e+01    8.949496e-01
  2.494468e+01    8.915932e-01
  2.497643e+01    8.657887e-01
  2.500819e+01    8.916767e-01
  2.503994e+01    8.877519e-01
  2.507169e+01    8.808572e-01
  2.510344e+01    9.095559e-01
  2.513519e+01    8.998603e-01
  2.516694e+01    9.179299e-01
  2.519869e+01    9.400408e-01
  2.523044e+01    9.296381e-01
  2.526219e+01    9.522824e-01
  2.529395e+01    9.274837e-01
  2.532570e+01    9.548519e-01
  2.535745e+01    9.498776e-01
  2.538920e+01    1.003827e+00
  2.542095e+01    1.011890e+00
  2.545270e+01    1.013744e+00
  2.548445e+01    1.041790e+00
  2.551620e+01    1.086250e+00
  2.554795e+01    1.103345e+00
  2.557971e+01    1.180381e+00
  2.561146e+01    1.226282e+00
  2.564321e+01    1.325104e+00
  2.567496e+01    1.478930e+00
  2.570671e+01    1.640601e+00
  2.573846e+01    1.908981e+00
  2.577021e+01    2.278309e+00
  2.580196e+01    2.873792e+00
  2.583371e+01    3.751636e+00
  2.586547e+01    4.821381e+00
  2.589722e+01    5.956493e+00
  2.592897e+01    6.850756e+00
  2.596072e+01    7.083800e+00
  2.599247e+01    6.404318e+00
  2.602422e+01    5.118980e+00
  2.605597e+01    3.827509e+00
  2.608772e+01    2.877150e+00
  2.611948e+01    2.295860e+00
  2.615123e+01    1.929551e+00
  2.618298e+01    1.634488e+00
  2.621473e+01    1.488566e+00
  2.624648e+01    1.344462e+00
  2.627823e+01    1.262884e+00
  2.630998e+01    1.174936e+00
  2.634173e+01    1.115739e+00
  2.637348e+01    1.075110e+00
  2.640524e+01    1.036713e+00
  2.643699e+01    1.042402e+00
  2.646874e+01    1.010474e+00
  2.650049e+01    9.941979e-01
  2.653224e+01    9.897737e-01
  2.656399e+01    9.811258e-01
  2.659574e+01    9.917091e-01
  2.662749e+01    9.795942e-01
  2.665924e+01    9.604394e-01
  2.669100e+01    9.820424e-01
  2.672275e+01    9.813539e-01
  2.675450e+01    9.766079e-01
  2.678625e+01    9.575457e-01
  2.681800e+01    9.863685e-01
  2.684975e+01    9.622716e-01
  2.688150e+01    9.775519e-01
  2.691325e+01    1.012127e+00
  2.694501e+01    1.047695e+00
  2.697676e+01    1.074852e+00
  2.700851e+01    1.105489e+00
  2.704026e+01    1.209411e+00
  2.707201e+01    1.338612e+00
  2.710376e+01    1.529390e+00
  2.713551e+01    1.780812e+00
  2.716726e+01    1.997530e+00
  2.719901e+01    2.173941e+00
  2.723077e+01    2.140610e+00
  2.726252e+01    1.973069e+00
  2.729427e+01    1.674786e+00
  2.732602e+01    1.396033e+00
  2.735777e+01    1.264752e+00
  2.738952e+01    1.145553e+00
  2.742127e+01    1.097170e+00
  2.745302e+01    1.037914e+00
  2.748477e+01    9.848350e-01
  2.751653e+01    9.735979e-01
  2.754828e+01    9.838585e-01
  2.758003e+01    9.565011e-01
  2.761178e+01    9.223912e-01
  2.764353e+01    8.905562e-01
  2.767528e+01    9.207229e-01
  2.770703e+01    8.998325e-01
  2.773878e+01    9.026642e-01
  2.777054e+01    8.689712e-01
  2.780229e+01    8.900703e-01
  2.783404e+01    8.495088e-01
  2.786579e+01    8.902934e-01
  2.789754e+01    8.689376e-01
  2.792929e+01    8.457131e-01
  2.796104e+01    8.817950e-01
  2.799279e+01    8.868764e-01
  2.802454e+01    8.679699e-01
  2.805630e+01    8.737643e-01
  2.808805e+01    8.625875e-01
  2.811980e+01    8.490778e-01
  2.815155e+01    8.614495e-01
  2.818330e+01    8.802598e-01
  2.821505e+01    8.464344e-01
  2.824680e+01    8.474309e-01
  2.827855e+01    8.412469e-01
  2.831030e+01    8.600662e-01
  2.834206e+01    8.316415e-01
  2.837381e+01    8.527963e-01
  2.840556e+01    8.415128e-01
  2.843731e+01    8.428181e-01
  2.846906e+01    8.208243e-01
  2.850081e+01    8.517813e-01
  2.853256e+01    8.448375e-01
  2.856431e+01    8.467730e-01
  2.859606e+01    8.322824e-01
  2.862782e+01    8.506546e-01
  2.865957e+01    8.333642e-01
  2.869132e+01    8.228436e-01
  2.872307e+01    8.198008e-01
  2.875482e+01    8.363879e-01
  2.878657e+01    8.367212e-01
  2.881832e+01    8.145800e-01
  2.885007e+01    8.395154e-01
  2.888183e+01    8.118972e-01
  2.891358e+01    8.320118e-01
  2.894533e+01    8.460418e-01
  2.897708e+01    8.073796e-01
  2.900883e+01    8.239169e-01
  2.904058e+01    8.225588e-01
  2.907233e+01    8.096206e-01
  2.910408e+01    8.172244e-01
  2.913583e+01    8.263838e-01
  2.916759e+01    8.367236e-01
  2.919934e+01    8.200027e-01
  2.923109e+01    7.949207e-01
  2.926284e+01    7.941279e-01
  2.929459e+01    8.171516e-01
  2.932634e+01    7.913939e-01
  2.935809e+01    8.104980e-01
  2.938984e+01    8.119566e-01
  2.942159e+01    7.696408e-01
  2.945335e+01    8.123558e-01
  2.948510e+01    8.058322e-01
  2.951685e+01    8.183454e-01
  2.954860e+01    7.962124e-01
  2.958035e+01    7.972282e-01
  2.961210e+01    8.134696e-01
  2.964385e+01    7.929935e-01
  2.967560e+01    8.142881e-01
  2.970736e+01    7.822132e-01
  2.973911e+01    8.147925e-01
  2.977086e+01    7.916061e-01
  2.980261e+01    7.952265e-01
  2.983436e+01    7.779581e-01
  2.986611e+01    7.832390e-01
  2.989786e+01    7.771709e-01
  2.992961e+01    7.707073e-01
  2.996136e+01    7.887447e-01
  2.999312e+01    8.264232e-01
  3.002487e+01    7.894142e-01
  3.005662e+01    8.300757e-01
  3.008837e+01    8.105094e-01
  3.012012e+01    8.045671e-01
  3.015187e+01    8.007610e-01
  3.018362e+01    7.509813e-01
  3.021537e+01    7.786446e-01
  3.024712e+01    7.500547e-01
  3.027888e+01    7.915642e-01
  3.031063e+01    7.877087e-01
  3.034238e+01    7.652801e-01
  3.037413e+01    7.702851e-01
  3.040588e+01    7.690687e-01
  3.043763e+01    7.576087e-01
  3.046938e+01    8.125454e-01
  3.050113e+01    7.828248e-01
  3.053288e+01    7.742168e-01
  3.056464e+01    8.052855e-01
  3.059639e+01    7.767777e-01
  3.062814e+01    7.820518e-01
  3.065989e+01    7.796330e-01
  3.069164e+01    7.614490e-01
  3.072339e+01    7.987729e-01
  3.075514e+01    7.594257e-01
  3.078689e+01    7.763515e-01
  3.081865e+01    7.846609e-01
  3.085040e+01    7.838887e-01
  3.088215e+01    7.864343e-01
  3.091390e+01    7.781229e-01
  3.094565e+01    7.943698e-01
  3.097740e+01    7.929126e-01
  3.100915e+01    7.681473e-01
  3.104090e+01    7.764847e-01
  3.107265e+01    8.111297e-01
  3.110441e+01    7.747158e-01
  3.113616e+01    7.804842e-01
  3.116791e+01    8.046675e-01
  3.119966e+01    7.916495e-01
  3.123141e+01    7.953135e-01
  3.126316e+01    8.108498e-01
  3.129491e+01    7.754589e-01
  3.132666e+01    7.964242e-01
  3.135841e+01    8.085963e-01
  3.139017e+01    8.310137e-01
  3.142192e+01    8.147056e-01
  3.145367e+01    8.183762e-01
  3.148542e+01    8.412399e-01
  3.151717e+01    8.410183e-01
  3.154892e+01    8.578806e-01
  3.158067e+01    8.765766e-01
  3.161242e+01    8.836040e-01
  3.164418e+01    9.213759e-01
  3.167593e+01    9.696010e-01
  3.170768e+01    1.037854e+00
  3.173943e+01    1.138817e+00
  3.177118e+01    1.263074e+00
  3.180293e+01    1.473692e+00
  3.183468e+01    1.747604e+00
  3.186643e+01    2.011409e+00
  3.189818e+01    2.081759e+00
  3.192994e+01    2.018104e+00
  3.196169e+01    1.788463e+00
  3.199344e+01    1.486322e+00
  3.202519e+01    1.287889e+00
  3.205694e+01    1.138557e+00
  3.208869e+01    1.013516e+00
  3.212044e+01    9.448956e-01
  3.215219e+01    8.892609e-01
  3.218394e+01    8.604811e-01
  3.221570e+01    8.552458e-01
  3.224745e+01    8.279014e-01
  3.227920e+01    8.337734e-01
  3.231095e+01    7.936853e-01
  3.234270e+01    8.124898e-01
  3.237445e+01    7.799393e-01
  3.240620e+01    7.796246e-01
  3.243795e+01    8.156074e-01
  3.246970e+01    7.660167e-01
  3.250146e+01    7.954574e-01
  3.253321e+01    7.725009e-01
  3.254908e+01    7.772897e-01