File: XRD/Reaction conditions/2024-07-27_003_Ru-CGO-ex_Reaction_dwell_000023_data_000190.dat
# == pyFAI calibration ==
# Distance Sample to Detector: 0.4 m
# PONI: 9.750e-02, 1.135e-01 m
# Rotations: -0.000175 0.000000 -0.000000 rad
#
# == Fit2d calibration ==
# Distance Sample-beamCenter: 400.000 mm
# Center: x=1514.000, y=1300.000 pix
# Tilt: 0.010 deg  TiltPlanRot: 0.010 deg
#
# Detector Detector	 Spline= None	 PixelSize= 7.500e-05, 7.500e-05 m
#    Detector has a mask: False
#    Detector has a dark current: False
#    detector has a flat field: False
#
# Wavelength: 6.888e-11 m
# Mask applied: user provided
# Dark current applied: False
# Flat field applied: False
# Polarization factor: 0.99
# Normalization factor: 1.0
# --> /home/myspot/data/2024_07_Rosario/Ru-CGO-ex/2024-07-27_003_Ru-CGO-ex_Reaction_dwell_000023_data_000190.dat
#       q_nm^-1             I
  2.003187e-02    0.000000e+00
  5.178302e-02    4.717292e-02
  8.353417e-02    9.459653e-02
  1.152853e-01    3.768082e-03
  1.470365e-01    0.000000e+00
  1.787876e-01    2.447038e-02
  2.105388e-01    1.877064e-02
  2.422899e-01    4.108210e-02
  2.740411e-01    2.687483e-02
  3.057922e-01    3.998946e-02
  3.375433e-01    4.836466e-02
  3.692945e-01    8.627777e-02
  4.010456e-01    5.540143e-02
  4.327968e-01    2.835631e-02
  4.645479e-01    2.050222e-02
  4.962991e-01    6.161069e-02
  5.280502e-01    3.081625e-02
  5.598014e-01    1.823439e-02
  5.915525e-01    5.104597e-02
  6.233037e-01    4.768506e-02
  6.550548e-01    3.728400e-02
  6.868060e-01    4.489520e-02
  7.185571e-01    4.345927e-02
  7.503083e-01    3.870428e-02
  7.820594e-01    1.115429e-01
  8.138106e-01    2.468120e-01
  8.455617e-01    3.704666e-01
  8.773129e-01    5.067703e-01
  9.090640e-01    7.089508e-01
  9.408152e-01    8.004383e-01
  9.725663e-01    9.392560e-01
  1.004317e+00    1.200864e+00
  1.036069e+00    1.431613e+00
  1.067820e+00    1.434691e+00
  1.099571e+00    1.531679e+00
  1.131322e+00    1.664811e+00
  1.163073e+00    1.675480e+00
  1.194824e+00    1.804774e+00
  1.226575e+00    2.107407e+00
  1.258327e+00    2.460386e+00
  1.290078e+00    2.571763e+00
  1.321829e+00    2.608148e+00
  1.353580e+00    2.711183e+00
  1.385331e+00    2.735216e+00
  1.417082e+00    2.832882e+00
  1.448834e+00    2.988969e+00
  1.480585e+00    2.880202e+00
  1.512336e+00    3.008150e+00
  1.544087e+00    3.124469e+00
  1.575838e+00    3.008198e+00
  1.607589e+00    3.157511e+00
  1.639340e+00    3.132323e+00
  1.671092e+00    3.128110e+00
  1.702843e+00    2.985130e+00
  1.734594e+00    3.066464e+00
  1.766345e+00    3.022399e+00
  1.798096e+00    3.080276e+00
  1.829847e+00    3.077548e+00
  1.861598e+00    3.144122e+00
  1.893350e+00    2.987264e+00
  1.925101e+00    3.041290e+00
  1.956852e+00    3.084874e+00
  1.988603e+00    2.962149e+00
  2.020354e+00    3.043535e+00
  2.052105e+00    3.093624e+00
  2.083856e+00    3.006417e+00
  2.115608e+00    3.076457e+00
  2.147359e+00    3.023906e+00
  2.179110e+00    3.095087e+00
  2.210861e+00    3.085990e+00
  2.242612e+00    3.107059e+00
  2.274363e+00    3.115339e+00
  2.306115e+00    3.050926e+00
  2.337866e+00    3.138232e+00
  2.369617e+00    3.095957e+00
  2.401368e+00    3.104476e+00
  2.433119e+00    3.233591e+00
  2.464870e+00    3.180461e+00
  2.496621e+00    3.191059e+00
  2.528373e+00    3.027536e+00
  2.560124e+00    3.119727e+00
  2.591875e+00    3.147911e+00
  2.623626e+00    3.239486e+00
  2.655377e+00    3.186761e+00
  2.687128e+00    3.183100e+00
  2.718879e+00    3.284300e+00
  2.750631e+00    3.238255e+00
  2.782382e+00    3.117195e+00
  2.814133e+00    3.244834e+00
  2.845884e+00    3.220535e+00
  2.877635e+00    3.385760e+00
  2.909386e+00    3.285489e+00
  2.941137e+00    3.300264e+00
  2.972889e+00    3.194117e+00
  3.004640e+00    3.221241e+00
  3.036391e+00    3.333208e+00
  3.068142e+00    3.295763e+00
  3.099893e+00    3.340321e+00
  3.131644e+00    3.314793e+00
  3.163395e+00    3.307090e+00
  3.195147e+00    3.354543e+00
  3.226898e+00    3.406476e+00
  3.258649e+00    3.471812e+00
  3.290400e+00    3.297009e+00
  3.322151e+00    3.295734e+00
  3.353902e+00    3.374091e+00
  3.385654e+00    3.335962e+00
  3.417405e+00    3.377754e+00
  3.449156e+00    3.389278e+00
  3.480907e+00    3.310162e+00
  3.512658e+00    3.429470e+00
  3.544409e+00    3.433444e+00
  3.576160e+00    3.243528e+00
  3.607912e+00    3.371399e+00
  3.639663e+00    3.406903e+00
  3.671414e+00    3.447645e+00
  3.703165e+00    3.481326e+00
  3.734916e+00    3.423064e+00
  3.766667e+00    3.375817e+00
  3.798418e+00    3.518632e+00
  3.830170e+00    3.399324e+00
  3.861921e+00    3.446817e+00
  3.893672e+00    3.501142e+00
  3.925423e+00    3.471006e+00
  3.957174e+00    3.461786e+00
  3.988925e+00    3.439285e+00
  4.020676e+00    3.389271e+00
  4.052428e+00    3.428701e+00
  4.084179e+00    3.340922e+00
  4.115930e+00    3.626094e+00
  4.147681e+00    3.446534e+00
  4.179432e+00    3.477347e+00
  4.211183e+00    3.411114e+00
  4.242935e+00    3.437281e+00
  4.274686e+00    3.488547e+00
  4.306437e+00    3.560395e+00
  4.338188e+00    3.488050e+00
  4.369939e+00    3.453705e+00
  4.401690e+00    3.544521e+00
  4.433441e+00    3.601365e+00
  4.465193e+00    3.546385e+00
  4.496944e+00    3.553461e+00
  4.528695e+00    3.450581e+00
  4.560446e+00    3.577471e+00
  4.592197e+00    3.589841e+00
  4.623948e+00    3.596433e+00
  4.655699e+00    3.493783e+00
  4.687451e+00    3.532423e+00
  4.719202e+00    3.596350e+00
  4.750953e+00    3.633603e+00
  4.782704e+00    3.588444e+00
  4.814455e+00    3.530268e+00
  4.846206e+00    3.606915e+00
  4.877957e+00    3.600180e+00
  4.909709e+00    3.568695e+00
  4.941460e+00    3.616732e+00
  4.973211e+00    3.598358e+00
  5.004962e+00    3.600224e+00
  5.036713e+00    3.556695e+00
  5.068464e+00    3.593546e+00
  5.100216e+00    3.572110e+00
  5.131967e+00    3.632549e+00
  5.163718e+00    3.530277e+00
  5.195469e+00    3.587314e+00
  5.227220e+00    3.517850e+00
  5.258971e+00    3.609592e+00
  5.290722e+00    3.604310e+00
  5.322474e+00    3.671365e+00
  5.354225e+00    3.524193e+00
  5.385976e+00    3.713484e+00
  5.417727e+00    3.629889e+00
  5.449478e+00    3.500140e+00
  5.481229e+00    3.573521e+00
  5.512980e+00    3.594555e+00
  5.544732e+00    3.437716e+00
  5.576483e+00    3.487586e+00
  5.608234e+00    3.597945e+00
  5.639985e+00    3.483824e+00
  5.671736e+00    3.514785e+00
  5.703487e+00    3.530965e+00
  5.735238e+00    3.489569e+00
  5.766990e+00    3.500736e+00
  5.798741e+00    3.539596e+00
  5.830492e+00    3.497689e+00
  5.862243e+00    3.518055e+00
  5.893994e+00    3.559106e+00
  5.925745e+00    3.525355e+00
  5.957497e+00    3.386532e+00
  5.989248e+00    3.552916e+00
  6.020999e+00    3.424489e+00
  6.052750e+00    3.555816e+00
  6.084501e+00    3.541178e+00
  6.116252e+00    3.597020e+00
  6.148003e+00    3.453443e+00
  6.179755e+00    3.534524e+00
  6.211506e+00    3.516866e+00
  6.243257e+00    3.514834e+00
  6.275008e+00    3.526950e+00
  6.306759e+00    3.561136e+00
  6.338510e+00    3.447398e+00
  6.370261e+00    3.576043e+00
  6.402013e+00    3.489793e+00
  6.433764e+00    3.518082e+00
  6.465515e+00    3.470747e+00
  6.497266e+00    3.513343e+00
  6.529017e+00    3.584812e+00
  6.560768e+00    3.522120e+00
  6.592519e+00    3.404053e+00
  6.624271e+00    3.469862e+00
  6.656022e+00    3.464173e+00
  6.687773e+00    3.413481e+00
  6.719524e+00    3.442268e+00
  6.751275e+00    3.511626e+00
  6.783026e+00    3.433258e+00
  6.814777e+00    3.473030e+00
  6.846529e+00    3.507311e+00
  6.878280e+00    3.521404e+00
  6.910031e+00    3.458235e+00
  6.941782e+00    3.501896e+00
  6.973533e+00    3.482703e+00
  7.005284e+00    3.491973e+00
  7.037036e+00    3.525792e+00
  7.068787e+00    3.523666e+00
  7.100538e+00    3.380448e+00
  7.132289e+00    3.482225e+00
  7.164040e+00    3.475225e+00
  7.195791e+00    3.467533e+00
  7.227542e+00    3.457830e+00
  7.259294e+00    3.414953e+00
  7.291045e+00    3.445766e+00
  7.322796e+00    3.451279e+00
  7.354547e+00    3.466493e+00
  7.386298e+00    3.438562e+00
  7.418049e+00    3.463218e+00
  7.449800e+00    3.444929e+00
  7.481552e+00    3.397071e+00
  7.513303e+00    3.377895e+00
  7.545054e+00    3.403201e+00
  7.576805e+00    3.429852e+00
  7.608556e+00    3.464467e+00
  7.640307e+00    3.415523e+00
  7.672058e+00    3.372108e+00
  7.703810e+00    3.446822e+00
  7.735561e+00    3.410022e+00
  7.767312e+00    3.436263e+00
  7.799063e+00    3.401249e+00
  7.830814e+00    3.374326e+00
  7.862565e+00    3.432764e+00
  7.894317e+00    3.341766e+00
  7.926068e+00    3.278825e+00
  7.957819e+00    3.387326e+00
  7.989570e+00    3.373707e+00
  8.021321e+00    3.373724e+00
  8.053072e+00    3.347078e+00
  8.084823e+00    3.356254e+00
  8.116575e+00    3.402250e+00
  8.148326e+00    3.400568e+00
  8.180077e+00    3.383845e+00
  8.211828e+00    3.347108e+00
  8.243579e+00    3.447667e+00
  8.275330e+00    3.351848e+00
  8.307081e+00    3.414484e+00
  8.338833e+00    3.256376e+00
  8.370584e+00    3.300658e+00
  8.402335e+00    3.276832e+00
  8.434086e+00    3.410649e+00
  8.465837e+00    3.222939e+00
  8.497588e+00    3.371281e+00
  8.529339e+00    3.343272e+00
  8.561091e+00    3.201470e+00
  8.592842e+00    3.230527e+00
  8.624593e+00    3.253721e+00
  8.656344e+00    3.288857e+00
  8.688095e+00    3.333210e+00
  8.719846e+00    3.251115e+00
  8.751598e+00    3.266842e+00
  8.783349e+00    3.310434e+00
  8.815100e+00    3.288741e+00
  8.846851e+00    3.230260e+00
  8.878602e+00    3.263522e+00
  8.910353e+00    3.218983e+00
  8.942104e+00    3.261104e+00
  8.973856e+00    3.210467e+00
  9.005607e+00    3.212231e+00
  9.037358e+00    3.236748e+00
  9.069109e+00    3.217557e+00
  9.100860e+00    3.239470e+00
  9.132611e+00    3.201313e+00
  9.164362e+00    3.218663e+00
  9.196114e+00    3.171012e+00
  9.227865e+00    3.186800e+00
  9.259616e+00    3.222937e+00
  9.291367e+00    3.141032e+00
  9.323118e+00    3.174274e+00
  9.354869e+00    3.125514e+00
  9.386620e+00    3.143237e+00
  9.418372e+00    3.131016e+00
  9.450123e+00    3.132124e+00
  9.481874e+00    3.162747e+00
  9.513625e+00    3.201242e+00
  9.545376e+00    3.157892e+00
  9.577127e+00    3.170910e+00
  9.608878e+00    3.183374e+00
  9.640630e+00    3.116574e+00
  9.672381e+00    3.154315e+00
  9.704132e+00    3.135485e+00
  9.735883e+00    3.112976e+00
  9.767634e+00    3.084086e+00
  9.799385e+00    3.078414e+00
  9.831137e+00    3.084023e+00
  9.862888e+00    3.090210e+00
  9.894639e+00    3.091160e+00
  9.926390e+00    3.062969e+00
  9.958141e+00    3.064802e+00
  9.989892e+00    3.049175e+00
  1.002164e+01    3.015917e+00
  1.005339e+01    3.062242e+00
  1.008515e+01    3.040738e+00
  1.011690e+01    3.029506e+00
  1.014865e+01    3.020953e+00
  1.018040e+01    2.993917e+00
  1.021215e+01    2.996055e+00
  1.024390e+01    3.016384e+00
  1.027565e+01    2.989954e+00
  1.030740e+01    2.986913e+00
  1.033915e+01    3.034939e+00
  1.037091e+01    2.979623e+00
  1.040266e+01    2.975665e+00
  1.043441e+01    3.002172e+00
  1.046616e+01    2.973621e+00
  1.049791e+01    2.964107e+00
  1.052966e+01    2.946435e+00
  1.056141e+01    2.911335e+00
  1.059316e+01    2.941758e+00
  1.062492e+01    2.934020e+00
  1.065667e+01    2.920244e+00
  1.068842e+01    2.904005e+00
  1.072017e+01    2.933802e+00
  1.075192e+01    2.893234e+00
  1.078367e+01    2.931834e+00
  1.081542e+01    2.907619e+00
  1.084717e+01    2.921742e+00
  1.087892e+01    2.864333e+00
  1.091068e+01    2.868992e+00
  1.094243e+01    2.867563e+00
  1.097418e+01    2.899237e+00
  1.100593e+01    2.873425e+00
  1.103768e+01    2.832910e+00
  1.106943e+01    2.829397e+00
  1.110118e+01    2.844867e+00
  1.113293e+01    2.785963e+00
  1.116468e+01    2.794095e+00
  1.119644e+01    2.790474e+00
  1.122819e+01    2.815646e+00
  1.125994e+01    2.783847e+00
  1.129169e+01    2.776245e+00
  1.132344e+01    2.787681e+00
  1.135519e+01    2.743290e+00
  1.138694e+01    2.769621e+00
  1.141869e+01    2.766649e+00
  1.145045e+01    2.738434e+00
  1.148220e+01    2.785637e+00
  1.151395e+01    2.727079e+00
  1.154570e+01    2.730813e+00
  1.157745e+01    2.796335e+00
  1.160920e+01    2.767730e+00
  1.164095e+01    2.765280e+00
  1.167270e+01    2.735009e+00
  1.170445e+01    2.702711e+00
  1.173621e+01    2.759570e+00
  1.176796e+01    2.667014e+00
  1.179971e+01    2.658791e+00
  1.183146e+01    2.691226e+00
  1.186321e+01    2.703138e+00
  1.189496e+01    2.661385e+00
  1.192671e+01    2.671569e+00
  1.195846e+01    2.681231e+00
  1.199021e+01    2.677968e+00
  1.202197e+01    2.674957e+00
  1.205372e+01    2.715229e+00
  1.208547e+01    2.624333e+00
  1.211722e+01    2.682586e+00
  1.214897e+01    2.622136e+00
  1.218072e+01    2.689464e+00
  1.221247e+01    2.633430e+00
  1.224422e+01    2.658391e+00
  1.227597e+01    2.660578e+00
  1.230773e+01    2.625425e+00
  1.233948e+01    2.665289e+00
  1.237123e+01    2.673525e+00
  1.240298e+01    2.670560e+00
  1.243473e+01    2.724864e+00
  1.246648e+01    2.672318e+00
  1.249823e+01    2.638677e+00
  1.252998e+01    2.679298e+00
  1.256174e+01    2.651237e+00
  1.259349e+01    2.682004e+00
  1.262524e+01    2.719208e+00
  1.265699e+01    2.677249e+00
  1.268874e+01    2.744994e+00
  1.272049e+01    2.795817e+00
  1.275224e+01    2.848137e+00
  1.278399e+01    2.908318e+00
  1.281574e+01    2.985033e+00
  1.284750e+01    3.125797e+00
  1.287925e+01    3.294916e+00
  1.291100e+01    3.563370e+00
  1.294275e+01    3.984227e+00
  1.297450e+01    4.705553e+00
  1.300625e+01    5.805928e+00
  1.303800e+01    7.554318e+00
  1.306975e+01    9.886682e+00
  1.310150e+01    1.244392e+01
  1.313326e+01    1.470708e+01
  1.316501e+01    1.590006e+01
  1.319676e+01    1.538869e+01
  1.322851e+01    1.223157e+01
  1.326026e+01    9.053068e+00
  1.329201e+01    6.613539e+00
  1.332376e+01    5.301130e+00
  1.335551e+01    4.384630e+00
  1.338727e+01    3.802982e+00
  1.341902e+01    3.415385e+00
  1.345077e+01    3.176770e+00
  1.348252e+01    2.996128e+00
  1.351427e+01    2.871401e+00
  1.354602e+01    2.698373e+00
  1.357777e+01    2.676052e+00
  1.360952e+01    2.643865e+00
  1.364127e+01    2.587953e+00
  1.367303e+01    2.545280e+00
  1.370478e+01    2.514024e+00
  1.373653e+01    2.485829e+00
  1.376828e+01    2.448262e+00
  1.380003e+01    2.452183e+00
  1.383178e+01    2.414705e+00
  1.386353e+01    2.419449e+00
  1.389528e+01    2.374866e+00
  1.392703e+01    2.392658e+00
  1.395879e+01    2.333422e+00
  1.399054e+01    2.311262e+00
  1.402229e+01    2.315012e+00
  1.405404e+01    2.273793e+00
  1.408579e+01    2.307972e+00
  1.411754e+01    2.284470e+00
  1.414929e+01    2.285125e+00
  1.418104e+01    2.241278e+00
  1.421279e+01    2.268167e+00
  1.424455e+01    2.250466e+00
  1.427630e+01    2.224253e+00
  1.430805e+01    2.233986e+00
  1.433980e+01    2.258641e+00
  1.437155e+01    2.214314e+00
  1.440330e+01    2.226568e+00
  1.443505e+01    2.194129e+00
  1.446680e+01    2.209099e+00
  1.449856e+01    2.225436e+00
  1.453031e+01    2.183106e+00
  1.456206e+01    2.176426e+00
  1.459381e+01    2.163130e+00
  1.462556e+01    2.176469e+00
  1.465731e+01    2.153428e+00
  1.468906e+01    2.149772e+00
  1.472081e+01    2.203792e+00
  1.475256e+01    2.161058e+00
  1.478432e+01    2.186115e+00
  1.481607e+01    2.158245e+00
  1.484782e+01    2.165321e+00
  1.487957e+01    2.154923e+00
  1.491132e+01    2.219761e+00
  1.494307e+01    2.241335e+00
  1.497482e+01    2.293656e+00
  1.500657e+01    2.375311e+00
  1.503832e+01    2.533323e+00
  1.507008e+01    2.804708e+00
  1.510183e+01    3.154255e+00
  1.513358e+01    3.710620e+00
  1.516533e+01    4.504210e+00
  1.519708e+01    5.065259e+00
  1.522883e+01    5.509377e+00
  1.526058e+01    5.667817e+00
  1.529233e+01    5.321095e+00
  1.532409e+01    4.643482e+00
  1.535584e+01    3.723716e+00
  1.538759e+01    3.053560e+00
  1.541934e+01    2.710748e+00
  1.545109e+01    2.475695e+00
  1.548284e+01    2.277733e+00
  1.551459e+01    2.184451e+00
  1.554634e+01    2.181727e+00
  1.557809e+01    2.108150e+00
  1.560985e+01    2.016376e+00
  1.564160e+01    2.004998e+00
  1.567335e+01    1.967509e+00
  1.570510e+01    1.964077e+00
  1.573685e+01    1.936496e+00
  1.576860e+01    1.929274e+00
  1.580035e+01    1.914324e+00
  1.583210e+01    1.897069e+00
  1.586385e+01    1.848955e+00
  1.589561e+01    1.874900e+00
  1.592736e+01    1.860936e+00
  1.595911e+01    1.843756e+00
  1.599086e+01    1.834119e+00
  1.602261e+01    1.851130e+00
  1.605436e+01    1.808249e+00
  1.608611e+01    1.806927e+00
  1.611786e+01    1.779530e+00
  1.614961e+01    1.776301e+00
  1.618137e+01    1.773752e+00
  1.621312e+01    1.763787e+00
  1.624487e+01    1.748724e+00
  1.627662e+01    1.785637e+00
  1.630837e+01    1.808489e+00
  1.634012e+01    1.759934e+00
  1.637187e+01    1.757263e+00
  1.640362e+01    1.735340e+00
  1.643538e+01    1.735115e+00
  1.646713e+01    1.727829e+00
  1.649888e+01    1.779558e+00
  1.653063e+01    1.725521e+00
  1.656238e+01    1.740082e+00
  1.659413e+01    1.710133e+00
  1.662588e+01    1.704395e+00
  1.665763e+01    1.675183e+00
  1.668938e+01    1.722750e+00
  1.672114e+01    1.703663e+00
  1.675289e+01    1.713942e+00
  1.678464e+01    1.659542e+00
  1.681639e+01    1.654210e+00
  1.684814e+01    1.660947e+00
  1.687989e+01    1.684734e+00
  1.691164e+01    1.674867e+00
  1.694339e+01    1.661941e+00
  1.697514e+01    1.634126e+00
  1.700690e+01    1.633531e+00
  1.703865e+01    1.611823e+00
  1.707040e+01    1.634386e+00
  1.710215e+01    1.646964e+00
  1.713390e+01    1.589678e+00
  1.716565e+01    1.603797e+00
  1.719740e+01    1.576100e+00
  1.722915e+01    1.607237e+00
  1.726091e+01    1.608319e+00
  1.729266e+01    1.603868e+00
  1.732441e+01    1.577245e+00
  1.735616e+01    1.592831e+00
  1.738791e+01    1.547687e+00
  1.741966e+01    1.541288e+00
  1.745141e+01    1.573729e+00
  1.748316e+01    1.545920e+00
  1.751491e+01    1.540471e+00
  1.754667e+01    1.552331e+00
  1.757842e+01    1.547816e+00
  1.761017e+01    1.552797e+00
  1.764192e+01    1.508065e+00
  1.767367e+01    1.550849e+00
  1.770542e+01    1.526138e+00
  1.773717e+01    1.523137e+00
  1.776892e+01    1.522416e+00
  1.780067e+01    1.478118e+00
  1.783243e+01    1.486472e+00
  1.786418e+01    1.491372e+00
  1.789593e+01    1.516633e+00
  1.792768e+01    1.500302e+00
  1.795943e+01    1.506936e+00
  1.799118e+01    1.477272e+00
  1.802293e+01    1.467129e+00
  1.805468e+01    1.497559e+00
  1.808643e+01    1.481314e+00
  1.811819e+01    1.482761e+00
  1.814994e+01    1.450154e+00
  1.818169e+01    1.455269e+00
  1.821344e+01    1.460696e+00
  1.824519e+01    1.466105e+00
  1.827694e+01    1.446544e+00
  1.830869e+01    1.449598e+00
  1.834044e+01    1.433973e+00
  1.837220e+01    1.431518e+00
  1.840395e+01    1.428375e+00
  1.843570e+01    1.433078e+00
  1.846745e+01    1.445226e+00
  1.849920e+01    1.425107e+00
  1.853095e+01    1.421247e+00
  1.856270e+01    1.416154e+00
  1.859445e+01    1.387842e+00
  1.862620e+01    1.382695e+00
  1.865796e+01    1.414978e+00
  1.868971e+01    1.414238e+00
  1.872146e+01    1.387650e+00
  1.875321e+01    1.390088e+00
  1.878496e+01    1.380196e+00
  1.881671e+01    1.360872e+00
  1.884846e+01    1.376345e+00
  1.888021e+01    1.366361e+00
  1.891196e+01    1.360716e+00
  1.894372e+01    1.375093e+00
  1.897547e+01    1.372318e+00
  1.900722e+01    1.340771e+00
  1.903897e+01    1.336784e+00
  1.907072e+01    1.364747e+00
  1.910247e+01    1.350797e+00
  1.913422e+01    1.343227e+00
  1.916597e+01    1.356920e+00
  1.919773e+01    1.343729e+00
  1.922948e+01    1.332079e+00
  1.926123e+01    1.348393e+00
  1.929298e+01    1.332124e+00
  1.932473e+01    1.326609e+00
  1.935648e+01    1.334928e+00
  1.938823e+01    1.331643e+00
  1.941998e+01    1.323081e+00
  1.945173e+01    1.299159e+00
  1.948349e+01    1.332916e+00
  1.951524e+01    1.267329e+00
  1.954699e+01    1.282410e+00
  1.957874e+01    1.312185e+00
  1.961049e+01    1.292839e+00
  1.964224e+01    1.310523e+00
  1.967399e+01    1.259155e+00
  1.970574e+01    1.280708e+00
  1.973749e+01    1.273063e+00
  1.976925e+01    1.282045e+00
  1.980100e+01    1.263281e+00
  1.983275e+01    1.304149e+00
  1.986450e+01    1.291948e+00
  1.989625e+01    1.269791e+00
  1.992800e+01    1.302069e+00
  1.995975e+01    1.249742e+00
  1.999150e+01    1.274433e+00
  2.002325e+01    1.240544e+00
  2.005501e+01    1.250072e+00
  2.008676e+01    1.230501e+00
  2.011851e+01    1.254148e+00
  2.015026e+01    1.223663e+00
  2.018201e+01    1.254652e+00
  2.021376e+01    1.237658e+00
  2.024551e+01    1.231282e+00
  2.027726e+01    1.229391e+00
  2.030902e+01    1.240469e+00
  2.034077e+01    1.226228e+00
  2.037252e+01    1.223684e+00
  2.040427e+01    1.212777e+00
  2.043602e+01    1.218388e+00
  2.046777e+01    1.218889e+00
  2.049952e+01    1.205356e+00
  2.053127e+01    1.220045e+00
  2.056302e+01    1.228858e+00
  2.059478e+01    1.235483e+00
  2.062653e+01    1.214783e+00
  2.065828e+01    1.205427e+00
  2.069003e+01    1.198508e+00
  2.072178e+01    1.200186e+00
  2.075353e+01    1.226357e+00
  2.078528e+01    1.173066e+00
  2.081703e+01    1.199227e+00
  2.084878e+01    1.210961e+00
  2.088054e+01    1.211403e+00
  2.091229e+01    1.180012e+00
  2.094404e+01    1.192863e+00
  2.097579e+01    1.209158e+00
  2.100754e+01    1.197716e+00
  2.103929e+01    1.190801e+00
  2.107104e+01    1.200386e+00
  2.110279e+01    1.211286e+00
  2.113455e+01    1.199656e+00
  2.116630e+01    1.228489e+00
  2.119805e+01    1.223201e+00
  2.122980e+01    1.221833e+00
  2.126155e+01    1.230447e+00
  2.129330e+01    1.236173e+00
  2.132505e+01    1.246118e+00
  2.135680e+01    1.233479e+00
  2.138855e+01    1.271417e+00
  2.142031e+01    1.298216e+00
  2.145206e+01    1.330788e+00
  2.148381e+01    1.378963e+00
  2.151556e+01    1.427855e+00
  2.154731e+01    1.476794e+00
  2.157906e+01    1.563188e+00
  2.161081e+01    1.738607e+00
  2.164256e+01    1.933673e+00
  2.167431e+01    2.224750e+00
  2.170607e+01    2.721810e+00
  2.173782e+01    3.440180e+00
  2.176957e+01    4.492867e+00
  2.180132e+01    5.718698e+00
  2.183307e+01    6.982807e+00
  2.186482e+01    8.175114e+00
  2.189657e+01    8.741079e+00
  2.192832e+01    8.173345e+00
  2.196007e+01    6.445249e+00
  2.199183e+01    4.755187e+00
  2.202358e+01    3.564221e+00
  2.205533e+01    2.783882e+00
  2.208708e+01    2.291640e+00
  2.211883e+01    1.928289e+00
  2.215058e+01    1.754219e+00
  2.218233e+01    1.570759e+00
  2.221408e+01    1.490169e+00
  2.224584e+01    1.376651e+00
  2.227759e+01    1.307174e+00
  2.230934e+01    1.280671e+00
  2.234109e+01    1.212842e+00
  2.237284e+01    1.213851e+00
  2.240459e+01    1.174070e+00
  2.243634e+01    1.156118e+00
  2.246809e+01    1.143685e+00
  2.249984e+01    1.118075e+00
  2.253160e+01    1.133524e+00
  2.256335e+01    1.116218e+00
  2.259510e+01    1.100034e+00
  2.262685e+01    1.093754e+00
  2.265860e+01    1.042913e+00
  2.269035e+01    1.067922e+00
  2.272210e+01    1.059655e+00
  2.275385e+01    1.029569e+00
  2.278560e+01    1.044749e+00
  2.281736e+01    1.044981e+00
  2.284911e+01    1.034901e+00
  2.288086e+01    1.017630e+00
  2.291261e+01    1.016513e+00
  2.294436e+01    1.019539e+00
  2.297611e+01    1.020064e+00
  2.300786e+01    9.879235e-01
  2.303961e+01    9.925758e-01
  2.307137e+01    9.984401e-01
  2.310312e+01    9.823536e-01
  2.313487e+01    9.914303e-01
  2.316662e+01    9.888114e-01
  2.319837e+01    9.709732e-01
  2.323012e+01    9.485908e-01
  2.326187e+01    9.820351e-01
  2.329362e+01    9.765454e-01
  2.332537e+01    9.554167e-01
  2.335713e+01    9.565727e-01
  2.338888e+01    9.802225e-01
  2.342063e+01    9.650830e-01
  2.345238e+01    9.684399e-01
  2.348413e+01    9.629207e-01
  2.351588e+01    9.508542e-01
  2.354763e+01    9.341645e-01
  2.357938e+01    9.503905e-01
  2.361113e+01    9.616297e-01
  2.364289e+01    9.256312e-01
  2.367464e+01    9.208495e-01
  2.370639e+01    9.149169e-01
  2.373814e+01    9.161179e-01
  2.376989e+01    8.854692e-01
  2.380164e+01    9.219306e-01
  2.383339e+01    9.010070e-01
  2.386514e+01    8.978854e-01
  2.389689e+01    9.169486e-01
  2.392865e+01    8.935977e-01
  2.396040e+01    8.674973e-01
  2.399215e+01    8.838751e-01
  2.402390e+01    8.767560e-01
  2.405565e+01    8.865848e-01
  2.408740e+01    8.887285e-01
  2.411915e+01    8.843806e-01
  2.415090e+01    8.679884e-01
  2.418266e+01    8.585745e-01
  2.421441e+01    8.690975e-01
  2.424616e+01    8.579938e-01
  2.427791e+01    8.780549e-01
  2.430966e+01    8.530197e-01
  2.434141e+01    8.626654e-01
  2.437316e+01    8.861679e-01
  2.440491e+01    8.757660e-01
  2.443666e+01    8.619992e-01
  2.446842e+01    8.777058e-01
  2.450017e+01    8.954523e-01
  2.453192e+01    8.981687e-01
  2.456367e+01    8.838059e-01
  2.459542e+01    8.806192e-01
  2.462717e+01    8.815676e-01
  2.465892e+01    8.723863e-01
  2.469067e+01    9.031988e-01
  2.472242e+01    8.621893e-01
  2.475418e+01    8.821113e-01
  2.478593e+01    8.645492e-01
  2.481768e+01    8.838347e-01
  2.484943e+01    8.807228e-01
  2.488118e+01    8.967628e-01
  2.491293e+01    8.539667e-01
  2.494468e+01    8.834545e-01
  2.497643e+01    8.885953e-01
  2.500819e+01    8.800356e-01
  2.503994e+01    8.757543e-01
  2.507169e+01    8.793517e-01
  2.510344e+01    8.947366e-01
  2.513519e+01    8.896406e-01
  2.516694e+01    8.992039e-01
  2.519869e+01    9.185579e-01
  2.523044e+01    9.160082e-01
  2.526219e+01    8.995541e-01
  2.529395e+01    9.211759e-01
  2.532570e+01    9.399241e-01
  2.535745e+01    9.370438e-01
  2.538920e+01    9.968638e-01
  2.542095e+01    1.000111e+00
  2.545270e+01    9.914621e-01
  2.548445e+01    1.011213e+00
  2.551620e+01    1.071964e+00
  2.554795e+01    1.101424e+00
  2.557971e+01    1.127517e+00
  2.561146e+01    1.204302e+00
  2.564321e+01    1.284597e+00
  2.567496e+01    1.391936e+00
  2.570671e+01    1.559143e+00
  2.573846e+01    1.810394e+00
  2.577021e+01    2.185585e+00
  2.580196e+01    2.756438e+00
  2.583371e+01    3.578262e+00
  2.586547e+01    4.583626e+00
  2.589722e+01    5.703187e+00
  2.592897e+01    6.649009e+00
  2.596072e+01    7.015141e+00
  2.599247e+01    6.389233e+00
  2.602422e+01    5.141292e+00
  2.605597e+01    3.918998e+00
  2.608772e+01    2.936879e+00
  2.611948e+01    2.301153e+00
  2.615123e+01    1.920117e+00
  2.618298e+01    1.628638e+00
  2.621473e+01    1.444072e+00
  2.624648e+01    1.307347e+00
  2.627823e+01    1.205969e+00
  2.630998e+01    1.138770e+00
  2.634173e+01    1.126483e+00
  2.637348e+01    1.052978e+00
  2.640524e+01    1.035104e+00
  2.643699e+01    1.037875e+00
  2.646874e+01    1.012966e+00
  2.650049e+01    9.696983e-01
  2.653224e+01    9.936320e-01
  2.656399e+01    9.652048e-01
  2.659574e+01    9.352661e-01
  2.662749e+01    9.632003e-01
  2.665924e+01    9.630870e-01
  2.669100e+01    9.677064e-01
  2.672275e+01    9.433690e-01
  2.675450e+01    9.625449e-01
  2.678625e+01    9.624647e-01
  2.681800e+01    9.660912e-01
  2.684975e+01    9.512947e-01
  2.688150e+01    9.870809e-01
  2.691325e+01    9.893828e-01
  2.694501e+01    1.002770e+00
  2.697676e+01    1.029230e+00
  2.700851e+01    1.105737e+00
  2.704026e+01    1.167160e+00
  2.707201e+01    1.290755e+00
  2.710376e+01    1.453425e+00
  2.713551e+01    1.677750e+00
  2.716726e+01    1.950568e+00
  2.719901e+01    2.124388e+00
  2.723077e+01    2.134298e+00
  2.726252e+01    1.941476e+00
  2.729427e+01    1.657141e+00
  2.732602e+01    1.446807e+00
  2.735777e+01    1.261698e+00
  2.738952e+01    1.128534e+00
  2.742127e+01    1.072575e+00
  2.745302e+01    1.037809e+00
  2.748477e+01    9.805268e-01
  2.751653e+01    9.508361e-01
  2.754828e+01    9.235799e-01
  2.758003e+01    9.415416e-01
  2.761178e+01    8.949142e-01
  2.764353e+01    9.202393e-01
  2.767528e+01    9.011931e-01
  2.770703e+01    8.755706e-01
  2.773878e+01    8.723876e-01
  2.777054e+01    8.624471e-01
  2.780229e+01    8.686210e-01
  2.783404e+01    8.465673e-01
  2.786579e+01    8.579839e-01
  2.789754e+01    8.554769e-01
  2.792929e+01    8.797531e-01
  2.796104e+01    8.345827e-01
  2.799279e+01    8.580904e-01
  2.802454e+01    8.532179e-01
  2.805630e+01    8.490944e-01
  2.808805e+01    8.508849e-01
  2.811980e+01    8.216609e-01
  2.815155e+01    8.300076e-01
  2.818330e+01    8.373075e-01
  2.821505e+01    8.406472e-01
  2.824680e+01    8.353819e-01
  2.827855e+01    8.533313e-01
  2.831030e+01    8.365694e-01
  2.834206e+01    8.310009e-01
  2.837381e+01    8.313012e-01
  2.840556e+01    8.262978e-01
  2.843731e+01    8.360639e-01
  2.846906e+01    8.386008e-01
  2.850081e+01    8.243819e-01
  2.853256e+01    8.353769e-01
  2.856431e+01    8.284531e-01
  2.859606e+01    8.178653e-01
  2.862782e+01    8.071099e-01
  2.865957e+01    8.191918e-01
  2.869132e+01    8.199989e-01
  2.872307e+01    8.103575e-01
  2.875482e+01    8.114071e-01
  2.878657e+01    8.267604e-01
  2.881832e+01    7.902976e-01
  2.885007e+01    8.205642e-01
  2.888183e+01    8.177388e-01
  2.891358e+01    8.006049e-01
  2.894533e+01    8.150570e-01
  2.897708e+01    8.076711e-01
  2.900883e+01    8.102332e-01
  2.904058e+01    7.963918e-01
  2.907233e+01    8.094043e-01
  2.910408e+01    8.004984e-01
  2.913583e+01    7.945380e-01
  2.916759e+01    7.994662e-01
  2.919934e+01    7.972888e-01
  2.923109e+01    8.119339e-01
  2.926284e+01    7.796454e-01
  2.929459e+01    7.915347e-01
  2.932634e+01    7.774503e-01
  2.935809e+01    7.906206e-01
  2.938984e+01    7.761185e-01
  2.942159e+01    7.935273e-01
  2.945335e+01    7.978723e-01
  2.948510e+01    7.718109e-01
  2.951685e+01    7.975215e-01
  2.954860e+01    7.864382e-01
  2.958035e+01    7.898921e-01
  2.961210e+01    7.814195e-01
  2.964385e+01    7.946438e-01
  2.967560e+01    7.773892e-01
  2.970736e+01    7.661973e-01
  2.973911e+01    7.760721e-01
  2.977086e+01    7.960007e-01
  2.980261e+01    7.823327e-01
  2.983436e+01    7.849855e-01
  2.986611e+01    7.852471e-01
  2.989786e+01    7.831579e-01
  2.992961e+01    7.920520e-01
  2.996136e+01    7.951155e-01
  2.999312e+01    7.817566e-01
  3.002487e+01    7.770417e-01
  3.005662e+01    8.301460e-01
  3.008837e+01    8.091308e-01
  3.012012e+01    7.868345e-01
  3.015187e+01    7.751913e-01
  3.018362e+01    7.871018e-01
  3.021537e+01    7.675591e-01
  3.024712e+01    7.666072e-01
  3.027888e+01    7.664899e-01
  3.031063e+01    7.668841e-01
  3.034238e+01    7.831795e-01
  3.037413e+01    7.661325e-01
  3.040588e+01    7.681680e-01
  3.043763e+01    7.676193e-01
  3.046938e+01    7.631429e-01
  3.050113e+01    7.690724e-01
  3.053288e+01    7.631060e-01
  3.056464e+01    7.606286e-01
  3.059639e+01    7.814338e-01
  3.062814e+01    7.777124e-01
  3.065989e+01    7.944137e-01
  3.069164e+01    7.640448e-01
  3.072339e+01    7.816003e-01
  3.075514e+01    7.666261e-01
  3.078689e+01    7.697285e-01
  3.081865e+01    7.684703e-01
  3.085040e+01    7.649426e-01
  3.088215e+01    7.434746e-01
  3.091390e+01    7.570575e-01
  3.094565e+01    7.550923e-01
  3.097740e+01    7.681507e-01
  3.100915e+01    7.856902e-01
  3.104090e+01    7.834795e-01
  3.107265e+01    7.894490e-01
  3.110441e+01    7.700250e-01
  3.113616e+01    7.815378e-01
  3.116791e+01    7.776184e-01
  3.119966e+01    7.806338e-01
  3.123141e+01    7.805015e-01
  3.126316e+01    7.760287e-01
  3.129491e+01    8.037593e-01
  3.132666e+01    7.987872e-01
  3.135841e+01    8.132996e-01
  3.139017e+01    7.723229e-01
  3.142192e+01    7.864440e-01
  3.145367e+01    8.010147e-01
  3.148542e+01    8.067036e-01
  3.151717e+01    8.405184e-01
  3.154892e+01    8.500937e-01
  3.158067e+01    8.278583e-01
  3.161242e+01    8.910330e-01
  3.164418e+01    9.095377e-01
  3.167593e+01    9.499572e-01
  3.170768e+01    1.007367e+00
  3.173943e+01    1.102403e+00
  3.177118e+01    1.236267e+00
  3.180293e+01    1.436936e+00
  3.183468e+01    1.679410e+00
  3.186643e+01    1.897832e+00
  3.189818e+01    2.015753e+00
  3.192994e+01    1.993378e+00
  3.196169e+01    1.804074e+00
  3.199344e+01    1.512505e+00
  3.202519e+01    1.277091e+00
  3.205694e+01    1.139305e+00
  3.208869e+01    1.025505e+00
  3.212044e+01    9.499171e-01
  3.215219e+01    8.967444e-01
  3.218394e+01    8.749043e-01
  3.221570e+01    8.570228e-01
  3.224745e+01    8.241007e-01
  3.227920e+01    8.377683e-01
  3.231095e+01    8.068616e-01
  3.234270e+01    7.922809e-01
  3.237445e+01    7.751647e-01
  3.240620e+01    7.455785e-01
  3.243795e+01    7.579229e-01
  3.246970e+01    7.656978e-01
  3.250146e+01    7.715853e-01
  3.253321e+01    7.512091e-01
  3.254908e+01    7.586347e-01