File: XRD/Reaction conditions/2024-07-27_003_Ru-CGO-ex_Reaction_dwell_000023_data_000102.dat
# == pyFAI calibration ==
# Distance Sample to Detector: 0.4 m
# PONI: 9.750e-02, 1.135e-01 m
# Rotations: -0.000175 0.000000 -0.000000 rad
#
# == Fit2d calibration ==
# Distance Sample-beamCenter: 400.000 mm
# Center: x=1514.000, y=1300.000 pix
# Tilt: 0.010 deg  TiltPlanRot: 0.010 deg
#
# Detector Detector	 Spline= None	 PixelSize= 7.500e-05, 7.500e-05 m
#    Detector has a mask: False
#    Detector has a dark current: False
#    detector has a flat field: False
#
# Wavelength: 6.888e-11 m
# Mask applied: user provided
# Dark current applied: False
# Flat field applied: False
# Polarization factor: 0.99
# Normalization factor: 1.0
# --> /home/myspot/data/2024_07_Rosario/Ru-CGO-ex/2024-07-27_003_Ru-CGO-ex_Reaction_dwell_000023_data_000102.dat
#       q_nm^-1             I
  2.003187e-02    7.712225e-02
  5.178302e-02    5.341410e-02
  8.353417e-02    2.451538e-01
  1.152853e-01    7.857692e-02
  1.470365e-01    1.988251e-02
  1.787876e-01    9.486096e-02
  2.105388e-01    1.732239e-02
  2.422899e-01    0.000000e+00
  2.740411e-01    3.608106e-02
  3.057922e-01    3.353256e-02
  3.375433e-01    6.736539e-02
  3.692945e-01    4.359457e-02
  4.010456e-01    2.021946e-02
  4.327968e-01    6.128588e-02
  4.645479e-01    4.983752e-02
  4.962991e-01    2.907812e-02
  5.280502e-01    2.941011e-02
  5.598014e-01    6.892160e-03
  5.915525e-01    5.192417e-02
  6.233037e-01    4.847677e-02
  6.550548e-01    4.169211e-02
  6.868060e-01    4.348542e-02
  7.185571e-01    3.375513e-02
  7.503083e-01    4.432790e-02
  7.820594e-01    1.287073e-01
  8.138106e-01    2.348635e-01
  8.455617e-01    2.856967e-01
  8.773129e-01    4.288592e-01
  9.090640e-01    6.085568e-01
  9.408152e-01    9.602181e-01
  9.725663e-01    1.047833e+00
  1.004317e+00    1.211221e+00
  1.036069e+00    1.338457e+00
  1.067820e+00    1.482053e+00
  1.099571e+00    1.563798e+00
  1.131322e+00    1.629726e+00
  1.163073e+00    1.595378e+00
  1.194824e+00    1.892093e+00
  1.226575e+00    2.127204e+00
  1.258327e+00    2.421609e+00
  1.290078e+00    2.686087e+00
  1.321829e+00    2.759375e+00
  1.353580e+00    2.763076e+00
  1.385331e+00    2.809055e+00
  1.417082e+00    2.910604e+00
  1.448834e+00    2.951786e+00
  1.480585e+00    3.055808e+00
  1.512336e+00    3.077510e+00
  1.544087e+00    3.264656e+00
  1.575838e+00    3.197586e+00
  1.607589e+00    3.111212e+00
  1.639340e+00    3.197290e+00
  1.671092e+00    3.062926e+00
  1.702843e+00    3.208780e+00
  1.734594e+00    3.036694e+00
  1.766345e+00    3.078069e+00
  1.798096e+00    3.165887e+00
  1.829847e+00    3.128806e+00
  1.861598e+00    3.147272e+00
  1.893350e+00    3.051192e+00
  1.925101e+00    3.027757e+00
  1.956852e+00    3.121402e+00
  1.988603e+00    3.211033e+00
  2.020354e+00    3.122550e+00
  2.052105e+00    3.184146e+00
  2.083856e+00    3.159055e+00
  2.115608e+00    3.135568e+00
  2.147359e+00    3.025886e+00
  2.179110e+00    3.125811e+00
  2.210861e+00    2.977031e+00
  2.242612e+00    3.035843e+00
  2.274363e+00    3.104906e+00
  2.306115e+00    3.090540e+00
  2.337866e+00    3.070887e+00
  2.369617e+00    3.022648e+00
  2.401368e+00    3.155767e+00
  2.433119e+00    3.269134e+00
  2.464870e+00    3.164503e+00
  2.496621e+00    3.216691e+00
  2.528373e+00    3.206165e+00
  2.560124e+00    3.259301e+00
  2.591875e+00    3.290127e+00
  2.623626e+00    3.300155e+00
  2.655377e+00    3.079399e+00
  2.687128e+00    3.160553e+00
  2.718879e+00    3.247707e+00
  2.750631e+00    3.255947e+00
  2.782382e+00    3.248266e+00
  2.814133e+00    3.319260e+00
  2.845884e+00    3.195916e+00
  2.877635e+00    3.329187e+00
  2.909386e+00    3.369333e+00
  2.941137e+00    3.256443e+00
  2.972889e+00    3.271225e+00
  3.004640e+00    3.266522e+00
  3.036391e+00    3.295174e+00
  3.068142e+00    3.308415e+00
  3.099893e+00    3.281987e+00
  3.131644e+00    3.377679e+00
  3.163395e+00    3.377543e+00
  3.195147e+00    3.447626e+00
  3.226898e+00    3.387070e+00
  3.258649e+00    3.348474e+00
  3.290400e+00    3.401030e+00
  3.322151e+00    3.320004e+00
  3.353902e+00    3.415780e+00
  3.385654e+00    3.465403e+00
  3.417405e+00    3.521398e+00
  3.449156e+00    3.412312e+00
  3.480907e+00    3.345939e+00
  3.512658e+00    3.411813e+00
  3.544409e+00    3.357592e+00
  3.576160e+00    3.483037e+00
  3.607912e+00    3.377306e+00
  3.639663e+00    3.490604e+00
  3.671414e+00    3.540658e+00
  3.703165e+00    3.554843e+00
  3.734916e+00    3.524665e+00
  3.766667e+00    3.452310e+00
  3.798418e+00    3.496890e+00
  3.830170e+00    3.462395e+00
  3.861921e+00    3.550028e+00
  3.893672e+00    3.554462e+00
  3.925423e+00    3.401695e+00
  3.957174e+00    3.466155e+00
  3.988925e+00    3.498198e+00
  4.020676e+00    3.491599e+00
  4.052428e+00    3.603644e+00
  4.084179e+00    3.542364e+00
  4.115930e+00    3.554929e+00
  4.147681e+00    3.479311e+00
  4.179432e+00    3.491496e+00
  4.211183e+00    3.475013e+00
  4.242935e+00    3.571202e+00
  4.274686e+00    3.596237e+00
  4.306437e+00    3.607808e+00
  4.338188e+00    3.502193e+00
  4.369939e+00    3.627229e+00
  4.401690e+00    3.581015e+00
  4.433441e+00    3.638663e+00
  4.465193e+00    3.579058e+00
  4.496944e+00    3.453725e+00
  4.528695e+00    3.497465e+00
  4.560446e+00    3.580278e+00
  4.592197e+00    3.665067e+00
  4.623948e+00    3.650503e+00
  4.655699e+00    3.685117e+00
  4.687451e+00    3.716156e+00
  4.719202e+00    3.585650e+00
  4.750953e+00    3.710581e+00
  4.782704e+00    3.587493e+00
  4.814455e+00    3.633417e+00
  4.846206e+00    3.597215e+00
  4.877957e+00    3.694866e+00
  4.909709e+00    3.684276e+00
  4.941460e+00    3.623139e+00
  4.973211e+00    3.591107e+00
  5.004962e+00    3.647310e+00
  5.036713e+00    3.698512e+00
  5.068464e+00    3.645097e+00
  5.100216e+00    3.722036e+00
  5.131967e+00    3.568911e+00
  5.163718e+00    3.618349e+00
  5.195469e+00    3.590247e+00
  5.227220e+00    3.673594e+00
  5.258971e+00    3.571402e+00
  5.290722e+00    3.508667e+00
  5.322474e+00    3.685891e+00
  5.354225e+00    3.589125e+00
  5.385976e+00    3.709921e+00
  5.417727e+00    3.620630e+00
  5.449478e+00    3.634876e+00
  5.481229e+00    3.562739e+00
  5.512980e+00    3.566407e+00
  5.544732e+00    3.644870e+00
  5.576483e+00    3.682485e+00
  5.608234e+00    3.626385e+00
  5.639985e+00    3.585125e+00
  5.671736e+00    3.555970e+00
  5.703487e+00    3.685172e+00
  5.735238e+00    3.515179e+00
  5.766990e+00    3.622800e+00
  5.798741e+00    3.566687e+00
  5.830492e+00    3.619469e+00
  5.862243e+00    3.635043e+00
  5.893994e+00    3.580239e+00
  5.925745e+00    3.567042e+00
  5.957497e+00    3.503124e+00
  5.989248e+00    3.524221e+00
  6.020999e+00    3.486329e+00
  6.052750e+00    3.546587e+00
  6.084501e+00    3.577638e+00
  6.116252e+00    3.595874e+00
  6.148003e+00    3.592785e+00
  6.179755e+00    3.619636e+00
  6.211506e+00    3.538072e+00
  6.243257e+00    3.540867e+00
  6.275008e+00    3.541372e+00
  6.306759e+00    3.540472e+00
  6.338510e+00    3.524003e+00
  6.370261e+00    3.560625e+00
  6.402013e+00    3.629968e+00
  6.433764e+00    3.519622e+00
  6.465515e+00    3.538835e+00
  6.497266e+00    3.459205e+00
  6.529017e+00    3.555264e+00
  6.560768e+00    3.564749e+00
  6.592519e+00    3.562078e+00
  6.624271e+00    3.537988e+00
  6.656022e+00    3.601427e+00
  6.687773e+00    3.614213e+00
  6.719524e+00    3.540350e+00
  6.751275e+00    3.519929e+00
  6.783026e+00    3.640729e+00
  6.814777e+00    3.501075e+00
  6.846529e+00    3.554291e+00
  6.878280e+00    3.510969e+00
  6.910031e+00    3.574614e+00
  6.941782e+00    3.582925e+00
  6.973533e+00    3.590899e+00
  7.005284e+00    3.499316e+00
  7.037036e+00    3.551696e+00
  7.068787e+00    3.502397e+00
  7.100538e+00    3.563958e+00
  7.132289e+00    3.447030e+00
  7.164040e+00    3.471956e+00
  7.195791e+00    3.573304e+00
  7.227542e+00    3.440960e+00
  7.259294e+00    3.514774e+00
  7.291045e+00    3.434265e+00
  7.322796e+00    3.468423e+00
  7.354547e+00    3.478346e+00
  7.386298e+00    3.408707e+00
  7.418049e+00    3.530168e+00
  7.449800e+00    3.542237e+00
  7.481552e+00    3.539771e+00
  7.513303e+00    3.484002e+00
  7.545054e+00    3.456077e+00
  7.576805e+00    3.475250e+00
  7.608556e+00    3.484586e+00
  7.640307e+00    3.486131e+00
  7.672058e+00    3.438761e+00
  7.703810e+00    3.475965e+00
  7.735561e+00    3.454993e+00
  7.767312e+00    3.427777e+00
  7.799063e+00    3.375409e+00
  7.830814e+00    3.380053e+00
  7.862565e+00    3.420637e+00
  7.894317e+00    3.438633e+00
  7.926068e+00    3.467835e+00
  7.957819e+00    3.389623e+00
  7.989570e+00    3.430906e+00
  8.021321e+00    3.338448e+00
  8.053072e+00    3.396204e+00
  8.084823e+00    3.458842e+00
  8.116575e+00    3.475626e+00
  8.148326e+00    3.446747e+00
  8.180077e+00    3.462060e+00
  8.211828e+00    3.465243e+00
  8.243579e+00    3.461023e+00
  8.275330e+00    3.425969e+00
  8.307081e+00    3.433294e+00
  8.338833e+00    3.401510e+00
  8.370584e+00    3.427200e+00
  8.402335e+00    3.355428e+00
  8.434086e+00    3.405537e+00
  8.465837e+00    3.407163e+00
  8.497588e+00    3.409219e+00
  8.529339e+00    3.347464e+00
  8.561091e+00    3.367203e+00
  8.592842e+00    3.339118e+00
  8.624593e+00    3.326128e+00
  8.656344e+00    3.346526e+00
  8.688095e+00    3.304421e+00
  8.719846e+00    3.365655e+00
  8.751598e+00    3.326664e+00
  8.783349e+00    3.266974e+00
  8.815100e+00    3.307684e+00
  8.846851e+00    3.288393e+00
  8.878602e+00    3.261411e+00
  8.910353e+00    3.269993e+00
  8.942104e+00    3.328629e+00
  8.973856e+00    3.282564e+00
  9.005607e+00    3.239460e+00
  9.037358e+00    3.297247e+00
  9.069109e+00    3.257370e+00
  9.100860e+00    3.248378e+00
  9.132611e+00    3.236878e+00
  9.164362e+00    3.268054e+00
  9.196114e+00    3.252702e+00
  9.227865e+00    3.304416e+00
  9.259616e+00    3.295913e+00
  9.291367e+00    3.198844e+00
  9.323118e+00    3.274562e+00
  9.354869e+00    3.215248e+00
  9.386620e+00    3.171422e+00
  9.418372e+00    3.192805e+00
  9.450123e+00    3.224481e+00
  9.481874e+00    3.113310e+00
  9.513625e+00    3.232759e+00
  9.545376e+00    3.255558e+00
  9.577127e+00    3.221317e+00
  9.608878e+00    3.104468e+00
  9.640630e+00    3.212419e+00
  9.672381e+00    3.181137e+00
  9.704132e+00    3.211619e+00
  9.735883e+00    3.110244e+00
  9.767634e+00    3.148320e+00
  9.799385e+00    3.152451e+00
  9.831137e+00    3.048705e+00
  9.862888e+00    3.237094e+00
  9.894639e+00    3.102526e+00
  9.926390e+00    3.089426e+00
  9.958141e+00    3.088062e+00
  9.989892e+00    3.084268e+00
  1.002164e+01    3.123244e+00
  1.005339e+01    3.076331e+00
  1.008515e+01    3.083219e+00
  1.011690e+01    3.023962e+00
  1.014865e+01    3.086769e+00
  1.018040e+01    3.061625e+00
  1.021215e+01    3.116144e+00
  1.024390e+01    3.004928e+00
  1.027565e+01    3.027009e+00
  1.030740e+01    3.073348e+00
  1.033915e+01    3.051255e+00
  1.037091e+01    3.033618e+00
  1.040266e+01    3.120543e+00
  1.043441e+01    3.022804e+00
  1.046616e+01    3.053018e+00
  1.049791e+01    3.046279e+00
  1.052966e+01    3.017558e+00
  1.056141e+01    3.029509e+00
  1.059316e+01    2.946122e+00
  1.062492e+01    2.923375e+00
  1.065667e+01    2.954028e+00
  1.068842e+01    2.990300e+00
  1.072017e+01    2.977989e+00
  1.075192e+01    2.920479e+00
  1.078367e+01    2.961686e+00
  1.081542e+01    2.892188e+00
  1.084717e+01    2.970835e+00
  1.087892e+01    2.910299e+00
  1.091068e+01    2.922282e+00
  1.094243e+01    2.875673e+00
  1.097418e+01    2.907146e+00
  1.100593e+01    2.884677e+00
  1.103768e+01    2.865372e+00
  1.106943e+01    2.858223e+00
  1.110118e+01    2.916490e+00
  1.113293e+01    2.867867e+00
  1.116468e+01    2.814338e+00
  1.119644e+01    2.907043e+00
  1.122819e+01    2.801300e+00
  1.125994e+01    2.892459e+00
  1.129169e+01    2.839072e+00
  1.132344e+01    2.872123e+00
  1.135519e+01    2.858607e+00
  1.138694e+01    2.844200e+00
  1.141869e+01    2.753625e+00
  1.145045e+01    2.839103e+00
  1.148220e+01    2.784455e+00
  1.151395e+01    2.806662e+00
  1.154570e+01    2.818076e+00
  1.157745e+01    2.775668e+00
  1.160920e+01    2.767612e+00
  1.164095e+01    2.744911e+00
  1.167270e+01    2.779019e+00
  1.170445e+01    2.806506e+00
  1.173621e+01    2.768552e+00
  1.176796e+01    2.697065e+00
  1.179971e+01    2.731912e+00
  1.183146e+01    2.775858e+00
  1.186321e+01    2.728667e+00
  1.189496e+01    2.794936e+00
  1.192671e+01    2.739496e+00
  1.195846e+01    2.686650e+00
  1.199021e+01    2.679816e+00
  1.202197e+01    2.642707e+00
  1.205372e+01    2.737137e+00
  1.208547e+01    2.687674e+00
  1.211722e+01    2.710605e+00
  1.214897e+01    2.693270e+00
  1.218072e+01    2.675464e+00
  1.221247e+01    2.677823e+00
  1.224422e+01    2.687988e+00
  1.227597e+01    2.759216e+00
  1.230773e+01    2.710181e+00
  1.233948e+01    2.730720e+00
  1.237123e+01    2.673095e+00
  1.240298e+01    2.703311e+00
  1.243473e+01    2.740846e+00
  1.246648e+01    2.703415e+00
  1.249823e+01    2.662210e+00
  1.252998e+01    2.706503e+00
  1.256174e+01    2.752926e+00
  1.259349e+01    2.717110e+00
  1.262524e+01    2.796916e+00
  1.265699e+01    2.792670e+00
  1.268874e+01    2.796201e+00
  1.272049e+01    2.823365e+00
  1.275224e+01    2.881543e+00
  1.278399e+01    2.947231e+00
  1.281574e+01    3.031704e+00
  1.284750e+01    3.231986e+00
  1.287925e+01    3.364440e+00
  1.291100e+01    3.602541e+00
  1.294275e+01    3.991734e+00
  1.297450e+01    4.735751e+00
  1.300625e+01    5.886204e+00
  1.303800e+01    7.735107e+00
  1.306975e+01    1.011616e+01
  1.310150e+01    1.270811e+01
  1.313326e+01    1.492735e+01
  1.316501e+01    1.621857e+01
  1.319676e+01    1.574223e+01
  1.322851e+01    1.241621e+01
  1.326026e+01    9.031588e+00
  1.329201e+01    6.804392e+00
  1.332376e+01    5.343755e+00
  1.335551e+01    4.420457e+00
  1.338727e+01    3.878590e+00
  1.341902e+01    3.485800e+00
  1.345077e+01    3.231068e+00
  1.348252e+01    3.025238e+00
  1.351427e+01    2.895818e+00
  1.354602e+01    2.788902e+00
  1.357777e+01    2.737688e+00
  1.360952e+01    2.711785e+00
  1.364127e+01    2.610471e+00
  1.367303e+01    2.622985e+00
  1.370478e+01    2.546684e+00
  1.373653e+01    2.551446e+00
  1.376828e+01    2.476089e+00
  1.380003e+01    2.512461e+00
  1.383178e+01    2.446862e+00
  1.386353e+01    2.467945e+00
  1.389528e+01    2.452858e+00
  1.392703e+01    2.435599e+00
  1.395879e+01    2.430266e+00
  1.399054e+01    2.368271e+00
  1.402229e+01    2.349153e+00
  1.405404e+01    2.347803e+00
  1.408579e+01    2.345001e+00
  1.411754e+01    2.289742e+00
  1.414929e+01    2.312050e+00
  1.418104e+01    2.294517e+00
  1.421279e+01    2.295386e+00
  1.424455e+01    2.277689e+00
  1.427630e+01    2.248121e+00
  1.430805e+01    2.227282e+00
  1.433980e+01    2.246457e+00
  1.437155e+01    2.184122e+00
  1.440330e+01    2.208673e+00
  1.443505e+01    2.220570e+00
  1.446680e+01    2.256700e+00
  1.449856e+01    2.208130e+00
  1.453031e+01    2.210325e+00
  1.456206e+01    2.224141e+00
  1.459381e+01    2.203928e+00
  1.462556e+01    2.218728e+00
  1.465731e+01    2.206584e+00
  1.468906e+01    2.161958e+00
  1.472081e+01    2.227682e+00
  1.475256e+01    2.159661e+00
  1.478432e+01    2.146194e+00
  1.481607e+01    2.215273e+00
  1.484782e+01    2.227725e+00
  1.487957e+01    2.174272e+00
  1.491132e+01    2.253500e+00
  1.494307e+01    2.295576e+00
  1.497482e+01    2.374502e+00
  1.500657e+01    2.406137e+00
  1.503832e+01    2.575567e+00
  1.507008e+01    2.821998e+00
  1.510183e+01    3.245697e+00
  1.513358e+01    3.718158e+00
  1.516533e+01    4.471146e+00
  1.519708e+01    5.138682e+00
  1.522883e+01    5.589612e+00
  1.526058e+01    5.825859e+00
  1.529233e+01    5.433592e+00
  1.532409e+01    4.614668e+00
  1.535584e+01    3.813351e+00
  1.538759e+01    3.088094e+00
  1.541934e+01    2.811128e+00
  1.545109e+01    2.471547e+00
  1.548284e+01    2.350479e+00
  1.551459e+01    2.269847e+00
  1.554634e+01    2.166656e+00
  1.557809e+01    2.144396e+00
  1.560985e+01    2.086340e+00
  1.564160e+01    2.047789e+00
  1.567335e+01    2.069388e+00
  1.570510e+01    1.990100e+00
  1.573685e+01    2.000918e+00
  1.576860e+01    1.970790e+00
  1.580035e+01    1.960495e+00
  1.583210e+01    1.921311e+00
  1.586385e+01    1.874191e+00
  1.589561e+01    1.935740e+00
  1.592736e+01    1.879093e+00
  1.595911e+01    1.892107e+00
  1.599086e+01    1.851751e+00
  1.602261e+01    1.851380e+00
  1.605436e+01    1.825111e+00
  1.608611e+01    1.836516e+00
  1.611786e+01    1.845523e+00
  1.614961e+01    1.843892e+00
  1.618137e+01    1.824379e+00
  1.621312e+01    1.839719e+00
  1.624487e+01    1.830606e+00
  1.627662e+01    1.748784e+00
  1.630837e+01    1.822517e+00
  1.634012e+01    1.787935e+00
  1.637187e+01    1.773163e+00
  1.640362e+01    1.783416e+00
  1.643538e+01    1.766217e+00
  1.646713e+01    1.731167e+00
  1.649888e+01    1.727743e+00
  1.653063e+01    1.757724e+00
  1.656238e+01    1.734495e+00
  1.659413e+01    1.759186e+00
  1.662588e+01    1.731515e+00
  1.665763e+01    1.743249e+00
  1.668938e+01    1.728570e+00
  1.672114e+01    1.737952e+00
  1.675289e+01    1.690532e+00
  1.678464e+01    1.701991e+00
  1.681639e+01    1.706516e+00
  1.684814e+01    1.732100e+00
  1.687989e+01    1.685384e+00
  1.691164e+01    1.701344e+00
  1.694339e+01    1.684770e+00
  1.697514e+01    1.699709e+00
  1.700690e+01    1.681266e+00
  1.703865e+01    1.668563e+00
  1.707040e+01    1.642367e+00
  1.710215e+01    1.621545e+00
  1.713390e+01    1.625639e+00
  1.716565e+01    1.663429e+00
  1.719740e+01    1.616210e+00
  1.722915e+01    1.619274e+00
  1.726091e+01    1.616667e+00
  1.729266e+01    1.644761e+00
  1.732441e+01    1.662767e+00
  1.735616e+01    1.588881e+00
  1.738791e+01    1.623358e+00
  1.741966e+01    1.619072e+00
  1.745141e+01    1.563218e+00
  1.748316e+01    1.578923e+00
  1.751491e+01    1.583883e+00
  1.754667e+01    1.563507e+00
  1.757842e+01    1.589410e+00
  1.761017e+01    1.599889e+00
  1.764192e+01    1.536076e+00
  1.767367e+01    1.550259e+00
  1.770542e+01    1.565540e+00
  1.773717e+01    1.571891e+00
  1.776892e+01    1.529474e+00
  1.780067e+01    1.556484e+00
  1.783243e+01    1.562529e+00
  1.786418e+01    1.537671e+00
  1.789593e+01    1.534694e+00
  1.792768e+01    1.492117e+00
  1.795943e+01    1.497205e+00
  1.799118e+01    1.492304e+00
  1.802293e+01    1.534869e+00
  1.805468e+01    1.512430e+00
  1.808643e+01    1.493511e+00
  1.811819e+01    1.494330e+00
  1.814994e+01    1.494339e+00
  1.818169e+01    1.497184e+00
  1.821344e+01    1.455117e+00
  1.824519e+01    1.470512e+00
  1.827694e+01    1.468164e+00
  1.830869e+01    1.443557e+00
  1.834044e+01    1.475806e+00
  1.837220e+01    1.462075e+00
  1.840395e+01    1.488359e+00
  1.843570e+01    1.482100e+00
  1.846745e+01    1.449635e+00
  1.849920e+01    1.434013e+00
  1.853095e+01    1.458720e+00
  1.856270e+01    1.409459e+00
  1.859445e+01    1.421964e+00
  1.862620e+01    1.415138e+00
  1.865796e+01    1.440551e+00
  1.868971e+01    1.413916e+00
  1.872146e+01    1.399938e+00
  1.875321e+01    1.428337e+00
  1.878496e+01    1.398294e+00
  1.881671e+01    1.376892e+00
  1.884846e+01    1.445427e+00
  1.888021e+01    1.419074e+00
  1.891196e+01    1.397892e+00
  1.894372e+01    1.376139e+00
  1.897547e+01    1.369285e+00
  1.900722e+01    1.382138e+00
  1.903897e+01    1.415680e+00
  1.907072e+01    1.389857e+00
  1.910247e+01    1.357477e+00
  1.913422e+01    1.357064e+00
  1.916597e+01    1.359766e+00
  1.919773e+01    1.362490e+00
  1.922948e+01    1.364465e+00
  1.926123e+01    1.365040e+00
  1.929298e+01    1.354806e+00
  1.932473e+01    1.342344e+00
  1.935648e+01    1.339809e+00
  1.938823e+01    1.344574e+00
  1.941998e+01    1.318830e+00
  1.945173e+01    1.343374e+00
  1.948349e+01    1.342304e+00
  1.951524e+01    1.369447e+00
  1.954699e+01    1.331285e+00
  1.957874e+01    1.362730e+00
  1.961049e+01    1.330803e+00
  1.964224e+01    1.306447e+00
  1.967399e+01    1.321505e+00
  1.970574e+01    1.304953e+00
  1.973749e+01    1.305995e+00
  1.976925e+01    1.307315e+00
  1.980100e+01    1.301605e+00
  1.983275e+01    1.284055e+00
  1.986450e+01    1.289956e+00
  1.989625e+01    1.291512e+00
  1.992800e+01    1.285338e+00
  1.995975e+01    1.268778e+00
  1.999150e+01    1.288602e+00
  2.002325e+01    1.268420e+00
  2.005501e+01    1.275937e+00
  2.008676e+01    1.255192e+00
  2.011851e+01    1.264733e+00
  2.015026e+01    1.265163e+00
  2.018201e+01    1.273652e+00
  2.021376e+01    1.248420e+00
  2.024551e+01    1.255170e+00
  2.027726e+01    1.247130e+00
  2.030902e+01    1.247523e+00
  2.034077e+01    1.238478e+00
  2.037252e+01    1.256957e+00
  2.040427e+01    1.282323e+00
  2.043602e+01    1.244360e+00
  2.046777e+01    1.254117e+00
  2.049952e+01    1.222303e+00
  2.053127e+01    1.239729e+00
  2.056302e+01    1.219059e+00
  2.059478e+01    1.248038e+00
  2.062653e+01    1.244510e+00
  2.065828e+01    1.209838e+00
  2.069003e+01    1.237814e+00
  2.072178e+01    1.230659e+00
  2.075353e+01    1.222315e+00
  2.078528e+01    1.240436e+00
  2.081703e+01    1.215273e+00
  2.084878e+01    1.243175e+00
  2.088054e+01    1.254940e+00
  2.091229e+01    1.238852e+00
  2.094404e+01    1.200298e+00
  2.097579e+01    1.221766e+00
  2.100754e+01    1.208005e+00
  2.103929e+01    1.232625e+00
  2.107104e+01    1.221084e+00
  2.110279e+01    1.199420e+00
  2.113455e+01    1.245563e+00
  2.116630e+01    1.234800e+00
  2.119805e+01    1.216658e+00
  2.122980e+01    1.250349e+00
  2.126155e+01    1.259591e+00
  2.129330e+01    1.246309e+00
  2.132505e+01    1.291561e+00
  2.135680e+01    1.281610e+00
  2.138855e+01    1.297479e+00
  2.142031e+01    1.351666e+00
  2.145206e+01    1.347713e+00
  2.148381e+01    1.396101e+00
  2.151556e+01    1.452200e+00
  2.154731e+01    1.505292e+00
  2.157906e+01    1.602320e+00
  2.161081e+01    1.771253e+00
  2.164256e+01    1.978397e+00
  2.167431e+01    2.294447e+00
  2.170607e+01    2.735847e+00
  2.173782e+01    3.529641e+00
  2.176957e+01    4.540092e+00
  2.180132e+01    5.805535e+00
  2.183307e+01    7.127565e+00
  2.186482e+01    8.348613e+00
  2.189657e+01    8.947371e+00
  2.192832e+01    8.348587e+00
  2.196007e+01    6.618783e+00
  2.199183e+01    4.876433e+00
  2.202358e+01    3.632887e+00
  2.205533e+01    2.859869e+00
  2.208708e+01    2.367358e+00
  2.211883e+01    2.031617e+00
  2.215058e+01    1.776634e+00
  2.218233e+01    1.625618e+00
  2.221408e+01    1.502527e+00
  2.224584e+01    1.424844e+00
  2.227759e+01    1.326174e+00
  2.230934e+01    1.267036e+00
  2.234109e+01    1.260571e+00
  2.237284e+01    1.242335e+00
  2.240459e+01    1.189082e+00
  2.243634e+01    1.159645e+00
  2.246809e+01    1.147221e+00
  2.249984e+01    1.152570e+00
  2.253160e+01    1.155408e+00
  2.256335e+01    1.136664e+00
  2.259510e+01    1.120372e+00
  2.262685e+01    1.089597e+00
  2.265860e+01    1.092665e+00
  2.269035e+01    1.084031e+00
  2.272210e+01    1.081264e+00
  2.275385e+01    1.062047e+00
  2.278560e+01    1.077354e+00
  2.281736e+01    1.060191e+00
  2.284911e+01    1.059211e+00
  2.288086e+01    1.046095e+00
  2.291261e+01    1.048842e+00
  2.294436e+01    1.036193e+00
  2.297611e+01    1.007270e+00
  2.300786e+01    1.020956e+00
  2.303961e+01    1.038020e+00
  2.307137e+01    9.952322e-01
  2.310312e+01    9.916300e-01
  2.313487e+01    1.014255e+00
  2.316662e+01    9.986258e-01
  2.319837e+01    9.806104e-01
  2.323012e+01    1.009194e+00
  2.326187e+01    9.884428e-01
  2.329362e+01    9.929338e-01
  2.332537e+01    9.810180e-01
  2.335713e+01    9.723057e-01
  2.338888e+01    9.703414e-01
  2.342063e+01    9.740714e-01
  2.345238e+01    9.714783e-01
  2.348413e+01    9.715731e-01
  2.351588e+01    9.620886e-01
  2.354763e+01    9.782376e-01
  2.357938e+01    9.499021e-01
  2.361113e+01    9.558538e-01
  2.364289e+01    9.600028e-01
  2.367464e+01    9.449485e-01
  2.370639e+01    9.359394e-01
  2.373814e+01    9.174200e-01
  2.376989e+01    9.145274e-01
  2.380164e+01    9.171153e-01
  2.383339e+01    8.993030e-01
  2.386514e+01    9.107078e-01
  2.389689e+01    9.171870e-01
  2.392865e+01    8.950473e-01
  2.396040e+01    8.954407e-01
  2.399215e+01    9.039026e-01
  2.402390e+01    9.066199e-01
  2.405565e+01    9.181964e-01
  2.408740e+01    8.962160e-01
  2.411915e+01    8.881424e-01
  2.415090e+01    8.789523e-01
  2.418266e+01    8.875900e-01
  2.421441e+01    8.606209e-01
  2.424616e+01    8.587009e-01
  2.427791e+01    9.020549e-01
  2.430966e+01    8.858150e-01
  2.434141e+01    8.897291e-01
  2.437316e+01    8.828137e-01
  2.440491e+01    8.695673e-01
  2.443666e+01    8.706346e-01
  2.446842e+01    8.939219e-01
  2.450017e+01    8.859820e-01
  2.453192e+01    8.863819e-01
  2.456367e+01    8.831096e-01
  2.459542e+01    8.930163e-01
  2.462717e+01    8.883637e-01
  2.465892e+01    9.055401e-01
  2.469067e+01    8.837039e-01
  2.472242e+01    8.635257e-01
  2.475418e+01    8.936278e-01
  2.478593e+01    8.994228e-01
  2.481768e+01    9.026868e-01
  2.484943e+01    9.049929e-01
  2.488118e+01    9.044003e-01
  2.491293e+01    8.738642e-01
  2.494468e+01    9.003036e-01
  2.497643e+01    8.827969e-01
  2.500819e+01    9.290881e-01
  2.503994e+01    9.056420e-01
  2.507169e+01    9.031730e-01
  2.510344e+01    9.012874e-01
  2.513519e+01    8.814180e-01
  2.516694e+01    9.071949e-01
  2.519869e+01    9.287333e-01
  2.523044e+01    9.215229e-01
  2.526219e+01    9.397886e-01
  2.529395e+01    9.375003e-01
  2.532570e+01    9.577029e-01
  2.535745e+01    9.602427e-01
  2.538920e+01    9.683397e-01
  2.542095e+01    1.000007e+00
  2.545270e+01    1.028955e+00
  2.548445e+01    1.041873e+00
  2.551620e+01    1.074533e+00
  2.554795e+01    1.089854e+00
  2.557971e+01    1.157594e+00
  2.561146e+01    1.214001e+00
  2.564321e+01    1.307934e+00
  2.567496e+01    1.419538e+00
  2.570671e+01    1.587120e+00
  2.573846e+01    1.857277e+00
  2.577021e+01    2.254351e+00
  2.580196e+01    2.791387e+00
  2.583371e+01    3.619293e+00
  2.586547e+01    4.636456e+00
  2.589722e+01    5.817947e+00
  2.592897e+01    6.796751e+00
  2.596072e+01    7.099070e+00
  2.599247e+01    6.616158e+00
  2.602422e+01    5.272770e+00
  2.605597e+01    4.009392e+00
  2.608772e+01    3.017919e+00
  2.611948e+01    2.394966e+00
  2.615123e+01    1.947027e+00
  2.618298e+01    1.679115e+00
  2.621473e+01    1.487316e+00
  2.624648e+01    1.363701e+00
  2.627823e+01    1.241507e+00
  2.630998e+01    1.181238e+00
  2.634173e+01    1.130306e+00
  2.637348e+01    1.068209e+00
  2.640524e+01    1.045004e+00
  2.643699e+01    1.021105e+00
  2.646874e+01    1.040206e+00
  2.650049e+01    1.016455e+00
  2.653224e+01    1.001084e+00
  2.656399e+01    9.941325e-01
  2.659574e+01    9.814540e-01
  2.662749e+01    1.000153e+00
  2.665924e+01    9.880090e-01
  2.669100e+01    9.706745e-01
  2.672275e+01    9.978701e-01
  2.675450e+01    9.461893e-01
  2.678625e+01    9.588375e-01
  2.681800e+01    9.816944e-01
  2.684975e+01    9.692775e-01
  2.688150e+01    1.008407e+00
  2.691325e+01    1.021618e+00
  2.694501e+01    1.012851e+00
  2.697676e+01    1.046828e+00
  2.700851e+01    1.112690e+00
  2.704026e+01    1.186350e+00
  2.707201e+01    1.369508e+00
  2.710376e+01    1.447933e+00
  2.713551e+01    1.712920e+00
  2.716726e+01    1.959403e+00
  2.719901e+01    2.161763e+00
  2.723077e+01    2.140278e+00
  2.726252e+01    1.957457e+00
  2.729427e+01    1.704075e+00
  2.732602e+01    1.444620e+00
  2.735777e+01    1.319293e+00
  2.738952e+01    1.156114e+00
  2.742127e+01    1.088245e+00
  2.745302e+01    1.042942e+00
  2.748477e+01    9.759498e-01
  2.751653e+01    9.567968e-01
  2.754828e+01    9.200434e-01
  2.758003e+01    9.321392e-01
  2.761178e+01    9.003024e-01
  2.764353e+01    9.191455e-01
  2.767528e+01    9.080120e-01
  2.770703e+01    8.874485e-01
  2.773878e+01    9.014168e-01
  2.777054e+01    8.936949e-01
  2.780229e+01    8.803238e-01
  2.783404e+01    8.858120e-01
  2.786579e+01    8.892614e-01
  2.789754e+01    8.743969e-01
  2.792929e+01    8.786395e-01
  2.796104e+01    8.612624e-01
  2.799279e+01    8.628049e-01
  2.802454e+01    8.401503e-01
  2.805630e+01    8.601653e-01
  2.808805e+01    8.643289e-01
  2.811980e+01    8.637011e-01
  2.815155e+01    8.458241e-01
  2.818330e+01    8.515207e-01
  2.821505e+01    8.439658e-01
  2.824680e+01    8.769813e-01
  2.827855e+01    8.779905e-01
  2.831030e+01    8.429220e-01
  2.834206e+01    8.588961e-01
  2.837381e+01    8.449668e-01
  2.840556e+01    8.475641e-01
  2.843731e+01    8.443052e-01
  2.846906e+01    8.782405e-01
  2.850081e+01    8.312362e-01
  2.853256e+01    8.371180e-01
  2.856431e+01    8.122248e-01
  2.859606e+01    8.415169e-01
  2.862782e+01    8.393461e-01
  2.865957e+01    8.348535e-01
  2.869132e+01    8.411980e-01
  2.872307e+01    8.486789e-01
  2.875482e+01    8.445527e-01
  2.878657e+01    8.327036e-01
  2.881832e+01    8.381991e-01
  2.885007e+01    8.118925e-01
  2.888183e+01    8.386343e-01
  2.891358e+01    8.361534e-01
  2.894533e+01    8.434767e-01
  2.897708e+01    8.492820e-01
  2.900883e+01    8.182148e-01
  2.904058e+01    8.009564e-01
  2.907233e+01    8.317246e-01
  2.910408e+01    8.191748e-01
  2.913583e+01    8.147508e-01
  2.916759e+01    8.160979e-01
  2.919934e+01    8.179059e-01
  2.923109e+01    8.096619e-01
  2.926284e+01    7.730687e-01
  2.929459e+01    8.291882e-01
  2.932634e+01    7.969337e-01
  2.935809e+01    8.030430e-01
  2.938984e+01    8.098525e-01
  2.942159e+01    7.984847e-01
  2.945335e+01    7.972714e-01
  2.948510e+01    7.937562e-01
  2.951685e+01    8.138694e-01
  2.954860e+01    7.998258e-01
  2.958035e+01    7.911854e-01
  2.961210e+01    8.116255e-01
  2.964385e+01    7.957517e-01
  2.967560e+01    7.974187e-01
  2.970736e+01    8.054168e-01
  2.973911e+01    8.107864e-01
  2.977086e+01    7.951584e-01
  2.980261e+01    7.949865e-01
  2.983436e+01    7.922930e-01
  2.986611e+01    7.816832e-01
  2.989786e+01    7.696521e-01
  2.992961e+01    8.029830e-01
  2.996136e+01    7.924284e-01
  2.999312e+01    8.088751e-01
  3.002487e+01    8.136587e-01
  3.005662e+01    8.120869e-01
  3.008837e+01    8.113669e-01
  3.012012e+01    8.233904e-01
  3.015187e+01    7.871113e-01
  3.018362e+01    7.847688e-01
  3.021537e+01    7.996445e-01
  3.024712e+01    7.803007e-01
  3.027888e+01    7.729009e-01
  3.031063e+01    7.807664e-01
  3.034238e+01    7.591219e-01
  3.037413e+01    7.867165e-01
  3.040588e+01    7.776694e-01
  3.043763e+01    7.980660e-01
  3.046938e+01    7.858972e-01
  3.050113e+01    7.784125e-01
  3.053288e+01    7.635220e-01
  3.056464e+01    7.722631e-01
  3.059639e+01    7.655458e-01
  3.062814e+01    7.978365e-01
  3.065989e+01    7.549564e-01
  3.069164e+01    7.935703e-01
  3.072339e+01    7.692765e-01
  3.075514e+01    7.739494e-01
  3.078689e+01    7.713518e-01
  3.081865e+01    7.584276e-01
  3.085040e+01    7.651156e-01
  3.088215e+01    7.582065e-01
  3.091390e+01    8.086137e-01
  3.094565e+01    8.005427e-01
  3.097740e+01    7.854681e-01
  3.100915e+01    7.619957e-01
  3.104090e+01    7.853825e-01
  3.107265e+01    8.042022e-01
  3.110441e+01    7.968428e-01
  3.113616e+01    7.871224e-01
  3.116791e+01    8.114527e-01
  3.119966e+01    7.740721e-01
  3.123141e+01    7.972606e-01
  3.126316e+01    7.845678e-01
  3.129491e+01    7.714726e-01
  3.132666e+01    7.921752e-01
  3.135841e+01    7.988399e-01
  3.139017e+01    8.165420e-01
  3.142192e+01    8.025181e-01
  3.145367e+01    8.103192e-01
  3.148542e+01    8.295836e-01
  3.151717e+01    8.469120e-01
  3.154892e+01    8.358611e-01
  3.158067e+01    8.736282e-01
  3.161242e+01    9.003307e-01
  3.164418e+01    9.289367e-01
  3.167593e+01    9.536746e-01
  3.170768e+01    1.022067e+00
  3.173943e+01    1.134690e+00
  3.177118e+01    1.242396e+00
  3.180293e+01    1.443537e+00
  3.183468e+01    1.720789e+00
  3.186643e+01    1.929993e+00
  3.189818e+01    2.103172e+00
  3.192994e+01    2.037784e+00
  3.196169e+01    1.812149e+00
  3.199344e+01    1.549771e+00
  3.202519e+01    1.317361e+00
  3.205694e+01    1.153779e+00
  3.208869e+01    1.055038e+00
  3.212044e+01    9.646651e-01
  3.215219e+01    9.197324e-01
  3.218394e+01    8.922477e-01
  3.221570e+01    8.477131e-01
  3.224745e+01    8.281287e-01
  3.227920e+01    8.229433e-01
  3.231095e+01    8.282538e-01
  3.234270e+01    7.950205e-01
  3.237445e+01    7.955101e-01
  3.240620e+01    7.633240e-01
  3.243795e+01    7.882593e-01
  3.246970e+01    7.886470e-01
  3.250146e+01    7.649936e-01
  3.253321e+01    7.618691e-01
  3.254908e+01    7.597982e-01