File: XRD/Reaction conditions/2024-07-27_003_Ru-CGO-ex_Reaction_dwell_000023_data_000162.dat
# == pyFAI calibration ==
# Distance Sample to Detector: 0.4 m
# PONI: 9.750e-02, 1.135e-01 m
# Rotations: -0.000175 0.000000 -0.000000 rad
#
# == Fit2d calibration ==
# Distance Sample-beamCenter: 400.000 mm
# Center: x=1514.000, y=1300.000 pix
# Tilt: 0.010 deg  TiltPlanRot: 0.010 deg
#
# Detector Detector	 Spline= None	 PixelSize= 7.500e-05, 7.500e-05 m
#    Detector has a mask: False
#    Detector has a dark current: False
#    detector has a flat field: False
#
# Wavelength: 6.888e-11 m
# Mask applied: user provided
# Dark current applied: False
# Flat field applied: False
# Polarization factor: 0.99
# Normalization factor: 1.0
# --> /home/myspot/data/2024_07_Rosario/Ru-CGO-ex/2024-07-27_003_Ru-CGO-ex_Reaction_dwell_000023_data_000162.dat
#       q_nm^-1             I
  2.003187e-02    0.000000e+00
  5.178302e-02    1.477590e-01
  8.353417e-02    7.518893e-02
  1.152853e-01    1.155438e-01
  1.470365e-01    4.892698e-02
  1.787876e-01    1.391167e-02
  2.105388e-01    6.690029e-02
  2.422899e-01    8.992700e-02
  2.740411e-01    8.658778e-03
  3.057922e-01    3.595262e-02
  3.375433e-01    3.759890e-02
  3.692945e-01    4.362004e-02
  4.010456e-01    1.414176e-02
  4.327968e-01    4.876429e-02
  4.645479e-01    5.308961e-02
  4.962991e-01    3.864067e-02
  5.280502e-01    2.996337e-02
  5.598014e-01    4.923657e-02
  5.915525e-01    3.441036e-02
  6.233037e-01    3.994395e-02
  6.550548e-01    3.314660e-02
  6.868060e-01    2.550572e-02
  7.185571e-01    3.671665e-02
  7.503083e-01    6.771880e-02
  7.820594e-01    1.236459e-01
  8.138106e-01    2.541444e-01
  8.455617e-01    3.438946e-01
  8.773129e-01    4.537342e-01
  9.090640e-01    6.683232e-01
  9.408152e-01    8.862492e-01
  9.725663e-01    1.027386e+00
  1.004317e+00    1.250184e+00
  1.036069e+00    1.314193e+00
  1.067820e+00    1.434127e+00
  1.099571e+00    1.526928e+00
  1.131322e+00    1.460390e+00
  1.163073e+00    1.668538e+00
  1.194824e+00    1.700764e+00
  1.226575e+00    2.266400e+00
  1.258327e+00    2.685995e+00
  1.290078e+00    2.524760e+00
  1.321829e+00    2.747753e+00
  1.353580e+00    2.693061e+00
  1.385331e+00    2.643357e+00
  1.417082e+00    2.808033e+00
  1.448834e+00    3.019332e+00
  1.480585e+00    2.934851e+00
  1.512336e+00    3.191502e+00
  1.544087e+00    3.142392e+00
  1.575838e+00    3.235608e+00
  1.607589e+00    3.224290e+00
  1.639340e+00    3.057474e+00
  1.671092e+00    3.159948e+00
  1.702843e+00    3.211660e+00
  1.734594e+00    3.070199e+00
  1.766345e+00    3.080641e+00
  1.798096e+00    2.989401e+00
  1.829847e+00    3.031915e+00
  1.861598e+00    3.088982e+00
  1.893350e+00    3.076973e+00
  1.925101e+00    3.041821e+00
  1.956852e+00    3.039223e+00
  1.988603e+00    3.059603e+00
  2.020354e+00    3.005784e+00
  2.052105e+00    3.038599e+00
  2.083856e+00    3.206775e+00
  2.115608e+00    3.014476e+00
  2.147359e+00    2.931860e+00
  2.179110e+00    3.084209e+00
  2.210861e+00    3.029804e+00
  2.242612e+00    3.147147e+00
  2.274363e+00    2.975200e+00
  2.306115e+00    3.051399e+00
  2.337866e+00    3.037967e+00
  2.369617e+00    3.065061e+00
  2.401368e+00    3.163913e+00
  2.433119e+00    3.120877e+00
  2.464870e+00    3.144157e+00
  2.496621e+00    3.176004e+00
  2.528373e+00    3.112950e+00
  2.560124e+00    3.220962e+00
  2.591875e+00    3.212613e+00
  2.623626e+00    3.192953e+00
  2.655377e+00    3.205519e+00
  2.687128e+00    3.207330e+00
  2.718879e+00    3.204580e+00
  2.750631e+00    3.249593e+00
  2.782382e+00    3.211427e+00
  2.814133e+00    3.114473e+00
  2.845884e+00    3.201991e+00
  2.877635e+00    3.258608e+00
  2.909386e+00    3.302644e+00
  2.941137e+00    3.321438e+00
  2.972889e+00    3.331052e+00
  3.004640e+00    3.370475e+00
  3.036391e+00    3.294959e+00
  3.068142e+00    3.227859e+00
  3.099893e+00    3.281235e+00
  3.131644e+00    3.459630e+00
  3.163395e+00    3.284960e+00
  3.195147e+00    3.395489e+00
  3.226898e+00    3.340530e+00
  3.258649e+00    3.294337e+00
  3.290400e+00    3.363498e+00
  3.322151e+00    3.396016e+00
  3.353902e+00    3.441456e+00
  3.385654e+00    3.373250e+00
  3.417405e+00    3.332789e+00
  3.449156e+00    3.379793e+00
  3.480907e+00    3.373635e+00
  3.512658e+00    3.311859e+00
  3.544409e+00    3.409819e+00
  3.576160e+00    3.435792e+00
  3.607912e+00    3.392842e+00
  3.639663e+00    3.326856e+00
  3.671414e+00    3.394961e+00
  3.703165e+00    3.383185e+00
  3.734916e+00    3.392404e+00
  3.766667e+00    3.496502e+00
  3.798418e+00    3.572500e+00
  3.830170e+00    3.516077e+00
  3.861921e+00    3.380400e+00
  3.893672e+00    3.536041e+00
  3.925423e+00    3.438271e+00
  3.957174e+00    3.469167e+00
  3.988925e+00    3.489570e+00
  4.020676e+00    3.487558e+00
  4.052428e+00    3.500656e+00
  4.084179e+00    3.469724e+00
  4.115930e+00    3.440045e+00
  4.147681e+00    3.427930e+00
  4.179432e+00    3.504366e+00
  4.211183e+00    3.582894e+00
  4.242935e+00    3.446977e+00
  4.274686e+00    3.510447e+00
  4.306437e+00    3.457844e+00
  4.338188e+00    3.519886e+00
  4.369939e+00    3.559610e+00
  4.401690e+00    3.539025e+00
  4.433441e+00    3.562011e+00
  4.465193e+00    3.619458e+00
  4.496944e+00    3.524851e+00
  4.528695e+00    3.454076e+00
  4.560446e+00    3.577231e+00
  4.592197e+00    3.594687e+00
  4.623948e+00    3.525008e+00
  4.655699e+00    3.613275e+00
  4.687451e+00    3.567710e+00
  4.719202e+00    3.581002e+00
  4.750953e+00    3.588512e+00
  4.782704e+00    3.612331e+00
  4.814455e+00    3.555298e+00
  4.846206e+00    3.599205e+00
  4.877957e+00    3.568480e+00
  4.909709e+00    3.609554e+00
  4.941460e+00    3.551077e+00
  4.973211e+00    3.575414e+00
  5.004962e+00    3.591006e+00
  5.036713e+00    3.649510e+00
  5.068464e+00    3.625385e+00
  5.100216e+00    3.666966e+00
  5.131967e+00    3.609300e+00
  5.163718e+00    3.553523e+00
  5.195469e+00    3.566004e+00
  5.227220e+00    3.671701e+00
  5.258971e+00    3.647655e+00
  5.290722e+00    3.654094e+00
  5.322474e+00    3.655905e+00
  5.354225e+00    3.594038e+00
  5.385976e+00    3.639338e+00
  5.417727e+00    3.632916e+00
  5.449478e+00    3.601456e+00
  5.481229e+00    3.625654e+00
  5.512980e+00    3.484610e+00
  5.544732e+00    3.603942e+00
  5.576483e+00    3.497451e+00
  5.608234e+00    3.502918e+00
  5.639985e+00    3.495245e+00
  5.671736e+00    3.548254e+00
  5.703487e+00    3.593514e+00
  5.735238e+00    3.496586e+00
  5.766990e+00    3.553000e+00
  5.798741e+00    3.644769e+00
  5.830492e+00    3.482752e+00
  5.862243e+00    3.532250e+00
  5.893994e+00    3.549361e+00
  5.925745e+00    3.448294e+00
  5.957497e+00    3.463636e+00
  5.989248e+00    3.490944e+00
  6.020999e+00    3.467026e+00
  6.052750e+00    3.488400e+00
  6.084501e+00    3.574483e+00
  6.116252e+00    3.557516e+00
  6.148003e+00    3.593539e+00
  6.179755e+00    3.586064e+00
  6.211506e+00    3.508698e+00
  6.243257e+00    3.572219e+00
  6.275008e+00    3.484547e+00
  6.306759e+00    3.570952e+00
  6.338510e+00    3.584781e+00
  6.370261e+00    3.647934e+00
  6.402013e+00    3.547435e+00
  6.433764e+00    3.552356e+00
  6.465515e+00    3.463968e+00
  6.497266e+00    3.566662e+00
  6.529017e+00    3.555877e+00
  6.560768e+00    3.496490e+00
  6.592519e+00    3.510836e+00
  6.624271e+00    3.526801e+00
  6.656022e+00    3.565303e+00
  6.687773e+00    3.510732e+00
  6.719524e+00    3.482250e+00
  6.751275e+00    3.475717e+00
  6.783026e+00    3.453811e+00
  6.814777e+00    3.524326e+00
  6.846529e+00    3.532263e+00
  6.878280e+00    3.591428e+00
  6.910031e+00    3.517156e+00
  6.941782e+00    3.583869e+00
  6.973533e+00    3.508699e+00
  7.005284e+00    3.455488e+00
  7.037036e+00    3.501205e+00
  7.068787e+00    3.480654e+00
  7.100538e+00    3.499010e+00
  7.132289e+00    3.469021e+00
  7.164040e+00    3.448730e+00
  7.195791e+00    3.458237e+00
  7.227542e+00    3.475838e+00
  7.259294e+00    3.406620e+00
  7.291045e+00    3.478386e+00
  7.322796e+00    3.380082e+00
  7.354547e+00    3.418295e+00
  7.386298e+00    3.502534e+00
  7.418049e+00    3.432721e+00
  7.449800e+00    3.415221e+00
  7.481552e+00    3.520918e+00
  7.513303e+00    3.536918e+00
  7.545054e+00    3.454058e+00
  7.576805e+00    3.401936e+00
  7.608556e+00    3.466242e+00
  7.640307e+00    3.492773e+00
  7.672058e+00    3.450408e+00
  7.703810e+00    3.456968e+00
  7.735561e+00    3.459592e+00
  7.767312e+00    3.437651e+00
  7.799063e+00    3.443381e+00
  7.830814e+00    3.434116e+00
  7.862565e+00    3.480469e+00
  7.894317e+00    3.397287e+00
  7.926068e+00    3.419426e+00
  7.957819e+00    3.433646e+00
  7.989570e+00    3.406039e+00
  8.021321e+00    3.392052e+00
  8.053072e+00    3.313366e+00
  8.084823e+00    3.348520e+00
  8.116575e+00    3.458649e+00
  8.148326e+00    3.482417e+00
  8.180077e+00    3.425790e+00
  8.211828e+00    3.441235e+00
  8.243579e+00    3.425257e+00
  8.275330e+00    3.353550e+00
  8.307081e+00    3.370088e+00
  8.338833e+00    3.382432e+00
  8.370584e+00    3.330248e+00
  8.402335e+00    3.363411e+00
  8.434086e+00    3.336203e+00
  8.465837e+00    3.338070e+00
  8.497588e+00    3.320146e+00
  8.529339e+00    3.386953e+00
  8.561091e+00    3.315579e+00
  8.592842e+00    3.310720e+00
  8.624593e+00    3.327770e+00
  8.656344e+00    3.351877e+00
  8.688095e+00    3.307715e+00
  8.719846e+00    3.310160e+00
  8.751598e+00    3.252607e+00
  8.783349e+00    3.258415e+00
  8.815100e+00    3.359090e+00
  8.846851e+00    3.318549e+00
  8.878602e+00    3.305574e+00
  8.910353e+00    3.306029e+00
  8.942104e+00    3.258926e+00
  8.973856e+00    3.267860e+00
  9.005607e+00    3.261799e+00
  9.037358e+00    3.186099e+00
  9.069109e+00    3.307956e+00
  9.100860e+00    3.172630e+00
  9.132611e+00    3.221615e+00
  9.164362e+00    3.183010e+00
  9.196114e+00    3.240125e+00
  9.227865e+00    3.232039e+00
  9.259616e+00    3.197639e+00
  9.291367e+00    3.198825e+00
  9.323118e+00    3.221134e+00
  9.354869e+00    3.154315e+00
  9.386620e+00    3.269469e+00
  9.418372e+00    3.225488e+00
  9.450123e+00    3.178492e+00
  9.481874e+00    3.188857e+00
  9.513625e+00    3.231390e+00
  9.545376e+00    3.213464e+00
  9.577127e+00    3.179185e+00
  9.608878e+00    3.138357e+00
  9.640630e+00    3.171634e+00
  9.672381e+00    3.107250e+00
  9.704132e+00    3.185543e+00
  9.735883e+00    3.190548e+00
  9.767634e+00    3.150019e+00
  9.799385e+00    3.129332e+00
  9.831137e+00    3.071582e+00
  9.862888e+00    3.094024e+00
  9.894639e+00    3.128782e+00
  9.926390e+00    3.052871e+00
  9.958141e+00    3.057756e+00
  9.989892e+00    3.118351e+00
  1.002164e+01    3.059843e+00
  1.005339e+01    3.058133e+00
  1.008515e+01    3.018279e+00
  1.011690e+01    3.024530e+00
  1.014865e+01    3.062501e+00
  1.018040e+01    3.085510e+00
  1.021215e+01    3.016559e+00
  1.024390e+01    3.045460e+00
  1.027565e+01    2.990119e+00
  1.030740e+01    3.127883e+00
  1.033915e+01    3.023753e+00
  1.037091e+01    3.015916e+00
  1.040266e+01    3.052562e+00
  1.043441e+01    2.998624e+00
  1.046616e+01    3.040605e+00
  1.049791e+01    2.999914e+00
  1.052966e+01    2.991786e+00
  1.056141e+01    2.944986e+00
  1.059316e+01    2.947842e+00
  1.062492e+01    2.980196e+00
  1.065667e+01    2.949261e+00
  1.068842e+01    2.930425e+00
  1.072017e+01    2.881437e+00
  1.075192e+01    3.011578e+00
  1.078367e+01    2.984511e+00
  1.081542e+01    2.878404e+00
  1.084717e+01    2.932093e+00
  1.087892e+01    2.890839e+00
  1.091068e+01    2.890995e+00
  1.094243e+01    2.888881e+00
  1.097418e+01    2.848948e+00
  1.100593e+01    2.899708e+00
  1.103768e+01    2.841729e+00
  1.106943e+01    2.842259e+00
  1.110118e+01    2.873043e+00
  1.113293e+01    2.900832e+00
  1.116468e+01    2.788601e+00
  1.119644e+01    2.861989e+00
  1.122819e+01    2.870569e+00
  1.125994e+01    2.839327e+00
  1.129169e+01    2.833366e+00
  1.132344e+01    2.769899e+00
  1.135519e+01    2.855318e+00
  1.138694e+01    2.752556e+00
  1.141869e+01    2.742507e+00
  1.145045e+01    2.792608e+00
  1.148220e+01    2.808949e+00
  1.151395e+01    2.861909e+00
  1.154570e+01    2.780641e+00
  1.157745e+01    2.737926e+00
  1.160920e+01    2.791583e+00
  1.164095e+01    2.746486e+00
  1.167270e+01    2.760844e+00
  1.170445e+01    2.757240e+00
  1.173621e+01    2.775288e+00
  1.176796e+01    2.738192e+00
  1.179971e+01    2.719304e+00
  1.183146e+01    2.712309e+00
  1.186321e+01    2.680034e+00
  1.189496e+01    2.723832e+00
  1.192671e+01    2.699776e+00
  1.195846e+01    2.710942e+00
  1.199021e+01    2.686279e+00
  1.202197e+01    2.707273e+00
  1.205372e+01    2.638156e+00
  1.208547e+01    2.710707e+00
  1.211722e+01    2.707507e+00
  1.214897e+01    2.642569e+00
  1.218072e+01    2.650380e+00
  1.221247e+01    2.659684e+00
  1.224422e+01    2.679181e+00
  1.227597e+01    2.690713e+00
  1.230773e+01    2.733749e+00
  1.233948e+01    2.656716e+00
  1.237123e+01    2.643295e+00
  1.240298e+01    2.652752e+00
  1.243473e+01    2.703492e+00
  1.246648e+01    2.680325e+00
  1.249823e+01    2.663645e+00
  1.252998e+01    2.701374e+00
  1.256174e+01    2.666777e+00
  1.259349e+01    2.724060e+00
  1.262524e+01    2.763608e+00
  1.265699e+01    2.747802e+00
  1.268874e+01    2.809083e+00
  1.272049e+01    2.823646e+00
  1.275224e+01    2.882579e+00
  1.278399e+01    2.959784e+00
  1.281574e+01    3.072400e+00
  1.284750e+01    3.144147e+00
  1.287925e+01    3.332388e+00
  1.291100e+01    3.558418e+00
  1.294275e+01    4.074169e+00
  1.297450e+01    4.821526e+00
  1.300625e+01    5.758151e+00
  1.303800e+01    7.531118e+00
  1.306975e+01    9.984797e+00
  1.310150e+01    1.249598e+01
  1.313326e+01    1.449746e+01
  1.316501e+01    1.601786e+01
  1.319676e+01    1.536200e+01
  1.322851e+01    1.238881e+01
  1.326026e+01    9.008764e+00
  1.329201e+01    6.659626e+00
  1.332376e+01    5.221862e+00
  1.335551e+01    4.316553e+00
  1.338727e+01    3.854436e+00
  1.341902e+01    3.446830e+00
  1.345077e+01    3.165908e+00
  1.348252e+01    3.080986e+00
  1.351427e+01    2.882209e+00
  1.354602e+01    2.790026e+00
  1.357777e+01    2.742894e+00
  1.360952e+01    2.662507e+00
  1.364127e+01    2.601099e+00
  1.367303e+01    2.548179e+00
  1.370478e+01    2.550540e+00
  1.373653e+01    2.497067e+00
  1.376828e+01    2.484196e+00
  1.380003e+01    2.459027e+00
  1.383178e+01    2.474335e+00
  1.386353e+01    2.416863e+00
  1.389528e+01    2.430277e+00
  1.392703e+01    2.372747e+00
  1.395879e+01    2.359923e+00
  1.399054e+01    2.344392e+00
  1.402229e+01    2.333053e+00
  1.405404e+01    2.342787e+00
  1.408579e+01    2.332955e+00
  1.411754e+01    2.307628e+00
  1.414929e+01    2.305283e+00
  1.418104e+01    2.318613e+00
  1.421279e+01    2.268646e+00
  1.424455e+01    2.272558e+00
  1.427630e+01    2.263958e+00
  1.430805e+01    2.260228e+00
  1.433980e+01    2.241497e+00
  1.437155e+01    2.225074e+00
  1.440330e+01    2.178096e+00
  1.443505e+01    2.206186e+00
  1.446680e+01    2.198122e+00
  1.449856e+01    2.201099e+00
  1.453031e+01    2.157284e+00
  1.456206e+01    2.204076e+00
  1.459381e+01    2.213146e+00
  1.462556e+01    2.196509e+00
  1.465731e+01    2.233088e+00
  1.468906e+01    2.186207e+00
  1.472081e+01    2.151667e+00
  1.475256e+01    2.153756e+00
  1.478432e+01    2.155123e+00
  1.481607e+01    2.166908e+00
  1.484782e+01    2.200579e+00
  1.487957e+01    2.238992e+00
  1.491132e+01    2.262914e+00
  1.494307e+01    2.251064e+00
  1.497482e+01    2.314986e+00
  1.500657e+01    2.427172e+00
  1.503832e+01    2.539347e+00
  1.507008e+01    2.720366e+00
  1.510183e+01    3.155751e+00
  1.513358e+01    3.732954e+00
  1.516533e+01    4.470523e+00
  1.519708e+01    5.040234e+00
  1.522883e+01    5.582734e+00
  1.526058e+01    5.754135e+00
  1.529233e+01    5.428082e+00
  1.532409e+01    4.670557e+00
  1.535584e+01    3.718848e+00
  1.538759e+01    3.163794e+00
  1.541934e+01    2.753689e+00
  1.545109e+01    2.513223e+00
  1.548284e+01    2.370821e+00
  1.551459e+01    2.279140e+00
  1.554634e+01    2.155352e+00
  1.557809e+01    2.065823e+00
  1.560985e+01    2.085484e+00
  1.564160e+01    2.033234e+00
  1.567335e+01    1.984872e+00
  1.570510e+01    1.988654e+00
  1.573685e+01    1.945007e+00
  1.576860e+01    1.959656e+00
  1.580035e+01    1.953381e+00
  1.583210e+01    1.881686e+00
  1.586385e+01    1.914847e+00
  1.589561e+01    1.899121e+00
  1.592736e+01    1.900154e+00
  1.595911e+01    1.850747e+00
  1.599086e+01    1.849651e+00
  1.602261e+01    1.849027e+00
  1.605436e+01    1.857800e+00
  1.608611e+01    1.809213e+00
  1.611786e+01    1.823765e+00
  1.614961e+01    1.821219e+00
  1.618137e+01    1.872787e+00
  1.621312e+01    1.822924e+00
  1.624487e+01    1.815920e+00
  1.627662e+01    1.798248e+00
  1.630837e+01    1.787841e+00
  1.634012e+01    1.782074e+00
  1.637187e+01    1.769162e+00
  1.640362e+01    1.752801e+00
  1.643538e+01    1.738325e+00
  1.646713e+01    1.767128e+00
  1.649888e+01    1.766450e+00
  1.653063e+01    1.787169e+00
  1.656238e+01    1.724067e+00
  1.659413e+01    1.755567e+00
  1.662588e+01    1.722269e+00
  1.665763e+01    1.683073e+00
  1.668938e+01    1.710534e+00
  1.672114e+01    1.720083e+00
  1.675289e+01    1.741996e+00
  1.678464e+01    1.658678e+00
  1.681639e+01    1.672540e+00
  1.684814e+01    1.671032e+00
  1.687989e+01    1.697279e+00
  1.691164e+01    1.661406e+00
  1.694339e+01    1.629114e+00
  1.697514e+01    1.639354e+00
  1.700690e+01    1.677489e+00
  1.703865e+01    1.640812e+00
  1.707040e+01    1.641751e+00
  1.710215e+01    1.621673e+00
  1.713390e+01    1.663742e+00
  1.716565e+01    1.638960e+00
  1.719740e+01    1.653544e+00
  1.722915e+01    1.610703e+00
  1.726091e+01    1.589185e+00
  1.729266e+01    1.611773e+00
  1.732441e+01    1.584290e+00
  1.735616e+01    1.600464e+00
  1.738791e+01    1.614125e+00
  1.741966e+01    1.578404e+00
  1.745141e+01    1.585846e+00
  1.748316e+01    1.587183e+00
  1.751491e+01    1.607600e+00
  1.754667e+01    1.542513e+00
  1.757842e+01    1.573374e+00
  1.761017e+01    1.543396e+00
  1.764192e+01    1.543847e+00
  1.767367e+01    1.565130e+00
  1.770542e+01    1.529625e+00
  1.773717e+01    1.552732e+00
  1.776892e+01    1.536686e+00
  1.780067e+01    1.501125e+00
  1.783243e+01    1.554246e+00
  1.786418e+01    1.522163e+00
  1.789593e+01    1.514830e+00
  1.792768e+01    1.532912e+00
  1.795943e+01    1.505000e+00
  1.799118e+01    1.480627e+00
  1.802293e+01    1.494853e+00
  1.805468e+01    1.476283e+00
  1.808643e+01    1.527072e+00
  1.811819e+01    1.465690e+00
  1.814994e+01    1.450496e+00
  1.818169e+01    1.481015e+00
  1.821344e+01    1.481330e+00
  1.824519e+01    1.464418e+00
  1.827694e+01    1.462085e+00
  1.830869e+01    1.459762e+00
  1.834044e+01    1.456799e+00
  1.837220e+01    1.449208e+00
  1.840395e+01    1.435825e+00
  1.843570e+01    1.445250e+00
  1.846745e+01    1.416425e+00
  1.849920e+01    1.426561e+00
  1.853095e+01    1.428747e+00
  1.856270e+01    1.458993e+00
  1.859445e+01    1.423096e+00
  1.862620e+01    1.429888e+00
  1.865796e+01    1.398380e+00
  1.868971e+01    1.402280e+00
  1.872146e+01    1.399228e+00
  1.875321e+01    1.375499e+00
  1.878496e+01    1.398881e+00
  1.881671e+01    1.397493e+00
  1.884846e+01    1.374905e+00
  1.888021e+01    1.405226e+00
  1.891196e+01    1.393737e+00
  1.894372e+01    1.384283e+00
  1.897547e+01    1.372707e+00
  1.900722e+01    1.384678e+00
  1.903897e+01    1.352802e+00
  1.907072e+01    1.400753e+00
  1.910247e+01    1.365132e+00
  1.913422e+01    1.352455e+00
  1.916597e+01    1.354244e+00
  1.919773e+01    1.355838e+00
  1.922948e+01    1.360610e+00
  1.926123e+01    1.345068e+00
  1.929298e+01    1.298005e+00
  1.932473e+01    1.335305e+00
  1.935648e+01    1.355305e+00
  1.938823e+01    1.313271e+00
  1.941998e+01    1.309630e+00
  1.945173e+01    1.329310e+00
  1.948349e+01    1.340541e+00
  1.951524e+01    1.350096e+00
  1.954699e+01    1.303771e+00
  1.957874e+01    1.310536e+00
  1.961049e+01    1.306553e+00
  1.964224e+01    1.309368e+00
  1.967399e+01    1.290312e+00
  1.970574e+01    1.291418e+00
  1.973749e+01    1.311754e+00
  1.976925e+01    1.300530e+00
  1.980100e+01    1.288883e+00
  1.983275e+01    1.277454e+00
  1.986450e+01    1.283296e+00
  1.989625e+01    1.297554e+00
  1.992800e+01    1.307255e+00
  1.995975e+01    1.282715e+00
  1.999150e+01    1.292430e+00
  2.002325e+01    1.255101e+00
  2.005501e+01    1.263182e+00
  2.008676e+01    1.244466e+00
  2.011851e+01    1.262041e+00
  2.015026e+01    1.283574e+00
  2.018201e+01    1.268547e+00
  2.021376e+01    1.264291e+00
  2.024551e+01    1.252239e+00
  2.027726e+01    1.251565e+00
  2.030902e+01    1.217158e+00
  2.034077e+01    1.229091e+00
  2.037252e+01    1.240520e+00
  2.040427e+01    1.249201e+00
  2.043602e+01    1.215764e+00
  2.046777e+01    1.223847e+00
  2.049952e+01    1.238764e+00
  2.053127e+01    1.227461e+00
  2.056302e+01    1.220495e+00
  2.059478e+01    1.224985e+00
  2.062653e+01    1.210752e+00
  2.065828e+01    1.210925e+00
  2.069003e+01    1.217066e+00
  2.072178e+01    1.252708e+00
  2.075353e+01    1.235910e+00
  2.078528e+01    1.220846e+00
  2.081703e+01    1.214289e+00
  2.084878e+01    1.210610e+00
  2.088054e+01    1.183256e+00
  2.091229e+01    1.229695e+00
  2.094404e+01    1.227280e+00
  2.097579e+01    1.202843e+00
  2.100754e+01    1.236077e+00
  2.103929e+01    1.238938e+00
  2.107104e+01    1.173335e+00
  2.110279e+01    1.222167e+00
  2.113455e+01    1.231551e+00
  2.116630e+01    1.236471e+00
  2.119805e+01    1.226497e+00
  2.122980e+01    1.257783e+00
  2.126155e+01    1.241433e+00
  2.129330e+01    1.234600e+00
  2.132505e+01    1.216101e+00
  2.135680e+01    1.280902e+00
  2.138855e+01    1.275798e+00
  2.142031e+01    1.312951e+00
  2.145206e+01    1.309721e+00
  2.148381e+01    1.388790e+00
  2.151556e+01    1.432791e+00
  2.154731e+01    1.485773e+00
  2.157906e+01    1.599038e+00
  2.161081e+01    1.713275e+00
  2.164256e+01    1.932387e+00
  2.167431e+01    2.230266e+00
  2.170607e+01    2.703895e+00
  2.173782e+01    3.457217e+00
  2.176957e+01    4.458344e+00
  2.180132e+01    5.738846e+00
  2.183307e+01    7.028230e+00
  2.186482e+01    8.191028e+00
  2.189657e+01    8.833452e+00
  2.192832e+01    8.173732e+00
  2.196007e+01    6.575456e+00
  2.199183e+01    4.863635e+00
  2.202358e+01    3.615886e+00
  2.205533e+01    2.824047e+00
  2.208708e+01    2.311714e+00
  2.211883e+01    1.974994e+00
  2.215058e+01    1.756786e+00
  2.218233e+01    1.594960e+00
  2.221408e+01    1.485625e+00
  2.224584e+01    1.386505e+00
  2.227759e+01    1.346656e+00
  2.230934e+01    1.289365e+00
  2.234109e+01    1.234458e+00
  2.237284e+01    1.208588e+00
  2.240459e+01    1.176609e+00
  2.243634e+01    1.172401e+00
  2.246809e+01    1.136350e+00
  2.249984e+01    1.151310e+00
  2.253160e+01    1.135516e+00
  2.256335e+01    1.110442e+00
  2.259510e+01    1.084301e+00
  2.262685e+01    1.104336e+00
  2.265860e+01    1.102109e+00
  2.269035e+01    1.083613e+00
  2.272210e+01    1.042189e+00
  2.275385e+01    1.046035e+00
  2.278560e+01    1.064788e+00
  2.281736e+01    1.022211e+00
  2.284911e+01    1.017344e+00
  2.288086e+01    1.033884e+00
  2.291261e+01    1.011895e+00
  2.294436e+01    1.022965e+00
  2.297611e+01    1.007031e+00
  2.300786e+01    1.011870e+00
  2.303961e+01    9.823049e-01
  2.307137e+01    9.868507e-01
  2.310312e+01    1.014999e+00
  2.313487e+01    1.000735e+00
  2.316662e+01    1.004180e+00
  2.319837e+01    1.005350e+00
  2.323012e+01    9.912697e-01
  2.326187e+01    9.786069e-01
  2.329362e+01    9.880897e-01
  2.332537e+01    9.809883e-01
  2.335713e+01    9.690394e-01
  2.338888e+01    9.840752e-01
  2.342063e+01    9.586352e-01
  2.345238e+01    1.003916e+00
  2.348413e+01    9.560934e-01
  2.351588e+01    9.419402e-01
  2.354763e+01    9.481918e-01
  2.357938e+01    9.525304e-01
  2.361113e+01    9.478368e-01
  2.364289e+01    9.625906e-01
  2.367464e+01    9.475155e-01
  2.370639e+01    9.460263e-01
  2.373814e+01    9.234212e-01
  2.376989e+01    8.969470e-01
  2.380164e+01    9.021344e-01
  2.383339e+01    9.114304e-01
  2.386514e+01    9.200837e-01
  2.389689e+01    9.272360e-01
  2.392865e+01    8.744320e-01
  2.396040e+01    8.996754e-01
  2.399215e+01    9.110076e-01
  2.402390e+01    8.655719e-01
  2.405565e+01    8.794957e-01
  2.408740e+01    8.871294e-01
  2.411915e+01    8.921596e-01
  2.415090e+01    8.934634e-01
  2.418266e+01    8.851818e-01
  2.421441e+01    8.733293e-01
  2.424616e+01    8.706304e-01
  2.427791e+01    8.899810e-01
  2.430966e+01    8.881056e-01
  2.434141e+01    8.935872e-01
  2.437316e+01    8.869491e-01
  2.440491e+01    8.974003e-01
  2.443666e+01    9.021167e-01
  2.446842e+01    9.045709e-01
  2.450017e+01    8.700562e-01
  2.453192e+01    8.923470e-01
  2.456367e+01    8.705301e-01
  2.459542e+01    8.827491e-01
  2.462717e+01    8.694816e-01
  2.465892e+01    8.847813e-01
  2.469067e+01    8.929393e-01
  2.472242e+01    8.806690e-01
  2.475418e+01    8.895323e-01
  2.478593e+01    9.107231e-01
  2.481768e+01    9.038076e-01
  2.484943e+01    8.825949e-01
  2.488118e+01    8.796868e-01
  2.491293e+01    9.004248e-01
  2.494468e+01    8.905154e-01
  2.497643e+01    8.827389e-01
  2.500819e+01    8.956804e-01
  2.503994e+01    8.810475e-01
  2.507169e+01    9.036297e-01
  2.510344e+01    8.922698e-01
  2.513519e+01    9.074783e-01
  2.516694e+01    8.920095e-01
  2.519869e+01    9.265542e-01
  2.523044e+01    9.291595e-01
  2.526219e+01    9.321932e-01
  2.529395e+01    9.522424e-01
  2.532570e+01    9.243992e-01
  2.535745e+01    9.375637e-01
  2.538920e+01    9.883896e-01
  2.542095e+01    9.757093e-01
  2.545270e+01    1.010062e+00
  2.548445e+01    1.034431e+00
  2.551620e+01    1.046277e+00
  2.554795e+01    1.100481e+00
  2.557971e+01    1.147482e+00
  2.561146e+01    1.201828e+00
  2.564321e+01    1.320650e+00
  2.567496e+01    1.404242e+00
  2.570671e+01    1.566939e+00
  2.573846e+01    1.806082e+00
  2.577021e+01    2.170934e+00
  2.580196e+01    2.710697e+00
  2.583371e+01    3.570028e+00
  2.586547e+01    4.581074e+00
  2.589722e+01    5.724351e+00
  2.592897e+01    6.663560e+00
  2.596072e+01    7.096740e+00
  2.599247e+01    6.482627e+00
  2.602422e+01    5.297526e+00
  2.605597e+01    4.000550e+00
  2.608772e+01    3.022748e+00
  2.611948e+01    2.321066e+00
  2.615123e+01    1.960923e+00
  2.618298e+01    1.646036e+00
  2.621473e+01    1.449202e+00
  2.624648e+01    1.324441e+00
  2.627823e+01    1.230563e+00
  2.630998e+01    1.158952e+00
  2.634173e+01    1.102648e+00
  2.637348e+01    1.060301e+00
  2.640524e+01    1.040062e+00
  2.643699e+01    1.020582e+00
  2.646874e+01    1.003320e+00
  2.650049e+01    9.858649e-01
  2.653224e+01    9.881834e-01
  2.656399e+01    9.819134e-01
  2.659574e+01    9.753082e-01
  2.662749e+01    9.757298e-01
  2.665924e+01    9.781948e-01
  2.669100e+01    9.373249e-01
  2.672275e+01    9.362645e-01
  2.675450e+01    9.596678e-01
  2.678625e+01    9.620121e-01
  2.681800e+01    9.368315e-01
  2.684975e+01    9.831725e-01
  2.688150e+01    9.957618e-01
  2.691325e+01    9.873707e-01
  2.694501e+01    1.011747e+00
  2.697676e+01    1.027267e+00
  2.700851e+01    1.093138e+00
  2.704026e+01    1.172200e+00
  2.707201e+01    1.289057e+00
  2.710376e+01    1.473497e+00
  2.713551e+01    1.676464e+00
  2.716726e+01    1.928789e+00
  2.719901e+01    2.126256e+00
  2.723077e+01    2.134791e+00
  2.726252e+01    1.953006e+00
  2.729427e+01    1.692108e+00
  2.732602e+01    1.431331e+00
  2.735777e+01    1.294113e+00
  2.738952e+01    1.168479e+00
  2.742127e+01    1.098731e+00
  2.745302e+01    1.026939e+00
  2.748477e+01    9.618936e-01
  2.751653e+01    9.422964e-01
  2.754828e+01    9.504288e-01
  2.758003e+01    9.415147e-01
  2.761178e+01    9.068456e-01
  2.764353e+01    9.312416e-01
  2.767528e+01    9.049497e-01
  2.770703e+01    9.008948e-01
  2.773878e+01    8.734253e-01
  2.777054e+01    8.963687e-01
  2.780229e+01    8.684542e-01
  2.783404e+01    8.606943e-01
  2.786579e+01    8.752159e-01
  2.789754e+01    8.570794e-01
  2.792929e+01    8.517316e-01
  2.796104e+01    8.859433e-01
  2.799279e+01    8.589455e-01
  2.802454e+01    8.583838e-01
  2.805630e+01    8.421623e-01
  2.808805e+01    8.601549e-01
  2.811980e+01    8.542314e-01
  2.815155e+01    8.423656e-01
  2.818330e+01    8.462637e-01
  2.821505e+01    8.345121e-01
  2.824680e+01    8.276931e-01
  2.827855e+01    8.386189e-01
  2.831030e+01    8.473987e-01
  2.834206e+01    8.305323e-01
  2.837381e+01    8.308594e-01
  2.840556e+01    8.039587e-01
  2.843731e+01    8.280684e-01
  2.846906e+01    8.278411e-01
  2.850081e+01    8.423558e-01
  2.853256e+01    8.202049e-01
  2.856431e+01    8.353116e-01
  2.859606e+01    8.291278e-01
  2.862782e+01    8.187310e-01
  2.865957e+01    8.287143e-01
  2.869132e+01    8.296435e-01
  2.872307e+01    8.206527e-01
  2.875482e+01    8.321600e-01
  2.878657e+01    8.113696e-01
  2.881832e+01    8.045957e-01
  2.885007e+01    8.068404e-01
  2.888183e+01    8.272368e-01
  2.891358e+01    8.302865e-01
  2.894533e+01    8.103669e-01
  2.897708e+01    8.078016e-01
  2.900883e+01    7.979584e-01
  2.904058e+01    7.999479e-01
  2.907233e+01    8.188255e-01
  2.910408e+01    8.003654e-01
  2.913583e+01    7.935051e-01
  2.916759e+01    7.986119e-01
  2.919934e+01    7.789282e-01
  2.923109e+01    8.062517e-01
  2.926284e+01    8.197777e-01
  2.929459e+01    8.138416e-01
  2.932634e+01    7.923989e-01
  2.935809e+01    7.971289e-01
  2.938984e+01    8.082449e-01
  2.942159e+01    8.115368e-01
  2.945335e+01    8.061298e-01
  2.948510e+01    7.726809e-01
  2.951685e+01    7.964262e-01
  2.954860e+01    7.998955e-01
  2.958035e+01    7.627953e-01
  2.961210e+01    7.890702e-01
  2.964385e+01    7.931854e-01
  2.967560e+01    8.071445e-01
  2.970736e+01    7.635782e-01
  2.973911e+01    7.801621e-01
  2.977086e+01    7.856766e-01
  2.980261e+01    8.035503e-01
  2.983436e+01    7.922859e-01
  2.986611e+01    7.686900e-01
  2.989786e+01    7.844211e-01
  2.992961e+01    7.882340e-01
  2.996136e+01    7.766069e-01
  2.999312e+01    7.825608e-01
  3.002487e+01    7.958734e-01
  3.005662e+01    8.080727e-01
  3.008837e+01    8.050352e-01
  3.012012e+01    7.821515e-01
  3.015187e+01    7.742212e-01
  3.018362e+01    7.511751e-01
  3.021537e+01    7.983902e-01
  3.024712e+01    7.880161e-01
  3.027888e+01    7.851120e-01
  3.031063e+01    7.670177e-01
  3.034238e+01    7.843814e-01
  3.037413e+01    7.564772e-01
  3.040588e+01    7.839347e-01
  3.043763e+01    7.546483e-01
  3.046938e+01    7.755380e-01
  3.050113e+01    7.733260e-01
  3.053288e+01    7.765367e-01
  3.056464e+01    7.842256e-01
  3.059639e+01    7.563443e-01
  3.062814e+01    7.793104e-01
  3.065989e+01    7.858304e-01
  3.069164e+01    7.851632e-01
  3.072339e+01    7.755188e-01
  3.075514e+01    7.673536e-01
  3.078689e+01    7.846220e-01
  3.081865e+01    7.772861e-01
  3.085040e+01    7.799829e-01
  3.088215e+01    7.794052e-01
  3.091390e+01    7.737151e-01
  3.094565e+01    7.811560e-01
  3.097740e+01    7.880944e-01
  3.100915e+01    7.649491e-01
  3.104090e+01    7.841288e-01
  3.107265e+01    7.743726e-01
  3.110441e+01    7.881972e-01
  3.113616e+01    7.638819e-01
  3.116791e+01    7.851759e-01
  3.119966e+01    7.890044e-01
  3.123141e+01    8.056876e-01
  3.126316e+01    7.797438e-01
  3.129491e+01    7.987772e-01
  3.132666e+01    7.876751e-01
  3.135841e+01    7.809106e-01
  3.139017e+01    8.123345e-01
  3.142192e+01    8.004253e-01
  3.145367e+01    7.912497e-01
  3.148542e+01    7.977759e-01
  3.151717e+01    8.069406e-01
  3.154892e+01    8.138564e-01
  3.158067e+01    8.427367e-01
  3.161242e+01    8.877201e-01
  3.164418e+01    9.021481e-01
  3.167593e+01    9.927663e-01
  3.170768e+01    1.026046e+00
  3.173943e+01    1.090842e+00
  3.177118e+01    1.231981e+00
  3.180293e+01    1.418651e+00
  3.183468e+01    1.677266e+00
  3.186643e+01    1.888003e+00
  3.189818e+01    2.040976e+00
  3.192994e+01    1.984060e+00
  3.196169e+01    1.828862e+00
  3.199344e+01    1.540881e+00
  3.202519e+01    1.335778e+00
  3.205694e+01    1.164092e+00
  3.208869e+01    1.027988e+00
  3.212044e+01    9.764177e-01
  3.215219e+01    8.807017e-01
  3.218394e+01    8.644174e-01
  3.221570e+01    8.439113e-01
  3.224745e+01    8.286451e-01
  3.227920e+01    8.010870e-01
  3.231095e+01    7.893652e-01
  3.234270e+01    8.055801e-01
  3.237445e+01    7.776451e-01
  3.240620e+01    7.846503e-01
  3.243795e+01    7.733463e-01
  3.246970e+01    8.019845e-01
  3.250146e+01    7.760637e-01
  3.253321e+01    7.627836e-01
  3.254908e+01    7.648210e-01