File: XRD/Reaction conditions/2024-07-27_003_Ru-CGO-ex_Reaction_dwell_000023_data_000175.dat
# == pyFAI calibration ==
# Distance Sample to Detector: 0.4 m
# PONI: 9.750e-02, 1.135e-01 m
# Rotations: -0.000175 0.000000 -0.000000 rad
#
# == Fit2d calibration ==
# Distance Sample-beamCenter: 400.000 mm
# Center: x=1514.000, y=1300.000 pix
# Tilt: 0.010 deg  TiltPlanRot: 0.010 deg
#
# Detector Detector	 Spline= None	 PixelSize= 7.500e-05, 7.500e-05 m
#    Detector has a mask: False
#    Detector has a dark current: False
#    detector has a flat field: False
#
# Wavelength: 6.888e-11 m
# Mask applied: user provided
# Dark current applied: False
# Flat field applied: False
# Polarization factor: 0.99
# Normalization factor: 1.0
# --> /home/myspot/data/2024_07_Rosario/Ru-CGO-ex/2024-07-27_003_Ru-CGO-ex_Reaction_dwell_000023_data_000175.dat
#       q_nm^-1             I
  2.003187e-02    0.000000e+00
  5.178302e-02    0.000000e+00
  8.353417e-02    1.210461e-01
  1.152853e-01    1.299310e-01
  1.470365e-01    5.551979e-02
  1.787876e-01    4.298515e-02
  2.105388e-01    6.526763e-03
  2.422899e-01    1.976032e-02
  2.740411e-01    2.343874e-02
  3.057922e-01    3.275268e-02
  3.375433e-01    6.758680e-02
  3.692945e-01    5.554482e-02
  4.010456e-01    5.180917e-02
  4.327968e-01    5.801111e-02
  4.645479e-01    2.583774e-02
  4.962991e-01    3.090883e-02
  5.280502e-01    3.954544e-02
  5.598014e-01    7.848865e-02
  5.915525e-01    8.623214e-02
  6.233037e-01    5.403546e-02
  6.550548e-01    4.633711e-02
  6.868060e-01    5.966211e-02
  7.185571e-01    3.839698e-02
  7.503083e-01    6.660804e-02
  7.820594e-01    9.920113e-02
  8.138106e-01    2.407203e-01
  8.455617e-01    3.487683e-01
  8.773129e-01    5.511380e-01
  9.090640e-01    7.643107e-01
  9.408152e-01    8.316521e-01
  9.725663e-01    9.207987e-01
  1.004317e+00    1.211232e+00
  1.036069e+00    1.346424e+00
  1.067820e+00    1.445804e+00
  1.099571e+00    1.450460e+00
  1.131322e+00    1.629128e+00
  1.163073e+00    1.683445e+00
  1.194824e+00    1.770753e+00
  1.226575e+00    2.144005e+00
  1.258327e+00    2.388527e+00
  1.290078e+00    2.681727e+00
  1.321829e+00    2.767858e+00
  1.353580e+00    2.774410e+00
  1.385331e+00    2.815383e+00
  1.417082e+00    2.801075e+00
  1.448834e+00    2.952497e+00
  1.480585e+00    3.063458e+00
  1.512336e+00    3.077049e+00
  1.544087e+00    3.143680e+00
  1.575838e+00    3.188558e+00
  1.607589e+00    3.095645e+00
  1.639340e+00    3.048800e+00
  1.671092e+00    3.137508e+00
  1.702843e+00    3.187309e+00
  1.734594e+00    3.038939e+00
  1.766345e+00    3.074267e+00
  1.798096e+00    3.067214e+00
  1.829847e+00    3.022784e+00
  1.861598e+00    3.094706e+00
  1.893350e+00    3.131645e+00
  1.925101e+00    2.993515e+00
  1.956852e+00    3.097289e+00
  1.988603e+00    3.014924e+00
  2.020354e+00    3.028953e+00
  2.052105e+00    3.085029e+00
  2.083856e+00    3.070432e+00
  2.115608e+00    3.078151e+00
  2.147359e+00    2.975868e+00
  2.179110e+00    3.040236e+00
  2.210861e+00    3.062821e+00
  2.242612e+00    3.099616e+00
  2.274363e+00    3.183105e+00
  2.306115e+00    2.995321e+00
  2.337866e+00    3.021435e+00
  2.369617e+00    3.093663e+00
  2.401368e+00    3.106054e+00
  2.433119e+00    3.030087e+00
  2.464870e+00    3.278373e+00
  2.496621e+00    3.064139e+00
  2.528373e+00    3.189142e+00
  2.560124e+00    3.323732e+00
  2.591875e+00    3.151197e+00
  2.623626e+00    3.232307e+00
  2.655377e+00    3.225519e+00
  2.687128e+00    3.261554e+00
  2.718879e+00    3.178630e+00
  2.750631e+00    3.179326e+00
  2.782382e+00    3.159706e+00
  2.814133e+00    3.228336e+00
  2.845884e+00    3.308085e+00
  2.877635e+00    3.094221e+00
  2.909386e+00    3.263831e+00
  2.941137e+00    3.286166e+00
  2.972889e+00    3.171524e+00
  3.004640e+00    3.205755e+00
  3.036391e+00    3.165926e+00
  3.068142e+00    3.250897e+00
  3.099893e+00    3.403541e+00
  3.131644e+00    3.293421e+00
  3.163395e+00    3.546818e+00
  3.195147e+00    3.361614e+00
  3.226898e+00    3.386941e+00
  3.258649e+00    3.407949e+00
  3.290400e+00    3.285225e+00
  3.322151e+00    3.370338e+00
  3.353902e+00    3.377360e+00
  3.385654e+00    3.459323e+00
  3.417405e+00    3.328759e+00
  3.449156e+00    3.236314e+00
  3.480907e+00    3.363890e+00
  3.512658e+00    3.296877e+00
  3.544409e+00    3.495656e+00
  3.576160e+00    3.352503e+00
  3.607912e+00    3.551476e+00
  3.639663e+00    3.464071e+00
  3.671414e+00    3.401852e+00
  3.703165e+00    3.351135e+00
  3.734916e+00    3.328604e+00
  3.766667e+00    3.540661e+00
  3.798418e+00    3.359443e+00
  3.830170e+00    3.419794e+00
  3.861921e+00    3.409930e+00
  3.893672e+00    3.416863e+00
  3.925423e+00    3.498082e+00
  3.957174e+00    3.642209e+00
  3.988925e+00    3.477577e+00
  4.020676e+00    3.541868e+00
  4.052428e+00    3.359477e+00
  4.084179e+00    3.512186e+00
  4.115930e+00    3.579624e+00
  4.147681e+00    3.472174e+00
  4.179432e+00    3.511111e+00
  4.211183e+00    3.438473e+00
  4.242935e+00    3.515396e+00
  4.274686e+00    3.551051e+00
  4.306437e+00    3.407747e+00
  4.338188e+00    3.471064e+00
  4.369939e+00    3.522506e+00
  4.401690e+00    3.479680e+00
  4.433441e+00    3.551312e+00
  4.465193e+00    3.572002e+00
  4.496944e+00    3.546887e+00
  4.528695e+00    3.584083e+00
  4.560446e+00    3.592732e+00
  4.592197e+00    3.535543e+00
  4.623948e+00    3.622617e+00
  4.655699e+00    3.552963e+00
  4.687451e+00    3.491435e+00
  4.719202e+00    3.565409e+00
  4.750953e+00    3.549585e+00
  4.782704e+00    3.529873e+00
  4.814455e+00    3.630097e+00
  4.846206e+00    3.619313e+00
  4.877957e+00    3.595037e+00
  4.909709e+00    3.613974e+00
  4.941460e+00    3.626705e+00
  4.973211e+00    3.651242e+00
  5.004962e+00    3.600870e+00
  5.036713e+00    3.597586e+00
  5.068464e+00    3.590818e+00
  5.100216e+00    3.579205e+00
  5.131967e+00    3.608796e+00
  5.163718e+00    3.640125e+00
  5.195469e+00    3.597979e+00
  5.227220e+00    3.676392e+00
  5.258971e+00    3.587035e+00
  5.290722e+00    3.668493e+00
  5.322474e+00    3.630471e+00
  5.354225e+00    3.573189e+00
  5.385976e+00    3.633823e+00
  5.417727e+00    3.659770e+00
  5.449478e+00    3.575420e+00
  5.481229e+00    3.498348e+00
  5.512980e+00    3.602063e+00
  5.544732e+00    3.529607e+00
  5.576483e+00    3.513756e+00
  5.608234e+00    3.553170e+00
  5.639985e+00    3.564069e+00
  5.671736e+00    3.587619e+00
  5.703487e+00    3.568291e+00
  5.735238e+00    3.580523e+00
  5.766990e+00    3.394056e+00
  5.798741e+00    3.480892e+00
  5.830492e+00    3.467209e+00
  5.862243e+00    3.517499e+00
  5.893994e+00    3.504539e+00
  5.925745e+00    3.518681e+00
  5.957497e+00    3.448743e+00
  5.989248e+00    3.407401e+00
  6.020999e+00    3.566247e+00
  6.052750e+00    3.481025e+00
  6.084501e+00    3.511029e+00
  6.116252e+00    3.612583e+00
  6.148003e+00    3.533209e+00
  6.179755e+00    3.505420e+00
  6.211506e+00    3.535579e+00
  6.243257e+00    3.554537e+00
  6.275008e+00    3.562675e+00
  6.306759e+00    3.472067e+00
  6.338510e+00    3.494274e+00
  6.370261e+00    3.537913e+00
  6.402013e+00    3.482888e+00
  6.433764e+00    3.499851e+00
  6.465515e+00    3.503811e+00
  6.497266e+00    3.568985e+00
  6.529017e+00    3.446239e+00
  6.560768e+00    3.424757e+00
  6.592519e+00    3.481175e+00
  6.624271e+00    3.463048e+00
  6.656022e+00    3.547586e+00
  6.687773e+00    3.440042e+00
  6.719524e+00    3.498726e+00
  6.751275e+00    3.544347e+00
  6.783026e+00    3.482224e+00
  6.814777e+00    3.451064e+00
  6.846529e+00    3.519578e+00
  6.878280e+00    3.437095e+00
  6.910031e+00    3.477844e+00
  6.941782e+00    3.490942e+00
  6.973533e+00    3.587051e+00
  7.005284e+00    3.483017e+00
  7.037036e+00    3.466087e+00
  7.068787e+00    3.406679e+00
  7.100538e+00    3.416493e+00
  7.132289e+00    3.473066e+00
  7.164040e+00    3.509500e+00
  7.195791e+00    3.466486e+00
  7.227542e+00    3.448884e+00
  7.259294e+00    3.494034e+00
  7.291045e+00    3.490584e+00
  7.322796e+00    3.491721e+00
  7.354547e+00    3.416034e+00
  7.386298e+00    3.470124e+00
  7.418049e+00    3.454807e+00
  7.449800e+00    3.392655e+00
  7.481552e+00    3.486830e+00
  7.513303e+00    3.442127e+00
  7.545054e+00    3.430415e+00
  7.576805e+00    3.391510e+00
  7.608556e+00    3.413485e+00
  7.640307e+00    3.384437e+00
  7.672058e+00    3.398331e+00
  7.703810e+00    3.409419e+00
  7.735561e+00    3.483453e+00
  7.767312e+00    3.326886e+00
  7.799063e+00    3.447065e+00
  7.830814e+00    3.380489e+00
  7.862565e+00    3.369917e+00
  7.894317e+00    3.314443e+00
  7.926068e+00    3.388435e+00
  7.957819e+00    3.362010e+00
  7.989570e+00    3.325417e+00
  8.021321e+00    3.411473e+00
  8.053072e+00    3.358785e+00
  8.084823e+00    3.390582e+00
  8.116575e+00    3.420815e+00
  8.148326e+00    3.418566e+00
  8.180077e+00    3.380812e+00
  8.211828e+00    3.329535e+00
  8.243579e+00    3.400957e+00
  8.275330e+00    3.375365e+00
  8.307081e+00    3.403597e+00
  8.338833e+00    3.374790e+00
  8.370584e+00    3.329583e+00
  8.402335e+00    3.380378e+00
  8.434086e+00    3.382554e+00
  8.465837e+00    3.335349e+00
  8.497588e+00    3.339096e+00
  8.529339e+00    3.303464e+00
  8.561091e+00    3.227593e+00
  8.592842e+00    3.308223e+00
  8.624593e+00    3.345222e+00
  8.656344e+00    3.365118e+00
  8.688095e+00    3.223926e+00
  8.719846e+00    3.269629e+00
  8.751598e+00    3.307082e+00
  8.783349e+00    3.261760e+00
  8.815100e+00    3.250662e+00
  8.846851e+00    3.302545e+00
  8.878602e+00    3.214199e+00
  8.910353e+00    3.242237e+00
  8.942104e+00    3.231504e+00
  8.973856e+00    3.220274e+00
  9.005607e+00    3.286029e+00
  9.037358e+00    3.238628e+00
  9.069109e+00    3.190805e+00
  9.100860e+00    3.260674e+00
  9.132611e+00    3.269381e+00
  9.164362e+00    3.270773e+00
  9.196114e+00    3.182897e+00
  9.227865e+00    3.229138e+00
  9.259616e+00    3.119417e+00
  9.291367e+00    3.259018e+00
  9.323118e+00    3.243195e+00
  9.354869e+00    3.146163e+00
  9.386620e+00    3.168839e+00
  9.418372e+00    3.224856e+00
  9.450123e+00    3.219074e+00
  9.481874e+00    3.117401e+00
  9.513625e+00    3.173995e+00
  9.545376e+00    3.210447e+00
  9.577127e+00    3.188823e+00
  9.608878e+00    3.160284e+00
  9.640630e+00    3.161079e+00
  9.672381e+00    3.131268e+00
  9.704132e+00    3.126378e+00
  9.735883e+00    3.120067e+00
  9.767634e+00    3.114856e+00
  9.799385e+00    3.131897e+00
  9.831137e+00    3.071269e+00
  9.862888e+00    3.127207e+00
  9.894639e+00    3.118542e+00
  9.926390e+00    3.125881e+00
  9.958141e+00    3.045322e+00
  9.989892e+00    3.117088e+00
  1.002164e+01    3.057470e+00
  1.005339e+01    3.026181e+00
  1.008515e+01    3.044198e+00
  1.011690e+01    3.045679e+00
  1.014865e+01    3.044149e+00
  1.018040e+01    3.054022e+00
  1.021215e+01    3.057562e+00
  1.024390e+01    3.029733e+00
  1.027565e+01    3.041422e+00
  1.030740e+01    3.046041e+00
  1.033915e+01    3.004373e+00
  1.037091e+01    2.999294e+00
  1.040266e+01    2.986794e+00
  1.043441e+01    2.996206e+00
  1.046616e+01    2.975893e+00
  1.049791e+01    3.009429e+00
  1.052966e+01    3.008598e+00
  1.056141e+01    2.948438e+00
  1.059316e+01    2.958246e+00
  1.062492e+01    2.983036e+00
  1.065667e+01    2.968731e+00
  1.068842e+01    2.973917e+00
  1.072017e+01    2.905710e+00
  1.075192e+01    2.946151e+00
  1.078367e+01    2.929724e+00
  1.081542e+01    2.922376e+00
  1.084717e+01    2.922603e+00
  1.087892e+01    2.971042e+00
  1.091068e+01    2.883877e+00
  1.094243e+01    2.943780e+00
  1.097418e+01    2.862663e+00
  1.100593e+01    2.826176e+00
  1.103768e+01    2.879837e+00
  1.106943e+01    2.930837e+00
  1.110118e+01    2.862339e+00
  1.113293e+01    2.841670e+00
  1.116468e+01    2.863028e+00
  1.119644e+01    2.804944e+00
  1.122819e+01    2.862436e+00
  1.125994e+01    2.759790e+00
  1.129169e+01    2.815487e+00
  1.132344e+01    2.796786e+00
  1.135519e+01    2.779122e+00
  1.138694e+01    2.768620e+00
  1.141869e+01    2.805631e+00
  1.145045e+01    2.773891e+00
  1.148220e+01    2.768373e+00
  1.151395e+01    2.799630e+00
  1.154570e+01    2.761290e+00
  1.157745e+01    2.714938e+00
  1.160920e+01    2.751575e+00
  1.164095e+01    2.733286e+00
  1.167270e+01    2.732377e+00
  1.170445e+01    2.738203e+00
  1.173621e+01    2.720939e+00
  1.176796e+01    2.706459e+00
  1.179971e+01    2.671560e+00
  1.183146e+01    2.777146e+00
  1.186321e+01    2.686645e+00
  1.189496e+01    2.660796e+00
  1.192671e+01    2.728505e+00
  1.195846e+01    2.653040e+00
  1.199021e+01    2.613822e+00
  1.202197e+01    2.651393e+00
  1.205372e+01    2.685423e+00
  1.208547e+01    2.658022e+00
  1.211722e+01    2.637531e+00
  1.214897e+01    2.657935e+00
  1.218072e+01    2.680540e+00
  1.221247e+01    2.654170e+00
  1.224422e+01    2.657528e+00
  1.227597e+01    2.685091e+00
  1.230773e+01    2.630558e+00
  1.233948e+01    2.661695e+00
  1.237123e+01    2.616370e+00
  1.240298e+01    2.634305e+00
  1.243473e+01    2.625289e+00
  1.246648e+01    2.642576e+00
  1.249823e+01    2.619335e+00
  1.252998e+01    2.642976e+00
  1.256174e+01    2.694585e+00
  1.259349e+01    2.703327e+00
  1.262524e+01    2.731197e+00
  1.265699e+01    2.744005e+00
  1.268874e+01    2.789162e+00
  1.272049e+01    2.785236e+00
  1.275224e+01    2.888583e+00
  1.278399e+01    2.947142e+00
  1.281574e+01    3.041142e+00
  1.284750e+01    3.190364e+00
  1.287925e+01    3.381555e+00
  1.291100e+01    3.607575e+00
  1.294275e+01    4.064529e+00
  1.297450e+01    4.717414e+00
  1.300625e+01    5.906878e+00
  1.303800e+01    7.650138e+00
  1.306975e+01    1.016165e+01
  1.310150e+01    1.272806e+01
  1.313326e+01    1.469276e+01
  1.316501e+01    1.616380e+01
  1.319676e+01    1.547947e+01
  1.322851e+01    1.231854e+01
  1.326026e+01    8.932481e+00
  1.329201e+01    6.731292e+00
  1.332376e+01    5.295907e+00
  1.335551e+01    4.428620e+00
  1.338727e+01    3.809865e+00
  1.341902e+01    3.446519e+00
  1.345077e+01    3.230050e+00
  1.348252e+01    3.042005e+00
  1.351427e+01    2.907898e+00
  1.354602e+01    2.774370e+00
  1.357777e+01    2.694076e+00
  1.360952e+01    2.628055e+00
  1.364127e+01    2.597472e+00
  1.367303e+01    2.559952e+00
  1.370478e+01    2.514902e+00
  1.373653e+01    2.517277e+00
  1.376828e+01    2.435562e+00
  1.380003e+01    2.486364e+00
  1.383178e+01    2.410071e+00
  1.386353e+01    2.436226e+00
  1.389528e+01    2.438250e+00
  1.392703e+01    2.406236e+00
  1.395879e+01    2.402662e+00
  1.399054e+01    2.327718e+00
  1.402229e+01    2.307969e+00
  1.405404e+01    2.304901e+00
  1.408579e+01    2.352052e+00
  1.411754e+01    2.285709e+00
  1.414929e+01    2.257251e+00
  1.418104e+01    2.288115e+00
  1.421279e+01    2.259418e+00
  1.424455e+01    2.244982e+00
  1.427630e+01    2.222945e+00
  1.430805e+01    2.281581e+00
  1.433980e+01    2.208215e+00
  1.437155e+01    2.228010e+00
  1.440330e+01    2.228346e+00
  1.443505e+01    2.202704e+00
  1.446680e+01    2.190040e+00
  1.449856e+01    2.197985e+00
  1.453031e+01    2.205055e+00
  1.456206e+01    2.227361e+00
  1.459381e+01    2.220853e+00
  1.462556e+01    2.174909e+00
  1.465731e+01    2.170106e+00
  1.468906e+01    2.163727e+00
  1.472081e+01    2.181819e+00
  1.475256e+01    2.191806e+00
  1.478432e+01    2.201069e+00
  1.481607e+01    2.214211e+00
  1.484782e+01    2.198364e+00
  1.487957e+01    2.171872e+00
  1.491132e+01    2.235370e+00
  1.494307e+01    2.251383e+00
  1.497482e+01    2.312239e+00
  1.500657e+01    2.411883e+00
  1.503832e+01    2.592742e+00
  1.507008e+01    2.820066e+00
  1.510183e+01    3.174990e+00
  1.513358e+01    3.782056e+00
  1.516533e+01    4.570861e+00
  1.519708e+01    5.190561e+00
  1.522883e+01    5.585299e+00
  1.526058e+01    5.788688e+00
  1.529233e+01    5.399280e+00
  1.532409e+01    4.635259e+00
  1.535584e+01    3.713823e+00
  1.538759e+01    3.140220e+00
  1.541934e+01    2.776873e+00
  1.545109e+01    2.481654e+00
  1.548284e+01    2.331147e+00
  1.551459e+01    2.217703e+00
  1.554634e+01    2.144350e+00
  1.557809e+01    2.092148e+00
  1.560985e+01    2.031377e+00
  1.564160e+01    2.022642e+00
  1.567335e+01    1.995674e+00
  1.570510e+01    1.955555e+00
  1.573685e+01    1.934945e+00
  1.576860e+01    1.968677e+00
  1.580035e+01    1.880872e+00
  1.583210e+01    1.896446e+00
  1.586385e+01    1.918527e+00
  1.589561e+01    1.855904e+00
  1.592736e+01    1.844613e+00
  1.595911e+01    1.868550e+00
  1.599086e+01    1.835809e+00
  1.602261e+01    1.832691e+00
  1.605436e+01    1.858705e+00
  1.608611e+01    1.806122e+00
  1.611786e+01    1.831702e+00
  1.614961e+01    1.829297e+00
  1.618137e+01    1.809302e+00
  1.621312e+01    1.830440e+00
  1.624487e+01    1.801898e+00
  1.627662e+01    1.772842e+00
  1.630837e+01    1.752247e+00
  1.634012e+01    1.751771e+00
  1.637187e+01    1.756413e+00
  1.640362e+01    1.749835e+00
  1.643538e+01    1.731484e+00
  1.646713e+01    1.757960e+00
  1.649888e+01    1.730536e+00
  1.653063e+01    1.759913e+00
  1.656238e+01    1.741580e+00
  1.659413e+01    1.725380e+00
  1.662588e+01    1.705544e+00
  1.665763e+01    1.685411e+00
  1.668938e+01    1.697220e+00
  1.672114e+01    1.708542e+00
  1.675289e+01    1.677094e+00
  1.678464e+01    1.672300e+00
  1.681639e+01    1.676030e+00
  1.684814e+01    1.644808e+00
  1.687989e+01    1.664935e+00
  1.691164e+01    1.660043e+00
  1.694339e+01    1.659325e+00
  1.697514e+01    1.633345e+00
  1.700690e+01    1.652207e+00
  1.703865e+01    1.598943e+00
  1.707040e+01    1.626717e+00
  1.710215e+01    1.624285e+00
  1.713390e+01    1.619691e+00
  1.716565e+01    1.592876e+00
  1.719740e+01    1.615643e+00
  1.722915e+01    1.608368e+00
  1.726091e+01    1.591087e+00
  1.729266e+01    1.596481e+00
  1.732441e+01    1.594153e+00
  1.735616e+01    1.598395e+00
  1.738791e+01    1.600453e+00
  1.741966e+01    1.566413e+00
  1.745141e+01    1.588866e+00
  1.748316e+01    1.578975e+00
  1.751491e+01    1.541397e+00
  1.754667e+01    1.553534e+00
  1.757842e+01    1.550113e+00
  1.761017e+01    1.512004e+00
  1.764192e+01    1.536899e+00
  1.767367e+01    1.546315e+00
  1.770542e+01    1.525888e+00
  1.773717e+01    1.525544e+00
  1.776892e+01    1.496476e+00
  1.780067e+01    1.515583e+00
  1.783243e+01    1.537497e+00
  1.786418e+01    1.477549e+00
  1.789593e+01    1.519739e+00
  1.792768e+01    1.485594e+00
  1.795943e+01    1.473760e+00
  1.799118e+01    1.488610e+00
  1.802293e+01    1.508598e+00
  1.805468e+01    1.506783e+00
  1.808643e+01    1.505890e+00
  1.811819e+01    1.463654e+00
  1.814994e+01    1.461473e+00
  1.818169e+01    1.471581e+00
  1.821344e+01    1.444691e+00
  1.824519e+01    1.468901e+00
  1.827694e+01    1.449926e+00
  1.830869e+01    1.439563e+00
  1.834044e+01    1.474323e+00
  1.837220e+01    1.471413e+00
  1.840395e+01    1.433560e+00
  1.843570e+01    1.440224e+00
  1.846745e+01    1.415983e+00
  1.849920e+01    1.433682e+00
  1.853095e+01    1.425860e+00
  1.856270e+01    1.430652e+00
  1.859445e+01    1.399928e+00
  1.862620e+01    1.396630e+00
  1.865796e+01    1.430272e+00
  1.868971e+01    1.391219e+00
  1.872146e+01    1.420183e+00
  1.875321e+01    1.398531e+00
  1.878496e+01    1.396854e+00
  1.881671e+01    1.384996e+00
  1.884846e+01    1.358400e+00
  1.888021e+01    1.373098e+00
  1.891196e+01    1.373750e+00
  1.894372e+01    1.393236e+00
  1.897547e+01    1.387401e+00
  1.900722e+01    1.351709e+00
  1.903897e+01    1.369726e+00
  1.907072e+01    1.342740e+00
  1.910247e+01    1.348030e+00
  1.913422e+01    1.356684e+00
  1.916597e+01    1.339790e+00
  1.919773e+01    1.368261e+00
  1.922948e+01    1.345593e+00
  1.926123e+01    1.349021e+00
  1.929298e+01    1.355883e+00
  1.932473e+01    1.322330e+00
  1.935648e+01    1.334374e+00
  1.938823e+01    1.312016e+00
  1.941998e+01    1.309147e+00
  1.945173e+01    1.301348e+00
  1.948349e+01    1.329569e+00
  1.951524e+01    1.319265e+00
  1.954699e+01    1.302580e+00
  1.957874e+01    1.307147e+00
  1.961049e+01    1.310474e+00
  1.964224e+01    1.294056e+00
  1.967399e+01    1.283280e+00
  1.970574e+01    1.273193e+00
  1.973749e+01    1.261922e+00
  1.976925e+01    1.269065e+00
  1.980100e+01    1.303397e+00
  1.983275e+01    1.266467e+00
  1.986450e+01    1.268679e+00
  1.989625e+01    1.263938e+00
  1.992800e+01    1.262164e+00
  1.995975e+01    1.271582e+00
  1.999150e+01    1.271390e+00
  2.002325e+01    1.249725e+00
  2.005501e+01    1.242542e+00
  2.008676e+01    1.273322e+00
  2.011851e+01    1.281023e+00
  2.015026e+01    1.275665e+00
  2.018201e+01    1.220982e+00
  2.021376e+01    1.240582e+00
  2.024551e+01    1.241330e+00
  2.027726e+01    1.244052e+00
  2.030902e+01    1.251963e+00
  2.034077e+01    1.237146e+00
  2.037252e+01    1.256853e+00
  2.040427e+01    1.242372e+00
  2.043602e+01    1.236263e+00
  2.046777e+01    1.231703e+00
  2.049952e+01    1.205409e+00
  2.053127e+01    1.237049e+00
  2.056302e+01    1.222758e+00
  2.059478e+01    1.207280e+00
  2.062653e+01    1.223876e+00
  2.065828e+01    1.228775e+00
  2.069003e+01    1.192026e+00
  2.072178e+01    1.206741e+00
  2.075353e+01    1.207317e+00
  2.078528e+01    1.221187e+00
  2.081703e+01    1.213318e+00
  2.084878e+01    1.221949e+00
  2.088054e+01    1.221803e+00
  2.091229e+01    1.232473e+00
  2.094404e+01    1.222707e+00
  2.097579e+01    1.220247e+00
  2.100754e+01    1.232081e+00
  2.103929e+01    1.225101e+00
  2.107104e+01    1.202240e+00
  2.110279e+01    1.214819e+00
  2.113455e+01    1.208934e+00
  2.116630e+01    1.202812e+00
  2.119805e+01    1.219896e+00
  2.122980e+01    1.220776e+00
  2.126155e+01    1.231145e+00
  2.129330e+01    1.269081e+00
  2.132505e+01    1.267040e+00
  2.135680e+01    1.281711e+00
  2.138855e+01    1.269721e+00
  2.142031e+01    1.301260e+00
  2.145206e+01    1.347120e+00
  2.148381e+01    1.360457e+00
  2.151556e+01    1.439658e+00
  2.154731e+01    1.528772e+00
  2.157906e+01    1.603354e+00
  2.161081e+01    1.737715e+00
  2.164256e+01    1.985650e+00
  2.167431e+01    2.283053e+00
  2.170607e+01    2.716093e+00
  2.173782e+01    3.546256e+00
  2.176957e+01    4.585186e+00
  2.180132e+01    5.821882e+00
  2.183307e+01    7.167560e+00
  2.186482e+01    8.375944e+00
  2.189657e+01    8.900122e+00
  2.192832e+01    8.168296e+00
  2.196007e+01    6.410882e+00
  2.199183e+01    4.758624e+00
  2.202358e+01    3.526763e+00
  2.205533e+01    2.790403e+00
  2.208708e+01    2.307634e+00
  2.211883e+01    1.966997e+00
  2.215058e+01    1.756470e+00
  2.218233e+01    1.565747e+00
  2.221408e+01    1.435832e+00
  2.224584e+01    1.365457e+00
  2.227759e+01    1.308711e+00
  2.230934e+01    1.258729e+00
  2.234109e+01    1.254918e+00
  2.237284e+01    1.188550e+00
  2.240459e+01    1.178117e+00
  2.243634e+01    1.156757e+00
  2.246809e+01    1.160781e+00
  2.249984e+01    1.130780e+00
  2.253160e+01    1.148098e+00
  2.256335e+01    1.144079e+00
  2.259510e+01    1.088746e+00
  2.262685e+01    1.092268e+00
  2.265860e+01    1.088059e+00
  2.269035e+01    1.070407e+00
  2.272210e+01    1.057424e+00
  2.275385e+01    1.044858e+00
  2.278560e+01    1.031256e+00
  2.281736e+01    1.043850e+00
  2.284911e+01    1.040488e+00
  2.288086e+01    9.919068e-01
  2.291261e+01    1.022563e+00
  2.294436e+01    1.013840e+00
  2.297611e+01    1.015000e+00
  2.300786e+01    1.008490e+00
  2.303961e+01    9.924167e-01
  2.307137e+01    9.869388e-01
  2.310312e+01    9.726652e-01
  2.313487e+01    9.805027e-01
  2.316662e+01    9.937212e-01
  2.319837e+01    9.985491e-01
  2.323012e+01    9.528617e-01
  2.326187e+01    9.544079e-01
  2.329362e+01    9.477524e-01
  2.332537e+01    9.772733e-01
  2.335713e+01    9.583541e-01
  2.338888e+01    9.731862e-01
  2.342063e+01    9.823741e-01
  2.345238e+01    9.356316e-01
  2.348413e+01    9.536536e-01
  2.351588e+01    9.327967e-01
  2.354763e+01    9.388245e-01
  2.357938e+01    9.338579e-01
  2.361113e+01    9.494096e-01
  2.364289e+01    9.330379e-01
  2.367464e+01    9.195989e-01
  2.370639e+01    9.257051e-01
  2.373814e+01    9.260492e-01
  2.376989e+01    8.996556e-01
  2.380164e+01    9.126863e-01
  2.383339e+01    8.995540e-01
  2.386514e+01    9.049957e-01
  2.389689e+01    8.903711e-01
  2.392865e+01    8.903490e-01
  2.396040e+01    8.874156e-01
  2.399215e+01    8.878456e-01
  2.402390e+01    8.696133e-01
  2.405565e+01    8.975332e-01
  2.408740e+01    8.845240e-01
  2.411915e+01    8.686764e-01
  2.415090e+01    8.938549e-01
  2.418266e+01    8.665487e-01
  2.421441e+01    8.608977e-01
  2.424616e+01    8.688831e-01
  2.427791e+01    8.759708e-01
  2.430966e+01    8.845384e-01
  2.434141e+01    8.924559e-01
  2.437316e+01    8.631437e-01
  2.440491e+01    8.871306e-01
  2.443666e+01    8.821519e-01
  2.446842e+01    9.079469e-01
  2.450017e+01    8.610294e-01
  2.453192e+01    8.792868e-01
  2.456367e+01    8.773441e-01
  2.459542e+01    8.777889e-01
  2.462717e+01    8.788663e-01
  2.465892e+01    8.925478e-01
  2.469067e+01    8.674036e-01
  2.472242e+01    8.845330e-01
  2.475418e+01    8.800504e-01
  2.478593e+01    8.750258e-01
  2.481768e+01    8.848081e-01
  2.484943e+01    8.650852e-01
  2.488118e+01    8.925808e-01
  2.491293e+01    8.871795e-01
  2.494468e+01    8.937137e-01
  2.497643e+01    8.803390e-01
  2.500819e+01    8.911672e-01
  2.503994e+01    9.058210e-01
  2.507169e+01    8.992423e-01
  2.510344e+01    9.108909e-01
  2.513519e+01    8.881512e-01
  2.516694e+01    9.074567e-01
  2.519869e+01    9.076891e-01
  2.523044e+01    9.136844e-01
  2.526219e+01    9.371272e-01
  2.529395e+01    9.290727e-01
  2.532570e+01    9.334389e-01
  2.535745e+01    9.662624e-01
  2.538920e+01    9.899789e-01
  2.542095e+01    9.873691e-01
  2.545270e+01    9.767063e-01
  2.548445e+01    1.049998e+00
  2.551620e+01    1.047791e+00
  2.554795e+01    1.110534e+00
  2.557971e+01    1.152206e+00
  2.561146e+01    1.214627e+00
  2.564321e+01    1.301858e+00
  2.567496e+01    1.422094e+00
  2.570671e+01    1.595111e+00
  2.573846e+01    1.876311e+00
  2.577021e+01    2.240494e+00
  2.580196e+01    2.809607e+00
  2.583371e+01    3.667076e+00
  2.586547e+01    4.696495e+00
  2.589722e+01    5.870037e+00
  2.592897e+01    6.755396e+00
  2.596072e+01    7.051283e+00
  2.599247e+01    6.445772e+00
  2.602422e+01    5.225451e+00
  2.605597e+01    3.875078e+00
  2.608772e+01    2.947445e+00
  2.611948e+01    2.342498e+00
  2.615123e+01    1.916907e+00
  2.618298e+01    1.650054e+00
  2.621473e+01    1.446071e+00
  2.624648e+01    1.320140e+00
  2.627823e+01    1.223342e+00
  2.630998e+01    1.149766e+00
  2.634173e+01    1.089819e+00
  2.637348e+01    1.080758e+00
  2.640524e+01    1.046870e+00
  2.643699e+01    1.029530e+00
  2.646874e+01    1.038302e+00
  2.650049e+01    9.934596e-01
  2.653224e+01    9.626178e-01
  2.656399e+01    9.818994e-01
  2.659574e+01    9.487705e-01
  2.662749e+01    9.632043e-01
  2.665924e+01    9.707898e-01
  2.669100e+01    9.706388e-01
  2.672275e+01    9.676137e-01
  2.675450e+01    9.711080e-01
  2.678625e+01    9.706411e-01
  2.681800e+01    9.485892e-01
  2.684975e+01    9.569626e-01
  2.688150e+01    9.937189e-01
  2.691325e+01    9.974949e-01
  2.694501e+01    9.814965e-01
  2.697676e+01    1.039506e+00
  2.700851e+01    1.091839e+00
  2.704026e+01    1.192860e+00
  2.707201e+01    1.317042e+00
  2.710376e+01    1.499174e+00
  2.713551e+01    1.736896e+00
  2.716726e+01    1.986770e+00
  2.719901e+01    2.141245e+00
  2.723077e+01    2.114802e+00
  2.726252e+01    1.921142e+00
  2.729427e+01    1.678941e+00
  2.732602e+01    1.423716e+00
  2.735777e+01    1.262900e+00
  2.738952e+01    1.145617e+00
  2.742127e+01    1.081819e+00
  2.745302e+01    1.010946e+00
  2.748477e+01    1.001807e+00
  2.751653e+01    9.399212e-01
  2.754828e+01    9.342372e-01
  2.758003e+01    9.143620e-01
  2.761178e+01    9.093021e-01
  2.764353e+01    9.239156e-01
  2.767528e+01    9.338645e-01
  2.770703e+01    8.762388e-01
  2.773878e+01    8.811073e-01
  2.777054e+01    8.826823e-01
  2.780229e+01    8.898091e-01
  2.783404e+01    8.664663e-01
  2.786579e+01    8.685160e-01
  2.789754e+01    8.560439e-01
  2.792929e+01    8.596011e-01
  2.796104e+01    8.642464e-01
  2.799279e+01    8.573061e-01
  2.802454e+01    8.583031e-01
  2.805630e+01    8.624328e-01
  2.808805e+01    8.587181e-01
  2.811980e+01    8.506383e-01
  2.815155e+01    8.441416e-01
  2.818330e+01    8.656710e-01
  2.821505e+01    8.382608e-01
  2.824680e+01    8.457028e-01
  2.827855e+01    8.553605e-01
  2.831030e+01    8.295559e-01
  2.834206e+01    8.388546e-01
  2.837381e+01    8.345690e-01
  2.840556e+01    8.123286e-01
  2.843731e+01    8.259111e-01
  2.846906e+01    8.213074e-01
  2.850081e+01    8.287325e-01
  2.853256e+01    8.255665e-01
  2.856431e+01    8.160620e-01
  2.859606e+01    8.184984e-01
  2.862782e+01    8.085752e-01
  2.865957e+01    8.180251e-01
  2.869132e+01    8.379436e-01
  2.872307e+01    8.177686e-01
  2.875482e+01    8.383685e-01
  2.878657e+01    8.281469e-01
  2.881832e+01    8.061449e-01
  2.885007e+01    8.135124e-01
  2.888183e+01    8.121476e-01
  2.891358e+01    8.355703e-01
  2.894533e+01    8.055744e-01
  2.897708e+01    8.052945e-01
  2.900883e+01    8.266369e-01
  2.904058e+01    8.121062e-01
  2.907233e+01    7.968312e-01
  2.910408e+01    7.910778e-01
  2.913583e+01    8.136252e-01
  2.916759e+01    7.969686e-01
  2.919934e+01    8.005689e-01
  2.923109e+01    8.188922e-01
  2.926284e+01    7.968646e-01
  2.929459e+01    7.895454e-01
  2.932634e+01    7.986665e-01
  2.935809e+01    7.843966e-01
  2.938984e+01    7.832792e-01
  2.942159e+01    7.841634e-01
  2.945335e+01    8.076780e-01
  2.948510e+01    7.886391e-01
  2.951685e+01    7.786494e-01
  2.954860e+01    7.975014e-01
  2.958035e+01    7.686483e-01
  2.961210e+01    7.953833e-01
  2.964385e+01    7.845364e-01
  2.967560e+01    7.780336e-01
  2.970736e+01    7.811694e-01
  2.973911e+01    7.603885e-01
  2.977086e+01    7.744887e-01
  2.980261e+01    7.831983e-01
  2.983436e+01    7.505870e-01
  2.986611e+01    7.834537e-01
  2.989786e+01    8.027732e-01
  2.992961e+01    7.965053e-01
  2.996136e+01    7.997199e-01
  2.999312e+01    7.969070e-01
  3.002487e+01    7.890267e-01
  3.005662e+01    8.130670e-01
  3.008837e+01    8.259387e-01
  3.012012e+01    7.676849e-01
  3.015187e+01    7.810167e-01
  3.018362e+01    7.636814e-01
  3.021537e+01    7.839673e-01
  3.024712e+01    7.888527e-01
  3.027888e+01    7.980264e-01
  3.031063e+01    7.826642e-01
  3.034238e+01    7.666715e-01
  3.037413e+01    7.765564e-01
  3.040588e+01    7.759589e-01
  3.043763e+01    7.891026e-01
  3.046938e+01    7.709186e-01
  3.050113e+01    7.920844e-01
  3.053288e+01    7.813097e-01
  3.056464e+01    7.827860e-01
  3.059639e+01    7.672669e-01
  3.062814e+01    7.758271e-01
  3.065989e+01    7.637221e-01
  3.069164e+01    7.792470e-01
  3.072339e+01    7.917400e-01
  3.075514e+01    7.567220e-01
  3.078689e+01    7.784386e-01
  3.081865e+01    7.691159e-01
  3.085040e+01    7.858132e-01
  3.088215e+01    7.709907e-01
  3.091390e+01    7.785679e-01
  3.094565e+01    7.883914e-01
  3.097740e+01    7.894149e-01
  3.100915e+01    7.732025e-01
  3.104090e+01    7.804637e-01
  3.107265e+01    7.672897e-01
  3.110441e+01    7.772891e-01
  3.113616e+01    7.697807e-01
  3.116791e+01    7.691471e-01
  3.119966e+01    7.877962e-01
  3.123141e+01    7.672254e-01
  3.126316e+01    7.929520e-01
  3.129491e+01    7.799359e-01
  3.132666e+01    8.177580e-01
  3.135841e+01    8.034254e-01
  3.139017e+01    7.817737e-01
  3.142192e+01    8.071634e-01
  3.145367e+01    8.154823e-01
  3.148542e+01    8.148012e-01
  3.151717e+01    8.099241e-01
  3.154892e+01    8.357873e-01
  3.158067e+01    8.455018e-01
  3.161242e+01    8.728557e-01
  3.164418e+01    9.108245e-01
  3.167593e+01    9.671206e-01
  3.170768e+01    1.032041e+00
  3.173943e+01    1.112395e+00
  3.177118e+01    1.229282e+00
  3.180293e+01    1.458771e+00
  3.183468e+01    1.697970e+00
  3.186643e+01    1.951371e+00
  3.189818e+01    2.034124e+00
  3.192994e+01    2.003865e+00
  3.196169e+01    1.802373e+00
  3.199344e+01    1.544251e+00
  3.202519e+01    1.309996e+00
  3.205694e+01    1.136696e+00
  3.208869e+01    1.014190e+00
  3.212044e+01    9.727840e-01
  3.215219e+01    9.218767e-01
  3.218394e+01    8.538358e-01
  3.221570e+01    8.447135e-01
  3.224745e+01    8.194408e-01
  3.227920e+01    7.898091e-01
  3.231095e+01    7.917950e-01
  3.234270e+01    8.138795e-01
  3.237445e+01    7.858040e-01
  3.240620e+01    7.880570e-01
  3.243795e+01    7.909065e-01
  3.246970e+01    7.696144e-01
  3.250146e+01    7.759734e-01
  3.253321e+01    7.591849e-01
  3.254908e+01    7.624937e-01