File: XRD/Reaction conditions/2024-07-27_003_Ru-CGO-ex_Reaction_dwell_000023_data_000031.dat
# == pyFAI calibration ==
# Distance Sample to Detector: 0.4 m
# PONI: 9.750e-02, 1.135e-01 m
# Rotations: -0.000175 0.000000 -0.000000 rad
#
# == Fit2d calibration ==
# Distance Sample-beamCenter: 400.000 mm
# Center: x=1514.000, y=1300.000 pix
# Tilt: 0.010 deg  TiltPlanRot: 0.010 deg
#
# Detector Detector	 Spline= None	 PixelSize= 7.500e-05, 7.500e-05 m
#    Detector has a mask: False
#    Detector has a dark current: False
#    detector has a flat field: False
#
# Wavelength: 6.888e-11 m
# Mask applied: user provided
# Dark current applied: False
# Flat field applied: False
# Polarization factor: 0.99
# Normalization factor: 1.0
# --> /home/myspot/data/2024_07_Rosario/Ru-CGO-ex/2024-07-27_003_Ru-CGO-ex_Reaction_dwell_000023_data_000031.dat
#       q_nm^-1             I
  2.003187e-02    2.849293e-01
  5.178302e-02    1.210474e-01
  8.353417e-02    1.304318e-01
  1.152853e-01    0.000000e+00
  1.470365e-01    4.833535e-02
  1.787876e-01    2.204556e-02
  2.105388e-01    2.444146e-02
  2.422899e-01    3.912105e-02
  2.740411e-01    8.073585e-02
  3.057922e-01    3.622840e-02
  3.375433e-01    3.306879e-02
  3.692945e-01    7.161164e-02
  4.010456e-01    3.099598e-02
  4.327968e-01    4.322000e-02
  4.645479e-01    7.453263e-02
  4.962991e-01    7.363231e-02
  5.280502e-01    1.020649e-02
  5.598014e-01    7.531548e-02
  5.915525e-01    5.493991e-02
  6.233037e-01    3.200753e-02
  6.550548e-01    5.344447e-02
  6.868060e-01    3.399174e-02
  7.185571e-01    3.362256e-02
  7.503083e-01    7.009969e-02
  7.820594e-01    1.311384e-01
  8.138106e-01    2.390958e-01
  8.455617e-01    3.016138e-01
  8.773129e-01    5.251841e-01
  9.090640e-01    7.086178e-01
  9.408152e-01    8.570467e-01
  9.725663e-01    9.696299e-01
  1.004317e+00    1.283576e+00
  1.036069e+00    1.294240e+00
  1.067820e+00    1.439200e+00
  1.099571e+00    1.551090e+00
  1.131322e+00    1.629649e+00
  1.163073e+00    1.555470e+00
  1.194824e+00    1.879741e+00
  1.226575e+00    2.336486e+00
  1.258327e+00    2.490633e+00
  1.290078e+00    2.662445e+00
  1.321829e+00    2.834120e+00
  1.353580e+00    2.753298e+00
  1.385331e+00    2.896951e+00
  1.417082e+00    2.886734e+00
  1.448834e+00    2.967196e+00
  1.480585e+00    2.946955e+00
  1.512336e+00    3.289073e+00
  1.544087e+00    3.133849e+00
  1.575838e+00    3.247498e+00
  1.607589e+00    3.216048e+00
  1.639340e+00    3.090972e+00
  1.671092e+00    3.212997e+00
  1.702843e+00    3.123190e+00
  1.734594e+00    3.145351e+00
  1.766345e+00    2.973699e+00
  1.798096e+00    3.135085e+00
  1.829847e+00    2.982194e+00
  1.861598e+00    3.084432e+00
  1.893350e+00    3.032761e+00
  1.925101e+00    3.037421e+00
  1.956852e+00    3.078925e+00
  1.988603e+00    2.913545e+00
  2.020354e+00    3.122880e+00
  2.052105e+00    3.107473e+00
  2.083856e+00    2.968390e+00
  2.115608e+00    3.042700e+00
  2.147359e+00    2.980465e+00
  2.179110e+00    3.129155e+00
  2.210861e+00    3.194672e+00
  2.242612e+00    3.196983e+00
  2.274363e+00    3.088362e+00
  2.306115e+00    3.114033e+00
  2.337866e+00    3.288289e+00
  2.369617e+00    3.042596e+00
  2.401368e+00    3.276067e+00
  2.433119e+00    3.115933e+00
  2.464870e+00    3.169883e+00
  2.496621e+00    3.177451e+00
  2.528373e+00    3.105457e+00
  2.560124e+00    3.202188e+00
  2.591875e+00    3.177276e+00
  2.623626e+00    3.279796e+00
  2.655377e+00    3.337575e+00
  2.687128e+00    3.210475e+00
  2.718879e+00    3.240809e+00
  2.750631e+00    3.113080e+00
  2.782382e+00    3.276671e+00
  2.814133e+00    3.271808e+00
  2.845884e+00    3.382013e+00
  2.877635e+00    3.304959e+00
  2.909386e+00    3.238346e+00
  2.941137e+00    3.385200e+00
  2.972889e+00    3.394430e+00
  3.004640e+00    3.290370e+00
  3.036391e+00    3.368909e+00
  3.068142e+00    3.394236e+00
  3.099893e+00    3.528519e+00
  3.131644e+00    3.378312e+00
  3.163395e+00    3.421195e+00
  3.195147e+00    3.350853e+00
  3.226898e+00    3.458252e+00
  3.258649e+00    3.436726e+00
  3.290400e+00    3.346695e+00
  3.322151e+00    3.400685e+00
  3.353902e+00    3.432919e+00
  3.385654e+00    3.486909e+00
  3.417405e+00    3.521190e+00
  3.449156e+00    3.430651e+00
  3.480907e+00    3.409878e+00
  3.512658e+00    3.380700e+00
  3.544409e+00    3.427669e+00
  3.576160e+00    3.484448e+00
  3.607912e+00    3.423729e+00
  3.639663e+00    3.502633e+00
  3.671414e+00    3.517147e+00
  3.703165e+00    3.402094e+00
  3.734916e+00    3.568367e+00
  3.766667e+00    3.529757e+00
  3.798418e+00    3.364954e+00
  3.830170e+00    3.457846e+00
  3.861921e+00    3.540585e+00
  3.893672e+00    3.462507e+00
  3.925423e+00    3.538334e+00
  3.957174e+00    3.451577e+00
  3.988925e+00    3.523048e+00
  4.020676e+00    3.545109e+00
  4.052428e+00    3.512834e+00
  4.084179e+00    3.607059e+00
  4.115930e+00    3.546657e+00
  4.147681e+00    3.600608e+00
  4.179432e+00    3.573526e+00
  4.211183e+00    3.603057e+00
  4.242935e+00    3.553842e+00
  4.274686e+00    3.511928e+00
  4.306437e+00    3.522779e+00
  4.338188e+00    3.509584e+00
  4.369939e+00    3.613822e+00
  4.401690e+00    3.523850e+00
  4.433441e+00    3.623398e+00
  4.465193e+00    3.567281e+00
  4.496944e+00    3.663956e+00
  4.528695e+00    3.614430e+00
  4.560446e+00    3.639028e+00
  4.592197e+00    3.611900e+00
  4.623948e+00    3.653437e+00
  4.655699e+00    3.597432e+00
  4.687451e+00    3.642300e+00
  4.719202e+00    3.625433e+00
  4.750953e+00    3.658523e+00
  4.782704e+00    3.581582e+00
  4.814455e+00    3.702478e+00
  4.846206e+00    3.698320e+00
  4.877957e+00    3.656293e+00
  4.909709e+00    3.648368e+00
  4.941460e+00    3.626771e+00
  4.973211e+00    3.642754e+00
  5.004962e+00    3.671756e+00
  5.036713e+00    3.748310e+00
  5.068464e+00    3.696705e+00
  5.100216e+00    3.704895e+00
  5.131967e+00    3.636710e+00
  5.163718e+00    3.653869e+00
  5.195469e+00    3.655965e+00
  5.227220e+00    3.569857e+00
  5.258971e+00    3.686601e+00
  5.290722e+00    3.615380e+00
  5.322474e+00    3.582714e+00
  5.354225e+00    3.575273e+00
  5.385976e+00    3.600094e+00
  5.417727e+00    3.670742e+00
  5.449478e+00    3.668776e+00
  5.481229e+00    3.605079e+00
  5.512980e+00    3.599094e+00
  5.544732e+00    3.640513e+00
  5.576483e+00    3.541767e+00
  5.608234e+00    3.591734e+00
  5.639985e+00    3.609837e+00
  5.671736e+00    3.612355e+00
  5.703487e+00    3.523871e+00
  5.735238e+00    3.504325e+00
  5.766990e+00    3.547695e+00
  5.798741e+00    3.511373e+00
  5.830492e+00    3.648398e+00
  5.862243e+00    3.568618e+00
  5.893994e+00    3.587274e+00
  5.925745e+00    3.565858e+00
  5.957497e+00    3.576463e+00
  5.989248e+00    3.467072e+00
  6.020999e+00    3.714705e+00
  6.052750e+00    3.605386e+00
  6.084501e+00    3.581858e+00
  6.116252e+00    3.589357e+00
  6.148003e+00    3.715998e+00
  6.179755e+00    3.620920e+00
  6.211506e+00    3.615654e+00
  6.243257e+00    3.592273e+00
  6.275008e+00    3.602781e+00
  6.306759e+00    3.586392e+00
  6.338510e+00    3.561676e+00
  6.370261e+00    3.517968e+00
  6.402013e+00    3.580118e+00
  6.433764e+00    3.553357e+00
  6.465515e+00    3.585397e+00
  6.497266e+00    3.588526e+00
  6.529017e+00    3.548341e+00
  6.560768e+00    3.547579e+00
  6.592519e+00    3.483152e+00
  6.624271e+00    3.610640e+00
  6.656022e+00    3.614952e+00
  6.687773e+00    3.583249e+00
  6.719524e+00    3.541948e+00
  6.751275e+00    3.486086e+00
  6.783026e+00    3.524106e+00
  6.814777e+00    3.519769e+00
  6.846529e+00    3.553472e+00
  6.878280e+00    3.575009e+00
  6.910031e+00    3.608256e+00
  6.941782e+00    3.577477e+00
  6.973533e+00    3.516840e+00
  7.005284e+00    3.470062e+00
  7.037036e+00    3.577639e+00
  7.068787e+00    3.564052e+00
  7.100538e+00    3.518491e+00
  7.132289e+00    3.498552e+00
  7.164040e+00    3.522443e+00
  7.195791e+00    3.600759e+00
  7.227542e+00    3.530806e+00
  7.259294e+00    3.544656e+00
  7.291045e+00    3.506897e+00
  7.322796e+00    3.489884e+00
  7.354547e+00    3.498777e+00
  7.386298e+00    3.504859e+00
  7.418049e+00    3.497018e+00
  7.449800e+00    3.468130e+00
  7.481552e+00    3.521534e+00
  7.513303e+00    3.506891e+00
  7.545054e+00    3.542192e+00
  7.576805e+00    3.562177e+00
  7.608556e+00    3.558434e+00
  7.640307e+00    3.417508e+00
  7.672058e+00    3.443177e+00
  7.703810e+00    3.420125e+00
  7.735561e+00    3.522543e+00
  7.767312e+00    3.425253e+00
  7.799063e+00    3.448090e+00
  7.830814e+00    3.435694e+00
  7.862565e+00    3.421389e+00
  7.894317e+00    3.488877e+00
  7.926068e+00    3.403921e+00
  7.957819e+00    3.409391e+00
  7.989570e+00    3.411603e+00
  8.021321e+00    3.412393e+00
  8.053072e+00    3.469567e+00
  8.084823e+00    3.453838e+00
  8.116575e+00    3.497859e+00
  8.148326e+00    3.373880e+00
  8.180077e+00    3.485884e+00
  8.211828e+00    3.538046e+00
  8.243579e+00    3.477324e+00
  8.275330e+00    3.444831e+00
  8.307081e+00    3.408400e+00
  8.338833e+00    3.414055e+00
  8.370584e+00    3.432084e+00
  8.402335e+00    3.395965e+00
  8.434086e+00    3.433926e+00
  8.465837e+00    3.431679e+00
  8.497588e+00    3.410127e+00
  8.529339e+00    3.378002e+00
  8.561091e+00    3.377570e+00
  8.592842e+00    3.377196e+00
  8.624593e+00    3.310333e+00
  8.656344e+00    3.422301e+00
  8.688095e+00    3.381779e+00
  8.719846e+00    3.371218e+00
  8.751598e+00    3.300871e+00
  8.783349e+00    3.296441e+00
  8.815100e+00    3.234722e+00
  8.846851e+00    3.309450e+00
  8.878602e+00    3.368033e+00
  8.910353e+00    3.352900e+00
  8.942104e+00    3.302798e+00
  8.973856e+00    3.247371e+00
  9.005607e+00    3.218031e+00
  9.037358e+00    3.270812e+00
  9.069109e+00    3.256316e+00
  9.100860e+00    3.203570e+00
  9.132611e+00    3.208248e+00
  9.164362e+00    3.273280e+00
  9.196114e+00    3.238212e+00
  9.227865e+00    3.254399e+00
  9.259616e+00    3.266690e+00
  9.291367e+00    3.250929e+00
  9.323118e+00    3.253215e+00
  9.354869e+00    3.295511e+00
  9.386620e+00    3.253259e+00
  9.418372e+00    3.243447e+00
  9.450123e+00    3.219449e+00
  9.481874e+00    3.290806e+00
  9.513625e+00    3.165557e+00
  9.545376e+00    3.173884e+00
  9.577127e+00    3.268404e+00
  9.608878e+00    3.237459e+00
  9.640630e+00    3.222095e+00
  9.672381e+00    3.206884e+00
  9.704132e+00    3.166976e+00
  9.735883e+00    3.162082e+00
  9.767634e+00    3.227098e+00
  9.799385e+00    3.179906e+00
  9.831137e+00    3.172868e+00
  9.862888e+00    3.130075e+00
  9.894639e+00    3.114367e+00
  9.926390e+00    3.101877e+00
  9.958141e+00    3.210306e+00
  9.989892e+00    3.098723e+00
  1.002164e+01    3.102767e+00
  1.005339e+01    3.118111e+00
  1.008515e+01    3.098857e+00
  1.011690e+01    3.072665e+00
  1.014865e+01    3.138649e+00
  1.018040e+01    3.077257e+00
  1.021215e+01    3.129041e+00
  1.024390e+01    3.050048e+00
  1.027565e+01    3.079682e+00
  1.030740e+01    3.066071e+00
  1.033915e+01    3.010825e+00
  1.037091e+01    3.081302e+00
  1.040266e+01    3.014461e+00
  1.043441e+01    3.026742e+00
  1.046616e+01    2.982566e+00
  1.049791e+01    3.003715e+00
  1.052966e+01    3.034733e+00
  1.056141e+01    2.980984e+00
  1.059316e+01    3.046326e+00
  1.062492e+01    3.019392e+00
  1.065667e+01    3.037886e+00
  1.068842e+01    3.006094e+00
  1.072017e+01    2.981333e+00
  1.075192e+01    3.004442e+00
  1.078367e+01    2.976791e+00
  1.081542e+01    2.955162e+00
  1.084717e+01    2.991802e+00
  1.087892e+01    2.957760e+00
  1.091068e+01    2.996559e+00
  1.094243e+01    2.927657e+00
  1.097418e+01    2.877114e+00
  1.100593e+01    2.962048e+00
  1.103768e+01    2.929719e+00
  1.106943e+01    2.915938e+00
  1.110118e+01    2.875889e+00
  1.113293e+01    2.853518e+00
  1.116468e+01    2.873363e+00
  1.119644e+01    2.807973e+00
  1.122819e+01    2.822087e+00
  1.125994e+01    2.874668e+00
  1.129169e+01    2.799073e+00
  1.132344e+01    2.857794e+00
  1.135519e+01    2.875669e+00
  1.138694e+01    2.788194e+00
  1.141869e+01    2.866383e+00
  1.145045e+01    2.823997e+00
  1.148220e+01    2.810279e+00
  1.151395e+01    2.772989e+00
  1.154570e+01    2.778707e+00
  1.157745e+01    2.749948e+00
  1.160920e+01    2.770987e+00
  1.164095e+01    2.810284e+00
  1.167270e+01    2.764478e+00
  1.170445e+01    2.787559e+00
  1.173621e+01    2.771317e+00
  1.176796e+01    2.776570e+00
  1.179971e+01    2.762069e+00
  1.183146e+01    2.748050e+00
  1.186321e+01    2.714252e+00
  1.189496e+01    2.741070e+00
  1.192671e+01    2.731582e+00
  1.195846e+01    2.735487e+00
  1.199021e+01    2.737289e+00
  1.202197e+01    2.768874e+00
  1.205372e+01    2.714933e+00
  1.208547e+01    2.651438e+00
  1.211722e+01    2.746666e+00
  1.214897e+01    2.686206e+00
  1.218072e+01    2.673116e+00
  1.221247e+01    2.694828e+00
  1.224422e+01    2.749183e+00
  1.227597e+01    2.741069e+00
  1.230773e+01    2.682916e+00
  1.233948e+01    2.719256e+00
  1.237123e+01    2.705921e+00
  1.240298e+01    2.711542e+00
  1.243473e+01    2.739895e+00
  1.246648e+01    2.683505e+00
  1.249823e+01    2.713486e+00
  1.252998e+01    2.715351e+00
  1.256174e+01    2.712680e+00
  1.259349e+01    2.704091e+00
  1.262524e+01    2.735434e+00
  1.265699e+01    2.816167e+00
  1.268874e+01    2.808401e+00
  1.272049e+01    2.858585e+00
  1.275224e+01    2.940707e+00
  1.278399e+01    2.937215e+00
  1.281574e+01    3.055211e+00
  1.284750e+01    3.202839e+00
  1.287925e+01    3.443618e+00
  1.291100e+01    3.703228e+00
  1.294275e+01    4.084561e+00
  1.297450e+01    4.842592e+00
  1.300625e+01    5.922257e+00
  1.303800e+01    7.658445e+00
  1.306975e+01    1.022072e+01
  1.310150e+01    1.274501e+01
  1.313326e+01    1.479384e+01
  1.316501e+01    1.632218e+01
  1.319676e+01    1.575757e+01
  1.322851e+01    1.256150e+01
  1.326026e+01    9.066624e+00
  1.329201e+01    6.767390e+00
  1.332376e+01    5.386494e+00
  1.335551e+01    4.491366e+00
  1.338727e+01    3.861402e+00
  1.341902e+01    3.521753e+00
  1.345077e+01    3.311363e+00
  1.348252e+01    3.079747e+00
  1.351427e+01    2.948206e+00
  1.354602e+01    2.793491e+00
  1.357777e+01    2.804262e+00
  1.360952e+01    2.662951e+00
  1.364127e+01    2.658826e+00
  1.367303e+01    2.657126e+00
  1.370478e+01    2.594010e+00
  1.373653e+01    2.533141e+00
  1.376828e+01    2.489943e+00
  1.380003e+01    2.435735e+00
  1.383178e+01    2.458538e+00
  1.386353e+01    2.453784e+00
  1.389528e+01    2.427537e+00
  1.392703e+01    2.403854e+00
  1.395879e+01    2.382627e+00
  1.399054e+01    2.369536e+00
  1.402229e+01    2.336729e+00
  1.405404e+01    2.330142e+00
  1.408579e+01    2.332117e+00
  1.411754e+01    2.336709e+00
  1.414929e+01    2.280981e+00
  1.418104e+01    2.343127e+00
  1.421279e+01    2.283510e+00
  1.424455e+01    2.295959e+00
  1.427630e+01    2.265960e+00
  1.430805e+01    2.284442e+00
  1.433980e+01    2.244620e+00
  1.437155e+01    2.229158e+00
  1.440330e+01    2.192749e+00
  1.443505e+01    2.271333e+00
  1.446680e+01    2.248013e+00
  1.449856e+01    2.201893e+00
  1.453031e+01    2.241535e+00
  1.456206e+01    2.210253e+00
  1.459381e+01    2.199766e+00
  1.462556e+01    2.197437e+00
  1.465731e+01    2.214548e+00
  1.468906e+01    2.229883e+00
  1.472081e+01    2.236865e+00
  1.475256e+01    2.209006e+00
  1.478432e+01    2.186432e+00
  1.481607e+01    2.200650e+00
  1.484782e+01    2.210902e+00
  1.487957e+01    2.235887e+00
  1.491132e+01    2.280629e+00
  1.494307e+01    2.302719e+00
  1.497482e+01    2.328876e+00
  1.500657e+01    2.446685e+00
  1.503832e+01    2.607139e+00
  1.507008e+01    2.801326e+00
  1.510183e+01    3.202915e+00
  1.513358e+01    3.816389e+00
  1.516533e+01    4.579500e+00
  1.519708e+01    5.192691e+00
  1.522883e+01    5.675637e+00
  1.526058e+01    5.830918e+00
  1.529233e+01    5.474023e+00
  1.532409e+01    4.703177e+00
  1.535584e+01    3.786159e+00
  1.538759e+01    3.164193e+00
  1.541934e+01    2.769394e+00
  1.545109e+01    2.503578e+00
  1.548284e+01    2.349647e+00
  1.551459e+01    2.240281e+00
  1.554634e+01    2.180343e+00
  1.557809e+01    2.110030e+00
  1.560985e+01    2.098032e+00
  1.564160e+01    2.032484e+00
  1.567335e+01    2.042169e+00
  1.570510e+01    2.008632e+00
  1.573685e+01    1.998186e+00
  1.576860e+01    1.963264e+00
  1.580035e+01    1.964503e+00
  1.583210e+01    1.908643e+00
  1.586385e+01    1.915502e+00
  1.589561e+01    1.925373e+00
  1.592736e+01    1.885263e+00
  1.595911e+01    1.906203e+00
  1.599086e+01    1.899878e+00
  1.602261e+01    1.869569e+00
  1.605436e+01    1.906749e+00
  1.608611e+01    1.856171e+00
  1.611786e+01    1.812624e+00
  1.614961e+01    1.829021e+00
  1.618137e+01    1.842116e+00
  1.621312e+01    1.826975e+00
  1.624487e+01    1.805234e+00
  1.627662e+01    1.788803e+00
  1.630837e+01    1.815559e+00
  1.634012e+01    1.775194e+00
  1.637187e+01    1.785088e+00
  1.640362e+01    1.744995e+00
  1.643538e+01    1.817168e+00
  1.646713e+01    1.761171e+00
  1.649888e+01    1.787500e+00
  1.653063e+01    1.753188e+00
  1.656238e+01    1.743752e+00
  1.659413e+01    1.741268e+00
  1.662588e+01    1.730371e+00
  1.665763e+01    1.720173e+00
  1.668938e+01    1.760965e+00
  1.672114e+01    1.674904e+00
  1.675289e+01    1.716882e+00
  1.678464e+01    1.717874e+00
  1.681639e+01    1.696880e+00
  1.684814e+01    1.691900e+00
  1.687989e+01    1.674001e+00
  1.691164e+01    1.665609e+00
  1.694339e+01    1.680332e+00
  1.697514e+01    1.692697e+00
  1.700690e+01    1.671309e+00
  1.703865e+01    1.626542e+00
  1.707040e+01    1.658560e+00
  1.710215e+01    1.662889e+00
  1.713390e+01    1.655038e+00
  1.716565e+01    1.648066e+00
  1.719740e+01    1.649452e+00
  1.722915e+01    1.650783e+00
  1.726091e+01    1.630235e+00
  1.729266e+01    1.643649e+00
  1.732441e+01    1.626412e+00
  1.735616e+01    1.593762e+00
  1.738791e+01    1.628021e+00
  1.741966e+01    1.560445e+00
  1.745141e+01    1.576451e+00
  1.748316e+01    1.609570e+00
  1.751491e+01    1.625853e+00
  1.754667e+01    1.592222e+00
  1.757842e+01    1.591980e+00
  1.761017e+01    1.597347e+00
  1.764192e+01    1.571915e+00
  1.767367e+01    1.542860e+00
  1.770542e+01    1.522846e+00
  1.773717e+01    1.548450e+00
  1.776892e+01    1.524370e+00
  1.780067e+01    1.532560e+00
  1.783243e+01    1.545029e+00
  1.786418e+01    1.505336e+00
  1.789593e+01    1.527476e+00
  1.792768e+01    1.531888e+00
  1.795943e+01    1.538055e+00
  1.799118e+01    1.531076e+00
  1.802293e+01    1.535120e+00
  1.805468e+01    1.504631e+00
  1.808643e+01    1.468073e+00
  1.811819e+01    1.500861e+00
  1.814994e+01    1.507044e+00
  1.818169e+01    1.514354e+00
  1.821344e+01    1.472507e+00
  1.824519e+01    1.493460e+00
  1.827694e+01    1.470130e+00
  1.830869e+01    1.506502e+00
  1.834044e+01    1.443647e+00
  1.837220e+01    1.454145e+00
  1.840395e+01    1.447097e+00
  1.843570e+01    1.458224e+00
  1.846745e+01    1.448895e+00
  1.849920e+01    1.442304e+00
  1.853095e+01    1.435212e+00
  1.856270e+01    1.450233e+00
  1.859445e+01    1.438214e+00
  1.862620e+01    1.452513e+00
  1.865796e+01    1.444755e+00
  1.868971e+01    1.415757e+00
  1.872146e+01    1.422792e+00
  1.875321e+01    1.414428e+00
  1.878496e+01    1.413747e+00
  1.881671e+01    1.431591e+00
  1.884846e+01    1.393358e+00
  1.888021e+01    1.397854e+00
  1.891196e+01    1.372860e+00
  1.894372e+01    1.366786e+00
  1.897547e+01    1.400288e+00
  1.900722e+01    1.392057e+00
  1.903897e+01    1.356302e+00
  1.907072e+01    1.397476e+00
  1.910247e+01    1.372743e+00
  1.913422e+01    1.376268e+00
  1.916597e+01    1.381151e+00
  1.919773e+01    1.373175e+00
  1.922948e+01    1.351755e+00
  1.926123e+01    1.377671e+00
  1.929298e+01    1.319189e+00
  1.932473e+01    1.368152e+00
  1.935648e+01    1.341882e+00
  1.938823e+01    1.361078e+00
  1.941998e+01    1.354629e+00
  1.945173e+01    1.319468e+00
  1.948349e+01    1.341732e+00
  1.951524e+01    1.338631e+00
  1.954699e+01    1.321074e+00
  1.957874e+01    1.355489e+00
  1.961049e+01    1.332591e+00
  1.964224e+01    1.340810e+00
  1.967399e+01    1.343550e+00
  1.970574e+01    1.337449e+00
  1.973749e+01    1.319377e+00
  1.976925e+01    1.319503e+00
  1.980100e+01    1.307731e+00
  1.983275e+01    1.296758e+00
  1.986450e+01    1.303524e+00
  1.989625e+01    1.274653e+00
  1.992800e+01    1.326926e+00
  1.995975e+01    1.288903e+00
  1.999150e+01    1.287049e+00
  2.002325e+01    1.283210e+00
  2.005501e+01    1.290770e+00
  2.008676e+01    1.301872e+00
  2.011851e+01    1.260983e+00
  2.015026e+01    1.247187e+00
  2.018201e+01    1.271612e+00
  2.021376e+01    1.291538e+00
  2.024551e+01    1.265254e+00
  2.027726e+01    1.264582e+00
  2.030902e+01    1.259802e+00
  2.034077e+01    1.247296e+00
  2.037252e+01    1.271376e+00
  2.040427e+01    1.237165e+00
  2.043602e+01    1.232793e+00
  2.046777e+01    1.260672e+00
  2.049952e+01    1.264129e+00
  2.053127e+01    1.247408e+00
  2.056302e+01    1.233165e+00
  2.059478e+01    1.258295e+00
  2.062653e+01    1.218117e+00
  2.065828e+01    1.253145e+00
  2.069003e+01    1.247164e+00
  2.072178e+01    1.211242e+00
  2.075353e+01    1.231271e+00
  2.078528e+01    1.225917e+00
  2.081703e+01    1.200878e+00
  2.084878e+01    1.207381e+00
  2.088054e+01    1.234759e+00
  2.091229e+01    1.217880e+00
  2.094404e+01    1.238909e+00
  2.097579e+01    1.230507e+00
  2.100754e+01    1.199029e+00
  2.103929e+01    1.202393e+00
  2.107104e+01    1.203679e+00
  2.110279e+01    1.203669e+00
  2.113455e+01    1.228948e+00
  2.116630e+01    1.262885e+00
  2.119805e+01    1.246686e+00
  2.122980e+01    1.256303e+00
  2.126155e+01    1.221315e+00
  2.129330e+01    1.262498e+00
  2.132505e+01    1.282392e+00
  2.135680e+01    1.283720e+00
  2.138855e+01    1.323708e+00
  2.142031e+01    1.330488e+00
  2.145206e+01    1.364394e+00
  2.148381e+01    1.396595e+00
  2.151556e+01    1.436686e+00
  2.154731e+01    1.543632e+00
  2.157906e+01    1.595780e+00
  2.161081e+01    1.762792e+00
  2.164256e+01    1.999714e+00
  2.167431e+01    2.307366e+00
  2.170607e+01    2.759039e+00
  2.173782e+01    3.531283e+00
  2.176957e+01    4.577375e+00
  2.180132e+01    5.898149e+00
  2.183307e+01    7.246030e+00
  2.186482e+01    8.461991e+00
  2.189657e+01    8.922649e+00
  2.192832e+01    8.342027e+00
  2.196007e+01    6.641126e+00
  2.199183e+01    4.894159e+00
  2.202358e+01    3.678836e+00
  2.205533e+01    2.823859e+00
  2.208708e+01    2.342138e+00
  2.211883e+01    2.013747e+00
  2.215058e+01    1.750458e+00
  2.218233e+01    1.611312e+00
  2.221408e+01    1.499439e+00
  2.224584e+01    1.404256e+00
  2.227759e+01    1.344584e+00
  2.230934e+01    1.293920e+00
  2.234109e+01    1.246385e+00
  2.237284e+01    1.229667e+00
  2.240459e+01    1.208425e+00
  2.243634e+01    1.168272e+00
  2.246809e+01    1.166845e+00
  2.249984e+01    1.156721e+00
  2.253160e+01    1.116354e+00
  2.256335e+01    1.112587e+00
  2.259510e+01    1.135001e+00
  2.262685e+01    1.106289e+00
  2.265860e+01    1.110381e+00
  2.269035e+01    1.071152e+00
  2.272210e+01    1.069788e+00
  2.275385e+01    1.089327e+00
  2.278560e+01    1.058608e+00
  2.281736e+01    1.062966e+00
  2.284911e+01    1.045354e+00
  2.288086e+01    1.070050e+00
  2.291261e+01    1.040244e+00
  2.294436e+01    1.012993e+00
  2.297611e+01    1.047323e+00
  2.300786e+01    1.014455e+00
  2.303961e+01    1.023916e+00
  2.307137e+01    1.020772e+00
  2.310312e+01    1.000381e+00
  2.313487e+01    1.001366e+00
  2.316662e+01    9.937295e-01
  2.319837e+01    1.008581e+00
  2.323012e+01    1.009170e+00
  2.326187e+01    9.788785e-01
  2.329362e+01    9.869741e-01
  2.332537e+01    9.786332e-01
  2.335713e+01    9.915277e-01
  2.338888e+01    9.857394e-01
  2.342063e+01    1.006866e+00
  2.345238e+01    9.634559e-01
  2.348413e+01    9.593920e-01
  2.351588e+01    9.583697e-01
  2.354763e+01    9.535347e-01
  2.357938e+01    9.819260e-01
  2.361113e+01    9.599763e-01
  2.364289e+01    9.757242e-01
  2.367464e+01    9.486111e-01
  2.370639e+01    9.430820e-01
  2.373814e+01    9.403688e-01
  2.376989e+01    9.301600e-01
  2.380164e+01    9.276447e-01
  2.383339e+01    9.245661e-01
  2.386514e+01    9.128529e-01
  2.389689e+01    9.048864e-01
  2.392865e+01    8.927072e-01
  2.396040e+01    8.994631e-01
  2.399215e+01    8.729892e-01
  2.402390e+01    8.934081e-01
  2.405565e+01    8.885986e-01
  2.408740e+01    8.758972e-01
  2.411915e+01    8.885955e-01
  2.415090e+01    8.839900e-01
  2.418266e+01    8.755296e-01
  2.421441e+01    8.784440e-01
  2.424616e+01    8.824074e-01
  2.427791e+01    8.882151e-01
  2.430966e+01    9.004783e-01
  2.434141e+01    8.962686e-01
  2.437316e+01    8.899925e-01
  2.440491e+01    8.923808e-01
  2.443666e+01    8.949636e-01
  2.446842e+01    9.035668e-01
  2.450017e+01    9.112323e-01
  2.453192e+01    8.832305e-01
  2.456367e+01    8.833555e-01
  2.459542e+01    9.016489e-01
  2.462717e+01    8.965524e-01
  2.465892e+01    8.864209e-01
  2.469067e+01    9.043925e-01
  2.472242e+01    8.759728e-01
  2.475418e+01    8.998179e-01
  2.478593e+01    9.188844e-01
  2.481768e+01    9.020973e-01
  2.484943e+01    9.024365e-01
  2.488118e+01    8.964656e-01
  2.491293e+01    9.248454e-01
  2.494468e+01    9.016587e-01
  2.497643e+01    8.938655e-01
  2.500819e+01    9.172258e-01
  2.503994e+01    9.164753e-01
  2.507169e+01    9.010323e-01
  2.510344e+01    9.030588e-01
  2.513519e+01    9.151964e-01
  2.516694e+01    9.373931e-01
  2.519869e+01    9.329392e-01
  2.523044e+01    9.469056e-01
  2.526219e+01    9.300145e-01
  2.529395e+01    9.381092e-01
  2.532570e+01    9.952506e-01
  2.535745e+01    9.510235e-01
  2.538920e+01    9.828243e-01
  2.542095e+01    9.925203e-01
  2.545270e+01    1.038129e+00
  2.548445e+01    1.010329e+00
  2.551620e+01    1.061254e+00
  2.554795e+01    1.136471e+00
  2.557971e+01    1.164017e+00
  2.561146e+01    1.214057e+00
  2.564321e+01    1.324147e+00
  2.567496e+01    1.403422e+00
  2.570671e+01    1.587833e+00
  2.573846e+01    1.830394e+00
  2.577021e+01    2.272841e+00
  2.580196e+01    2.828359e+00
  2.583371e+01    3.628168e+00
  2.586547e+01    4.667092e+00
  2.589722e+01    5.853473e+00
  2.592897e+01    6.804782e+00
  2.596072e+01    7.083385e+00
  2.599247e+01    6.571666e+00
  2.602422e+01    5.274519e+00
  2.605597e+01    4.014387e+00
  2.608772e+01    3.004137e+00
  2.611948e+01    2.370396e+00
  2.615123e+01    1.912693e+00
  2.618298e+01    1.708436e+00
  2.621473e+01    1.487172e+00
  2.624648e+01    1.387373e+00
  2.627823e+01    1.240365e+00
  2.630998e+01    1.180277e+00
  2.634173e+01    1.121209e+00
  2.637348e+01    1.100174e+00
  2.640524e+01    1.067093e+00
  2.643699e+01    1.024641e+00
  2.646874e+01    1.030054e+00
  2.650049e+01    1.047853e+00
  2.653224e+01    1.014500e+00
  2.656399e+01    9.837686e-01
  2.659574e+01    9.928609e-01
  2.662749e+01    9.906339e-01
  2.665924e+01    9.759832e-01
  2.669100e+01    9.965901e-01
  2.672275e+01    9.709297e-01
  2.675450e+01    9.702342e-01
  2.678625e+01    9.720532e-01
  2.681800e+01    9.975887e-01
  2.684975e+01    9.754684e-01
  2.688150e+01    9.916914e-01
  2.691325e+01    1.017679e+00
  2.694501e+01    1.020757e+00
  2.697676e+01    1.058238e+00
  2.700851e+01    1.111504e+00
  2.704026e+01    1.230592e+00
  2.707201e+01    1.289395e+00
  2.710376e+01    1.494128e+00
  2.713551e+01    1.747737e+00
  2.716726e+01    1.935871e+00
  2.719901e+01    2.116044e+00
  2.723077e+01    2.183712e+00
  2.726252e+01    1.989399e+00
  2.729427e+01    1.719429e+00
  2.732602e+01    1.469654e+00
  2.735777e+01    1.289849e+00
  2.738952e+01    1.179647e+00
  2.742127e+01    1.092212e+00
  2.745302e+01    1.028126e+00
  2.748477e+01    1.012884e+00
  2.751653e+01    9.719936e-01
  2.754828e+01    9.426801e-01
  2.758003e+01    9.477583e-01
  2.761178e+01    9.389092e-01
  2.764353e+01    9.192406e-01
  2.767528e+01    9.113500e-01
  2.770703e+01    9.169007e-01
  2.773878e+01    8.962704e-01
  2.777054e+01    8.678755e-01
  2.780229e+01    8.970192e-01
  2.783404e+01    8.764184e-01
  2.786579e+01    8.957675e-01
  2.789754e+01    8.817022e-01
  2.792929e+01    8.947177e-01
  2.796104e+01    8.688316e-01
  2.799279e+01    8.578240e-01
  2.802454e+01    8.692588e-01
  2.805630e+01    8.563884e-01
  2.808805e+01    8.691835e-01
  2.811980e+01    8.864694e-01
  2.815155e+01    8.438908e-01
  2.818330e+01    8.612169e-01
  2.821505e+01    8.323296e-01
  2.824680e+01    8.564475e-01
  2.827855e+01    8.583598e-01
  2.831030e+01    8.382873e-01
  2.834206e+01    8.262962e-01
  2.837381e+01    8.357940e-01
  2.840556e+01    8.441619e-01
  2.843731e+01    8.482940e-01
  2.846906e+01    8.615736e-01
  2.850081e+01    8.327935e-01
  2.853256e+01    8.610609e-01
  2.856431e+01    8.221344e-01
  2.859606e+01    8.457015e-01
  2.862782e+01    8.370224e-01
  2.865957e+01    8.646913e-01
  2.869132e+01    8.447962e-01
  2.872307e+01    8.315459e-01
  2.875482e+01    8.238173e-01
  2.878657e+01    8.413316e-01
  2.881832e+01    8.434258e-01
  2.885007e+01    8.351054e-01
  2.888183e+01    8.151473e-01
  2.891358e+01    8.093487e-01
  2.894533e+01    8.072355e-01
  2.897708e+01    8.043837e-01
  2.900883e+01    8.162833e-01
  2.904058e+01    8.129684e-01
  2.907233e+01    8.307481e-01
  2.910408e+01    8.236303e-01
  2.913583e+01    8.096120e-01
  2.916759e+01    8.320827e-01
  2.919934e+01    8.013653e-01
  2.923109e+01    8.042569e-01
  2.926284e+01    8.233918e-01
  2.929459e+01    8.110180e-01
  2.932634e+01    8.212499e-01
  2.935809e+01    8.144201e-01
  2.938984e+01    8.187177e-01
  2.942159e+01    8.139005e-01
  2.945335e+01    8.040841e-01
  2.948510e+01    8.132588e-01
  2.951685e+01    8.131305e-01
  2.954860e+01    8.207642e-01
  2.958035e+01    7.827061e-01
  2.961210e+01    8.019201e-01
  2.964385e+01    8.133629e-01
  2.967560e+01    7.872562e-01
  2.970736e+01    7.979771e-01
  2.973911e+01    7.864578e-01
  2.977086e+01    7.932895e-01
  2.980261e+01    8.021132e-01
  2.983436e+01    7.994096e-01
  2.986611e+01    8.053350e-01
  2.989786e+01    7.959183e-01
  2.992961e+01    8.046772e-01
  2.996136e+01    7.861279e-01
  2.999312e+01    8.031844e-01
  3.002487e+01    8.163205e-01
  3.005662e+01    7.943284e-01
  3.008837e+01    8.192285e-01
  3.012012e+01    7.826336e-01
  3.015187e+01    8.056923e-01
  3.018362e+01    7.740124e-01
  3.021537e+01    7.876152e-01
  3.024712e+01    7.859857e-01
  3.027888e+01    8.057901e-01
  3.031063e+01    7.981126e-01
  3.034238e+01    7.977400e-01
  3.037413e+01    7.832414e-01
  3.040588e+01    7.856873e-01
  3.043763e+01    7.732720e-01
  3.046938e+01    7.904573e-01
  3.050113e+01    7.841270e-01
  3.053288e+01    7.949307e-01
  3.056464e+01    7.937691e-01
  3.059639e+01    7.743928e-01
  3.062814e+01    8.030100e-01
  3.065989e+01    7.782471e-01
  3.069164e+01    7.852533e-01
  3.072339e+01    7.733284e-01
  3.075514e+01    7.747431e-01
  3.078689e+01    7.809539e-01
  3.081865e+01    7.960461e-01
  3.085040e+01    7.791616e-01
  3.088215e+01    7.719907e-01
  3.091390e+01    8.239841e-01
  3.094565e+01    7.923806e-01
  3.097740e+01    7.999159e-01
  3.100915e+01    7.891402e-01
  3.104090e+01    7.932810e-01
  3.107265e+01    8.039824e-01
  3.110441e+01    8.202867e-01
  3.113616e+01    7.674819e-01
  3.116791e+01    7.891037e-01
  3.119966e+01    7.977771e-01
  3.123141e+01    7.736899e-01
  3.126316e+01    7.925123e-01
  3.129491e+01    8.010231e-01
  3.132666e+01    8.053436e-01
  3.135841e+01    8.092158e-01
  3.139017e+01    8.229843e-01
  3.142192e+01    8.126815e-01
  3.145367e+01    8.134882e-01
  3.148542e+01    8.405145e-01
  3.151717e+01    8.491606e-01
  3.154892e+01    8.615782e-01
  3.158067e+01    8.543518e-01
  3.161242e+01    8.911496e-01
  3.164418e+01    9.398320e-01
  3.167593e+01    9.654070e-01
  3.170768e+01    1.025663e+00
  3.173943e+01    1.138768e+00
  3.177118e+01    1.243208e+00
  3.180293e+01    1.443443e+00
  3.183468e+01    1.754219e+00
  3.186643e+01    1.985896e+00
  3.189818e+01    2.095975e+00
  3.192994e+01    2.002383e+00
  3.196169e+01    1.826540e+00
  3.199344e+01    1.570073e+00
  3.202519e+01    1.326698e+00
  3.205694e+01    1.168780e+00
  3.208869e+01    1.026008e+00
  3.212044e+01    9.753303e-01
  3.215219e+01    9.433784e-01
  3.218394e+01    8.898553e-01
  3.221570e+01    8.622097e-01
  3.224745e+01    8.241811e-01
  3.227920e+01    8.420110e-01
  3.231095e+01    8.047553e-01
  3.234270e+01    8.078671e-01
  3.237445e+01    7.828450e-01
  3.240620e+01    7.889411e-01
  3.243795e+01    7.925174e-01
  3.246970e+01    7.911546e-01
  3.250146e+01    7.676543e-01
  3.253321e+01    7.828103e-01
  3.254908e+01    7.838065e-01