File: XRD/Reaction conditions/2024-07-27_003_Ru-CGO-ex_Reaction_dwell_000023_data_000111.dat
# == pyFAI calibration ==
# Distance Sample to Detector: 0.4 m
# PONI: 9.750e-02, 1.135e-01 m
# Rotations: -0.000175 0.000000 -0.000000 rad
#
# == Fit2d calibration ==
# Distance Sample-beamCenter: 400.000 mm
# Center: x=1514.000, y=1300.000 pix
# Tilt: 0.010 deg  TiltPlanRot: 0.010 deg
#
# Detector Detector	 Spline= None	 PixelSize= 7.500e-05, 7.500e-05 m
#    Detector has a mask: False
#    Detector has a dark current: False
#    detector has a flat field: False
#
# Wavelength: 6.888e-11 m
# Mask applied: user provided
# Dark current applied: False
# Flat field applied: False
# Polarization factor: 0.99
# Normalization factor: 1.0
# --> /home/myspot/data/2024_07_Rosario/Ru-CGO-ex/2024-07-27_003_Ru-CGO-ex_Reaction_dwell_000023_data_000111.dat
#       q_nm^-1             I
  2.003187e-02    0.000000e+00
  5.178302e-02    0.000000e+00
  8.353417e-02    1.546970e-01
  1.152853e-01    7.354912e-02
  1.470365e-01    0.000000e+00
  1.787876e-01    1.910486e-02
  2.105388e-01    1.457486e-02
  2.422899e-01    2.564010e-02
  2.740411e-01    6.304196e-02
  3.057922e-01    2.998219e-02
  3.375433e-01    2.719999e-02
  3.692945e-01    1.514883e-02
  4.010456e-01    3.945722e-02
  4.327968e-01    3.725496e-02
  4.645479e-01    3.054112e-02
  4.962991e-01    2.366543e-02
  5.280502e-01    4.468348e-02
  5.598014e-01    3.903540e-02
  5.915525e-01    3.682648e-02
  6.233037e-01    4.932883e-02
  6.550548e-01    3.524749e-02
  6.868060e-01    4.813820e-02
  7.185571e-01    5.128412e-02
  7.503083e-01    6.822067e-02
  7.820594e-01    1.066211e-01
  8.138106e-01    2.542405e-01
  8.455617e-01    3.407572e-01
  8.773129e-01    4.340183e-01
  9.090640e-01    7.206885e-01
  9.408152e-01    8.109443e-01
  9.725663e-01    1.004306e+00
  1.004317e+00    1.307093e+00
  1.036069e+00    1.340381e+00
  1.067820e+00    1.468135e+00
  1.099571e+00    1.491072e+00
  1.131322e+00    1.644152e+00
  1.163073e+00    1.711292e+00
  1.194824e+00    1.896244e+00
  1.226575e+00    2.176712e+00
  1.258327e+00    2.617342e+00
  1.290078e+00    2.683420e+00
  1.321829e+00    2.623133e+00
  1.353580e+00    2.772908e+00
  1.385331e+00    2.630155e+00
  1.417082e+00    2.930711e+00
  1.448834e+00    2.981189e+00
  1.480585e+00    3.046072e+00
  1.512336e+00    3.196384e+00
  1.544087e+00    3.221703e+00
  1.575838e+00    3.151691e+00
  1.607589e+00    3.137806e+00
  1.639340e+00    3.103987e+00
  1.671092e+00    3.201363e+00
  1.702843e+00    3.101260e+00
  1.734594e+00    3.168871e+00
  1.766345e+00    3.202448e+00
  1.798096e+00    3.132447e+00
  1.829847e+00    3.143175e+00
  1.861598e+00    3.170060e+00
  1.893350e+00    3.193654e+00
  1.925101e+00    3.063179e+00
  1.956852e+00    3.106005e+00
  1.988603e+00    3.067068e+00
  2.020354e+00    3.204053e+00
  2.052105e+00    3.054003e+00
  2.083856e+00    2.956274e+00
  2.115608e+00    3.087250e+00
  2.147359e+00    3.118427e+00
  2.179110e+00    3.005006e+00
  2.210861e+00    3.173144e+00
  2.242612e+00    3.177146e+00
  2.274363e+00    3.124144e+00
  2.306115e+00    3.156506e+00
  2.337866e+00    3.143410e+00
  2.369617e+00    3.122830e+00
  2.401368e+00    3.168829e+00
  2.433119e+00    3.198059e+00
  2.464870e+00    3.254535e+00
  2.496621e+00    3.117310e+00
  2.528373e+00    3.251487e+00
  2.560124e+00    3.145370e+00
  2.591875e+00    3.177007e+00
  2.623626e+00    3.259858e+00
  2.655377e+00    3.153256e+00
  2.687128e+00    3.245572e+00
  2.718879e+00    3.322468e+00
  2.750631e+00    3.363280e+00
  2.782382e+00    3.265986e+00
  2.814133e+00    3.347946e+00
  2.845884e+00    3.297452e+00
  2.877635e+00    3.290580e+00
  2.909386e+00    3.367576e+00
  2.941137e+00    3.266452e+00
  2.972889e+00    3.372223e+00
  3.004640e+00    3.327381e+00
  3.036391e+00    3.413497e+00
  3.068142e+00    3.312531e+00
  3.099893e+00    3.277210e+00
  3.131644e+00    3.385175e+00
  3.163395e+00    3.402804e+00
  3.195147e+00    3.340888e+00
  3.226898e+00    3.436851e+00
  3.258649e+00    3.457648e+00
  3.290400e+00    3.423077e+00
  3.322151e+00    3.497613e+00
  3.353902e+00    3.393328e+00
  3.385654e+00    3.384429e+00
  3.417405e+00    3.425149e+00
  3.449156e+00    3.417441e+00
  3.480907e+00    3.349633e+00
  3.512658e+00    3.451071e+00
  3.544409e+00    3.556399e+00
  3.576160e+00    3.367301e+00
  3.607912e+00    3.448344e+00
  3.639663e+00    3.454338e+00
  3.671414e+00    3.492391e+00
  3.703165e+00    3.323605e+00
  3.734916e+00    3.462766e+00
  3.766667e+00    3.630490e+00
  3.798418e+00    3.519089e+00
  3.830170e+00    3.509720e+00
  3.861921e+00    3.560822e+00
  3.893672e+00    3.534968e+00
  3.925423e+00    3.448142e+00
  3.957174e+00    3.549407e+00
  3.988925e+00    3.447621e+00
  4.020676e+00    3.571185e+00
  4.052428e+00    3.490694e+00
  4.084179e+00    3.536195e+00
  4.115930e+00    3.574681e+00
  4.147681e+00    3.599699e+00
  4.179432e+00    3.502943e+00
  4.211183e+00    3.567664e+00
  4.242935e+00    3.623034e+00
  4.274686e+00    3.649266e+00
  4.306437e+00    3.576445e+00
  4.338188e+00    3.572453e+00
  4.369939e+00    3.482882e+00
  4.401690e+00    3.595427e+00
  4.433441e+00    3.576886e+00
  4.465193e+00    3.615658e+00
  4.496944e+00    3.603876e+00
  4.528695e+00    3.609951e+00
  4.560446e+00    3.595452e+00
  4.592197e+00    3.581416e+00
  4.623948e+00    3.687349e+00
  4.655699e+00    3.643048e+00
  4.687451e+00    3.593523e+00
  4.719202e+00    3.694432e+00
  4.750953e+00    3.645915e+00
  4.782704e+00    3.562886e+00
  4.814455e+00    3.601611e+00
  4.846206e+00    3.674596e+00
  4.877957e+00    3.646505e+00
  4.909709e+00    3.713520e+00
  4.941460e+00    3.683616e+00
  4.973211e+00    3.705118e+00
  5.004962e+00    3.601453e+00
  5.036713e+00    3.613002e+00
  5.068464e+00    3.697200e+00
  5.100216e+00    3.645641e+00
  5.131967e+00    3.671346e+00
  5.163718e+00    3.708848e+00
  5.195469e+00    3.652566e+00
  5.227220e+00    3.762872e+00
  5.258971e+00    3.649998e+00
  5.290722e+00    3.657344e+00
  5.322474e+00    3.673455e+00
  5.354225e+00    3.646128e+00
  5.385976e+00    3.665117e+00
  5.417727e+00    3.680114e+00
  5.449478e+00    3.613068e+00
  5.481229e+00    3.642808e+00
  5.512980e+00    3.574244e+00
  5.544732e+00    3.704807e+00
  5.576483e+00    3.688437e+00
  5.608234e+00    3.608023e+00
  5.639985e+00    3.554440e+00
  5.671736e+00    3.547733e+00
  5.703487e+00    3.577238e+00
  5.735238e+00    3.577170e+00
  5.766990e+00    3.528265e+00
  5.798741e+00    3.525361e+00
  5.830492e+00    3.464006e+00
  5.862243e+00    3.611946e+00
  5.893994e+00    3.524768e+00
  5.925745e+00    3.444196e+00
  5.957497e+00    3.492860e+00
  5.989248e+00    3.518923e+00
  6.020999e+00    3.573137e+00
  6.052750e+00    3.498565e+00
  6.084501e+00    3.543037e+00
  6.116252e+00    3.659465e+00
  6.148003e+00    3.515654e+00
  6.179755e+00    3.510375e+00
  6.211506e+00    3.643157e+00
  6.243257e+00    3.630200e+00
  6.275008e+00    3.556152e+00
  6.306759e+00    3.544061e+00
  6.338510e+00    3.559743e+00
  6.370261e+00    3.604668e+00
  6.402013e+00    3.519950e+00
  6.433764e+00    3.485003e+00
  6.465515e+00    3.562585e+00
  6.497266e+00    3.507553e+00
  6.529017e+00    3.470199e+00
  6.560768e+00    3.556876e+00
  6.592519e+00    3.541966e+00
  6.624271e+00    3.516019e+00
  6.656022e+00    3.588508e+00
  6.687773e+00    3.526303e+00
  6.719524e+00    3.728803e+00
  6.751275e+00    3.671022e+00
  6.783026e+00    3.584713e+00
  6.814777e+00    3.575278e+00
  6.846529e+00    3.522676e+00
  6.878280e+00    3.589036e+00
  6.910031e+00    3.610140e+00
  6.941782e+00    3.487269e+00
  6.973533e+00    3.475641e+00
  7.005284e+00    3.583460e+00
  7.037036e+00    3.525151e+00
  7.068787e+00    3.505137e+00
  7.100538e+00    3.574266e+00
  7.132289e+00    3.523816e+00
  7.164040e+00    3.498874e+00
  7.195791e+00    3.512074e+00
  7.227542e+00    3.582196e+00
  7.259294e+00    3.526835e+00
  7.291045e+00    3.524368e+00
  7.322796e+00    3.531127e+00
  7.354547e+00    3.458250e+00
  7.386298e+00    3.462294e+00
  7.418049e+00    3.476737e+00
  7.449800e+00    3.491815e+00
  7.481552e+00    3.513040e+00
  7.513303e+00    3.524068e+00
  7.545054e+00    3.427169e+00
  7.576805e+00    3.506487e+00
  7.608556e+00    3.411939e+00
  7.640307e+00    3.515919e+00
  7.672058e+00    3.452114e+00
  7.703810e+00    3.493860e+00
  7.735561e+00    3.440337e+00
  7.767312e+00    3.463418e+00
  7.799063e+00    3.488622e+00
  7.830814e+00    3.415582e+00
  7.862565e+00    3.388013e+00
  7.894317e+00    3.461841e+00
  7.926068e+00    3.362561e+00
  7.957819e+00    3.413341e+00
  7.989570e+00    3.423079e+00
  8.021321e+00    3.443152e+00
  8.053072e+00    3.463279e+00
  8.084823e+00    3.452832e+00
  8.116575e+00    3.478178e+00
  8.148326e+00    3.539506e+00
  8.180077e+00    3.401916e+00
  8.211828e+00    3.521266e+00
  8.243579e+00    3.456923e+00
  8.275330e+00    3.396486e+00
  8.307081e+00    3.396928e+00
  8.338833e+00    3.442255e+00
  8.370584e+00    3.374787e+00
  8.402335e+00    3.380778e+00
  8.434086e+00    3.376769e+00
  8.465837e+00    3.340021e+00
  8.497588e+00    3.418565e+00
  8.529339e+00    3.383272e+00
  8.561091e+00    3.385445e+00
  8.592842e+00    3.412136e+00
  8.624593e+00    3.410352e+00
  8.656344e+00    3.338133e+00
  8.688095e+00    3.346332e+00
  8.719846e+00    3.297936e+00
  8.751598e+00    3.261597e+00
  8.783349e+00    3.298172e+00
  8.815100e+00    3.311587e+00
  8.846851e+00    3.227524e+00
  8.878602e+00    3.303668e+00
  8.910353e+00    3.382859e+00
  8.942104e+00    3.287945e+00
  8.973856e+00    3.240221e+00
  9.005607e+00    3.241252e+00
  9.037358e+00    3.280822e+00
  9.069109e+00    3.318105e+00
  9.100860e+00    3.276953e+00
  9.132611e+00    3.258494e+00
  9.164362e+00    3.199320e+00
  9.196114e+00    3.307721e+00
  9.227865e+00    3.302383e+00
  9.259616e+00    3.300834e+00
  9.291367e+00    3.199623e+00
  9.323118e+00    3.235734e+00
  9.354869e+00    3.219670e+00
  9.386620e+00    3.292758e+00
  9.418372e+00    3.291224e+00
  9.450123e+00    3.236674e+00
  9.481874e+00    3.302648e+00
  9.513625e+00    3.181815e+00
  9.545376e+00    3.236555e+00
  9.577127e+00    3.225595e+00
  9.608878e+00    3.155328e+00
  9.640630e+00    3.180014e+00
  9.672381e+00    3.181628e+00
  9.704132e+00    3.215852e+00
  9.735883e+00    3.163285e+00
  9.767634e+00    3.169782e+00
  9.799385e+00    3.133490e+00
  9.831137e+00    3.189184e+00
  9.862888e+00    3.073711e+00
  9.894639e+00    3.142874e+00
  9.926390e+00    3.134101e+00
  9.958141e+00    3.152476e+00
  9.989892e+00    3.100710e+00
  1.002164e+01    3.193967e+00
  1.005339e+01    3.091049e+00
  1.008515e+01    3.121589e+00
  1.011690e+01    3.128136e+00
  1.014865e+01    3.094218e+00
  1.018040e+01    3.074118e+00
  1.021215e+01    3.096459e+00
  1.024390e+01    3.041115e+00
  1.027565e+01    3.103316e+00
  1.030740e+01    3.079466e+00
  1.033915e+01    3.060208e+00
  1.037091e+01    3.082018e+00
  1.040266e+01    3.022172e+00
  1.043441e+01    3.030169e+00
  1.046616e+01    3.024895e+00
  1.049791e+01    3.043460e+00
  1.052966e+01    3.014538e+00
  1.056141e+01    3.005732e+00
  1.059316e+01    3.048023e+00
  1.062492e+01    2.972164e+00
  1.065667e+01    2.994081e+00
  1.068842e+01    2.996678e+00
  1.072017e+01    2.976732e+00
  1.075192e+01    2.994956e+00
  1.078367e+01    2.972377e+00
  1.081542e+01    2.974758e+00
  1.084717e+01    2.968425e+00
  1.087892e+01    2.918871e+00
  1.091068e+01    2.895734e+00
  1.094243e+01    2.863103e+00
  1.097418e+01    2.854836e+00
  1.100593e+01    2.864020e+00
  1.103768e+01    2.857882e+00
  1.106943e+01    2.854102e+00
  1.110118e+01    2.866932e+00
  1.113293e+01    2.878762e+00
  1.116468e+01    2.810400e+00
  1.119644e+01    2.876853e+00
  1.122819e+01    2.854892e+00
  1.125994e+01    2.841357e+00
  1.129169e+01    2.830766e+00
  1.132344e+01    2.852252e+00
  1.135519e+01    2.850492e+00
  1.138694e+01    2.824949e+00
  1.141869e+01    2.814017e+00
  1.145045e+01    2.833534e+00
  1.148220e+01    2.793305e+00
  1.151395e+01    2.777070e+00
  1.154570e+01    2.773541e+00
  1.157745e+01    2.765789e+00
  1.160920e+01    2.781365e+00
  1.164095e+01    2.787425e+00
  1.167270e+01    2.741741e+00
  1.170445e+01    2.791657e+00
  1.173621e+01    2.757643e+00
  1.176796e+01    2.754789e+00
  1.179971e+01    2.739130e+00
  1.183146e+01    2.788870e+00
  1.186321e+01    2.719574e+00
  1.189496e+01    2.721642e+00
  1.192671e+01    2.684807e+00
  1.195846e+01    2.715045e+00
  1.199021e+01    2.703990e+00
  1.202197e+01    2.732598e+00
  1.205372e+01    2.698846e+00
  1.208547e+01    2.690851e+00
  1.211722e+01    2.707868e+00
  1.214897e+01    2.695904e+00
  1.218072e+01    2.705781e+00
  1.221247e+01    2.729935e+00
  1.224422e+01    2.709017e+00
  1.227597e+01    2.748177e+00
  1.230773e+01    2.714186e+00
  1.233948e+01    2.698642e+00
  1.237123e+01    2.686244e+00
  1.240298e+01    2.707451e+00
  1.243473e+01    2.735793e+00
  1.246648e+01    2.704998e+00
  1.249823e+01    2.695949e+00
  1.252998e+01    2.724630e+00
  1.256174e+01    2.708325e+00
  1.259349e+01    2.793627e+00
  1.262524e+01    2.784086e+00
  1.265699e+01    2.787615e+00
  1.268874e+01    2.837881e+00
  1.272049e+01    2.849937e+00
  1.275224e+01    2.873332e+00
  1.278399e+01    2.980910e+00
  1.281574e+01    3.094580e+00
  1.284750e+01    3.234547e+00
  1.287925e+01    3.377556e+00
  1.291100e+01    3.647684e+00
  1.294275e+01    4.088759e+00
  1.297450e+01    4.779244e+00
  1.300625e+01    6.022758e+00
  1.303800e+01    7.878885e+00
  1.306975e+01    1.038825e+01
  1.310150e+01    1.279923e+01
  1.313326e+01    1.495366e+01
  1.316501e+01    1.645712e+01
  1.319676e+01    1.555360e+01
  1.322851e+01    1.236644e+01
  1.326026e+01    9.085824e+00
  1.329201e+01    6.753709e+00
  1.332376e+01    5.258414e+00
  1.335551e+01    4.446123e+00
  1.338727e+01    3.875018e+00
  1.341902e+01    3.535702e+00
  1.345077e+01    3.221938e+00
  1.348252e+01    3.047581e+00
  1.351427e+01    2.886366e+00
  1.354602e+01    2.830253e+00
  1.357777e+01    2.771442e+00
  1.360952e+01    2.656479e+00
  1.364127e+01    2.640146e+00
  1.367303e+01    2.571183e+00
  1.370478e+01    2.576541e+00
  1.373653e+01    2.526696e+00
  1.376828e+01    2.521466e+00
  1.380003e+01    2.487493e+00
  1.383178e+01    2.459417e+00
  1.386353e+01    2.455159e+00
  1.389528e+01    2.407289e+00
  1.392703e+01    2.422092e+00
  1.395879e+01    2.371388e+00
  1.399054e+01    2.404118e+00
  1.402229e+01    2.348490e+00
  1.405404e+01    2.362684e+00
  1.408579e+01    2.413357e+00
  1.411754e+01    2.370890e+00
  1.414929e+01    2.329667e+00
  1.418104e+01    2.347293e+00
  1.421279e+01    2.238732e+00
  1.424455e+01    2.280428e+00
  1.427630e+01    2.293720e+00
  1.430805e+01    2.240639e+00
  1.433980e+01    2.294966e+00
  1.437155e+01    2.257991e+00
  1.440330e+01    2.253590e+00
  1.443505e+01    2.201160e+00
  1.446680e+01    2.237410e+00
  1.449856e+01    2.243408e+00
  1.453031e+01    2.250255e+00
  1.456206e+01    2.243640e+00
  1.459381e+01    2.251937e+00
  1.462556e+01    2.206373e+00
  1.465731e+01    2.192825e+00
  1.468906e+01    2.195449e+00
  1.472081e+01    2.161292e+00
  1.475256e+01    2.220076e+00
  1.478432e+01    2.203566e+00
  1.481607e+01    2.217597e+00
  1.484782e+01    2.242185e+00
  1.487957e+01    2.212267e+00
  1.491132e+01    2.270753e+00
  1.494307e+01    2.261654e+00
  1.497482e+01    2.354039e+00
  1.500657e+01    2.446850e+00
  1.503832e+01    2.591998e+00
  1.507008e+01    2.836956e+00
  1.510183e+01    3.252790e+00
  1.513358e+01    3.800068e+00
  1.516533e+01    4.600304e+00
  1.519708e+01    5.155894e+00
  1.522883e+01    5.704840e+00
  1.526058e+01    5.821574e+00
  1.529233e+01    5.451264e+00
  1.532409e+01    4.636337e+00
  1.535584e+01    3.780193e+00
  1.538759e+01    3.122597e+00
  1.541934e+01    2.762373e+00
  1.545109e+01    2.481028e+00
  1.548284e+01    2.362645e+00
  1.551459e+01    2.243708e+00
  1.554634e+01    2.212071e+00
  1.557809e+01    2.125388e+00
  1.560985e+01    2.057043e+00
  1.564160e+01    2.024123e+00
  1.567335e+01    2.024296e+00
  1.570510e+01    1.988471e+00
  1.573685e+01    1.966652e+00
  1.576860e+01    2.018957e+00
  1.580035e+01    1.952678e+00
  1.583210e+01    1.935835e+00
  1.586385e+01    1.939472e+00
  1.589561e+01    1.914850e+00
  1.592736e+01    1.886341e+00
  1.595911e+01    1.878075e+00
  1.599086e+01    1.910093e+00
  1.602261e+01    1.882540e+00
  1.605436e+01    1.841831e+00
  1.608611e+01    1.850103e+00
  1.611786e+01    1.841457e+00
  1.614961e+01    1.866245e+00
  1.618137e+01    1.844818e+00
  1.621312e+01    1.820786e+00
  1.624487e+01    1.811251e+00
  1.627662e+01    1.766832e+00
  1.630837e+01    1.797645e+00
  1.634012e+01    1.800281e+00
  1.637187e+01    1.767747e+00
  1.640362e+01    1.789740e+00
  1.643538e+01    1.790599e+00
  1.646713e+01    1.737874e+00
  1.649888e+01    1.769808e+00
  1.653063e+01    1.783636e+00
  1.656238e+01    1.739338e+00
  1.659413e+01    1.738697e+00
  1.662588e+01    1.750292e+00
  1.665763e+01    1.740426e+00
  1.668938e+01    1.701648e+00
  1.672114e+01    1.710399e+00
  1.675289e+01    1.724851e+00
  1.678464e+01    1.725690e+00
  1.681639e+01    1.768491e+00
  1.684814e+01    1.657185e+00
  1.687989e+01    1.681766e+00
  1.691164e+01    1.662855e+00
  1.694339e+01    1.708146e+00
  1.697514e+01    1.688001e+00
  1.700690e+01    1.661712e+00
  1.703865e+01    1.654061e+00
  1.707040e+01    1.612691e+00
  1.710215e+01    1.617867e+00
  1.713390e+01    1.617854e+00
  1.716565e+01    1.649777e+00
  1.719740e+01    1.631267e+00
  1.722915e+01    1.629146e+00
  1.726091e+01    1.590678e+00
  1.729266e+01    1.617830e+00
  1.732441e+01    1.613582e+00
  1.735616e+01    1.612759e+00
  1.738791e+01    1.574178e+00
  1.741966e+01    1.589895e+00
  1.745141e+01    1.611629e+00
  1.748316e+01    1.595521e+00
  1.751491e+01    1.603184e+00
  1.754667e+01    1.565943e+00
  1.757842e+01    1.582875e+00
  1.761017e+01    1.569514e+00
  1.764192e+01    1.563981e+00
  1.767367e+01    1.574269e+00
  1.770542e+01    1.535400e+00
  1.773717e+01    1.586643e+00
  1.776892e+01    1.551086e+00
  1.780067e+01    1.518676e+00
  1.783243e+01    1.519996e+00
  1.786418e+01    1.522517e+00
  1.789593e+01    1.543084e+00
  1.792768e+01    1.547118e+00
  1.795943e+01    1.496369e+00
  1.799118e+01    1.533376e+00
  1.802293e+01    1.525458e+00
  1.805468e+01    1.504699e+00
  1.808643e+01    1.511125e+00
  1.811819e+01    1.487145e+00
  1.814994e+01    1.504870e+00
  1.818169e+01    1.487458e+00
  1.821344e+01    1.506684e+00
  1.824519e+01    1.465237e+00
  1.827694e+01    1.455093e+00
  1.830869e+01    1.479700e+00
  1.834044e+01    1.478933e+00
  1.837220e+01    1.484892e+00
  1.840395e+01    1.444260e+00
  1.843570e+01    1.451534e+00
  1.846745e+01    1.456774e+00
  1.849920e+01    1.413988e+00
  1.853095e+01    1.438551e+00
  1.856270e+01    1.438026e+00
  1.859445e+01    1.396401e+00
  1.862620e+01    1.438477e+00
  1.865796e+01    1.463232e+00
  1.868971e+01    1.435737e+00
  1.872146e+01    1.438125e+00
  1.875321e+01    1.439387e+00
  1.878496e+01    1.399182e+00
  1.881671e+01    1.417965e+00
  1.884846e+01    1.390138e+00
  1.888021e+01    1.400429e+00
  1.891196e+01    1.369257e+00
  1.894372e+01    1.405745e+00
  1.897547e+01    1.414455e+00
  1.900722e+01    1.400181e+00
  1.903897e+01    1.387934e+00
  1.907072e+01    1.371411e+00
  1.910247e+01    1.395342e+00
  1.913422e+01    1.370569e+00
  1.916597e+01    1.371926e+00
  1.919773e+01    1.371595e+00
  1.922948e+01    1.368633e+00
  1.926123e+01    1.376108e+00
  1.929298e+01    1.373989e+00
  1.932473e+01    1.346694e+00
  1.935648e+01    1.330456e+00
  1.938823e+01    1.348611e+00
  1.941998e+01    1.344224e+00
  1.945173e+01    1.316389e+00
  1.948349e+01    1.342640e+00
  1.951524e+01    1.322309e+00
  1.954699e+01    1.341045e+00
  1.957874e+01    1.324665e+00
  1.961049e+01    1.317880e+00
  1.964224e+01    1.333803e+00
  1.967399e+01    1.305276e+00
  1.970574e+01    1.305243e+00
  1.973749e+01    1.302272e+00
  1.976925e+01    1.327569e+00
  1.980100e+01    1.296970e+00
  1.983275e+01    1.264402e+00
  1.986450e+01    1.295328e+00
  1.989625e+01    1.288182e+00
  1.992800e+01    1.298165e+00
  1.995975e+01    1.277487e+00
  1.999150e+01    1.293377e+00
  2.002325e+01    1.279165e+00
  2.005501e+01    1.295860e+00
  2.008676e+01    1.266394e+00
  2.011851e+01    1.304530e+00
  2.015026e+01    1.280081e+00
  2.018201e+01    1.277152e+00
  2.021376e+01    1.251306e+00
  2.024551e+01    1.276836e+00
  2.027726e+01    1.246492e+00
  2.030902e+01    1.271176e+00
  2.034077e+01    1.288665e+00
  2.037252e+01    1.273842e+00
  2.040427e+01    1.234074e+00
  2.043602e+01    1.270226e+00
  2.046777e+01    1.246945e+00
  2.049952e+01    1.229254e+00
  2.053127e+01    1.242180e+00
  2.056302e+01    1.250572e+00
  2.059478e+01    1.234812e+00
  2.062653e+01    1.225732e+00
  2.065828e+01    1.252258e+00
  2.069003e+01    1.237685e+00
  2.072178e+01    1.226728e+00
  2.075353e+01    1.237867e+00
  2.078528e+01    1.237793e+00
  2.081703e+01    1.237739e+00
  2.084878e+01    1.209737e+00
  2.088054e+01    1.232812e+00
  2.091229e+01    1.236839e+00
  2.094404e+01    1.213432e+00
  2.097579e+01    1.212926e+00
  2.100754e+01    1.230157e+00
  2.103929e+01    1.210892e+00
  2.107104e+01    1.234058e+00
  2.110279e+01    1.236901e+00
  2.113455e+01    1.241734e+00
  2.116630e+01    1.253807e+00
  2.119805e+01    1.229659e+00
  2.122980e+01    1.219261e+00
  2.126155e+01    1.233059e+00
  2.129330e+01    1.268785e+00
  2.132505e+01    1.302731e+00
  2.135680e+01    1.251101e+00
  2.138855e+01    1.294888e+00
  2.142031e+01    1.369448e+00
  2.145206e+01    1.339164e+00
  2.148381e+01    1.391656e+00
  2.151556e+01    1.463379e+00
  2.154731e+01    1.524395e+00
  2.157906e+01    1.611037e+00
  2.161081e+01    1.756347e+00
  2.164256e+01    1.997867e+00
  2.167431e+01    2.349773e+00
  2.170607e+01    2.799066e+00
  2.173782e+01    3.596322e+00
  2.176957e+01    4.652580e+00
  2.180132e+01    5.990342e+00
  2.183307e+01    7.351573e+00
  2.186482e+01    8.463061e+00
  2.189657e+01    8.940272e+00
  2.192832e+01    8.214499e+00
  2.196007e+01    6.414739e+00
  2.199183e+01    4.813138e+00
  2.202358e+01    3.615481e+00
  2.205533e+01    2.806324e+00
  2.208708e+01    2.335605e+00
  2.211883e+01    1.982596e+00
  2.215058e+01    1.804149e+00
  2.218233e+01    1.604852e+00
  2.221408e+01    1.504765e+00
  2.224584e+01    1.389262e+00
  2.227759e+01    1.329942e+00
  2.230934e+01    1.317973e+00
  2.234109e+01    1.265559e+00
  2.237284e+01    1.224715e+00
  2.240459e+01    1.205231e+00
  2.243634e+01    1.179828e+00
  2.246809e+01    1.162407e+00
  2.249984e+01    1.142106e+00
  2.253160e+01    1.156346e+00
  2.256335e+01    1.116197e+00
  2.259510e+01    1.117327e+00
  2.262685e+01    1.093816e+00
  2.265860e+01    1.088732e+00
  2.269035e+01    1.074178e+00
  2.272210e+01    1.066845e+00
  2.275385e+01    1.087851e+00
  2.278560e+01    1.058196e+00
  2.281736e+01    1.052562e+00
  2.284911e+01    1.041774e+00
  2.288086e+01    1.048841e+00
  2.291261e+01    1.045144e+00
  2.294436e+01    1.036792e+00
  2.297611e+01    1.020137e+00
  2.300786e+01    1.023762e+00
  2.303961e+01    1.029398e+00
  2.307137e+01    1.009653e+00
  2.310312e+01    9.964197e-01
  2.313487e+01    1.017784e+00
  2.316662e+01    1.016405e+00
  2.319837e+01    9.744198e-01
  2.323012e+01    1.000559e+00
  2.326187e+01    1.007010e+00
  2.329362e+01    9.891031e-01
  2.332537e+01    9.889115e-01
  2.335713e+01    9.787251e-01
  2.338888e+01    1.004697e+00
  2.342063e+01    9.737622e-01
  2.345238e+01    9.649608e-01
  2.348413e+01    9.734495e-01
  2.351588e+01    9.682860e-01
  2.354763e+01    9.515251e-01
  2.357938e+01    9.621403e-01
  2.361113e+01    9.683486e-01
  2.364289e+01    9.577386e-01
  2.367464e+01    9.230422e-01
  2.370639e+01    9.461852e-01
  2.373814e+01    9.404893e-01
  2.376989e+01    9.313625e-01
  2.380164e+01    9.181260e-01
  2.383339e+01    9.064483e-01
  2.386514e+01    8.983527e-01
  2.389689e+01    9.333454e-01
  2.392865e+01    9.210739e-01
  2.396040e+01    8.909141e-01
  2.399215e+01    9.080735e-01
  2.402390e+01    9.003215e-01
  2.405565e+01    8.856873e-01
  2.408740e+01    8.785405e-01
  2.411915e+01    9.002146e-01
  2.415090e+01    8.766982e-01
  2.418266e+01    8.798226e-01
  2.421441e+01    8.699038e-01
  2.424616e+01    8.866106e-01
  2.427791e+01    8.977609e-01
  2.430966e+01    8.942844e-01
  2.434141e+01    9.160804e-01
  2.437316e+01    8.999333e-01
  2.440491e+01    8.888154e-01
  2.443666e+01    9.087511e-01
  2.446842e+01    8.957722e-01
  2.450017e+01    9.092157e-01
  2.453192e+01    9.033295e-01
  2.456367e+01    8.930488e-01
  2.459542e+01    8.769754e-01
  2.462717e+01    8.946326e-01
  2.465892e+01    8.895222e-01
  2.469067e+01    8.915380e-01
  2.472242e+01    8.905613e-01
  2.475418e+01    8.944952e-01
  2.478593e+01    8.961889e-01
  2.481768e+01    9.071601e-01
  2.484943e+01    8.851352e-01
  2.488118e+01    8.915067e-01
  2.491293e+01    8.838118e-01
  2.494468e+01    8.912308e-01
  2.497643e+01    9.109050e-01
  2.500819e+01    8.868049e-01
  2.503994e+01    9.092228e-01
  2.507169e+01    9.091918e-01
  2.510344e+01    9.065207e-01
  2.513519e+01    8.964506e-01
  2.516694e+01    9.161436e-01
  2.519869e+01    9.377517e-01
  2.523044e+01    9.340375e-01
  2.526219e+01    9.466754e-01
  2.529395e+01    9.495372e-01
  2.532570e+01    9.727061e-01
  2.535745e+01    9.681077e-01
  2.538920e+01    9.747683e-01
  2.542095e+01    1.035889e+00
  2.545270e+01    1.035001e+00
  2.548445e+01    1.065113e+00
  2.551620e+01    1.068906e+00
  2.554795e+01    1.110613e+00
  2.557971e+01    1.173354e+00
  2.561146e+01    1.233620e+00
  2.564321e+01    1.317617e+00
  2.567496e+01    1.441860e+00
  2.570671e+01    1.623724e+00
  2.573846e+01    1.884013e+00
  2.577021e+01    2.293048e+00
  2.580196e+01    2.902649e+00
  2.583371e+01    3.735927e+00
  2.586547e+01    4.858719e+00
  2.589722e+01    5.941856e+00
  2.592897e+01    6.818067e+00
  2.596072e+01    7.218244e+00
  2.599247e+01    6.463803e+00
  2.602422e+01    5.179220e+00
  2.605597e+01    3.984669e+00
  2.608772e+01    2.986163e+00
  2.611948e+01    2.350513e+00
  2.615123e+01    1.937766e+00
  2.618298e+01    1.676426e+00
  2.621473e+01    1.480115e+00
  2.624648e+01    1.345054e+00
  2.627823e+01    1.253949e+00
  2.630998e+01    1.158471e+00
  2.634173e+01    1.152845e+00
  2.637348e+01    1.099725e+00
  2.640524e+01    1.043630e+00
  2.643699e+01    1.051851e+00
  2.646874e+01    1.043643e+00
  2.650049e+01    1.011643e+00
  2.653224e+01    9.828330e-01
  2.656399e+01    1.012100e+00
  2.659574e+01    9.816775e-01
  2.662749e+01    9.878181e-01
  2.665924e+01    9.781087e-01
  2.669100e+01    9.820523e-01
  2.672275e+01    9.591733e-01
  2.675450e+01    9.760452e-01
  2.678625e+01    9.672205e-01
  2.681800e+01    9.653081e-01
  2.684975e+01    9.756235e-01
  2.688150e+01    9.819651e-01
  2.691325e+01    1.022218e+00
  2.694501e+01    1.038703e+00
  2.697676e+01    1.088103e+00
  2.700851e+01    1.120425e+00
  2.704026e+01    1.210011e+00
  2.707201e+01    1.356335e+00
  2.710376e+01    1.511714e+00
  2.713551e+01    1.758112e+00
  2.716726e+01    1.985050e+00
  2.719901e+01    2.162262e+00
  2.723077e+01    2.161788e+00
  2.726252e+01    1.973122e+00
  2.729427e+01    1.682226e+00
  2.732602e+01    1.440040e+00
  2.735777e+01    1.267706e+00
  2.738952e+01    1.159754e+00
  2.742127e+01    1.101167e+00
  2.745302e+01    1.052543e+00
  2.748477e+01    9.951823e-01
  2.751653e+01    9.811074e-01
  2.754828e+01    9.843269e-01
  2.758003e+01    9.243775e-01
  2.761178e+01    9.418278e-01
  2.764353e+01    9.130656e-01
  2.767528e+01    9.204251e-01
  2.770703e+01    8.951036e-01
  2.773878e+01    8.860686e-01
  2.777054e+01    8.985472e-01
  2.780229e+01    8.822917e-01
  2.783404e+01    8.565485e-01
  2.786579e+01    8.944403e-01
  2.789754e+01    9.036349e-01
  2.792929e+01    8.736427e-01
  2.796104e+01    8.671657e-01
  2.799279e+01    8.834110e-01
  2.802454e+01    9.171646e-01
  2.805630e+01    8.588738e-01
  2.808805e+01    8.754433e-01
  2.811980e+01    8.649872e-01
  2.815155e+01    8.534215e-01
  2.818330e+01    8.403211e-01
  2.821505e+01    8.487926e-01
  2.824680e+01    8.400159e-01
  2.827855e+01    8.654835e-01
  2.831030e+01    8.439344e-01
  2.834206e+01    8.184991e-01
  2.837381e+01    8.418420e-01
  2.840556e+01    8.460123e-01
  2.843731e+01    8.529519e-01
  2.846906e+01    8.666480e-01
  2.850081e+01    8.365246e-01
  2.853256e+01    8.346214e-01
  2.856431e+01    8.287529e-01
  2.859606e+01    8.414539e-01
  2.862782e+01    8.257097e-01
  2.865957e+01    8.227772e-01
  2.869132e+01    8.306737e-01
  2.872307e+01    8.384372e-01
  2.875482e+01    8.137414e-01
  2.878657e+01    8.388533e-01
  2.881832e+01    8.365881e-01
  2.885007e+01    8.292426e-01
  2.888183e+01    8.425578e-01
  2.891358e+01    8.421397e-01
  2.894533e+01    8.096626e-01
  2.897708e+01    8.305180e-01
  2.900883e+01    8.273799e-01
  2.904058e+01    8.037454e-01
  2.907233e+01    8.212240e-01
  2.910408e+01    8.205922e-01
  2.913583e+01    8.221335e-01
  2.916759e+01    8.289269e-01
  2.919934e+01    7.973049e-01
  2.923109e+01    8.256704e-01
  2.926284e+01    8.102651e-01
  2.929459e+01    7.992117e-01
  2.932634e+01    8.038660e-01
  2.935809e+01    8.179249e-01
  2.938984e+01    8.268026e-01
  2.942159e+01    8.373985e-01
  2.945335e+01    7.883571e-01
  2.948510e+01    8.015375e-01
  2.951685e+01    7.931704e-01
  2.954860e+01    8.024629e-01
  2.958035e+01    8.129246e-01
  2.961210e+01    8.057234e-01
  2.964385e+01    8.018188e-01
  2.967560e+01    8.044376e-01
  2.970736e+01    8.001229e-01
  2.973911e+01    7.848684e-01
  2.977086e+01    8.066543e-01
  2.980261e+01    8.081213e-01
  2.983436e+01    7.872215e-01
  2.986611e+01    7.964220e-01
  2.989786e+01    7.877696e-01
  2.992961e+01    8.062047e-01
  2.996136e+01    7.543510e-01
  2.999312e+01    7.918851e-01
  3.002487e+01    8.061909e-01
  3.005662e+01    8.188407e-01
  3.008837e+01    8.049118e-01
  3.012012e+01    7.956233e-01
  3.015187e+01    7.885876e-01
  3.018362e+01    7.920827e-01
  3.021537e+01    7.749008e-01
  3.024712e+01    7.623408e-01
  3.027888e+01    7.837356e-01
  3.031063e+01    7.853582e-01
  3.034238e+01    7.824704e-01
  3.037413e+01    7.824604e-01
  3.040588e+01    7.999538e-01
  3.043763e+01    7.714021e-01
  3.046938e+01    8.018934e-01
  3.050113e+01    7.708414e-01
  3.053288e+01    7.863749e-01
  3.056464e+01    7.890496e-01
  3.059639e+01    7.703062e-01
  3.062814e+01    7.831260e-01
  3.065989e+01    7.573786e-01
  3.069164e+01    7.951860e-01
  3.072339e+01    7.981053e-01
  3.075514e+01    7.695273e-01
  3.078689e+01    7.771075e-01
  3.081865e+01    7.812738e-01
  3.085040e+01    7.828066e-01
  3.088215e+01    7.836136e-01
  3.091390e+01    7.721329e-01
  3.094565e+01    7.942060e-01
  3.097740e+01    7.609109e-01
  3.100915e+01    8.022453e-01
  3.104090e+01    7.838882e-01
  3.107265e+01    7.774565e-01
  3.110441e+01    8.139327e-01
  3.113616e+01    7.998242e-01
  3.116791e+01    8.213282e-01
  3.119966e+01    7.975814e-01
  3.123141e+01    7.887249e-01
  3.126316e+01    8.143140e-01
  3.129491e+01    8.160315e-01
  3.132666e+01    7.808143e-01
  3.135841e+01    8.171139e-01
  3.139017e+01    8.229774e-01
  3.142192e+01    8.109886e-01
  3.145367e+01    7.966559e-01
  3.148542e+01    8.356875e-01
  3.151717e+01    8.454102e-01
  3.154892e+01    8.720537e-01
  3.158067e+01    8.765561e-01
  3.161242e+01    9.058424e-01
  3.164418e+01    9.188933e-01
  3.167593e+01    9.542722e-01
  3.170768e+01    1.033756e+00
  3.173943e+01    1.126626e+00
  3.177118e+01    1.261873e+00
  3.180293e+01    1.463323e+00
  3.183468e+01    1.748068e+00
  3.186643e+01    2.010120e+00
  3.189818e+01    2.124246e+00
  3.192994e+01    2.016735e+00
  3.196169e+01    1.813139e+00
  3.199344e+01    1.546969e+00
  3.202519e+01    1.304037e+00
  3.205694e+01    1.156562e+00
  3.208869e+01    1.050115e+00
  3.212044e+01    9.810277e-01
  3.215219e+01    9.168627e-01
  3.218394e+01    9.067878e-01
  3.221570e+01    8.344653e-01
  3.224745e+01    8.458993e-01
  3.227920e+01    8.185641e-01
  3.231095e+01    8.124120e-01
  3.234270e+01    8.216460e-01
  3.237445e+01    7.945321e-01
  3.240620e+01    7.936810e-01
  3.243795e+01    7.796004e-01
  3.246970e+01    7.824093e-01
  3.250146e+01    7.717732e-01
  3.253321e+01    7.643713e-01
  3.254908e+01    7.934032e-01