File: XRD/Reaction conditions/2024-07-27_003_Ru-CGO-ex_Reaction_dwell_000023_data_000160.dat
# == pyFAI calibration ==
# Distance Sample to Detector: 0.4 m
# PONI: 9.750e-02, 1.135e-01 m
# Rotations: -0.000175 0.000000 -0.000000 rad
#
# == Fit2d calibration ==
# Distance Sample-beamCenter: 400.000 mm
# Center: x=1514.000, y=1300.000 pix
# Tilt: 0.010 deg  TiltPlanRot: 0.010 deg
#
# Detector Detector	 Spline= None	 PixelSize= 7.500e-05, 7.500e-05 m
#    Detector has a mask: False
#    Detector has a dark current: False
#    detector has a flat field: False
#
# Wavelength: 6.888e-11 m
# Mask applied: user provided
# Dark current applied: False
# Flat field applied: False
# Polarization factor: 0.99
# Normalization factor: 1.0
# --> /home/myspot/data/2024_07_Rosario/Ru-CGO-ex/2024-07-27_003_Ru-CGO-ex_Reaction_dwell_000023_data_000160.dat
#       q_nm^-1             I
  2.003187e-02    0.000000e+00
  5.178302e-02    1.504038e-01
  8.353417e-02    3.720976e-01
  1.152853e-01    3.617050e-02
  1.470365e-01    1.301396e-02
  1.787876e-01    7.046156e-02
  2.105388e-01    5.190888e-02
  2.422899e-01    5.417816e-02
  2.740411e-01    5.151414e-02
  3.057922e-01    3.325991e-02
  3.375433e-01    9.607295e-02
  3.692945e-01    4.536062e-02
  4.010456e-01    2.450954e-02
  4.327968e-01    4.253744e-02
  4.645479e-01    9.134736e-02
  4.962991e-01    7.081749e-02
  5.280502e-01    4.613955e-02
  5.598014e-01    4.025304e-02
  5.915525e-01    5.740973e-02
  6.233037e-01    2.548917e-02
  6.550548e-01    4.078143e-02
  6.868060e-01    6.668001e-02
  7.185571e-01    6.649666e-02
  7.503083e-01    7.046936e-02
  7.820594e-01    1.281598e-01
  8.138106e-01    2.501797e-01
  8.455617e-01    3.346292e-01
  8.773129e-01    5.004674e-01
  9.090640e-01    6.555253e-01
  9.408152e-01    8.662329e-01
  9.725663e-01    1.050007e+00
  1.004317e+00    1.131150e+00
  1.036069e+00    1.300351e+00
  1.067820e+00    1.465745e+00
  1.099571e+00    1.481855e+00
  1.131322e+00    1.575216e+00
  1.163073e+00    1.703571e+00
  1.194824e+00    1.896949e+00
  1.226575e+00    2.253912e+00
  1.258327e+00    2.329816e+00
  1.290078e+00    2.640043e+00
  1.321829e+00    2.653215e+00
  1.353580e+00    2.726764e+00
  1.385331e+00    2.878527e+00
  1.417082e+00    2.845139e+00
  1.448834e+00    3.021145e+00
  1.480585e+00    3.043664e+00
  1.512336e+00    3.140464e+00
  1.544087e+00    3.237795e+00
  1.575838e+00    3.179530e+00
  1.607589e+00    3.156932e+00
  1.639340e+00    3.144515e+00
  1.671092e+00    3.064272e+00
  1.702843e+00    3.094525e+00
  1.734594e+00    3.142293e+00
  1.766345e+00    3.167505e+00
  1.798096e+00    3.023225e+00
  1.829847e+00    3.065306e+00
  1.861598e+00    3.070468e+00
  1.893350e+00    3.047214e+00
  1.925101e+00    3.072165e+00
  1.956852e+00    3.105599e+00
  1.988603e+00    3.061189e+00
  2.020354e+00    3.090966e+00
  2.052105e+00    3.157960e+00
  2.083856e+00    3.031696e+00
  2.115608e+00    3.040211e+00
  2.147359e+00    3.068854e+00
  2.179110e+00    3.137111e+00
  2.210861e+00    3.070545e+00
  2.242612e+00    3.057787e+00
  2.274363e+00    3.052768e+00
  2.306115e+00    3.185663e+00
  2.337866e+00    3.032058e+00
  2.369617e+00    3.109791e+00
  2.401368e+00    3.116308e+00
  2.433119e+00    3.223873e+00
  2.464870e+00    3.264210e+00
  2.496621e+00    3.120618e+00
  2.528373e+00    3.174633e+00
  2.560124e+00    3.257193e+00
  2.591875e+00    3.233095e+00
  2.623626e+00    3.145138e+00
  2.655377e+00    3.145347e+00
  2.687128e+00    3.177692e+00
  2.718879e+00    3.245161e+00
  2.750631e+00    3.148360e+00
  2.782382e+00    3.224533e+00
  2.814133e+00    3.269797e+00
  2.845884e+00    3.235700e+00
  2.877635e+00    3.279976e+00
  2.909386e+00    3.336745e+00
  2.941137e+00    3.291272e+00
  2.972889e+00    3.255713e+00
  3.004640e+00    3.326034e+00
  3.036391e+00    3.346921e+00
  3.068142e+00    3.273691e+00
  3.099893e+00    3.286021e+00
  3.131644e+00    3.280859e+00
  3.163395e+00    3.369925e+00
  3.195147e+00    3.373597e+00
  3.226898e+00    3.384149e+00
  3.258649e+00    3.354823e+00
  3.290400e+00    3.400940e+00
  3.322151e+00    3.351627e+00
  3.353902e+00    3.397993e+00
  3.385654e+00    3.361921e+00
  3.417405e+00    3.482311e+00
  3.449156e+00    3.416932e+00
  3.480907e+00    3.410793e+00
  3.512658e+00    3.366674e+00
  3.544409e+00    3.382326e+00
  3.576160e+00    3.412537e+00
  3.607912e+00    3.501818e+00
  3.639663e+00    3.469387e+00
  3.671414e+00    3.424809e+00
  3.703165e+00    3.356111e+00
  3.734916e+00    3.455531e+00
  3.766667e+00    3.393969e+00
  3.798418e+00    3.484575e+00
  3.830170e+00    3.379731e+00
  3.861921e+00    3.395722e+00
  3.893672e+00    3.437112e+00
  3.925423e+00    3.444153e+00
  3.957174e+00    3.515209e+00
  3.988925e+00    3.408579e+00
  4.020676e+00    3.511543e+00
  4.052428e+00    3.664695e+00
  4.084179e+00    3.544415e+00
  4.115930e+00    3.458482e+00
  4.147681e+00    3.480574e+00
  4.179432e+00    3.550079e+00
  4.211183e+00    3.496848e+00
  4.242935e+00    3.551739e+00
  4.274686e+00    3.478716e+00
  4.306437e+00    3.448891e+00
  4.338188e+00    3.594830e+00
  4.369939e+00    3.512823e+00
  4.401690e+00    3.456700e+00
  4.433441e+00    3.617528e+00
  4.465193e+00    3.522617e+00
  4.496944e+00    3.533797e+00
  4.528695e+00    3.538242e+00
  4.560446e+00    3.651122e+00
  4.592197e+00    3.520162e+00
  4.623948e+00    3.713108e+00
  4.655699e+00    3.628509e+00
  4.687451e+00    3.565508e+00
  4.719202e+00    3.575640e+00
  4.750953e+00    3.556765e+00
  4.782704e+00    3.560018e+00
  4.814455e+00    3.600003e+00
  4.846206e+00    3.615255e+00
  4.877957e+00    3.643721e+00
  4.909709e+00    3.617449e+00
  4.941460e+00    3.622983e+00
  4.973211e+00    3.600488e+00
  5.004962e+00    3.659632e+00
  5.036713e+00    3.652024e+00
  5.068464e+00    3.690424e+00
  5.100216e+00    3.633483e+00
  5.131967e+00    3.584719e+00
  5.163718e+00    3.665425e+00
  5.195469e+00    3.609802e+00
  5.227220e+00    3.598755e+00
  5.258971e+00    3.595119e+00
  5.290722e+00    3.635523e+00
  5.322474e+00    3.645272e+00
  5.354225e+00    3.689508e+00
  5.385976e+00    3.649083e+00
  5.417727e+00    3.617588e+00
  5.449478e+00    3.587523e+00
  5.481229e+00    3.560522e+00
  5.512980e+00    3.534842e+00
  5.544732e+00    3.561774e+00
  5.576483e+00    3.471654e+00
  5.608234e+00    3.579873e+00
  5.639985e+00    3.522618e+00
  5.671736e+00    3.569598e+00
  5.703487e+00    3.514811e+00
  5.735238e+00    3.425803e+00
  5.766990e+00    3.619011e+00
  5.798741e+00    3.600883e+00
  5.830492e+00    3.522630e+00
  5.862243e+00    3.603115e+00
  5.893994e+00    3.488698e+00
  5.925745e+00    3.517348e+00
  5.957497e+00    3.484422e+00
  5.989248e+00    3.470371e+00
  6.020999e+00    3.546406e+00
  6.052750e+00    3.545326e+00
  6.084501e+00    3.538333e+00
  6.116252e+00    3.530971e+00
  6.148003e+00    3.475053e+00
  6.179755e+00    3.439738e+00
  6.211506e+00    3.683939e+00
  6.243257e+00    3.532921e+00
  6.275008e+00    3.529108e+00
  6.306759e+00    3.483675e+00
  6.338510e+00    3.461129e+00
  6.370261e+00    3.502882e+00
  6.402013e+00    3.594385e+00
  6.433764e+00    3.514475e+00
  6.465515e+00    3.538153e+00
  6.497266e+00    3.478548e+00
  6.529017e+00    3.477933e+00
  6.560768e+00    3.565093e+00
  6.592519e+00    3.543819e+00
  6.624271e+00    3.577772e+00
  6.656022e+00    3.535498e+00
  6.687773e+00    3.455515e+00
  6.719524e+00    3.494592e+00
  6.751275e+00    3.526426e+00
  6.783026e+00    3.514288e+00
  6.814777e+00    3.539420e+00
  6.846529e+00    3.452902e+00
  6.878280e+00    3.475064e+00
  6.910031e+00    3.573019e+00
  6.941782e+00    3.566445e+00
  6.973533e+00    3.561931e+00
  7.005284e+00    3.542444e+00
  7.037036e+00    3.509595e+00
  7.068787e+00    3.504472e+00
  7.100538e+00    3.455571e+00
  7.132289e+00    3.517848e+00
  7.164040e+00    3.448550e+00
  7.195791e+00    3.506069e+00
  7.227542e+00    3.498556e+00
  7.259294e+00    3.469402e+00
  7.291045e+00    3.492426e+00
  7.322796e+00    3.470719e+00
  7.354547e+00    3.483944e+00
  7.386298e+00    3.388942e+00
  7.418049e+00    3.500077e+00
  7.449800e+00    3.434456e+00
  7.481552e+00    3.571036e+00
  7.513303e+00    3.461269e+00
  7.545054e+00    3.488537e+00
  7.576805e+00    3.422279e+00
  7.608556e+00    3.406522e+00
  7.640307e+00    3.448107e+00
  7.672058e+00    3.424078e+00
  7.703810e+00    3.510744e+00
  7.735561e+00    3.546430e+00
  7.767312e+00    3.464036e+00
  7.799063e+00    3.445402e+00
  7.830814e+00    3.438087e+00
  7.862565e+00    3.409325e+00
  7.894317e+00    3.383119e+00
  7.926068e+00    3.471865e+00
  7.957819e+00    3.434568e+00
  7.989570e+00    3.385067e+00
  8.021321e+00    3.408643e+00
  8.053072e+00    3.335659e+00
  8.084823e+00    3.442877e+00
  8.116575e+00    3.516035e+00
  8.148326e+00    3.417136e+00
  8.180077e+00    3.456337e+00
  8.211828e+00    3.442040e+00
  8.243579e+00    3.462493e+00
  8.275330e+00    3.420569e+00
  8.307081e+00    3.412741e+00
  8.338833e+00    3.403610e+00
  8.370584e+00    3.302242e+00
  8.402335e+00    3.315137e+00
  8.434086e+00    3.322084e+00
  8.465837e+00    3.299721e+00
  8.497588e+00    3.324500e+00
  8.529339e+00    3.324141e+00
  8.561091e+00    3.363897e+00
  8.592842e+00    3.404086e+00
  8.624593e+00    3.275005e+00
  8.656344e+00    3.310944e+00
  8.688095e+00    3.294996e+00
  8.719846e+00    3.295276e+00
  8.751598e+00    3.311345e+00
  8.783349e+00    3.299922e+00
  8.815100e+00    3.261112e+00
  8.846851e+00    3.323503e+00
  8.878602e+00    3.285365e+00
  8.910353e+00    3.211266e+00
  8.942104e+00    3.266155e+00
  8.973856e+00    3.328281e+00
  9.005607e+00    3.229959e+00
  9.037358e+00    3.238088e+00
  9.069109e+00    3.187281e+00
  9.100860e+00    3.237950e+00
  9.132611e+00    3.283107e+00
  9.164362e+00    3.212870e+00
  9.196114e+00    3.204047e+00
  9.227865e+00    3.200423e+00
  9.259616e+00    3.151431e+00
  9.291367e+00    3.165374e+00
  9.323118e+00    3.220517e+00
  9.354869e+00    3.237926e+00
  9.386620e+00    3.153111e+00
  9.418372e+00    3.144711e+00
  9.450123e+00    3.237322e+00
  9.481874e+00    3.177043e+00
  9.513625e+00    3.151061e+00
  9.545376e+00    3.212543e+00
  9.577127e+00    3.233533e+00
  9.608878e+00    3.231588e+00
  9.640630e+00    3.242958e+00
  9.672381e+00    3.188719e+00
  9.704132e+00    3.180729e+00
  9.735883e+00    3.187884e+00
  9.767634e+00    3.114700e+00
  9.799385e+00    3.163265e+00
  9.831137e+00    3.067380e+00
  9.862888e+00    3.171774e+00
  9.894639e+00    3.121883e+00
  9.926390e+00    3.115449e+00
  9.958141e+00    3.128429e+00
  9.989892e+00    3.097760e+00
  1.002164e+01    3.099491e+00
  1.005339e+01    3.156788e+00
  1.008515e+01    3.081078e+00
  1.011690e+01    3.075316e+00
  1.014865e+01    3.079029e+00
  1.018040e+01    3.015517e+00
  1.021215e+01    3.026487e+00
  1.024390e+01    3.059491e+00
  1.027565e+01    3.022428e+00
  1.030740e+01    2.995846e+00
  1.033915e+01    3.025105e+00
  1.037091e+01    2.960448e+00
  1.040266e+01    3.061888e+00
  1.043441e+01    3.005495e+00
  1.046616e+01    3.062566e+00
  1.049791e+01    2.998146e+00
  1.052966e+01    2.996653e+00
  1.056141e+01    3.012314e+00
  1.059316e+01    2.957820e+00
  1.062492e+01    2.999757e+00
  1.065667e+01    2.945490e+00
  1.068842e+01    2.988669e+00
  1.072017e+01    2.999628e+00
  1.075192e+01    2.968400e+00
  1.078367e+01    2.900818e+00
  1.081542e+01    2.906580e+00
  1.084717e+01    2.921648e+00
  1.087892e+01    2.860018e+00
  1.091068e+01    2.926991e+00
  1.094243e+01    2.937289e+00
  1.097418e+01    2.896899e+00
  1.100593e+01    2.889078e+00
  1.103768e+01    2.845311e+00
  1.106943e+01    2.868118e+00
  1.110118e+01    2.885538e+00
  1.113293e+01    2.846093e+00
  1.116468e+01    2.832579e+00
  1.119644e+01    2.928256e+00
  1.122819e+01    2.765521e+00
  1.125994e+01    2.882177e+00
  1.129169e+01    2.830434e+00
  1.132344e+01    2.801614e+00
  1.135519e+01    2.797488e+00
  1.138694e+01    2.764953e+00
  1.141869e+01    2.812381e+00
  1.145045e+01    2.767973e+00
  1.148220e+01    2.775620e+00
  1.151395e+01    2.758158e+00
  1.154570e+01    2.775038e+00
  1.157745e+01    2.766412e+00
  1.160920e+01    2.772026e+00
  1.164095e+01    2.794864e+00
  1.167270e+01    2.759685e+00
  1.170445e+01    2.764809e+00
  1.173621e+01    2.720819e+00
  1.176796e+01    2.737046e+00
  1.179971e+01    2.739182e+00
  1.183146e+01    2.740826e+00
  1.186321e+01    2.695940e+00
  1.189496e+01    2.722806e+00
  1.192671e+01    2.718231e+00
  1.195846e+01    2.757965e+00
  1.199021e+01    2.724384e+00
  1.202197e+01    2.696859e+00
  1.205372e+01    2.690239e+00
  1.208547e+01    2.700953e+00
  1.211722e+01    2.643458e+00
  1.214897e+01    2.694442e+00
  1.218072e+01    2.684995e+00
  1.221247e+01    2.690861e+00
  1.224422e+01    2.665680e+00
  1.227597e+01    2.682405e+00
  1.230773e+01    2.701885e+00
  1.233948e+01    2.673072e+00
  1.237123e+01    2.696299e+00
  1.240298e+01    2.668225e+00
  1.243473e+01    2.700352e+00
  1.246648e+01    2.724393e+00
  1.249823e+01    2.680288e+00
  1.252998e+01    2.702449e+00
  1.256174e+01    2.687260e+00
  1.259349e+01    2.758586e+00
  1.262524e+01    2.754651e+00
  1.265699e+01    2.796444e+00
  1.268874e+01    2.787844e+00
  1.272049e+01    2.833985e+00
  1.275224e+01    2.867194e+00
  1.278399e+01    2.934610e+00
  1.281574e+01    3.077960e+00
  1.284750e+01    3.156008e+00
  1.287925e+01    3.299756e+00
  1.291100e+01    3.633201e+00
  1.294275e+01    4.068702e+00
  1.297450e+01    4.678071e+00
  1.300625e+01    5.822200e+00
  1.303800e+01    7.611143e+00
  1.306975e+01    1.001453e+01
  1.310150e+01    1.251296e+01
  1.313326e+01    1.462413e+01
  1.316501e+01    1.600976e+01
  1.319676e+01    1.548615e+01
  1.322851e+01    1.243369e+01
  1.326026e+01    9.136201e+00
  1.329201e+01    6.749797e+00
  1.332376e+01    5.294668e+00
  1.335551e+01    4.450153e+00
  1.338727e+01    3.814435e+00
  1.341902e+01    3.500676e+00
  1.345077e+01    3.245142e+00
  1.348252e+01    2.942737e+00
  1.351427e+01    2.894087e+00
  1.354602e+01    2.781680e+00
  1.357777e+01    2.695153e+00
  1.360952e+01    2.636025e+00
  1.364127e+01    2.625079e+00
  1.367303e+01    2.542349e+00
  1.370478e+01    2.552095e+00
  1.373653e+01    2.490541e+00
  1.376828e+01    2.458602e+00
  1.380003e+01    2.463043e+00
  1.383178e+01    2.408434e+00
  1.386353e+01    2.399424e+00
  1.389528e+01    2.421173e+00
  1.392703e+01    2.383455e+00
  1.395879e+01    2.368722e+00
  1.399054e+01    2.394457e+00
  1.402229e+01    2.341191e+00
  1.405404e+01    2.354408e+00
  1.408579e+01    2.334450e+00
  1.411754e+01    2.323858e+00
  1.414929e+01    2.334615e+00
  1.418104e+01    2.299867e+00
  1.421279e+01    2.275492e+00
  1.424455e+01    2.232949e+00
  1.427630e+01    2.269549e+00
  1.430805e+01    2.301522e+00
  1.433980e+01    2.282462e+00
  1.437155e+01    2.230660e+00
  1.440330e+01    2.223024e+00
  1.443505e+01    2.203598e+00
  1.446680e+01    2.229918e+00
  1.449856e+01    2.210015e+00
  1.453031e+01    2.163709e+00
  1.456206e+01    2.198245e+00
  1.459381e+01    2.144537e+00
  1.462556e+01    2.204319e+00
  1.465731e+01    2.219259e+00
  1.468906e+01    2.209388e+00
  1.472081e+01    2.126154e+00
  1.475256e+01    2.176606e+00
  1.478432e+01    2.196096e+00
  1.481607e+01    2.169982e+00
  1.484782e+01    2.212803e+00
  1.487957e+01    2.208157e+00
  1.491132e+01    2.218116e+00
  1.494307e+01    2.283367e+00
  1.497482e+01    2.313211e+00
  1.500657e+01    2.470712e+00
  1.503832e+01    2.568663e+00
  1.507008e+01    2.798875e+00
  1.510183e+01    3.155193e+00
  1.513358e+01    3.772777e+00
  1.516533e+01    4.470839e+00
  1.519708e+01    5.113253e+00
  1.522883e+01    5.515583e+00
  1.526058e+01    5.740532e+00
  1.529233e+01    5.479716e+00
  1.532409e+01    4.671974e+00
  1.535584e+01    3.735882e+00
  1.538759e+01    3.172864e+00
  1.541934e+01    2.729454e+00
  1.545109e+01    2.518106e+00
  1.548284e+01    2.341266e+00
  1.551459e+01    2.234232e+00
  1.554634e+01    2.165103e+00
  1.557809e+01    2.115164e+00
  1.560985e+01    2.065336e+00
  1.564160e+01    2.023791e+00
  1.567335e+01    2.025590e+00
  1.570510e+01    1.978678e+00
  1.573685e+01    1.972242e+00
  1.576860e+01    1.942042e+00
  1.580035e+01    1.926543e+00
  1.583210e+01    1.897926e+00
  1.586385e+01    1.906380e+00
  1.589561e+01    1.924983e+00
  1.592736e+01    1.905666e+00
  1.595911e+01    1.842527e+00
  1.599086e+01    1.878115e+00
  1.602261e+01    1.875078e+00
  1.605436e+01    1.847825e+00
  1.608611e+01    1.831170e+00
  1.611786e+01    1.852363e+00
  1.614961e+01    1.817162e+00
  1.618137e+01    1.826321e+00
  1.621312e+01    1.792716e+00
  1.624487e+01    1.793643e+00
  1.627662e+01    1.792656e+00
  1.630837e+01    1.792516e+00
  1.634012e+01    1.765987e+00
  1.637187e+01    1.814831e+00
  1.640362e+01    1.783662e+00
  1.643538e+01    1.746793e+00
  1.646713e+01    1.749501e+00
  1.649888e+01    1.743883e+00
  1.653063e+01    1.705395e+00
  1.656238e+01    1.763938e+00
  1.659413e+01    1.766541e+00
  1.662588e+01    1.714007e+00
  1.665763e+01    1.739957e+00
  1.668938e+01    1.762268e+00
  1.672114e+01    1.689057e+00
  1.675289e+01    1.698678e+00
  1.678464e+01    1.702713e+00
  1.681639e+01    1.706974e+00
  1.684814e+01    1.730256e+00
  1.687989e+01    1.660859e+00
  1.691164e+01    1.669774e+00
  1.694339e+01    1.656875e+00
  1.697514e+01    1.662214e+00
  1.700690e+01    1.674707e+00
  1.703865e+01    1.644527e+00
  1.707040e+01    1.664248e+00
  1.710215e+01    1.622683e+00
  1.713390e+01    1.644566e+00
  1.716565e+01    1.629950e+00
  1.719740e+01    1.618364e+00
  1.722915e+01    1.639992e+00
  1.726091e+01    1.641300e+00
  1.729266e+01    1.615072e+00
  1.732441e+01    1.642712e+00
  1.735616e+01    1.602465e+00
  1.738791e+01    1.599382e+00
  1.741966e+01    1.572005e+00
  1.745141e+01    1.589304e+00
  1.748316e+01    1.541531e+00
  1.751491e+01    1.580087e+00
  1.754667e+01    1.589248e+00
  1.757842e+01    1.551961e+00
  1.761017e+01    1.549546e+00
  1.764192e+01    1.553823e+00
  1.767367e+01    1.555113e+00
  1.770542e+01    1.527571e+00
  1.773717e+01    1.522324e+00
  1.776892e+01    1.535347e+00
  1.780067e+01    1.510769e+00
  1.783243e+01    1.517646e+00
  1.786418e+01    1.531586e+00
  1.789593e+01    1.520565e+00
  1.792768e+01    1.521759e+00
  1.795943e+01    1.482334e+00
  1.799118e+01    1.498574e+00
  1.802293e+01    1.483229e+00
  1.805468e+01    1.505486e+00
  1.808643e+01    1.460907e+00
  1.811819e+01    1.481524e+00
  1.814994e+01    1.490245e+00
  1.818169e+01    1.481774e+00
  1.821344e+01    1.439970e+00
  1.824519e+01    1.478264e+00
  1.827694e+01    1.455888e+00
  1.830869e+01    1.457684e+00
  1.834044e+01    1.480970e+00
  1.837220e+01    1.435341e+00
  1.840395e+01    1.446041e+00
  1.843570e+01    1.465032e+00
  1.846745e+01    1.421090e+00
  1.849920e+01    1.459128e+00
  1.853095e+01    1.440216e+00
  1.856270e+01    1.431003e+00
  1.859445e+01    1.430210e+00
  1.862620e+01    1.466468e+00
  1.865796e+01    1.407376e+00
  1.868971e+01    1.392331e+00
  1.872146e+01    1.383823e+00
  1.875321e+01    1.412643e+00
  1.878496e+01    1.409077e+00
  1.881671e+01    1.359472e+00
  1.884846e+01    1.393654e+00
  1.888021e+01    1.399346e+00
  1.891196e+01    1.399979e+00
  1.894372e+01    1.391676e+00
  1.897547e+01    1.377552e+00
  1.900722e+01    1.363278e+00
  1.903897e+01    1.376102e+00
  1.907072e+01    1.376254e+00
  1.910247e+01    1.363846e+00
  1.913422e+01    1.347310e+00
  1.916597e+01    1.345415e+00
  1.919773e+01    1.349716e+00
  1.922948e+01    1.362280e+00
  1.926123e+01    1.323698e+00
  1.929298e+01    1.334059e+00
  1.932473e+01    1.357683e+00
  1.935648e+01    1.328762e+00
  1.938823e+01    1.365284e+00
  1.941998e+01    1.348342e+00
  1.945173e+01    1.316083e+00
  1.948349e+01    1.325305e+00
  1.951524e+01    1.287155e+00
  1.954699e+01    1.324967e+00
  1.957874e+01    1.310221e+00
  1.961049e+01    1.320150e+00
  1.964224e+01    1.338525e+00
  1.967399e+01    1.307775e+00
  1.970574e+01    1.286987e+00
  1.973749e+01    1.320436e+00
  1.976925e+01    1.301473e+00
  1.980100e+01    1.303975e+00
  1.983275e+01    1.311909e+00
  1.986450e+01    1.290408e+00
  1.989625e+01    1.303370e+00
  1.992800e+01    1.304859e+00
  1.995975e+01    1.258320e+00
  1.999150e+01    1.290605e+00
  2.002325e+01    1.266891e+00
  2.005501e+01    1.285594e+00
  2.008676e+01    1.261020e+00
  2.011851e+01    1.251022e+00
  2.015026e+01    1.264055e+00
  2.018201e+01    1.260117e+00
  2.021376e+01    1.268933e+00
  2.024551e+01    1.271712e+00
  2.027726e+01    1.246745e+00
  2.030902e+01    1.239899e+00
  2.034077e+01    1.236377e+00
  2.037252e+01    1.227397e+00
  2.040427e+01    1.255796e+00
  2.043602e+01    1.227904e+00
  2.046777e+01    1.198063e+00
  2.049952e+01    1.221350e+00
  2.053127e+01    1.219079e+00
  2.056302e+01    1.236012e+00
  2.059478e+01    1.228094e+00
  2.062653e+01    1.218674e+00
  2.065828e+01    1.216821e+00
  2.069003e+01    1.233120e+00
  2.072178e+01    1.224291e+00
  2.075353e+01    1.236526e+00
  2.078528e+01    1.219234e+00
  2.081703e+01    1.197498e+00
  2.084878e+01    1.253746e+00
  2.088054e+01    1.223106e+00
  2.091229e+01    1.236920e+00
  2.094404e+01    1.236821e+00
  2.097579e+01    1.234848e+00
  2.100754e+01    1.233434e+00
  2.103929e+01    1.216626e+00
  2.107104e+01    1.229887e+00
  2.110279e+01    1.227001e+00
  2.113455e+01    1.239538e+00
  2.116630e+01    1.239290e+00
  2.119805e+01    1.214304e+00
  2.122980e+01    1.228285e+00
  2.126155e+01    1.258916e+00
  2.129330e+01    1.230659e+00
  2.132505e+01    1.263059e+00
  2.135680e+01    1.279666e+00
  2.138855e+01    1.297504e+00
  2.142031e+01    1.335940e+00
  2.145206e+01    1.320245e+00
  2.148381e+01    1.375391e+00
  2.151556e+01    1.426749e+00
  2.154731e+01    1.490244e+00
  2.157906e+01    1.596187e+00
  2.161081e+01    1.730644e+00
  2.164256e+01    1.972692e+00
  2.167431e+01    2.248640e+00
  2.170607e+01    2.709859e+00
  2.173782e+01    3.519095e+00
  2.176957e+01    4.491183e+00
  2.180132e+01    5.761187e+00
  2.183307e+01    7.110409e+00
  2.186482e+01    8.253696e+00
  2.189657e+01    8.869277e+00
  2.192832e+01    8.255898e+00
  2.196007e+01    6.567452e+00
  2.199183e+01    4.854302e+00
  2.202358e+01    3.624662e+00
  2.205533e+01    2.833383e+00
  2.208708e+01    2.343160e+00
  2.211883e+01    1.999869e+00
  2.215058e+01    1.761321e+00
  2.218233e+01    1.576244e+00
  2.221408e+01    1.474682e+00
  2.224584e+01    1.431280e+00
  2.227759e+01    1.347664e+00
  2.230934e+01    1.313648e+00
  2.234109e+01    1.243482e+00
  2.237284e+01    1.219976e+00
  2.240459e+01    1.204711e+00
  2.243634e+01    1.168318e+00
  2.246809e+01    1.133596e+00
  2.249984e+01    1.140522e+00
  2.253160e+01    1.138174e+00
  2.256335e+01    1.128775e+00
  2.259510e+01    1.095337e+00
  2.262685e+01    1.112759e+00
  2.265860e+01    1.114605e+00
  2.269035e+01    1.080224e+00
  2.272210e+01    1.074842e+00
  2.275385e+01    1.046789e+00
  2.278560e+01    1.034089e+00
  2.281736e+01    1.055822e+00
  2.284911e+01    1.028462e+00
  2.288086e+01    1.041975e+00
  2.291261e+01    1.020453e+00
  2.294436e+01    1.023001e+00
  2.297611e+01    1.033137e+00
  2.300786e+01    1.002057e+00
  2.303961e+01    1.002380e+00
  2.307137e+01    9.843579e-01
  2.310312e+01    1.016008e+00
  2.313487e+01    1.021591e+00
  2.316662e+01    1.011152e+00
  2.319837e+01    9.886964e-01
  2.323012e+01    9.790743e-01
  2.326187e+01    9.784528e-01
  2.329362e+01    9.753518e-01
  2.332537e+01    9.646804e-01
  2.335713e+01    9.703137e-01
  2.338888e+01    9.572556e-01
  2.342063e+01    9.583796e-01
  2.345238e+01    9.340249e-01
  2.348413e+01    9.573588e-01
  2.351588e+01    9.526321e-01
  2.354763e+01    9.535375e-01
  2.357938e+01    9.670925e-01
  2.361113e+01    9.543579e-01
  2.364289e+01    9.300627e-01
  2.367464e+01    9.253053e-01
  2.370639e+01    9.621694e-01
  2.373814e+01    9.181963e-01
  2.376989e+01    9.223042e-01
  2.380164e+01    9.319077e-01
  2.383339e+01    9.020943e-01
  2.386514e+01    9.024749e-01
  2.389689e+01    9.227560e-01
  2.392865e+01    8.935640e-01
  2.396040e+01    8.920100e-01
  2.399215e+01    9.040025e-01
  2.402390e+01    8.947453e-01
  2.405565e+01    8.792315e-01
  2.408740e+01    8.913861e-01
  2.411915e+01    8.688388e-01
  2.415090e+01    8.807147e-01
  2.418266e+01    8.856292e-01
  2.421441e+01    8.702812e-01
  2.424616e+01    8.708918e-01
  2.427791e+01    8.871216e-01
  2.430966e+01    8.909132e-01
  2.434141e+01    8.946378e-01
  2.437316e+01    8.944416e-01
  2.440491e+01    8.987170e-01
  2.443666e+01    8.909969e-01
  2.446842e+01    8.923773e-01
  2.450017e+01    8.677176e-01
  2.453192e+01    8.948777e-01
  2.456367e+01    8.836202e-01
  2.459542e+01    8.924694e-01
  2.462717e+01    8.925563e-01
  2.465892e+01    8.690820e-01
  2.469067e+01    9.017530e-01
  2.472242e+01    8.754687e-01
  2.475418e+01    8.760006e-01
  2.478593e+01    8.942170e-01
  2.481768e+01    8.674942e-01
  2.484943e+01    8.726742e-01
  2.488118e+01    8.739303e-01
  2.491293e+01    8.872368e-01
  2.494468e+01    8.819314e-01
  2.497643e+01    8.894000e-01
  2.500819e+01    8.964400e-01
  2.503994e+01    8.964942e-01
  2.507169e+01    8.721332e-01
  2.510344e+01    9.197904e-01
  2.513519e+01    9.042678e-01
  2.516694e+01    9.052079e-01
  2.519869e+01    9.100568e-01
  2.523044e+01    9.149618e-01
  2.526219e+01    9.195880e-01
  2.529395e+01    9.307689e-01
  2.532570e+01    9.652166e-01
  2.535745e+01    9.700671e-01
  2.538920e+01    9.706976e-01
  2.542095e+01    9.974262e-01
  2.545270e+01    1.028473e+00
  2.548445e+01    1.025314e+00
  2.551620e+01    1.060603e+00
  2.554795e+01    1.097709e+00
  2.557971e+01    1.150774e+00
  2.561146e+01    1.195234e+00
  2.564321e+01    1.324584e+00
  2.567496e+01    1.409326e+00
  2.570671e+01    1.543320e+00
  2.573846e+01    1.838532e+00
  2.577021e+01    2.166297e+00
  2.580196e+01    2.740444e+00
  2.583371e+01    3.533330e+00
  2.586547e+01    4.580369e+00
  2.589722e+01    5.715950e+00
  2.592897e+01    6.685945e+00
  2.596072e+01    7.075904e+00
  2.599247e+01    6.520774e+00
  2.602422e+01    5.274922e+00
  2.605597e+01    3.989110e+00
  2.608772e+01    3.010091e+00
  2.611948e+01    2.382256e+00
  2.615123e+01    1.924957e+00
  2.618298e+01    1.663180e+00
  2.621473e+01    1.447573e+00
  2.624648e+01    1.333456e+00
  2.627823e+01    1.251162e+00
  2.630998e+01    1.172969e+00
  2.634173e+01    1.130880e+00
  2.637348e+01    1.098064e+00
  2.640524e+01    1.052969e+00
  2.643699e+01    1.018075e+00
  2.646874e+01    1.024448e+00
  2.650049e+01    9.873276e-01
  2.653224e+01    9.902378e-01
  2.656399e+01    9.638479e-01
  2.659574e+01    9.778948e-01
  2.662749e+01    9.824117e-01
  2.665924e+01    9.803440e-01
  2.669100e+01    9.651036e-01
  2.672275e+01    9.492536e-01
  2.675450e+01    9.536904e-01
  2.678625e+01    1.001785e+00
  2.681800e+01    9.610251e-01
  2.684975e+01    9.381531e-01
  2.688150e+01    9.761447e-01
  2.691325e+01    1.000194e+00
  2.694501e+01    1.008157e+00
  2.697676e+01    1.073353e+00
  2.700851e+01    1.127691e+00
  2.704026e+01    1.200755e+00
  2.707201e+01    1.316441e+00
  2.710376e+01    1.456304e+00
  2.713551e+01    1.713120e+00
  2.716726e+01    1.959681e+00
  2.719901e+01    2.107964e+00
  2.723077e+01    2.151394e+00
  2.726252e+01    1.961605e+00
  2.729427e+01    1.691685e+00
  2.732602e+01    1.436913e+00
  2.735777e+01    1.282261e+00
  2.738952e+01    1.139281e+00
  2.742127e+01    1.065221e+00
  2.745302e+01    1.038770e+00
  2.748477e+01    9.897107e-01
  2.751653e+01    9.944718e-01
  2.754828e+01    9.294785e-01
  2.758003e+01    9.367058e-01
  2.761178e+01    9.186292e-01
  2.764353e+01    9.076508e-01
  2.767528e+01    9.091249e-01
  2.770703e+01    8.974008e-01
  2.773878e+01    9.118074e-01
  2.777054e+01    8.733649e-01
  2.780229e+01    8.819516e-01
  2.783404e+01    8.580481e-01
  2.786579e+01    8.715683e-01
  2.789754e+01    8.850301e-01
  2.792929e+01    8.656662e-01
  2.796104e+01    8.728642e-01
  2.799279e+01    8.632239e-01
  2.802454e+01    8.714762e-01
  2.805630e+01    8.484176e-01
  2.808805e+01    8.458598e-01
  2.811980e+01    8.547538e-01
  2.815155e+01    8.653910e-01
  2.818330e+01    8.406629e-01
  2.821505e+01    8.511188e-01
  2.824680e+01    8.690099e-01
  2.827855e+01    8.469144e-01
  2.831030e+01    8.394185e-01
  2.834206e+01    8.308819e-01
  2.837381e+01    8.312609e-01
  2.840556e+01    8.348237e-01
  2.843731e+01    8.482316e-01
  2.846906e+01    8.521833e-01
  2.850081e+01    8.294163e-01
  2.853256e+01    8.546743e-01
  2.856431e+01    8.225595e-01
  2.859606e+01    8.286554e-01
  2.862782e+01    8.252910e-01
  2.865957e+01    8.183919e-01
  2.869132e+01    8.313878e-01
  2.872307e+01    8.051871e-01
  2.875482e+01    8.208355e-01
  2.878657e+01    8.206170e-01
  2.881832e+01    8.054330e-01
  2.885007e+01    8.297783e-01
  2.888183e+01    8.414265e-01
  2.891358e+01    8.175240e-01
  2.894533e+01    8.198474e-01
  2.897708e+01    8.386117e-01
  2.900883e+01    7.982782e-01
  2.904058e+01    8.101175e-01
  2.907233e+01    7.807550e-01
  2.910408e+01    8.091147e-01
  2.913583e+01    8.204969e-01
  2.916759e+01    8.206900e-01
  2.919934e+01    7.977780e-01
  2.923109e+01    8.210212e-01
  2.926284e+01    7.993200e-01
  2.929459e+01    8.136362e-01
  2.932634e+01    7.873359e-01
  2.935809e+01    8.094856e-01
  2.938984e+01    7.912309e-01
  2.942159e+01    8.108380e-01
  2.945335e+01    8.185366e-01
  2.948510e+01    7.809064e-01
  2.951685e+01    8.044114e-01
  2.954860e+01    7.991065e-01
  2.958035e+01    8.041167e-01
  2.961210e+01    7.817571e-01
  2.964385e+01    8.021058e-01
  2.967560e+01    7.701301e-01
  2.970736e+01    7.929359e-01
  2.973911e+01    8.127349e-01
  2.977086e+01    8.037457e-01
  2.980261e+01    8.020690e-01
  2.983436e+01    8.062664e-01
  2.986611e+01    7.955633e-01
  2.989786e+01    7.595887e-01
  2.992961e+01    8.026729e-01
  2.996136e+01    7.733085e-01
  2.999312e+01    8.272313e-01
  3.002487e+01    7.966524e-01
  3.005662e+01    7.880569e-01
  3.008837e+01    8.170958e-01
  3.012012e+01    7.957562e-01
  3.015187e+01    8.001260e-01
  3.018362e+01    7.852480e-01
  3.021537e+01    7.873540e-01
  3.024712e+01    7.769688e-01
  3.027888e+01    7.796236e-01
  3.031063e+01    7.514859e-01
  3.034238e+01    7.779098e-01
  3.037413e+01    7.801577e-01
  3.040588e+01    7.587149e-01
  3.043763e+01    7.904542e-01
  3.046938e+01    7.658956e-01
  3.050113e+01    7.585745e-01
  3.053288e+01    7.800087e-01
  3.056464e+01    7.577314e-01
  3.059639e+01    7.721122e-01
  3.062814e+01    7.643634e-01
  3.065989e+01    7.804136e-01
  3.069164e+01    7.696744e-01
  3.072339e+01    7.642404e-01
  3.075514e+01    7.943342e-01
  3.078689e+01    7.850620e-01
  3.081865e+01    7.886867e-01
  3.085040e+01    7.740344e-01
  3.088215e+01    7.695507e-01
  3.091390e+01    7.900710e-01
  3.094565e+01    7.922456e-01
  3.097740e+01    7.574712e-01
  3.100915e+01    7.739800e-01
  3.104090e+01    7.737768e-01
  3.107265e+01    7.788494e-01
  3.110441e+01    7.750421e-01
  3.113616e+01    7.713759e-01
  3.116791e+01    7.844283e-01
  3.119966e+01    7.800270e-01
  3.123141e+01    7.821992e-01
  3.126316e+01    7.900262e-01
  3.129491e+01    7.883328e-01
  3.132666e+01    7.829236e-01
  3.135841e+01    7.836679e-01
  3.139017e+01    8.252270e-01
  3.142192e+01    7.991772e-01
  3.145367e+01    8.044777e-01
  3.148542e+01    8.129536e-01
  3.151717e+01    8.240235e-01
  3.154892e+01    8.304486e-01
  3.158067e+01    8.683728e-01
  3.161242e+01    8.700157e-01
  3.164418e+01    9.032323e-01
  3.167593e+01    9.605699e-01
  3.170768e+01    9.965212e-01
  3.173943e+01    1.126703e+00
  3.177118e+01    1.222103e+00
  3.180293e+01    1.442326e+00
  3.183468e+01    1.686645e+00
  3.186643e+01    1.918694e+00
  3.189818e+01    2.052455e+00
  3.192994e+01    1.998475e+00
  3.196169e+01    1.830830e+00
  3.199344e+01    1.576513e+00
  3.202519e+01    1.319451e+00
  3.205694e+01    1.155550e+00
  3.208869e+01    1.053813e+00
  3.212044e+01    9.784285e-01
  3.215219e+01    9.128383e-01
  3.218394e+01    8.895739e-01
  3.221570e+01    8.192145e-01
  3.224745e+01    8.566676e-01
  3.227920e+01    8.245535e-01
  3.231095e+01    8.031341e-01
  3.234270e+01    7.723342e-01
  3.237445e+01    7.805590e-01
  3.240620e+01    7.829548e-01
  3.243795e+01    8.002066e-01
  3.246970e+01    7.825792e-01
  3.250146e+01    7.731107e-01
  3.253321e+01    7.689165e-01
  3.254908e+01    7.568893e-01