File: XRD/Reaction conditions/2024-07-27_003_Ru-CGO-ex_Reaction_dwell_000023_data_000143.dat
# == pyFAI calibration ==
# Distance Sample to Detector: 0.4 m
# PONI: 9.750e-02, 1.135e-01 m
# Rotations: -0.000175 0.000000 -0.000000 rad
#
# == Fit2d calibration ==
# Distance Sample-beamCenter: 400.000 mm
# Center: x=1514.000, y=1300.000 pix
# Tilt: 0.010 deg  TiltPlanRot: 0.010 deg
#
# Detector Detector	 Spline= None	 PixelSize= 7.500e-05, 7.500e-05 m
#    Detector has a mask: False
#    Detector has a dark current: False
#    detector has a flat field: False
#
# Wavelength: 6.888e-11 m
# Mask applied: user provided
# Dark current applied: False
# Flat field applied: False
# Polarization factor: 0.99
# Normalization factor: 1.0
# --> /home/myspot/data/2024_07_Rosario/Ru-CGO-ex/2024-07-27_003_Ru-CGO-ex_Reaction_dwell_000023_data_000143.dat
#       q_nm^-1             I
  2.003187e-02    0.000000e+00
  5.178302e-02    1.451248e-01
  8.353417e-02    2.592442e-03
  1.152853e-01    7.042962e-02
  1.470365e-01    5.702378e-02
  1.787876e-01    7.423814e-03
  2.105388e-01    1.914066e-02
  2.422899e-01    3.779578e-02
  2.740411e-01    3.737196e-02
  3.057922e-01    0.000000e+00
  3.375433e-01    2.553631e-02
  3.692945e-01    0.000000e+00
  4.010456e-01    4.839224e-02
  4.327968e-01    3.710454e-02
  4.645479e-01    2.974090e-02
  4.962991e-01    9.260769e-02
  5.280502e-01    4.818939e-02
  5.598014e-01    5.967475e-02
  5.915525e-01    3.762328e-02
  6.233037e-01    3.918607e-02
  6.550548e-01    4.696481e-02
  6.868060e-01    4.346965e-02
  7.185571e-01    2.775517e-02
  7.503083e-01    3.833163e-02
  7.820594e-01    7.694911e-02
  8.138106e-01    1.820393e-01
  8.455617e-01    4.232791e-01
  8.773129e-01    4.801241e-01
  9.090640e-01    7.647449e-01
  9.408152e-01    7.773467e-01
  9.725663e-01    1.092465e+00
  1.004317e+00    1.180843e+00
  1.036069e+00    1.367769e+00
  1.067820e+00    1.417509e+00
  1.099571e+00    1.561184e+00
  1.131322e+00    1.655204e+00
  1.163073e+00    1.710455e+00
  1.194824e+00    1.752944e+00
  1.226575e+00    2.277840e+00
  1.258327e+00    2.566168e+00
  1.290078e+00    2.642463e+00
  1.321829e+00    2.661389e+00
  1.353580e+00    2.692096e+00
  1.385331e+00    2.853723e+00
  1.417082e+00    2.876449e+00
  1.448834e+00    2.915617e+00
  1.480585e+00    3.109325e+00
  1.512336e+00    3.122384e+00
  1.544087e+00    3.185770e+00
  1.575838e+00    3.242071e+00
  1.607589e+00    3.074883e+00
  1.639340e+00    3.063847e+00
  1.671092e+00    3.016333e+00
  1.702843e+00    2.994277e+00
  1.734594e+00    3.111104e+00
  1.766345e+00    3.021922e+00
  1.798096e+00    3.034588e+00
  1.829847e+00    3.176493e+00
  1.861598e+00    3.013505e+00
  1.893350e+00    2.893481e+00
  1.925101e+00    3.085118e+00
  1.956852e+00    3.016951e+00
  1.988603e+00    3.067616e+00
  2.020354e+00    3.107062e+00
  2.052105e+00    2.971791e+00
  2.083856e+00    2.959642e+00
  2.115608e+00    3.027342e+00
  2.147359e+00    3.130397e+00
  2.179110e+00    2.894321e+00
  2.210861e+00    3.177856e+00
  2.242612e+00    3.072309e+00
  2.274363e+00    3.134694e+00
  2.306115e+00    3.138507e+00
  2.337866e+00    3.015539e+00
  2.369617e+00    3.082234e+00
  2.401368e+00    3.188454e+00
  2.433119e+00    3.068181e+00
  2.464870e+00    3.240464e+00
  2.496621e+00    3.093964e+00
  2.528373e+00    3.134577e+00
  2.560124e+00    3.234896e+00
  2.591875e+00    3.256511e+00
  2.623626e+00    3.252954e+00
  2.655377e+00    3.356123e+00
  2.687128e+00    3.188866e+00
  2.718879e+00    3.381881e+00
  2.750631e+00    3.277429e+00
  2.782382e+00    3.294668e+00
  2.814133e+00    3.310475e+00
  2.845884e+00    3.185977e+00
  2.877635e+00    3.195473e+00
  2.909386e+00    3.310119e+00
  2.941137e+00    3.312763e+00
  2.972889e+00    3.381692e+00
  3.004640e+00    3.324290e+00
  3.036391e+00    3.338137e+00
  3.068142e+00    3.425166e+00
  3.099893e+00    3.346523e+00
  3.131644e+00    3.401431e+00
  3.163395e+00    3.303927e+00
  3.195147e+00    3.399915e+00
  3.226898e+00    3.318879e+00
  3.258649e+00    3.411580e+00
  3.290400e+00    3.357243e+00
  3.322151e+00    3.430885e+00
  3.353902e+00    3.409537e+00
  3.385654e+00    3.341325e+00
  3.417405e+00    3.479680e+00
  3.449156e+00    3.448734e+00
  3.480907e+00    3.414901e+00
  3.512658e+00    3.491782e+00
  3.544409e+00    3.418848e+00
  3.576160e+00    3.532003e+00
  3.607912e+00    3.442802e+00
  3.639663e+00    3.508038e+00
  3.671414e+00    3.480162e+00
  3.703165e+00    3.460189e+00
  3.734916e+00    3.436308e+00
  3.766667e+00    3.530884e+00
  3.798418e+00    3.453322e+00
  3.830170e+00    3.506506e+00
  3.861921e+00    3.553277e+00
  3.893672e+00    3.532957e+00
  3.925423e+00    3.562548e+00
  3.957174e+00    3.601124e+00
  3.988925e+00    3.589521e+00
  4.020676e+00    3.689332e+00
  4.052428e+00    3.507415e+00
  4.084179e+00    3.516700e+00
  4.115930e+00    3.535524e+00
  4.147681e+00    3.575121e+00
  4.179432e+00    3.588069e+00
  4.211183e+00    3.424283e+00
  4.242935e+00    3.527433e+00
  4.274686e+00    3.611758e+00
  4.306437e+00    3.565147e+00
  4.338188e+00    3.499772e+00
  4.369939e+00    3.573622e+00
  4.401690e+00    3.581187e+00
  4.433441e+00    3.534856e+00
  4.465193e+00    3.606414e+00
  4.496944e+00    3.619572e+00
  4.528695e+00    3.674774e+00
  4.560446e+00    3.665151e+00
  4.592197e+00    3.509284e+00
  4.623948e+00    3.631842e+00
  4.655699e+00    3.664279e+00
  4.687451e+00    3.670548e+00
  4.719202e+00    3.573088e+00
  4.750953e+00    3.661198e+00
  4.782704e+00    3.602982e+00
  4.814455e+00    3.615747e+00
  4.846206e+00    3.549831e+00
  4.877957e+00    3.576570e+00
  4.909709e+00    3.602445e+00
  4.941460e+00    3.713658e+00
  4.973211e+00    3.587201e+00
  5.004962e+00    3.572021e+00
  5.036713e+00    3.620532e+00
  5.068464e+00    3.625678e+00
  5.100216e+00    3.713957e+00
  5.131967e+00    3.657524e+00
  5.163718e+00    3.689279e+00
  5.195469e+00    3.610433e+00
  5.227220e+00    3.625533e+00
  5.258971e+00    3.555831e+00
  5.290722e+00    3.566845e+00
  5.322474e+00    3.736754e+00
  5.354225e+00    3.630999e+00
  5.385976e+00    3.651778e+00
  5.417727e+00    3.620558e+00
  5.449478e+00    3.650985e+00
  5.481229e+00    3.603532e+00
  5.512980e+00    3.618806e+00
  5.544732e+00    3.576062e+00
  5.576483e+00    3.588528e+00
  5.608234e+00    3.651895e+00
  5.639985e+00    3.653083e+00
  5.671736e+00    3.560064e+00
  5.703487e+00    3.515055e+00
  5.735238e+00    3.542346e+00
  5.766990e+00    3.663784e+00
  5.798741e+00    3.637782e+00
  5.830492e+00    3.680534e+00
  5.862243e+00    3.473364e+00
  5.893994e+00    3.448382e+00
  5.925745e+00    3.558982e+00
  5.957497e+00    3.536043e+00
  5.989248e+00    3.522243e+00
  6.020999e+00    3.469207e+00
  6.052750e+00    3.533690e+00
  6.084501e+00    3.559697e+00
  6.116252e+00    3.652782e+00
  6.148003e+00    3.564288e+00
  6.179755e+00    3.642859e+00
  6.211506e+00    3.536038e+00
  6.243257e+00    3.611061e+00
  6.275008e+00    3.581227e+00
  6.306759e+00    3.543791e+00
  6.338510e+00    3.528524e+00
  6.370261e+00    3.473091e+00
  6.402013e+00    3.531559e+00
  6.433764e+00    3.563781e+00
  6.465515e+00    3.545376e+00
  6.497266e+00    3.578988e+00
  6.529017e+00    3.609949e+00
  6.560768e+00    3.530578e+00
  6.592519e+00    3.537244e+00
  6.624271e+00    3.570357e+00
  6.656022e+00    3.503621e+00
  6.687773e+00    3.635018e+00
  6.719524e+00    3.552411e+00
  6.751275e+00    3.541598e+00
  6.783026e+00    3.496750e+00
  6.814777e+00    3.535488e+00
  6.846529e+00    3.572687e+00
  6.878280e+00    3.488861e+00
  6.910031e+00    3.524986e+00
  6.941782e+00    3.531825e+00
  6.973533e+00    3.522444e+00
  7.005284e+00    3.567359e+00
  7.037036e+00    3.548031e+00
  7.068787e+00    3.543752e+00
  7.100538e+00    3.460862e+00
  7.132289e+00    3.429814e+00
  7.164040e+00    3.514830e+00
  7.195791e+00    3.514716e+00
  7.227542e+00    3.543130e+00
  7.259294e+00    3.558091e+00
  7.291045e+00    3.510457e+00
  7.322796e+00    3.496226e+00
  7.354547e+00    3.534147e+00
  7.386298e+00    3.493979e+00
  7.418049e+00    3.559843e+00
  7.449800e+00    3.518646e+00
  7.481552e+00    3.416439e+00
  7.513303e+00    3.507068e+00
  7.545054e+00    3.546961e+00
  7.576805e+00    3.560429e+00
  7.608556e+00    3.445314e+00
  7.640307e+00    3.494863e+00
  7.672058e+00    3.447948e+00
  7.703810e+00    3.464926e+00
  7.735561e+00    3.433070e+00
  7.767312e+00    3.423605e+00
  7.799063e+00    3.368283e+00
  7.830814e+00    3.393924e+00
  7.862565e+00    3.429028e+00
  7.894317e+00    3.449272e+00
  7.926068e+00    3.435190e+00
  7.957819e+00    3.458146e+00
  7.989570e+00    3.360027e+00
  8.021321e+00    3.408739e+00
  8.053072e+00    3.364022e+00
  8.084823e+00    3.445882e+00
  8.116575e+00    3.427662e+00
  8.148326e+00    3.396400e+00
  8.180077e+00    3.493937e+00
  8.211828e+00    3.458440e+00
  8.243579e+00    3.487291e+00
  8.275330e+00    3.392312e+00
  8.307081e+00    3.425038e+00
  8.338833e+00    3.415614e+00
  8.370584e+00    3.391415e+00
  8.402335e+00    3.372485e+00
  8.434086e+00    3.384488e+00
  8.465837e+00    3.364301e+00
  8.497588e+00    3.344005e+00
  8.529339e+00    3.361811e+00
  8.561091e+00    3.299793e+00
  8.592842e+00    3.308196e+00
  8.624593e+00    3.403316e+00
  8.656344e+00    3.404464e+00
  8.688095e+00    3.252488e+00
  8.719846e+00    3.338992e+00
  8.751598e+00    3.281163e+00
  8.783349e+00    3.291828e+00
  8.815100e+00    3.347162e+00
  8.846851e+00    3.253615e+00
  8.878602e+00    3.353539e+00
  8.910353e+00    3.272942e+00
  8.942104e+00    3.261196e+00
  8.973856e+00    3.282124e+00
  9.005607e+00    3.256797e+00
  9.037358e+00    3.280179e+00
  9.069109e+00    3.274415e+00
  9.100860e+00    3.296201e+00
  9.132611e+00    3.273217e+00
  9.164362e+00    3.292620e+00
  9.196114e+00    3.272163e+00
  9.227865e+00    3.218019e+00
  9.259616e+00    3.198397e+00
  9.291367e+00    3.188343e+00
  9.323118e+00    3.189736e+00
  9.354869e+00    3.221642e+00
  9.386620e+00    3.226655e+00
  9.418372e+00    3.264006e+00
  9.450123e+00    3.219432e+00
  9.481874e+00    3.232761e+00
  9.513625e+00    3.242589e+00
  9.545376e+00    3.241626e+00
  9.577127e+00    3.183206e+00
  9.608878e+00    3.222333e+00
  9.640630e+00    3.164638e+00
  9.672381e+00    3.188640e+00
  9.704132e+00    3.195342e+00
  9.735883e+00    3.172809e+00
  9.767634e+00    3.127800e+00
  9.799385e+00    3.171803e+00
  9.831137e+00    3.120045e+00
  9.862888e+00    3.132211e+00
  9.894639e+00    3.129565e+00
  9.926390e+00    3.073330e+00
  9.958141e+00    3.153472e+00
  9.989892e+00    3.079053e+00
  1.002164e+01    3.065761e+00
  1.005339e+01    3.092350e+00
  1.008515e+01    3.150319e+00
  1.011690e+01    3.098451e+00
  1.014865e+01    3.008946e+00
  1.018040e+01    3.088288e+00
  1.021215e+01    3.051874e+00
  1.024390e+01    3.081664e+00
  1.027565e+01    3.041991e+00
  1.030740e+01    3.074158e+00
  1.033915e+01    2.999310e+00
  1.037091e+01    3.068690e+00
  1.040266e+01    3.040712e+00
  1.043441e+01    3.048183e+00
  1.046616e+01    3.011624e+00
  1.049791e+01    3.038986e+00
  1.052966e+01    3.011188e+00
  1.056141e+01    2.960224e+00
  1.059316e+01    3.012529e+00
  1.062492e+01    2.994241e+00
  1.065667e+01    3.028255e+00
  1.068842e+01    2.901924e+00
  1.072017e+01    2.994806e+00
  1.075192e+01    2.992754e+00
  1.078367e+01    2.952443e+00
  1.081542e+01    2.934851e+00
  1.084717e+01    2.953385e+00
  1.087892e+01    2.955711e+00
  1.091068e+01    2.907822e+00
  1.094243e+01    2.927174e+00
  1.097418e+01    2.863414e+00
  1.100593e+01    2.940697e+00
  1.103768e+01    2.847385e+00
  1.106943e+01    2.896303e+00
  1.110118e+01    2.804939e+00
  1.113293e+01    2.899876e+00
  1.116468e+01    2.887576e+00
  1.119644e+01    2.869453e+00
  1.122819e+01    2.850708e+00
  1.125994e+01    2.919646e+00
  1.129169e+01    2.835533e+00
  1.132344e+01    2.848688e+00
  1.135519e+01    2.796158e+00
  1.138694e+01    2.768571e+00
  1.141869e+01    2.827807e+00
  1.145045e+01    2.778910e+00
  1.148220e+01    2.790521e+00
  1.151395e+01    2.830043e+00
  1.154570e+01    2.842103e+00
  1.157745e+01    2.817127e+00
  1.160920e+01    2.776992e+00
  1.164095e+01    2.777106e+00
  1.167270e+01    2.776664e+00
  1.170445e+01    2.738246e+00
  1.173621e+01    2.769132e+00
  1.176796e+01    2.780259e+00
  1.179971e+01    2.779969e+00
  1.183146e+01    2.743927e+00
  1.186321e+01    2.691261e+00
  1.189496e+01    2.697549e+00
  1.192671e+01    2.744653e+00
  1.195846e+01    2.704821e+00
  1.199021e+01    2.675812e+00
  1.202197e+01    2.766527e+00
  1.205372e+01    2.698973e+00
  1.208547e+01    2.705309e+00
  1.211722e+01    2.735772e+00
  1.214897e+01    2.637044e+00
  1.218072e+01    2.701994e+00
  1.221247e+01    2.708708e+00
  1.224422e+01    2.659400e+00
  1.227597e+01    2.705912e+00
  1.230773e+01    2.680190e+00
  1.233948e+01    2.655389e+00
  1.237123e+01    2.694126e+00
  1.240298e+01    2.678644e+00
  1.243473e+01    2.673677e+00
  1.246648e+01    2.682204e+00
  1.249823e+01    2.714762e+00
  1.252998e+01    2.699237e+00
  1.256174e+01    2.692435e+00
  1.259349e+01    2.759678e+00
  1.262524e+01    2.723595e+00
  1.265699e+01    2.762682e+00
  1.268874e+01    2.761560e+00
  1.272049e+01    2.869614e+00
  1.275224e+01    2.939538e+00
  1.278399e+01    2.945423e+00
  1.281574e+01    3.075592e+00
  1.284750e+01    3.120436e+00
  1.287925e+01    3.395718e+00
  1.291100e+01    3.680704e+00
  1.294275e+01    4.132648e+00
  1.297450e+01    4.763988e+00
  1.300625e+01    5.845253e+00
  1.303800e+01    7.736550e+00
  1.306975e+01    1.010904e+01
  1.310150e+01    1.268560e+01
  1.313326e+01    1.487584e+01
  1.316501e+01    1.607473e+01
  1.319676e+01    1.555306e+01
  1.322851e+01    1.242917e+01
  1.326026e+01    9.011225e+00
  1.329201e+01    6.854756e+00
  1.332376e+01    5.303410e+00
  1.335551e+01    4.354385e+00
  1.338727e+01    3.873815e+00
  1.341902e+01    3.471739e+00
  1.345077e+01    3.209062e+00
  1.348252e+01    2.990699e+00
  1.351427e+01    2.908456e+00
  1.354602e+01    2.837948e+00
  1.357777e+01    2.746247e+00
  1.360952e+01    2.683114e+00
  1.364127e+01    2.641753e+00
  1.367303e+01    2.603173e+00
  1.370478e+01    2.543438e+00
  1.373653e+01    2.527882e+00
  1.376828e+01    2.517187e+00
  1.380003e+01    2.408926e+00
  1.383178e+01    2.464411e+00
  1.386353e+01    2.429337e+00
  1.389528e+01    2.382871e+00
  1.392703e+01    2.448776e+00
  1.395879e+01    2.360627e+00
  1.399054e+01    2.338221e+00
  1.402229e+01    2.394779e+00
  1.405404e+01    2.354868e+00
  1.408579e+01    2.307994e+00
  1.411754e+01    2.295110e+00
  1.414929e+01    2.308048e+00
  1.418104e+01    2.307407e+00
  1.421279e+01    2.288188e+00
  1.424455e+01    2.280906e+00
  1.427630e+01    2.280968e+00
  1.430805e+01    2.249497e+00
  1.433980e+01    2.249338e+00
  1.437155e+01    2.266570e+00
  1.440330e+01    2.198096e+00
  1.443505e+01    2.221740e+00
  1.446680e+01    2.244068e+00
  1.449856e+01    2.246764e+00
  1.453031e+01    2.231292e+00
  1.456206e+01    2.168868e+00
  1.459381e+01    2.224912e+00
  1.462556e+01    2.215305e+00
  1.465731e+01    2.197233e+00
  1.468906e+01    2.190647e+00
  1.472081e+01    2.227756e+00
  1.475256e+01    2.203425e+00
  1.478432e+01    2.180058e+00
  1.481607e+01    2.164676e+00
  1.484782e+01    2.233615e+00
  1.487957e+01    2.223263e+00
  1.491132e+01    2.262895e+00
  1.494307e+01    2.318059e+00
  1.497482e+01    2.365144e+00
  1.500657e+01    2.424418e+00
  1.503832e+01    2.616405e+00
  1.507008e+01    2.797915e+00
  1.510183e+01    3.152673e+00
  1.513358e+01    3.761586e+00
  1.516533e+01    4.511577e+00
  1.519708e+01    5.168911e+00
  1.522883e+01    5.531069e+00
  1.526058e+01    5.786958e+00
  1.529233e+01    5.380279e+00
  1.532409e+01    4.620143e+00
  1.535584e+01    3.728867e+00
  1.538759e+01    3.170648e+00
  1.541934e+01    2.819478e+00
  1.545109e+01    2.527077e+00
  1.548284e+01    2.384273e+00
  1.551459e+01    2.290285e+00
  1.554634e+01    2.193681e+00
  1.557809e+01    2.159243e+00
  1.560985e+01    2.061504e+00
  1.564160e+01    2.043292e+00
  1.567335e+01    1.999106e+00
  1.570510e+01    2.003596e+00
  1.573685e+01    2.000750e+00
  1.576860e+01    1.960992e+00
  1.580035e+01    1.959996e+00
  1.583210e+01    1.923075e+00
  1.586385e+01    1.898528e+00
  1.589561e+01    1.901023e+00
  1.592736e+01    1.933614e+00
  1.595911e+01    1.885188e+00
  1.599086e+01    1.893693e+00
  1.602261e+01    1.833779e+00
  1.605436e+01    1.819209e+00
  1.608611e+01    1.877984e+00
  1.611786e+01    1.861157e+00
  1.614961e+01    1.835555e+00
  1.618137e+01    1.842430e+00
  1.621312e+01    1.798588e+00
  1.624487e+01    1.813043e+00
  1.627662e+01    1.813186e+00
  1.630837e+01    1.803827e+00
  1.634012e+01    1.804766e+00
  1.637187e+01    1.812980e+00
  1.640362e+01    1.808121e+00
  1.643538e+01    1.749785e+00
  1.646713e+01    1.760976e+00
  1.649888e+01    1.748634e+00
  1.653063e+01    1.768267e+00
  1.656238e+01    1.758745e+00
  1.659413e+01    1.764559e+00
  1.662588e+01    1.693287e+00
  1.665763e+01    1.728630e+00
  1.668938e+01    1.684160e+00
  1.672114e+01    1.711365e+00
  1.675289e+01    1.740027e+00
  1.678464e+01    1.710180e+00
  1.681639e+01    1.709396e+00
  1.684814e+01    1.669814e+00
  1.687989e+01    1.676236e+00
  1.691164e+01    1.690421e+00
  1.694339e+01    1.672601e+00
  1.697514e+01    1.660549e+00
  1.700690e+01    1.674215e+00
  1.703865e+01    1.659757e+00
  1.707040e+01    1.643467e+00
  1.710215e+01    1.634950e+00
  1.713390e+01    1.630288e+00
  1.716565e+01    1.612900e+00
  1.719740e+01    1.622584e+00
  1.722915e+01    1.620410e+00
  1.726091e+01    1.594740e+00
  1.729266e+01    1.634551e+00
  1.732441e+01    1.631369e+00
  1.735616e+01    1.619189e+00
  1.738791e+01    1.583813e+00
  1.741966e+01    1.601280e+00
  1.745141e+01    1.602942e+00
  1.748316e+01    1.608402e+00
  1.751491e+01    1.625007e+00
  1.754667e+01    1.585137e+00
  1.757842e+01    1.577610e+00
  1.761017e+01    1.566083e+00
  1.764192e+01    1.522932e+00
  1.767367e+01    1.571332e+00
  1.770542e+01    1.567642e+00
  1.773717e+01    1.568917e+00
  1.776892e+01    1.478964e+00
  1.780067e+01    1.534236e+00
  1.783243e+01    1.561955e+00
  1.786418e+01    1.519936e+00
  1.789593e+01    1.531575e+00
  1.792768e+01    1.535865e+00
  1.795943e+01    1.510098e+00
  1.799118e+01    1.511405e+00
  1.802293e+01    1.468850e+00
  1.805468e+01    1.489547e+00
  1.808643e+01    1.472224e+00
  1.811819e+01    1.501796e+00
  1.814994e+01    1.491060e+00
  1.818169e+01    1.509023e+00
  1.821344e+01    1.466674e+00
  1.824519e+01    1.458930e+00
  1.827694e+01    1.457690e+00
  1.830869e+01    1.447440e+00
  1.834044e+01    1.470524e+00
  1.837220e+01    1.457534e+00
  1.840395e+01    1.459344e+00
  1.843570e+01    1.479333e+00
  1.846745e+01    1.444304e+00
  1.849920e+01    1.441999e+00
  1.853095e+01    1.439849e+00
  1.856270e+01    1.438190e+00
  1.859445e+01    1.420110e+00
  1.862620e+01    1.428483e+00
  1.865796e+01    1.425191e+00
  1.868971e+01    1.416181e+00
  1.872146e+01    1.432034e+00
  1.875321e+01    1.413724e+00
  1.878496e+01    1.396290e+00
  1.881671e+01    1.428691e+00
  1.884846e+01    1.390515e+00
  1.888021e+01    1.401333e+00
  1.891196e+01    1.396839e+00
  1.894372e+01    1.372905e+00
  1.897547e+01    1.396752e+00
  1.900722e+01    1.386412e+00
  1.903897e+01    1.368213e+00
  1.907072e+01    1.393355e+00
  1.910247e+01    1.369213e+00
  1.913422e+01    1.367560e+00
  1.916597e+01    1.377278e+00
  1.919773e+01    1.346555e+00
  1.922948e+01    1.379918e+00
  1.926123e+01    1.364470e+00
  1.929298e+01    1.320402e+00
  1.932473e+01    1.368767e+00
  1.935648e+01    1.366765e+00
  1.938823e+01    1.332916e+00
  1.941998e+01    1.335604e+00
  1.945173e+01    1.332166e+00
  1.948349e+01    1.342209e+00
  1.951524e+01    1.322886e+00
  1.954699e+01    1.325811e+00
  1.957874e+01    1.318231e+00
  1.961049e+01    1.342922e+00
  1.964224e+01    1.309332e+00
  1.967399e+01    1.297076e+00
  1.970574e+01    1.325016e+00
  1.973749e+01    1.284824e+00
  1.976925e+01    1.289062e+00
  1.980100e+01    1.284436e+00
  1.983275e+01    1.277478e+00
  1.986450e+01    1.327774e+00
  1.989625e+01    1.267259e+00
  1.992800e+01    1.298391e+00
  1.995975e+01    1.315780e+00
  1.999150e+01    1.286739e+00
  2.002325e+01    1.259486e+00
  2.005501e+01    1.270789e+00
  2.008676e+01    1.252849e+00
  2.011851e+01    1.262746e+00
  2.015026e+01    1.275824e+00
  2.018201e+01    1.264889e+00
  2.021376e+01    1.273958e+00
  2.024551e+01    1.268710e+00
  2.027726e+01    1.245572e+00
  2.030902e+01    1.270352e+00
  2.034077e+01    1.268704e+00
  2.037252e+01    1.242837e+00
  2.040427e+01    1.237971e+00
  2.043602e+01    1.244589e+00
  2.046777e+01    1.217026e+00
  2.049952e+01    1.248319e+00
  2.053127e+01    1.239116e+00
  2.056302e+01    1.242411e+00
  2.059478e+01    1.221321e+00
  2.062653e+01    1.221385e+00
  2.065828e+01    1.233768e+00
  2.069003e+01    1.218507e+00
  2.072178e+01    1.246606e+00
  2.075353e+01    1.252262e+00
  2.078528e+01    1.270179e+00
  2.081703e+01    1.218326e+00
  2.084878e+01    1.209912e+00
  2.088054e+01    1.201465e+00
  2.091229e+01    1.229638e+00
  2.094404e+01    1.216616e+00
  2.097579e+01    1.210184e+00
  2.100754e+01    1.227492e+00
  2.103929e+01    1.209290e+00
  2.107104e+01    1.194768e+00
  2.110279e+01    1.217217e+00
  2.113455e+01    1.231881e+00
  2.116630e+01    1.226373e+00
  2.119805e+01    1.220088e+00
  2.122980e+01    1.262405e+00
  2.126155e+01    1.224067e+00
  2.129330e+01    1.256247e+00
  2.132505e+01    1.261502e+00
  2.135680e+01    1.265137e+00
  2.138855e+01    1.314906e+00
  2.142031e+01    1.307834e+00
  2.145206e+01    1.344604e+00
  2.148381e+01    1.410542e+00
  2.151556e+01    1.447174e+00
  2.154731e+01    1.543488e+00
  2.157906e+01    1.604419e+00
  2.161081e+01    1.746740e+00
  2.164256e+01    1.963230e+00
  2.167431e+01    2.299624e+00
  2.170607e+01    2.752732e+00
  2.173782e+01    3.553146e+00
  2.176957e+01    4.585345e+00
  2.180132e+01    5.855265e+00
  2.183307e+01    7.137798e+00
  2.186482e+01    8.363200e+00
  2.189657e+01    8.839950e+00
  2.192832e+01    8.138900e+00
  2.196007e+01    6.550427e+00
  2.199183e+01    4.827599e+00
  2.202358e+01    3.571054e+00
  2.205533e+01    2.795918e+00
  2.208708e+01    2.346390e+00
  2.211883e+01    1.972915e+00
  2.215058e+01    1.761061e+00
  2.218233e+01    1.606722e+00
  2.221408e+01    1.494817e+00
  2.224584e+01    1.416123e+00
  2.227759e+01    1.326146e+00
  2.230934e+01    1.304280e+00
  2.234109e+01    1.266101e+00
  2.237284e+01    1.211319e+00
  2.240459e+01    1.192118e+00
  2.243634e+01    1.193226e+00
  2.246809e+01    1.179170e+00
  2.249984e+01    1.139774e+00
  2.253160e+01    1.113441e+00
  2.256335e+01    1.099063e+00
  2.259510e+01    1.110823e+00
  2.262685e+01    1.090484e+00
  2.265860e+01    1.088333e+00
  2.269035e+01    1.079691e+00
  2.272210e+01    1.067319e+00
  2.275385e+01    1.048961e+00
  2.278560e+01    1.060796e+00
  2.281736e+01    1.072460e+00
  2.284911e+01    1.056737e+00
  2.288086e+01    1.037955e+00
  2.291261e+01    1.039532e+00
  2.294436e+01    1.040564e+00
  2.297611e+01    1.027971e+00
  2.300786e+01    1.010864e+00
  2.303961e+01    1.009377e+00
  2.307137e+01    1.031862e+00
  2.310312e+01    1.027038e+00
  2.313487e+01    1.006222e+00
  2.316662e+01    1.003984e+00
  2.319837e+01    1.001489e+00
  2.323012e+01    9.849970e-01
  2.326187e+01    1.006559e+00
  2.329362e+01    9.749939e-01
  2.332537e+01    9.833682e-01
  2.335713e+01    9.805648e-01
  2.338888e+01    9.526159e-01
  2.342063e+01    9.697184e-01
  2.345238e+01    9.708045e-01
  2.348413e+01    9.689934e-01
  2.351588e+01    9.509313e-01
  2.354763e+01    9.618047e-01
  2.357938e+01    9.614629e-01
  2.361113e+01    9.787729e-01
  2.364289e+01    9.419131e-01
  2.367464e+01    9.477161e-01
  2.370639e+01    9.183163e-01
  2.373814e+01    9.222555e-01
  2.376989e+01    9.203657e-01
  2.380164e+01    9.147317e-01
  2.383339e+01    9.042344e-01
  2.386514e+01    9.193363e-01
  2.389689e+01    9.016896e-01
  2.392865e+01    8.881584e-01
  2.396040e+01    8.866192e-01
  2.399215e+01    9.176798e-01
  2.402390e+01    8.983374e-01
  2.405565e+01    8.952547e-01
  2.408740e+01    8.954094e-01
  2.411915e+01    9.003262e-01
  2.415090e+01    8.816741e-01
  2.418266e+01    8.924657e-01
  2.421441e+01    8.871914e-01
  2.424616e+01    8.763446e-01
  2.427791e+01    8.830115e-01
  2.430966e+01    8.944141e-01
  2.434141e+01    8.834298e-01
  2.437316e+01    8.870174e-01
  2.440491e+01    9.043592e-01
  2.443666e+01    8.909736e-01
  2.446842e+01    8.850126e-01
  2.450017e+01    9.040432e-01
  2.453192e+01    9.020348e-01
  2.456367e+01    8.794851e-01
  2.459542e+01    8.694117e-01
  2.462717e+01    8.906924e-01
  2.465892e+01    8.901928e-01
  2.469067e+01    8.835019e-01
  2.472242e+01    8.970397e-01
  2.475418e+01    8.812013e-01
  2.478593e+01    8.804485e-01
  2.481768e+01    8.946517e-01
  2.484943e+01    8.898020e-01
  2.488118e+01    9.024984e-01
  2.491293e+01    8.829556e-01
  2.494468e+01    8.985053e-01
  2.497643e+01    9.120768e-01
  2.500819e+01    8.785719e-01
  2.503994e+01    9.089409e-01
  2.507169e+01    8.890396e-01
  2.510344e+01    8.900865e-01
  2.513519e+01    9.087086e-01
  2.516694e+01    8.844088e-01
  2.519869e+01    9.398263e-01
  2.523044e+01    9.398254e-01
  2.526219e+01    9.393318e-01
  2.529395e+01    9.511321e-01
  2.532570e+01    9.390299e-01
  2.535745e+01    9.753813e-01
  2.538920e+01    9.891197e-01
  2.542095e+01    9.990361e-01
  2.545270e+01    1.009846e+00
  2.548445e+01    1.033046e+00
  2.551620e+01    1.060862e+00
  2.554795e+01    1.084756e+00
  2.557971e+01    1.151412e+00
  2.561146e+01    1.216922e+00
  2.564321e+01    1.306894e+00
  2.567496e+01    1.387954e+00
  2.570671e+01    1.611037e+00
  2.573846e+01    1.841836e+00
  2.577021e+01    2.231122e+00
  2.580196e+01    2.801202e+00
  2.583371e+01    3.668658e+00
  2.586547e+01    4.640191e+00
  2.589722e+01    5.825796e+00
  2.592897e+01    6.730355e+00
  2.596072e+01    7.106205e+00
  2.599247e+01    6.556293e+00
  2.602422e+01    5.279408e+00
  2.605597e+01    3.926969e+00
  2.608772e+01    2.973866e+00
  2.611948e+01    2.371345e+00
  2.615123e+01    1.961880e+00
  2.618298e+01    1.670478e+00
  2.621473e+01    1.475240e+00
  2.624648e+01    1.343469e+00
  2.627823e+01    1.249175e+00
  2.630998e+01    1.165284e+00
  2.634173e+01    1.118477e+00
  2.637348e+01    1.102468e+00
  2.640524e+01    1.045257e+00
  2.643699e+01    1.038902e+00
  2.646874e+01    1.009054e+00
  2.650049e+01    1.002298e+00
  2.653224e+01    9.844778e-01
  2.656399e+01    9.815636e-01
  2.659574e+01    9.626963e-01
  2.662749e+01    9.814411e-01
  2.665924e+01    9.814927e-01
  2.669100e+01    9.762606e-01
  2.672275e+01    9.645634e-01
  2.675450e+01    9.623719e-01
  2.678625e+01    9.419682e-01
  2.681800e+01    9.877709e-01
  2.684975e+01    9.756246e-01
  2.688150e+01    9.950595e-01
  2.691325e+01    9.864363e-01
  2.694501e+01    1.042637e+00
  2.697676e+01    1.071765e+00
  2.700851e+01    1.099119e+00
  2.704026e+01    1.202425e+00
  2.707201e+01    1.324052e+00
  2.710376e+01    1.485020e+00
  2.713551e+01    1.696074e+00
  2.716726e+01    1.968026e+00
  2.719901e+01    2.136181e+00
  2.723077e+01    2.169970e+00
  2.726252e+01    1.944180e+00
  2.729427e+01    1.667577e+00
  2.732602e+01    1.448932e+00
  2.735777e+01    1.274406e+00
  2.738952e+01    1.155549e+00
  2.742127e+01    1.084033e+00
  2.745302e+01    1.012660e+00
  2.748477e+01    1.000270e+00
  2.751653e+01    9.667715e-01
  2.754828e+01    9.498773e-01
  2.758003e+01    9.509357e-01
  2.761178e+01    9.180634e-01
  2.764353e+01    8.935025e-01
  2.767528e+01    9.154258e-01
  2.770703e+01    9.033868e-01
  2.773878e+01    9.004412e-01
  2.777054e+01    8.830602e-01
  2.780229e+01    8.900538e-01
  2.783404e+01    8.680676e-01
  2.786579e+01    8.935135e-01
  2.789754e+01    8.770161e-01
  2.792929e+01    8.723312e-01
  2.796104e+01    8.755006e-01
  2.799279e+01    8.658799e-01
  2.802454e+01    8.578530e-01
  2.805630e+01    8.683079e-01
  2.808805e+01    8.405905e-01
  2.811980e+01    8.377777e-01
  2.815155e+01    8.465073e-01
  2.818330e+01    8.572104e-01
  2.821505e+01    8.654031e-01
  2.824680e+01    8.805963e-01
  2.827855e+01    8.523949e-01
  2.831030e+01    8.407066e-01
  2.834206e+01    8.448119e-01
  2.837381e+01    8.354753e-01
  2.840556e+01    8.272759e-01
  2.843731e+01    8.375807e-01
  2.846906e+01    8.276696e-01
  2.850081e+01    8.338237e-01
  2.853256e+01    8.539636e-01
  2.856431e+01    8.132912e-01
  2.859606e+01    8.539584e-01
  2.862782e+01    8.458057e-01
  2.865957e+01    8.334603e-01
  2.869132e+01    8.169146e-01
  2.872307e+01    8.240392e-01
  2.875482e+01    8.487641e-01
  2.878657e+01    8.130023e-01
  2.881832e+01    8.270485e-01
  2.885007e+01    8.190798e-01
  2.888183e+01    8.052807e-01
  2.891358e+01    8.297890e-01
  2.894533e+01    8.183208e-01
  2.897708e+01    8.079262e-01
  2.900883e+01    8.120202e-01
  2.904058e+01    8.125483e-01
  2.907233e+01    8.197941e-01
  2.910408e+01    7.966872e-01
  2.913583e+01    8.102602e-01
  2.916759e+01    8.055153e-01
  2.919934e+01    7.960390e-01
  2.923109e+01    8.229262e-01
  2.926284e+01    7.970903e-01
  2.929459e+01    8.213786e-01
  2.932634e+01    8.062763e-01
  2.935809e+01    8.037683e-01
  2.938984e+01    8.287626e-01
  2.942159e+01    7.914740e-01
  2.945335e+01    8.079381e-01
  2.948510e+01    7.916784e-01
  2.951685e+01    7.943017e-01
  2.954860e+01    7.913047e-01
  2.958035e+01    7.887237e-01
  2.961210e+01    7.739457e-01
  2.964385e+01    7.956858e-01
  2.967560e+01    8.088692e-01
  2.970736e+01    7.898592e-01
  2.973911e+01    7.987130e-01
  2.977086e+01    8.035570e-01
  2.980261e+01    7.704635e-01
  2.983436e+01    7.840061e-01
  2.986611e+01    7.870009e-01
  2.989786e+01    7.794366e-01
  2.992961e+01    7.841933e-01
  2.996136e+01    8.007148e-01
  2.999312e+01    7.824699e-01
  3.002487e+01    7.997116e-01
  3.005662e+01    8.054379e-01
  3.008837e+01    8.131889e-01
  3.012012e+01    7.878093e-01
  3.015187e+01    8.029333e-01
  3.018362e+01    8.010603e-01
  3.021537e+01    7.864255e-01
  3.024712e+01    7.810363e-01
  3.027888e+01    7.691818e-01
  3.031063e+01    7.890450e-01
  3.034238e+01    7.806364e-01
  3.037413e+01    8.049569e-01
  3.040588e+01    7.956771e-01
  3.043763e+01    7.943341e-01
  3.046938e+01    7.893503e-01
  3.050113e+01    7.775038e-01
  3.053288e+01    7.796396e-01
  3.056464e+01    7.982013e-01
  3.059639e+01    7.905639e-01
  3.062814e+01    7.623662e-01
  3.065989e+01    7.818407e-01
  3.069164e+01    7.659855e-01
  3.072339e+01    7.793949e-01
  3.075514e+01    7.834260e-01
  3.078689e+01    7.899728e-01
  3.081865e+01    7.934930e-01
  3.085040e+01    7.770392e-01
  3.088215e+01    7.899321e-01
  3.091390e+01    7.941676e-01
  3.094565e+01    8.014018e-01
  3.097740e+01    7.814898e-01
  3.100915e+01    7.791814e-01
  3.104090e+01    7.819698e-01
  3.107265e+01    7.996767e-01
  3.110441e+01    7.800442e-01
  3.113616e+01    7.834345e-01
  3.116791e+01    7.979124e-01
  3.119966e+01    7.995716e-01
  3.123141e+01    7.641823e-01
  3.126316e+01    8.187419e-01
  3.129491e+01    8.166366e-01
  3.132666e+01    8.134201e-01
  3.135841e+01    7.902038e-01
  3.139017e+01    7.998772e-01
  3.142192e+01    8.190423e-01
  3.145367e+01    7.914109e-01
  3.148542e+01    8.241155e-01
  3.151717e+01    8.257005e-01
  3.154892e+01    8.484659e-01
  3.158067e+01    8.623238e-01
  3.161242e+01    8.865096e-01
  3.164418e+01    9.049916e-01
  3.167593e+01    9.608546e-01
  3.170768e+01    1.009318e+00
  3.173943e+01    1.137919e+00
  3.177118e+01    1.267877e+00
  3.180293e+01    1.452189e+00
  3.183468e+01    1.661518e+00
  3.186643e+01    1.954590e+00
  3.189818e+01    2.075601e+00
  3.192994e+01    2.014135e+00
  3.196169e+01    1.827403e+00
  3.199344e+01    1.574512e+00
  3.202519e+01    1.290408e+00
  3.205694e+01    1.172269e+00
  3.208869e+01    1.044913e+00
  3.212044e+01    9.580801e-01
  3.215219e+01    9.222335e-01
  3.218394e+01    8.469718e-01
  3.221570e+01    8.489266e-01
  3.224745e+01    8.192580e-01
  3.227920e+01    8.249184e-01
  3.231095e+01    8.158363e-01
  3.234270e+01    8.177927e-01
  3.237445e+01    7.758811e-01
  3.240620e+01    7.638515e-01
  3.243795e+01    7.811955e-01
  3.246970e+01    7.865074e-01
  3.250146e+01    7.810455e-01
  3.253321e+01    7.672612e-01
  3.254908e+01    7.837323e-01