File: XRD/Reaction conditions/2024-07-27_003_Ru-CGO-ex_Reaction_dwell_000023_data_000056.dat
# == pyFAI calibration ==
# Distance Sample to Detector: 0.4 m
# PONI: 9.750e-02, 1.135e-01 m
# Rotations: -0.000175 0.000000 -0.000000 rad
#
# == Fit2d calibration ==
# Distance Sample-beamCenter: 400.000 mm
# Center: x=1514.000, y=1300.000 pix
# Tilt: 0.010 deg  TiltPlanRot: 0.010 deg
#
# Detector Detector	 Spline= None	 PixelSize= 7.500e-05, 7.500e-05 m
#    Detector has a mask: False
#    Detector has a dark current: False
#    detector has a flat field: False
#
# Wavelength: 6.888e-11 m
# Mask applied: user provided
# Dark current applied: False
# Flat field applied: False
# Polarization factor: 0.99
# Normalization factor: 1.0
# --> /home/myspot/data/2024_07_Rosario/Ru-CGO-ex/2024-07-27_003_Ru-CGO-ex_Reaction_dwell_000023_data_000056.dat
#       q_nm^-1             I
  2.003187e-02    0.000000e+00
  5.178302e-02    2.671360e-02
  8.353417e-02    5.028606e-02
  1.152853e-01    4.572718e-02
  1.470365e-01    6.907506e-02
  1.787876e-01    4.287915e-02
  2.105388e-01    3.720425e-02
  2.422899e-01    1.932249e-02
  2.740411e-01    2.044231e-02
  3.057922e-01    6.332074e-02
  3.375433e-01    3.195669e-02
  3.692945e-01    2.330439e-02
  4.010456e-01    2.915685e-02
  4.327968e-01    5.137457e-02
  4.645479e-01    2.279809e-02
  4.962991e-01    3.740377e-02
  5.280502e-01    3.070341e-02
  5.598014e-01    3.405438e-02
  5.915525e-01    4.251806e-02
  6.233037e-01    3.662487e-02
  6.550548e-01    5.924215e-02
  6.868060e-01    3.068178e-02
  7.185571e-01    4.329040e-02
  7.503083e-01    6.368245e-02
  7.820594e-01    1.161937e-01
  8.138106e-01    2.652129e-01
  8.455617e-01    3.658304e-01
  8.773129e-01    4.670212e-01
  9.090640e-01    7.400662e-01
  9.408152e-01    8.596670e-01
  9.725663e-01    1.054711e+00
  1.004317e+00    1.221187e+00
  1.036069e+00    1.274212e+00
  1.067820e+00    1.471530e+00
  1.099571e+00    1.548749e+00
  1.131322e+00    1.645335e+00
  1.163073e+00    1.733616e+00
  1.194824e+00    1.770455e+00
  1.226575e+00    2.179989e+00
  1.258327e+00    2.521607e+00
  1.290078e+00    2.583524e+00
  1.321829e+00    2.752987e+00
  1.353580e+00    2.829772e+00
  1.385331e+00    2.886310e+00
  1.417082e+00    3.093450e+00
  1.448834e+00    3.070941e+00
  1.480585e+00    3.145402e+00
  1.512336e+00    3.077666e+00
  1.544087e+00    3.183873e+00
  1.575838e+00    3.108334e+00
  1.607589e+00    3.143725e+00
  1.639340e+00    3.036154e+00
  1.671092e+00    3.110883e+00
  1.702843e+00    3.155289e+00
  1.734594e+00    3.140127e+00
  1.766345e+00    3.038237e+00
  1.798096e+00    3.008955e+00
  1.829847e+00    3.173163e+00
  1.861598e+00    3.061081e+00
  1.893350e+00    3.051026e+00
  1.925101e+00    3.004834e+00
  1.956852e+00    3.059320e+00
  1.988603e+00    2.915936e+00
  2.020354e+00    3.019119e+00
  2.052105e+00    2.995815e+00
  2.083856e+00    3.177871e+00
  2.115608e+00    2.992659e+00
  2.147359e+00    3.090270e+00
  2.179110e+00    3.086538e+00
  2.210861e+00    3.061676e+00
  2.242612e+00    3.204428e+00
  2.274363e+00    3.245804e+00
  2.306115e+00    3.100533e+00
  2.337866e+00    3.221308e+00
  2.369617e+00    3.224740e+00
  2.401368e+00    3.251479e+00
  2.433119e+00    3.257781e+00
  2.464870e+00    3.230427e+00
  2.496621e+00    3.266177e+00
  2.528373e+00    3.219031e+00
  2.560124e+00    3.299049e+00
  2.591875e+00    3.244934e+00
  2.623626e+00    3.121945e+00
  2.655377e+00    3.242955e+00
  2.687128e+00    3.365924e+00
  2.718879e+00    3.160256e+00
  2.750631e+00    3.285985e+00
  2.782382e+00    3.260096e+00
  2.814133e+00    3.347994e+00
  2.845884e+00    3.403372e+00
  2.877635e+00    3.246577e+00
  2.909386e+00    3.253396e+00
  2.941137e+00    3.435086e+00
  2.972889e+00    3.234214e+00
  3.004640e+00    3.358388e+00
  3.036391e+00    3.430996e+00
  3.068142e+00    3.416361e+00
  3.099893e+00    3.265480e+00
  3.131644e+00    3.421264e+00
  3.163395e+00    3.365316e+00
  3.195147e+00    3.392102e+00
  3.226898e+00    3.420846e+00
  3.258649e+00    3.436099e+00
  3.290400e+00    3.438970e+00
  3.322151e+00    3.428672e+00
  3.353902e+00    3.403827e+00
  3.385654e+00    3.489621e+00
  3.417405e+00    3.499516e+00
  3.449156e+00    3.552973e+00
  3.480907e+00    3.486454e+00
  3.512658e+00    3.477902e+00
  3.544409e+00    3.509339e+00
  3.576160e+00    3.383425e+00
  3.607912e+00    3.444203e+00
  3.639663e+00    3.494119e+00
  3.671414e+00    3.401552e+00
  3.703165e+00    3.536437e+00
  3.734916e+00    3.478494e+00
  3.766667e+00    3.461052e+00
  3.798418e+00    3.468654e+00
  3.830170e+00    3.490322e+00
  3.861921e+00    3.536637e+00
  3.893672e+00    3.660188e+00
  3.925423e+00    3.491907e+00
  3.957174e+00    3.556542e+00
  3.988925e+00    3.588366e+00
  4.020676e+00    3.524523e+00
  4.052428e+00    3.595852e+00
  4.084179e+00    3.556784e+00
  4.115930e+00    3.559035e+00
  4.147681e+00    3.530054e+00
  4.179432e+00    3.519217e+00
  4.211183e+00    3.701818e+00
  4.242935e+00    3.586316e+00
  4.274686e+00    3.539809e+00
  4.306437e+00    3.452036e+00
  4.338188e+00    3.595846e+00
  4.369939e+00    3.489674e+00
  4.401690e+00    3.497564e+00
  4.433441e+00    3.540429e+00
  4.465193e+00    3.592987e+00
  4.496944e+00    3.582643e+00
  4.528695e+00    3.581080e+00
  4.560446e+00    3.680356e+00
  4.592197e+00    3.560513e+00
  4.623948e+00    3.598238e+00
  4.655699e+00    3.574775e+00
  4.687451e+00    3.628983e+00
  4.719202e+00    3.636494e+00
  4.750953e+00    3.604784e+00
  4.782704e+00    3.687296e+00
  4.814455e+00    3.660286e+00
  4.846206e+00    3.711433e+00
  4.877957e+00    3.673344e+00
  4.909709e+00    3.727031e+00
  4.941460e+00    3.658985e+00
  4.973211e+00    3.724345e+00
  5.004962e+00    3.573002e+00
  5.036713e+00    3.757450e+00
  5.068464e+00    3.666447e+00
  5.100216e+00    3.572480e+00
  5.131967e+00    3.581111e+00
  5.163718e+00    3.687819e+00
  5.195469e+00    3.656249e+00
  5.227220e+00    3.725538e+00
  5.258971e+00    3.742120e+00
  5.290722e+00    3.646421e+00
  5.322474e+00    3.687381e+00
  5.354225e+00    3.658817e+00
  5.385976e+00    3.719836e+00
  5.417727e+00    3.639316e+00
  5.449478e+00    3.627596e+00
  5.481229e+00    3.678401e+00
  5.512980e+00    3.555634e+00
  5.544732e+00    3.548175e+00
  5.576483e+00    3.653249e+00
  5.608234e+00    3.655727e+00
  5.639985e+00    3.523365e+00
  5.671736e+00    3.561473e+00
  5.703487e+00    3.631234e+00
  5.735238e+00    3.551320e+00
  5.766990e+00    3.561490e+00
  5.798741e+00    3.524154e+00
  5.830492e+00    3.650963e+00
  5.862243e+00    3.575206e+00
  5.893994e+00    3.657673e+00
  5.925745e+00    3.534408e+00
  5.957497e+00    3.539833e+00
  5.989248e+00    3.620743e+00
  6.020999e+00    3.508882e+00
  6.052750e+00    3.501203e+00
  6.084501e+00    3.680703e+00
  6.116252e+00    3.603585e+00
  6.148003e+00    3.565141e+00
  6.179755e+00    3.590385e+00
  6.211506e+00    3.610872e+00
  6.243257e+00    3.592217e+00
  6.275008e+00    3.577933e+00
  6.306759e+00    3.610134e+00
  6.338510e+00    3.551519e+00
  6.370261e+00    3.584753e+00
  6.402013e+00    3.554991e+00
  6.433764e+00    3.517901e+00
  6.465515e+00    3.530508e+00
  6.497266e+00    3.596621e+00
  6.529017e+00    3.554147e+00
  6.560768e+00    3.606755e+00
  6.592519e+00    3.566507e+00
  6.624271e+00    3.590180e+00
  6.656022e+00    3.598853e+00
  6.687773e+00    3.526812e+00
  6.719524e+00    3.527165e+00
  6.751275e+00    3.600137e+00
  6.783026e+00    3.556755e+00
  6.814777e+00    3.511220e+00
  6.846529e+00    3.598506e+00
  6.878280e+00    3.550647e+00
  6.910031e+00    3.548770e+00
  6.941782e+00    3.596805e+00
  6.973533e+00    3.596537e+00
  7.005284e+00    3.569500e+00
  7.037036e+00    3.525685e+00
  7.068787e+00    3.536837e+00
  7.100538e+00    3.532518e+00
  7.132289e+00    3.517618e+00
  7.164040e+00    3.507288e+00
  7.195791e+00    3.434489e+00
  7.227542e+00    3.516541e+00
  7.259294e+00    3.531971e+00
  7.291045e+00    3.551679e+00
  7.322796e+00    3.501770e+00
  7.354547e+00    3.536084e+00
  7.386298e+00    3.504587e+00
  7.418049e+00    3.461215e+00
  7.449800e+00    3.552152e+00
  7.481552e+00    3.614100e+00
  7.513303e+00    3.555640e+00
  7.545054e+00    3.512429e+00
  7.576805e+00    3.543022e+00
  7.608556e+00    3.586874e+00
  7.640307e+00    3.502815e+00
  7.672058e+00    3.509377e+00
  7.703810e+00    3.395944e+00
  7.735561e+00    3.441684e+00
  7.767312e+00    3.514021e+00
  7.799063e+00    3.396480e+00
  7.830814e+00    3.454555e+00
  7.862565e+00    3.520658e+00
  7.894317e+00    3.410198e+00
  7.926068e+00    3.481252e+00
  7.957819e+00    3.406930e+00
  7.989570e+00    3.476640e+00
  8.021321e+00    3.445363e+00
  8.053072e+00    3.431912e+00
  8.084823e+00    3.404023e+00
  8.116575e+00    3.525873e+00
  8.148326e+00    3.389800e+00
  8.180077e+00    3.406824e+00
  8.211828e+00    3.466327e+00
  8.243579e+00    3.500049e+00
  8.275330e+00    3.440309e+00
  8.307081e+00    3.373564e+00
  8.338833e+00    3.433465e+00
  8.370584e+00    3.415162e+00
  8.402335e+00    3.462726e+00
  8.434086e+00    3.396037e+00
  8.465837e+00    3.377213e+00
  8.497588e+00    3.418109e+00
  8.529339e+00    3.359663e+00
  8.561091e+00    3.344764e+00
  8.592842e+00    3.410251e+00
  8.624593e+00    3.403584e+00
  8.656344e+00    3.354929e+00
  8.688095e+00    3.378496e+00
  8.719846e+00    3.408192e+00
  8.751598e+00    3.328325e+00
  8.783349e+00    3.346766e+00
  8.815100e+00    3.361910e+00
  8.846851e+00    3.311946e+00
  8.878602e+00    3.338853e+00
  8.910353e+00    3.405581e+00
  8.942104e+00    3.292489e+00
  8.973856e+00    3.311164e+00
  9.005607e+00    3.350717e+00
  9.037358e+00    3.293815e+00
  9.069109e+00    3.270993e+00
  9.100860e+00    3.267107e+00
  9.132611e+00    3.294507e+00
  9.164362e+00    3.277355e+00
  9.196114e+00    3.299986e+00
  9.227865e+00    3.253476e+00
  9.259616e+00    3.234347e+00
  9.291367e+00    3.242157e+00
  9.323118e+00    3.213159e+00
  9.354869e+00    3.277757e+00
  9.386620e+00    3.234265e+00
  9.418372e+00    3.274697e+00
  9.450123e+00    3.191130e+00
  9.481874e+00    3.297871e+00
  9.513625e+00    3.208980e+00
  9.545376e+00    3.238556e+00
  9.577127e+00    3.174348e+00
  9.608878e+00    3.186564e+00
  9.640630e+00    3.221641e+00
  9.672381e+00    3.174912e+00
  9.704132e+00    3.166960e+00
  9.735883e+00    3.142283e+00
  9.767634e+00    3.154633e+00
  9.799385e+00    3.206848e+00
  9.831137e+00    3.197759e+00
  9.862888e+00    3.157802e+00
  9.894639e+00    3.150227e+00
  9.926390e+00    3.123562e+00
  9.958141e+00    3.133946e+00
  9.989892e+00    3.139676e+00
  1.002164e+01    3.155183e+00
  1.005339e+01    3.116208e+00
  1.008515e+01    3.111393e+00
  1.011690e+01    3.053096e+00
  1.014865e+01    3.104827e+00
  1.018040e+01    3.096788e+00
  1.021215e+01    3.142646e+00
  1.024390e+01    3.138697e+00
  1.027565e+01    3.033862e+00
  1.030740e+01    3.075116e+00
  1.033915e+01    3.082566e+00
  1.037091e+01    3.000478e+00
  1.040266e+01    3.057205e+00
  1.043441e+01    3.003339e+00
  1.046616e+01    2.991832e+00
  1.049791e+01    3.056521e+00
  1.052966e+01    2.966701e+00
  1.056141e+01    2.983626e+00
  1.059316e+01    3.070391e+00
  1.062492e+01    2.956919e+00
  1.065667e+01    2.974787e+00
  1.068842e+01    2.938028e+00
  1.072017e+01    2.981221e+00
  1.075192e+01    3.007539e+00
  1.078367e+01    2.937106e+00
  1.081542e+01    2.929821e+00
  1.084717e+01    2.996653e+00
  1.087892e+01    2.985614e+00
  1.091068e+01    3.005644e+00
  1.094243e+01    2.904806e+00
  1.097418e+01    2.913251e+00
  1.100593e+01    2.918942e+00
  1.103768e+01    2.870489e+00
  1.106943e+01    2.954864e+00
  1.110118e+01    2.912687e+00
  1.113293e+01    2.977736e+00
  1.116468e+01    2.882886e+00
  1.119644e+01    2.860145e+00
  1.122819e+01    2.887377e+00
  1.125994e+01    2.867508e+00
  1.129169e+01    2.897076e+00
  1.132344e+01    2.861835e+00
  1.135519e+01    2.879071e+00
  1.138694e+01    2.820377e+00
  1.141869e+01    2.904521e+00
  1.145045e+01    2.823655e+00
  1.148220e+01    2.840998e+00
  1.151395e+01    2.835408e+00
  1.154570e+01    2.768157e+00
  1.157745e+01    2.807389e+00
  1.160920e+01    2.802423e+00
  1.164095e+01    2.746693e+00
  1.167270e+01    2.760803e+00
  1.170445e+01    2.786639e+00
  1.173621e+01    2.760333e+00
  1.176796e+01    2.749609e+00
  1.179971e+01    2.743569e+00
  1.183146e+01    2.811118e+00
  1.186321e+01    2.753454e+00
  1.189496e+01    2.742897e+00
  1.192671e+01    2.707774e+00
  1.195846e+01    2.781449e+00
  1.199021e+01    2.724346e+00
  1.202197e+01    2.686963e+00
  1.205372e+01    2.760773e+00
  1.208547e+01    2.700260e+00
  1.211722e+01    2.747476e+00
  1.214897e+01    2.697344e+00
  1.218072e+01    2.671397e+00
  1.221247e+01    2.706179e+00
  1.224422e+01    2.704061e+00
  1.227597e+01    2.740966e+00
  1.230773e+01    2.691924e+00
  1.233948e+01    2.726063e+00
  1.237123e+01    2.699893e+00
  1.240298e+01    2.713432e+00
  1.243473e+01    2.737085e+00
  1.246648e+01    2.712199e+00
  1.249823e+01    2.714498e+00
  1.252998e+01    2.718657e+00
  1.256174e+01    2.759685e+00
  1.259349e+01    2.728154e+00
  1.262524e+01    2.782242e+00
  1.265699e+01    2.787404e+00
  1.268874e+01    2.863953e+00
  1.272049e+01    2.901751e+00
  1.275224e+01    2.895989e+00
  1.278399e+01    2.966013e+00
  1.281574e+01    3.066448e+00
  1.284750e+01    3.221865e+00
  1.287925e+01    3.328303e+00
  1.291100e+01    3.648938e+00
  1.294275e+01    4.081702e+00
  1.297450e+01    4.835911e+00
  1.300625e+01    5.840424e+00
  1.303800e+01    7.560887e+00
  1.306975e+01    1.011207e+01
  1.310150e+01    1.252048e+01
  1.313326e+01    1.484161e+01
  1.316501e+01    1.617852e+01
  1.319676e+01    1.562895e+01
  1.322851e+01    1.259984e+01
  1.326026e+01    9.127427e+00
  1.329201e+01    6.785975e+00
  1.332376e+01    5.364366e+00
  1.335551e+01    4.486426e+00
  1.338727e+01    3.894484e+00
  1.341902e+01    3.490246e+00
  1.345077e+01    3.219288e+00
  1.348252e+01    3.039529e+00
  1.351427e+01    2.934489e+00
  1.354602e+01    2.873145e+00
  1.357777e+01    2.769802e+00
  1.360952e+01    2.667378e+00
  1.364127e+01    2.645719e+00
  1.367303e+01    2.629891e+00
  1.370478e+01    2.582041e+00
  1.373653e+01    2.515490e+00
  1.376828e+01    2.465359e+00
  1.380003e+01    2.491933e+00
  1.383178e+01    2.488382e+00
  1.386353e+01    2.450629e+00
  1.389528e+01    2.458376e+00
  1.392703e+01    2.424675e+00
  1.395879e+01    2.331816e+00
  1.399054e+01    2.393687e+00
  1.402229e+01    2.445951e+00
  1.405404e+01    2.395623e+00
  1.408579e+01    2.343013e+00
  1.411754e+01    2.324519e+00
  1.414929e+01    2.322086e+00
  1.418104e+01    2.314232e+00
  1.421279e+01    2.329891e+00
  1.424455e+01    2.313379e+00
  1.427630e+01    2.297492e+00
  1.430805e+01    2.253034e+00
  1.433980e+01    2.319443e+00
  1.437155e+01    2.304909e+00
  1.440330e+01    2.258326e+00
  1.443505e+01    2.209394e+00
  1.446680e+01    2.205311e+00
  1.449856e+01    2.265151e+00
  1.453031e+01    2.236355e+00
  1.456206e+01    2.275950e+00
  1.459381e+01    2.216343e+00
  1.462556e+01    2.232394e+00
  1.465731e+01    2.218148e+00
  1.468906e+01    2.247398e+00
  1.472081e+01    2.197646e+00
  1.475256e+01    2.200641e+00
  1.478432e+01    2.244859e+00
  1.481607e+01    2.226998e+00
  1.484782e+01    2.209308e+00
  1.487957e+01    2.212560e+00
  1.491132e+01    2.236800e+00
  1.494307e+01    2.341165e+00
  1.497482e+01    2.355100e+00
  1.500657e+01    2.444667e+00
  1.503832e+01    2.602568e+00
  1.507008e+01    2.824523e+00
  1.510183e+01    3.187524e+00
  1.513358e+01    3.769711e+00
  1.516533e+01    4.557131e+00
  1.519708e+01    5.150555e+00
  1.522883e+01    5.667801e+00
  1.526058e+01    5.846304e+00
  1.529233e+01    5.475222e+00
  1.532409e+01    4.690049e+00
  1.535584e+01    3.816966e+00
  1.538759e+01    3.165046e+00
  1.541934e+01    2.823989e+00
  1.545109e+01    2.550286e+00
  1.548284e+01    2.375863e+00
  1.551459e+01    2.254089e+00
  1.554634e+01    2.205974e+00
  1.557809e+01    2.112514e+00
  1.560985e+01    2.066401e+00
  1.564160e+01    2.063182e+00
  1.567335e+01    2.015044e+00
  1.570510e+01    1.990069e+00
  1.573685e+01    1.980783e+00
  1.576860e+01    2.015497e+00
  1.580035e+01    1.930160e+00
  1.583210e+01    1.940863e+00
  1.586385e+01    1.915679e+00
  1.589561e+01    1.934333e+00
  1.592736e+01    1.922246e+00
  1.595911e+01    1.835982e+00
  1.599086e+01    1.877214e+00
  1.602261e+01    1.879749e+00
  1.605436e+01    1.829556e+00
  1.608611e+01    1.875682e+00
  1.611786e+01    1.864529e+00
  1.614961e+01    1.862566e+00
  1.618137e+01    1.858463e+00
  1.621312e+01    1.827518e+00
  1.624487e+01    1.829331e+00
  1.627662e+01    1.800233e+00
  1.630837e+01    1.789430e+00
  1.634012e+01    1.799601e+00
  1.637187e+01    1.793808e+00
  1.640362e+01    1.771522e+00
  1.643538e+01    1.789577e+00
  1.646713e+01    1.783639e+00
  1.649888e+01    1.741868e+00
  1.653063e+01    1.742053e+00
  1.656238e+01    1.755684e+00
  1.659413e+01    1.780185e+00
  1.662588e+01    1.717403e+00
  1.665763e+01    1.732126e+00
  1.668938e+01    1.764320e+00
  1.672114e+01    1.691368e+00
  1.675289e+01    1.693858e+00
  1.678464e+01    1.719959e+00
  1.681639e+01    1.667425e+00
  1.684814e+01    1.703986e+00
  1.687989e+01    1.710427e+00
  1.691164e+01    1.681395e+00
  1.694339e+01    1.678378e+00
  1.697514e+01    1.668983e+00
  1.700690e+01    1.659528e+00
  1.703865e+01    1.654264e+00
  1.707040e+01    1.664841e+00
  1.710215e+01    1.638647e+00
  1.713390e+01    1.683703e+00
  1.716565e+01    1.640602e+00
  1.719740e+01    1.641472e+00
  1.722915e+01    1.640481e+00
  1.726091e+01    1.622113e+00
  1.729266e+01    1.656259e+00
  1.732441e+01    1.600150e+00
  1.735616e+01    1.641127e+00
  1.738791e+01    1.589902e+00
  1.741966e+01    1.562068e+00
  1.745141e+01    1.600723e+00
  1.748316e+01    1.596421e+00
  1.751491e+01    1.610817e+00
  1.754667e+01    1.599035e+00
  1.757842e+01    1.586030e+00
  1.761017e+01    1.546807e+00
  1.764192e+01    1.541282e+00
  1.767367e+01    1.545135e+00
  1.770542e+01    1.569882e+00
  1.773717e+01    1.565118e+00
  1.776892e+01    1.541076e+00
  1.780067e+01    1.573630e+00
  1.783243e+01    1.524424e+00
  1.786418e+01    1.573206e+00
  1.789593e+01    1.558550e+00
  1.792768e+01    1.549164e+00
  1.795943e+01    1.524693e+00
  1.799118e+01    1.519941e+00
  1.802293e+01    1.505463e+00
  1.805468e+01    1.519148e+00
  1.808643e+01    1.512204e+00
  1.811819e+01    1.520065e+00
  1.814994e+01    1.483288e+00
  1.818169e+01    1.495194e+00
  1.821344e+01    1.490392e+00
  1.824519e+01    1.491367e+00
  1.827694e+01    1.495309e+00
  1.830869e+01    1.499064e+00
  1.834044e+01    1.475503e+00
  1.837220e+01    1.481337e+00
  1.840395e+01    1.457378e+00
  1.843570e+01    1.451365e+00
  1.846745e+01    1.455488e+00
  1.849920e+01    1.445222e+00
  1.853095e+01    1.412492e+00
  1.856270e+01    1.444411e+00
  1.859445e+01    1.414384e+00
  1.862620e+01    1.461362e+00
  1.865796e+01    1.455282e+00
  1.868971e+01    1.431250e+00
  1.872146e+01    1.384543e+00
  1.875321e+01    1.390666e+00
  1.878496e+01    1.374904e+00
  1.881671e+01    1.446280e+00
  1.884846e+01    1.424053e+00
  1.888021e+01    1.431005e+00
  1.891196e+01    1.387346e+00
  1.894372e+01    1.427907e+00
  1.897547e+01    1.368652e+00
  1.900722e+01    1.384863e+00
  1.903897e+01    1.377297e+00
  1.907072e+01    1.398172e+00
  1.910247e+01    1.355005e+00
  1.913422e+01    1.354957e+00
  1.916597e+01    1.394867e+00
  1.919773e+01    1.357843e+00
  1.922948e+01    1.385259e+00
  1.926123e+01    1.369013e+00
  1.929298e+01    1.395447e+00
  1.932473e+01    1.367277e+00
  1.935648e+01    1.336269e+00
  1.938823e+01    1.351540e+00
  1.941998e+01    1.345146e+00
  1.945173e+01    1.365832e+00
  1.948349e+01    1.308023e+00
  1.951524e+01    1.349724e+00
  1.954699e+01    1.314380e+00
  1.957874e+01    1.318902e+00
  1.961049e+01    1.348207e+00
  1.964224e+01    1.316648e+00
  1.967399e+01    1.325193e+00
  1.970574e+01    1.325557e+00
  1.973749e+01    1.300227e+00
  1.976925e+01    1.312936e+00
  1.980100e+01    1.313786e+00
  1.983275e+01    1.312575e+00
  1.986450e+01    1.307128e+00
  1.989625e+01    1.292683e+00
  1.992800e+01    1.302026e+00
  1.995975e+01    1.293990e+00
  1.999150e+01    1.290449e+00
  2.002325e+01    1.309928e+00
  2.005501e+01    1.285040e+00
  2.008676e+01    1.285594e+00
  2.011851e+01    1.259067e+00
  2.015026e+01    1.270904e+00
  2.018201e+01    1.310560e+00
  2.021376e+01    1.274483e+00
  2.024551e+01    1.255723e+00
  2.027726e+01    1.249280e+00
  2.030902e+01    1.229362e+00
  2.034077e+01    1.246751e+00
  2.037252e+01    1.245567e+00
  2.040427e+01    1.258791e+00
  2.043602e+01    1.249539e+00
  2.046777e+01    1.243983e+00
  2.049952e+01    1.219066e+00
  2.053127e+01    1.245301e+00
  2.056302e+01    1.243338e+00
  2.059478e+01    1.260169e+00
  2.062653e+01    1.262433e+00
  2.065828e+01    1.227984e+00
  2.069003e+01    1.228671e+00
  2.072178e+01    1.255616e+00
  2.075353e+01    1.234243e+00
  2.078528e+01    1.239961e+00
  2.081703e+01    1.216580e+00
  2.084878e+01    1.236326e+00
  2.088054e+01    1.257673e+00
  2.091229e+01    1.229376e+00
  2.094404e+01    1.216873e+00
  2.097579e+01    1.239020e+00
  2.100754e+01    1.244972e+00
  2.103929e+01    1.235422e+00
  2.107104e+01    1.241454e+00
  2.110279e+01    1.220227e+00
  2.113455e+01    1.195031e+00
  2.116630e+01    1.239651e+00
  2.119805e+01    1.236959e+00
  2.122980e+01    1.249934e+00
  2.126155e+01    1.248004e+00
  2.129330e+01    1.278110e+00
  2.132505e+01    1.282113e+00
  2.135680e+01    1.286782e+00
  2.138855e+01    1.332700e+00
  2.142031e+01    1.317424e+00
  2.145206e+01    1.382975e+00
  2.148381e+01    1.360743e+00
  2.151556e+01    1.471563e+00
  2.154731e+01    1.524112e+00
  2.157906e+01    1.602789e+00
  2.161081e+01    1.766665e+00
  2.164256e+01    1.951540e+00
  2.167431e+01    2.270947e+00
  2.170607e+01    2.741683e+00
  2.173782e+01    3.525032e+00
  2.176957e+01    4.506881e+00
  2.180132e+01    5.788887e+00
  2.183307e+01    7.060833e+00
  2.186482e+01    8.269441e+00
  2.189657e+01    8.987252e+00
  2.192832e+01    8.339014e+00
  2.196007e+01    6.695673e+00
  2.199183e+01    4.989626e+00
  2.202358e+01    3.704553e+00
  2.205533e+01    2.880385e+00
  2.208708e+01    2.332676e+00
  2.211883e+01    2.016234e+00
  2.215058e+01    1.780609e+00
  2.218233e+01    1.631920e+00
  2.221408e+01    1.491534e+00
  2.224584e+01    1.397141e+00
  2.227759e+01    1.360389e+00
  2.230934e+01    1.296876e+00
  2.234109e+01    1.252620e+00
  2.237284e+01    1.249320e+00
  2.240459e+01    1.200536e+00
  2.243634e+01    1.198868e+00
  2.246809e+01    1.176278e+00
  2.249984e+01    1.164962e+00
  2.253160e+01    1.141963e+00
  2.256335e+01    1.095370e+00
  2.259510e+01    1.109074e+00
  2.262685e+01    1.099658e+00
  2.265860e+01    1.086340e+00
  2.269035e+01    1.092210e+00
  2.272210e+01    1.094996e+00
  2.275385e+01    1.077670e+00
  2.278560e+01    1.066190e+00
  2.281736e+01    1.060595e+00
  2.284911e+01    1.046029e+00
  2.288086e+01    1.055539e+00
  2.291261e+01    1.040277e+00
  2.294436e+01    1.064568e+00
  2.297611e+01    9.892164e-01
  2.300786e+01    1.031256e+00
  2.303961e+01    1.005767e+00
  2.307137e+01    1.014693e+00
  2.310312e+01    1.004021e+00
  2.313487e+01    1.022826e+00
  2.316662e+01    1.012626e+00
  2.319837e+01    1.012022e+00
  2.323012e+01    1.009043e+00
  2.326187e+01    9.806833e-01
  2.329362e+01    9.794574e-01
  2.332537e+01    1.003778e+00
  2.335713e+01    9.819807e-01
  2.338888e+01    9.972647e-01
  2.342063e+01    9.740686e-01
  2.345238e+01    9.492295e-01
  2.348413e+01    9.610077e-01
  2.351588e+01    9.668294e-01
  2.354763e+01    9.542072e-01
  2.357938e+01    9.741002e-01
  2.361113e+01    9.885321e-01
  2.364289e+01    9.681724e-01
  2.367464e+01    9.238576e-01
  2.370639e+01    9.274003e-01
  2.373814e+01    9.384242e-01
  2.376989e+01    9.494760e-01
  2.380164e+01    9.486594e-01
  2.383339e+01    9.248213e-01
  2.386514e+01    9.226013e-01
  2.389689e+01    9.102933e-01
  2.392865e+01    9.023693e-01
  2.396040e+01    8.825459e-01
  2.399215e+01    9.236678e-01
  2.402390e+01    8.942699e-01
  2.405565e+01    8.864616e-01
  2.408740e+01    8.867600e-01
  2.411915e+01    8.992066e-01
  2.415090e+01    8.970793e-01
  2.418266e+01    8.743227e-01
  2.421441e+01    8.813764e-01
  2.424616e+01    8.862608e-01
  2.427791e+01    8.887240e-01
  2.430966e+01    8.975030e-01
  2.434141e+01    9.057116e-01
  2.437316e+01    8.869175e-01
  2.440491e+01    9.218993e-01
  2.443666e+01    9.037844e-01
  2.446842e+01    9.140977e-01
  2.450017e+01    8.920011e-01
  2.453192e+01    9.043609e-01
  2.456367e+01    9.009318e-01
  2.459542e+01    9.067166e-01
  2.462717e+01    8.944371e-01
  2.465892e+01    8.823603e-01
  2.469067e+01    8.995352e-01
  2.472242e+01    8.928632e-01
  2.475418e+01    9.058633e-01
  2.478593e+01    8.917568e-01
  2.481768e+01    8.930637e-01
  2.484943e+01    8.928991e-01
  2.488118e+01    8.993340e-01
  2.491293e+01    9.049696e-01
  2.494468e+01    8.900988e-01
  2.497643e+01    8.754346e-01
  2.500819e+01    8.886669e-01
  2.503994e+01    8.889086e-01
  2.507169e+01    9.250347e-01
  2.510344e+01    9.113393e-01
  2.513519e+01    8.976127e-01
  2.516694e+01    9.082613e-01
  2.519869e+01    9.180549e-01
  2.523044e+01    9.373631e-01
  2.526219e+01    9.536797e-01
  2.529395e+01    9.646331e-01
  2.532570e+01    9.466785e-01
  2.535745e+01    9.774078e-01
  2.538920e+01    1.007311e+00
  2.542095e+01    1.011785e+00
  2.545270e+01    1.018142e+00
  2.548445e+01    1.020831e+00
  2.551620e+01    1.090904e+00
  2.554795e+01    1.107287e+00
  2.557971e+01    1.157029e+00
  2.561146e+01    1.228575e+00
  2.564321e+01    1.302404e+00
  2.567496e+01    1.391057e+00
  2.570671e+01    1.604216e+00
  2.573846e+01    1.843162e+00
  2.577021e+01    2.214012e+00
  2.580196e+01    2.771380e+00
  2.583371e+01    3.574930e+00
  2.586547e+01    4.631656e+00
  2.589722e+01    5.833604e+00
  2.592897e+01    6.753559e+00
  2.596072e+01    7.141096e+00
  2.599247e+01    6.597757e+00
  2.602422e+01    5.380193e+00
  2.605597e+01    4.041479e+00
  2.608772e+01    3.065895e+00
  2.611948e+01    2.385296e+00
  2.615123e+01    1.965711e+00
  2.618298e+01    1.685974e+00
  2.621473e+01    1.500047e+00
  2.624648e+01    1.366727e+00
  2.627823e+01    1.269748e+00
  2.630998e+01    1.194195e+00
  2.634173e+01    1.146109e+00
  2.637348e+01    1.117598e+00
  2.640524e+01    1.062956e+00
  2.643699e+01    1.041803e+00
  2.646874e+01    1.016929e+00
  2.650049e+01    1.007906e+00
  2.653224e+01    1.006438e+00
  2.656399e+01    9.785963e-01
  2.659574e+01    9.843702e-01
  2.662749e+01    9.799079e-01
  2.665924e+01    9.720836e-01
  2.669100e+01    9.599438e-01
  2.672275e+01    9.878475e-01
  2.675450e+01    9.669008e-01
  2.678625e+01    9.691572e-01
  2.681800e+01    9.751693e-01
  2.684975e+01    9.858887e-01
  2.688150e+01    9.929740e-01
  2.691325e+01    1.018831e+00
  2.694501e+01    1.030228e+00
  2.697676e+01    1.026094e+00
  2.700851e+01    1.114186e+00
  2.704026e+01    1.166656e+00
  2.707201e+01    1.330976e+00
  2.710376e+01    1.497014e+00
  2.713551e+01    1.737344e+00
  2.716726e+01    1.974824e+00
  2.719901e+01    2.154373e+00
  2.723077e+01    2.192091e+00
  2.726252e+01    1.961744e+00
  2.729427e+01    1.694600e+00
  2.732602e+01    1.447232e+00
  2.735777e+01    1.278647e+00
  2.738952e+01    1.156392e+00
  2.742127e+01    1.109572e+00
  2.745302e+01    1.029978e+00
  2.748477e+01    1.003374e+00
  2.751653e+01    1.007814e+00
  2.754828e+01    9.345796e-01
  2.758003e+01    9.218639e-01
  2.761178e+01    9.322128e-01
  2.764353e+01    9.099175e-01
  2.767528e+01    9.345485e-01
  2.770703e+01    9.186625e-01
  2.773878e+01    9.011635e-01
  2.777054e+01    9.108444e-01
  2.780229e+01    8.968017e-01
  2.783404e+01    8.673217e-01
  2.786579e+01    8.743902e-01
  2.789754e+01    8.552974e-01
  2.792929e+01    8.703379e-01
  2.796104e+01    8.704678e-01
  2.799279e+01    8.617120e-01
  2.802454e+01    8.523512e-01
  2.805630e+01    8.698477e-01
  2.808805e+01    8.646755e-01
  2.811980e+01    8.721001e-01
  2.815155e+01    8.500133e-01
  2.818330e+01    8.557464e-01
  2.821505e+01    8.500322e-01
  2.824680e+01    8.683996e-01
  2.827855e+01    8.517723e-01
  2.831030e+01    8.582838e-01
  2.834206e+01    8.644953e-01
  2.837381e+01    8.707567e-01
  2.840556e+01    8.430752e-01
  2.843731e+01    8.418929e-01
  2.846906e+01    8.622038e-01
  2.850081e+01    8.481179e-01
  2.853256e+01    8.444980e-01
  2.856431e+01    8.362345e-01
  2.859606e+01    8.507378e-01
  2.862782e+01    8.377012e-01
  2.865957e+01    8.503886e-01
  2.869132e+01    8.430015e-01
  2.872307e+01    8.219908e-01
  2.875482e+01    8.444122e-01
  2.878657e+01    8.265800e-01
  2.881832e+01    8.323187e-01
  2.885007e+01    8.520295e-01
  2.888183e+01    8.078251e-01
  2.891358e+01    8.181660e-01
  2.894533e+01    8.190398e-01
  2.897708e+01    8.346969e-01
  2.900883e+01    8.261033e-01
  2.904058e+01    8.134724e-01
  2.907233e+01    8.259268e-01
  2.910408e+01    8.241318e-01
  2.913583e+01    8.350109e-01
  2.916759e+01    8.090879e-01
  2.919934e+01    8.063837e-01
  2.923109e+01    8.028537e-01
  2.926284e+01    8.266674e-01
  2.929459e+01    8.330653e-01
  2.932634e+01    8.055127e-01
  2.935809e+01    8.125622e-01
  2.938984e+01    8.192105e-01
  2.942159e+01    7.980279e-01
  2.945335e+01    8.116375e-01
  2.948510e+01    8.025303e-01
  2.951685e+01    8.051267e-01
  2.954860e+01    8.054506e-01
  2.958035e+01    8.078291e-01
  2.961210e+01    7.970380e-01
  2.964385e+01    7.936561e-01
  2.967560e+01    7.740613e-01
  2.970736e+01    7.985021e-01
  2.973911e+01    7.939815e-01
  2.977086e+01    8.023462e-01
  2.980261e+01    8.020095e-01
  2.983436e+01    7.832333e-01
  2.986611e+01    7.758110e-01
  2.989786e+01    8.130026e-01
  2.992961e+01    7.944081e-01
  2.996136e+01    7.995980e-01
  2.999312e+01    8.117247e-01
  3.002487e+01    8.226780e-01
  3.005662e+01    8.217304e-01
  3.008837e+01    7.962902e-01
  3.012012e+01    7.991983e-01
  3.015187e+01    8.061310e-01
  3.018362e+01    7.831153e-01
  3.021537e+01    7.747769e-01
  3.024712e+01    7.948875e-01
  3.027888e+01    7.964914e-01
  3.031063e+01    7.940152e-01
  3.034238e+01    8.135951e-01
  3.037413e+01    7.927840e-01
  3.040588e+01    8.006042e-01
  3.043763e+01    8.011289e-01
  3.046938e+01    7.940221e-01
  3.050113e+01    7.848006e-01
  3.053288e+01    7.805902e-01
  3.056464e+01    7.962192e-01
  3.059639e+01    7.887138e-01
  3.062814e+01    8.183740e-01
  3.065989e+01    7.871660e-01
  3.069164e+01    7.753078e-01
  3.072339e+01    7.939301e-01
  3.075514e+01    7.800909e-01
  3.078689e+01    7.831356e-01
  3.081865e+01    8.032712e-01
  3.085040e+01    7.763786e-01
  3.088215e+01    7.836336e-01
  3.091390e+01    7.856080e-01
  3.094565e+01    7.739711e-01
  3.097740e+01    7.710607e-01
  3.100915e+01    7.850286e-01
  3.104090e+01    8.006242e-01
  3.107265e+01    7.710727e-01
  3.110441e+01    8.018763e-01
  3.113616e+01    7.903444e-01
  3.116791e+01    8.029358e-01
  3.119966e+01    7.813914e-01
  3.123141e+01    7.998236e-01
  3.126316e+01    7.791778e-01
  3.129491e+01    8.129864e-01
  3.132666e+01    7.961543e-01
  3.135841e+01    7.941883e-01
  3.139017e+01    8.082442e-01
  3.142192e+01    7.960450e-01
  3.145367e+01    8.222989e-01
  3.148542e+01    8.379761e-01
  3.151717e+01    8.501748e-01
  3.154892e+01    8.359103e-01
  3.158067e+01    8.709995e-01
  3.161242e+01    8.767468e-01
  3.164418e+01    9.425691e-01
  3.167593e+01    9.663850e-01
  3.170768e+01    1.017035e+00
  3.173943e+01    1.123127e+00
  3.177118e+01    1.241311e+00
  3.180293e+01    1.443175e+00
  3.183468e+01    1.718505e+00
  3.186643e+01    1.950466e+00
  3.189818e+01    2.060429e+00
  3.192994e+01    2.010244e+00
  3.196169e+01    1.836240e+00
  3.199344e+01    1.580629e+00
  3.202519e+01    1.311138e+00
  3.205694e+01    1.180943e+00
  3.208869e+01    1.064737e+00
  3.212044e+01    9.655309e-01
  3.215219e+01    9.509339e-01
  3.218394e+01    8.685700e-01
  3.221570e+01    8.677391e-01
  3.224745e+01    8.225718e-01
  3.227920e+01    8.330688e-01
  3.231095e+01    8.342105e-01
  3.234270e+01    8.011444e-01
  3.237445e+01    8.074774e-01
  3.240620e+01    8.038425e-01
  3.243795e+01    7.969502e-01
  3.246970e+01    7.782384e-01
  3.250146e+01    7.831284e-01
  3.253321e+01    7.591228e-01
  3.254908e+01    7.599220e-01