File: XRD/Reaction conditions/2024-07-27_003_Ru-CGO-ex_Reaction_dwell_000023_data_000179.dat
# == pyFAI calibration ==
# Distance Sample to Detector: 0.4 m
# PONI: 9.750e-02, 1.135e-01 m
# Rotations: -0.000175 0.000000 -0.000000 rad
#
# == Fit2d calibration ==
# Distance Sample-beamCenter: 400.000 mm
# Center: x=1514.000, y=1300.000 pix
# Tilt: 0.010 deg  TiltPlanRot: 0.010 deg
#
# Detector Detector	 Spline= None	 PixelSize= 7.500e-05, 7.500e-05 m
#    Detector has a mask: False
#    Detector has a dark current: False
#    detector has a flat field: False
#
# Wavelength: 6.888e-11 m
# Mask applied: user provided
# Dark current applied: False
# Flat field applied: False
# Polarization factor: 0.99
# Normalization factor: 1.0
# --> /home/myspot/data/2024_07_Rosario/Ru-CGO-ex/2024-07-27_003_Ru-CGO-ex_Reaction_dwell_000023_data_000179.dat
#       q_nm^-1             I
  2.003187e-02    2.195834e-01
  5.178302e-02    7.387637e-02
  8.353417e-02    1.202899e-01
  1.152853e-01    7.400521e-02
  1.470365e-01    1.713731e-02
  1.787876e-01    5.961713e-03
  2.105388e-01    0.000000e+00
  2.422899e-01    5.901079e-02
  2.740411e-01    2.183491e-02
  3.057922e-01    4.489198e-02
  3.375433e-01    6.830246e-02
  3.692945e-01    2.998097e-02
  4.010456e-01    2.699693e-02
  4.327968e-01    7.504305e-02
  4.645479e-01    2.752776e-02
  4.962991e-01    1.590376e-02
  5.280502e-01    2.244188e-02
  5.598014e-01    2.239550e-02
  5.915525e-01    4.560129e-02
  6.233037e-01    3.271072e-02
  6.550548e-01    4.270554e-02
  6.868060e-01    3.823638e-02
  7.185571e-01    5.246908e-02
  7.503083e-01    5.897210e-02
  7.820594e-01    1.421943e-01
  8.138106e-01    2.700157e-01
  8.455617e-01    3.227494e-01
  8.773129e-01    4.686699e-01
  9.090640e-01    6.365455e-01
  9.408152e-01    8.548959e-01
  9.725663e-01    1.017313e+00
  1.004317e+00    1.247196e+00
  1.036069e+00    1.384391e+00
  1.067820e+00    1.426016e+00
  1.099571e+00    1.612218e+00
  1.131322e+00    1.529659e+00
  1.163073e+00    1.684272e+00
  1.194824e+00    1.855085e+00
  1.226575e+00    2.236676e+00
  1.258327e+00    2.287462e+00
  1.290078e+00    2.554625e+00
  1.321829e+00    2.695167e+00
  1.353580e+00    2.659073e+00
  1.385331e+00    2.808808e+00
  1.417082e+00    2.992639e+00
  1.448834e+00    2.808354e+00
  1.480585e+00    2.989840e+00
  1.512336e+00    3.178358e+00
  1.544087e+00    3.157527e+00
  1.575838e+00    3.247137e+00
  1.607589e+00    3.112099e+00
  1.639340e+00    3.139387e+00
  1.671092e+00    3.024101e+00
  1.702843e+00    2.959453e+00
  1.734594e+00    3.079483e+00
  1.766345e+00    3.150589e+00
  1.798096e+00    2.904975e+00
  1.829847e+00    2.968396e+00
  1.861598e+00    3.034819e+00
  1.893350e+00    3.006500e+00
  1.925101e+00    2.933605e+00
  1.956852e+00    2.991519e+00
  1.988603e+00    2.989416e+00
  2.020354e+00    2.941373e+00
  2.052105e+00    3.061330e+00
  2.083856e+00    3.117430e+00
  2.115608e+00    2.982620e+00
  2.147359e+00    3.027408e+00
  2.179110e+00    3.053896e+00
  2.210861e+00    3.015286e+00
  2.242612e+00    3.138144e+00
  2.274363e+00    3.094855e+00
  2.306115e+00    3.143776e+00
  2.337866e+00    3.098372e+00
  2.369617e+00    3.056848e+00
  2.401368e+00    3.235416e+00
  2.433119e+00    3.147117e+00
  2.464870e+00    3.078737e+00
  2.496621e+00    3.061178e+00
  2.528373e+00    3.129953e+00
  2.560124e+00    3.060568e+00
  2.591875e+00    3.094093e+00
  2.623626e+00    3.261668e+00
  2.655377e+00    3.199445e+00
  2.687128e+00    3.187598e+00
  2.718879e+00    3.246733e+00
  2.750631e+00    3.173671e+00
  2.782382e+00    3.175695e+00
  2.814133e+00    3.189760e+00
  2.845884e+00    3.182445e+00
  2.877635e+00    3.231980e+00
  2.909386e+00    3.240820e+00
  2.941137e+00    3.357592e+00
  2.972889e+00    3.185846e+00
  3.004640e+00    3.286857e+00
  3.036391e+00    3.263046e+00
  3.068142e+00    3.271646e+00
  3.099893e+00    3.415995e+00
  3.131644e+00    3.246616e+00
  3.163395e+00    3.304606e+00
  3.195147e+00    3.313460e+00
  3.226898e+00    3.272302e+00
  3.258649e+00    3.327576e+00
  3.290400e+00    3.376639e+00
  3.322151e+00    3.396074e+00
  3.353902e+00    3.389997e+00
  3.385654e+00    3.409949e+00
  3.417405e+00    3.413609e+00
  3.449156e+00    3.354359e+00
  3.480907e+00    3.397916e+00
  3.512658e+00    3.423736e+00
  3.544409e+00    3.460548e+00
  3.576160e+00    3.345949e+00
  3.607912e+00    3.479025e+00
  3.639663e+00    3.477868e+00
  3.671414e+00    3.399903e+00
  3.703165e+00    3.423459e+00
  3.734916e+00    3.470433e+00
  3.766667e+00    3.313174e+00
  3.798418e+00    3.432193e+00
  3.830170e+00    3.419872e+00
  3.861921e+00    3.528482e+00
  3.893672e+00    3.412899e+00
  3.925423e+00    3.431736e+00
  3.957174e+00    3.374388e+00
  3.988925e+00    3.504998e+00
  4.020676e+00    3.443412e+00
  4.052428e+00    3.528431e+00
  4.084179e+00    3.560986e+00
  4.115930e+00    3.458301e+00
  4.147681e+00    3.478103e+00
  4.179432e+00    3.534713e+00
  4.211183e+00    3.480398e+00
  4.242935e+00    3.499824e+00
  4.274686e+00    3.533076e+00
  4.306437e+00    3.584818e+00
  4.338188e+00    3.471526e+00
  4.369939e+00    3.510001e+00
  4.401690e+00    3.494209e+00
  4.433441e+00    3.536236e+00
  4.465193e+00    3.542583e+00
  4.496944e+00    3.581062e+00
  4.528695e+00    3.633065e+00
  4.560446e+00    3.573958e+00
  4.592197e+00    3.564411e+00
  4.623948e+00    3.543312e+00
  4.655699e+00    3.631263e+00
  4.687451e+00    3.498130e+00
  4.719202e+00    3.610993e+00
  4.750953e+00    3.590489e+00
  4.782704e+00    3.508773e+00
  4.814455e+00    3.497680e+00
  4.846206e+00    3.606445e+00
  4.877957e+00    3.609548e+00
  4.909709e+00    3.527212e+00
  4.941460e+00    3.565164e+00
  4.973211e+00    3.636060e+00
  5.004962e+00    3.606819e+00
  5.036713e+00    3.601387e+00
  5.068464e+00    3.513413e+00
  5.100216e+00    3.578220e+00
  5.131967e+00    3.541619e+00
  5.163718e+00    3.663269e+00
  5.195469e+00    3.566006e+00
  5.227220e+00    3.588337e+00
  5.258971e+00    3.610179e+00
  5.290722e+00    3.669089e+00
  5.322474e+00    3.611591e+00
  5.354225e+00    3.645020e+00
  5.385976e+00    3.575221e+00
  5.417727e+00    3.503589e+00
  5.449478e+00    3.558646e+00
  5.481229e+00    3.604503e+00
  5.512980e+00    3.526694e+00
  5.544732e+00    3.661152e+00
  5.576483e+00    3.639457e+00
  5.608234e+00    3.591784e+00
  5.639985e+00    3.557414e+00
  5.671736e+00    3.500669e+00
  5.703487e+00    3.614462e+00
  5.735238e+00    3.520768e+00
  5.766990e+00    3.552463e+00
  5.798741e+00    3.474752e+00
  5.830492e+00    3.547850e+00
  5.862243e+00    3.592701e+00
  5.893994e+00    3.485601e+00
  5.925745e+00    3.504966e+00
  5.957497e+00    3.416288e+00
  5.989248e+00    3.478187e+00
  6.020999e+00    3.551836e+00
  6.052750e+00    3.468601e+00
  6.084501e+00    3.629709e+00
  6.116252e+00    3.574444e+00
  6.148003e+00    3.543514e+00
  6.179755e+00    3.480271e+00
  6.211506e+00    3.549196e+00
  6.243257e+00    3.463414e+00
  6.275008e+00    3.512781e+00
  6.306759e+00    3.515438e+00
  6.338510e+00    3.454786e+00
  6.370261e+00    3.480252e+00
  6.402013e+00    3.517197e+00
  6.433764e+00    3.530529e+00
  6.465515e+00    3.501166e+00
  6.497266e+00    3.581467e+00
  6.529017e+00    3.530421e+00
  6.560768e+00    3.520890e+00
  6.592519e+00    3.480244e+00
  6.624271e+00    3.400352e+00
  6.656022e+00    3.528212e+00
  6.687773e+00    3.502056e+00
  6.719524e+00    3.443033e+00
  6.751275e+00    3.537329e+00
  6.783026e+00    3.433544e+00
  6.814777e+00    3.484270e+00
  6.846529e+00    3.486813e+00
  6.878280e+00    3.470923e+00
  6.910031e+00    3.506688e+00
  6.941782e+00    3.473063e+00
  6.973533e+00    3.452362e+00
  7.005284e+00    3.494016e+00
  7.037036e+00    3.472814e+00
  7.068787e+00    3.470785e+00
  7.100538e+00    3.433929e+00
  7.132289e+00    3.519780e+00
  7.164040e+00    3.493613e+00
  7.195791e+00    3.426165e+00
  7.227542e+00    3.442464e+00
  7.259294e+00    3.483779e+00
  7.291045e+00    3.474739e+00
  7.322796e+00    3.429062e+00
  7.354547e+00    3.456681e+00
  7.386298e+00    3.409386e+00
  7.418049e+00    3.417538e+00
  7.449800e+00    3.467826e+00
  7.481552e+00    3.416017e+00
  7.513303e+00    3.385221e+00
  7.545054e+00    3.435307e+00
  7.576805e+00    3.422781e+00
  7.608556e+00    3.408201e+00
  7.640307e+00    3.342598e+00
  7.672058e+00    3.448972e+00
  7.703810e+00    3.398329e+00
  7.735561e+00    3.442412e+00
  7.767312e+00    3.422822e+00
  7.799063e+00    3.382095e+00
  7.830814e+00    3.395249e+00
  7.862565e+00    3.375645e+00
  7.894317e+00    3.324500e+00
  7.926068e+00    3.374807e+00
  7.957819e+00    3.407807e+00
  7.989570e+00    3.387280e+00
  8.021321e+00    3.364238e+00
  8.053072e+00    3.415627e+00
  8.084823e+00    3.354345e+00
  8.116575e+00    3.396012e+00
  8.148326e+00    3.460757e+00
  8.180077e+00    3.394040e+00
  8.211828e+00    3.445616e+00
  8.243579e+00    3.367537e+00
  8.275330e+00    3.410000e+00
  8.307081e+00    3.395824e+00
  8.338833e+00    3.359414e+00
  8.370584e+00    3.322021e+00
  8.402335e+00    3.396313e+00
  8.434086e+00    3.313863e+00
  8.465837e+00    3.360029e+00
  8.497588e+00    3.345242e+00
  8.529339e+00    3.288833e+00
  8.561091e+00    3.283223e+00
  8.592842e+00    3.302972e+00
  8.624593e+00    3.239603e+00
  8.656344e+00    3.364112e+00
  8.688095e+00    3.249942e+00
  8.719846e+00    3.235058e+00
  8.751598e+00    3.286922e+00
  8.783349e+00    3.265063e+00
  8.815100e+00    3.294377e+00
  8.846851e+00    3.299691e+00
  8.878602e+00    3.195864e+00
  8.910353e+00    3.293693e+00
  8.942104e+00    3.201215e+00
  8.973856e+00    3.226358e+00
  9.005607e+00    3.260442e+00
  9.037358e+00    3.296154e+00
  9.069109e+00    3.281774e+00
  9.100860e+00    3.308192e+00
  9.132611e+00    3.269974e+00
  9.164362e+00    3.196199e+00
  9.196114e+00    3.196959e+00
  9.227865e+00    3.205237e+00
  9.259616e+00    3.212267e+00
  9.291367e+00    3.298004e+00
  9.323118e+00    3.136860e+00
  9.354869e+00    3.214848e+00
  9.386620e+00    3.241432e+00
  9.418372e+00    3.152169e+00
  9.450123e+00    3.153034e+00
  9.481874e+00    3.135443e+00
  9.513625e+00    3.205604e+00
  9.545376e+00    3.193120e+00
  9.577127e+00    3.162696e+00
  9.608878e+00    3.155385e+00
  9.640630e+00    3.196605e+00
  9.672381e+00    3.199288e+00
  9.704132e+00    3.081622e+00
  9.735883e+00    3.117679e+00
  9.767634e+00    3.133534e+00
  9.799385e+00    3.091285e+00
  9.831137e+00    3.208355e+00
  9.862888e+00    3.098955e+00
  9.894639e+00    3.089023e+00
  9.926390e+00    3.070375e+00
  9.958141e+00    3.075185e+00
  9.989892e+00    3.110865e+00
  1.002164e+01    3.096758e+00
  1.005339e+01    3.080888e+00
  1.008515e+01    2.998895e+00
  1.011690e+01    3.031582e+00
  1.014865e+01    2.994767e+00
  1.018040e+01    3.065840e+00
  1.021215e+01    3.013599e+00
  1.024390e+01    2.972884e+00
  1.027565e+01    2.981126e+00
  1.030740e+01    3.005379e+00
  1.033915e+01    2.973199e+00
  1.037091e+01    2.985470e+00
  1.040266e+01    3.011636e+00
  1.043441e+01    3.012480e+00
  1.046616e+01    2.953828e+00
  1.049791e+01    2.993091e+00
  1.052966e+01    2.975317e+00
  1.056141e+01    2.991713e+00
  1.059316e+01    2.992194e+00
  1.062492e+01    2.961072e+00
  1.065667e+01    2.909751e+00
  1.068842e+01    2.965301e+00
  1.072017e+01    2.898378e+00
  1.075192e+01    2.951295e+00
  1.078367e+01    2.864504e+00
  1.081542e+01    2.933396e+00
  1.084717e+01    2.879882e+00
  1.087892e+01    2.835325e+00
  1.091068e+01    2.830053e+00
  1.094243e+01    2.845989e+00
  1.097418e+01    2.885858e+00
  1.100593e+01    2.834890e+00
  1.103768e+01    2.919908e+00
  1.106943e+01    2.863933e+00
  1.110118e+01    2.851176e+00
  1.113293e+01    2.837404e+00
  1.116468e+01    2.792605e+00
  1.119644e+01    2.840035e+00
  1.122819e+01    2.876346e+00
  1.125994e+01    2.813088e+00
  1.129169e+01    2.788306e+00
  1.132344e+01    2.842583e+00
  1.135519e+01    2.793461e+00
  1.138694e+01    2.785863e+00
  1.141869e+01    2.756930e+00
  1.145045e+01    2.767213e+00
  1.148220e+01    2.726432e+00
  1.151395e+01    2.780954e+00
  1.154570e+01    2.729269e+00
  1.157745e+01    2.741506e+00
  1.160920e+01    2.770294e+00
  1.164095e+01    2.744911e+00
  1.167270e+01    2.709348e+00
  1.170445e+01    2.723098e+00
  1.173621e+01    2.700795e+00
  1.176796e+01    2.725663e+00
  1.179971e+01    2.719545e+00
  1.183146e+01    2.671751e+00
  1.186321e+01    2.722608e+00
  1.189496e+01    2.732945e+00
  1.192671e+01    2.732494e+00
  1.195846e+01    2.744383e+00
  1.199021e+01    2.706708e+00
  1.202197e+01    2.677095e+00
  1.205372e+01    2.662296e+00
  1.208547e+01    2.650376e+00
  1.211722e+01    2.640563e+00
  1.214897e+01    2.727703e+00
  1.218072e+01    2.602264e+00
  1.221247e+01    2.673488e+00
  1.224422e+01    2.660523e+00
  1.227597e+01    2.655739e+00
  1.230773e+01    2.650336e+00
  1.233948e+01    2.624527e+00
  1.237123e+01    2.681589e+00
  1.240298e+01    2.655313e+00
  1.243473e+01    2.610039e+00
  1.246648e+01    2.633587e+00
  1.249823e+01    2.650907e+00
  1.252998e+01    2.631870e+00
  1.256174e+01    2.708757e+00
  1.259349e+01    2.692317e+00
  1.262524e+01    2.690424e+00
  1.265699e+01    2.760013e+00
  1.268874e+01    2.730010e+00
  1.272049e+01    2.802875e+00
  1.275224e+01    2.883043e+00
  1.278399e+01    2.937515e+00
  1.281574e+01    2.961264e+00
  1.284750e+01    3.183731e+00
  1.287925e+01    3.337364e+00
  1.291100e+01    3.599367e+00
  1.294275e+01    4.023701e+00
  1.297450e+01    4.664310e+00
  1.300625e+01    5.820105e+00
  1.303800e+01    7.561929e+00
  1.306975e+01    9.980679e+00
  1.310150e+01    1.247619e+01
  1.313326e+01    1.453639e+01
  1.316501e+01    1.618748e+01
  1.319676e+01    1.556710e+01
  1.322851e+01    1.237128e+01
  1.326026e+01    9.011830e+00
  1.329201e+01    6.671029e+00
  1.332376e+01    5.282331e+00
  1.335551e+01    4.397114e+00
  1.338727e+01    3.795873e+00
  1.341902e+01    3.425978e+00
  1.345077e+01    3.172906e+00
  1.348252e+01    3.036727e+00
  1.351427e+01    2.896302e+00
  1.354602e+01    2.808249e+00
  1.357777e+01    2.701434e+00
  1.360952e+01    2.629097e+00
  1.364127e+01    2.574812e+00
  1.367303e+01    2.563215e+00
  1.370478e+01    2.510084e+00
  1.373653e+01    2.500612e+00
  1.376828e+01    2.452792e+00
  1.380003e+01    2.431086e+00
  1.383178e+01    2.427550e+00
  1.386353e+01    2.437709e+00
  1.389528e+01    2.378333e+00
  1.392703e+01    2.380003e+00
  1.395879e+01    2.349744e+00
  1.399054e+01    2.395971e+00
  1.402229e+01    2.325633e+00
  1.405404e+01    2.326498e+00
  1.408579e+01    2.321102e+00
  1.411754e+01    2.268619e+00
  1.414929e+01    2.222145e+00
  1.418104e+01    2.292114e+00
  1.421279e+01    2.301228e+00
  1.424455e+01    2.247331e+00
  1.427630e+01    2.283865e+00
  1.430805e+01    2.236537e+00
  1.433980e+01    2.236944e+00
  1.437155e+01    2.233911e+00
  1.440330e+01    2.185728e+00
  1.443505e+01    2.185071e+00
  1.446680e+01    2.188688e+00
  1.449856e+01    2.184510e+00
  1.453031e+01    2.233628e+00
  1.456206e+01    2.144199e+00
  1.459381e+01    2.196008e+00
  1.462556e+01    2.198344e+00
  1.465731e+01    2.187568e+00
  1.468906e+01    2.194225e+00
  1.472081e+01    2.165884e+00
  1.475256e+01    2.163546e+00
  1.478432e+01    2.186334e+00
  1.481607e+01    2.148575e+00
  1.484782e+01    2.190290e+00
  1.487957e+01    2.202196e+00
  1.491132e+01    2.222010e+00
  1.494307e+01    2.269623e+00
  1.497482e+01    2.318496e+00
  1.500657e+01    2.395845e+00
  1.503832e+01    2.543133e+00
  1.507008e+01    2.789849e+00
  1.510183e+01    3.138524e+00
  1.513358e+01    3.803110e+00
  1.516533e+01    4.493222e+00
  1.519708e+01    5.183259e+00
  1.522883e+01    5.513861e+00
  1.526058e+01    5.721035e+00
  1.529233e+01    5.416115e+00
  1.532409e+01    4.591209e+00
  1.535584e+01    3.700001e+00
  1.538759e+01    3.110387e+00
  1.541934e+01    2.736336e+00
  1.545109e+01    2.434881e+00
  1.548284e+01    2.327886e+00
  1.551459e+01    2.204028e+00
  1.554634e+01    2.156266e+00
  1.557809e+01    2.133482e+00
  1.560985e+01    2.026387e+00
  1.564160e+01    2.053546e+00
  1.567335e+01    1.964334e+00
  1.570510e+01    1.949457e+00
  1.573685e+01    1.955442e+00
  1.576860e+01    1.937016e+00
  1.580035e+01    1.910765e+00
  1.583210e+01    1.885005e+00
  1.586385e+01    1.904166e+00
  1.589561e+01    1.881186e+00
  1.592736e+01    1.880296e+00
  1.595911e+01    1.851871e+00
  1.599086e+01    1.843097e+00
  1.602261e+01    1.820365e+00
  1.605436e+01    1.826236e+00
  1.608611e+01    1.800212e+00
  1.611786e+01    1.838293e+00
  1.614961e+01    1.812307e+00
  1.618137e+01    1.811548e+00
  1.621312e+01    1.767567e+00
  1.624487e+01    1.788361e+00
  1.627662e+01    1.787508e+00
  1.630837e+01    1.790909e+00
  1.634012e+01    1.787465e+00
  1.637187e+01    1.749012e+00
  1.640362e+01    1.717239e+00
  1.643538e+01    1.731673e+00
  1.646713e+01    1.706875e+00
  1.649888e+01    1.736208e+00
  1.653063e+01    1.699771e+00
  1.656238e+01    1.668178e+00
  1.659413e+01    1.749326e+00
  1.662588e+01    1.722558e+00
  1.665763e+01    1.744735e+00
  1.668938e+01    1.684922e+00
  1.672114e+01    1.718553e+00
  1.675289e+01    1.652543e+00
  1.678464e+01    1.669874e+00
  1.681639e+01    1.681161e+00
  1.684814e+01    1.671184e+00
  1.687989e+01    1.693729e+00
  1.691164e+01    1.650103e+00
  1.694339e+01    1.677397e+00
  1.697514e+01    1.636639e+00
  1.700690e+01    1.643311e+00
  1.703865e+01    1.655109e+00
  1.707040e+01    1.652063e+00
  1.710215e+01    1.620946e+00
  1.713390e+01    1.612297e+00
  1.716565e+01    1.598121e+00
  1.719740e+01    1.598059e+00
  1.722915e+01    1.602634e+00
  1.726091e+01    1.631890e+00
  1.729266e+01    1.570474e+00
  1.732441e+01    1.565706e+00
  1.735616e+01    1.590205e+00
  1.738791e+01    1.569038e+00
  1.741966e+01    1.577716e+00
  1.745141e+01    1.563859e+00
  1.748316e+01    1.568530e+00
  1.751491e+01    1.549768e+00
  1.754667e+01    1.566471e+00
  1.757842e+01    1.588330e+00
  1.761017e+01    1.558944e+00
  1.764192e+01    1.541131e+00
  1.767367e+01    1.554512e+00
  1.770542e+01    1.561744e+00
  1.773717e+01    1.561113e+00
  1.776892e+01    1.536062e+00
  1.780067e+01    1.550679e+00
  1.783243e+01    1.511427e+00
  1.786418e+01    1.479416e+00
  1.789593e+01    1.515470e+00
  1.792768e+01    1.481919e+00
  1.795943e+01    1.491658e+00
  1.799118e+01    1.449983e+00
  1.802293e+01    1.456006e+00
  1.805468e+01    1.476617e+00
  1.808643e+01    1.498520e+00
  1.811819e+01    1.460482e+00
  1.814994e+01    1.472148e+00
  1.818169e+01    1.454869e+00
  1.821344e+01    1.454401e+00
  1.824519e+01    1.450747e+00
  1.827694e+01    1.468916e+00
  1.830869e+01    1.465294e+00
  1.834044e+01    1.424539e+00
  1.837220e+01    1.428245e+00
  1.840395e+01    1.443735e+00
  1.843570e+01    1.452347e+00
  1.846745e+01    1.415473e+00
  1.849920e+01    1.413730e+00
  1.853095e+01    1.431082e+00
  1.856270e+01    1.410380e+00
  1.859445e+01    1.411856e+00
  1.862620e+01    1.432813e+00
  1.865796e+01    1.401246e+00
  1.868971e+01    1.395897e+00
  1.872146e+01    1.394666e+00
  1.875321e+01    1.427617e+00
  1.878496e+01    1.383101e+00
  1.881671e+01    1.400110e+00
  1.884846e+01    1.408868e+00
  1.888021e+01    1.371222e+00
  1.891196e+01    1.369289e+00
  1.894372e+01    1.386072e+00
  1.897547e+01    1.383392e+00
  1.900722e+01    1.385480e+00
  1.903897e+01    1.337479e+00
  1.907072e+01    1.364005e+00
  1.910247e+01    1.375786e+00
  1.913422e+01    1.335199e+00
  1.916597e+01    1.369128e+00
  1.919773e+01    1.338962e+00
  1.922948e+01    1.373506e+00
  1.926123e+01    1.359758e+00
  1.929298e+01    1.333109e+00
  1.932473e+01    1.331414e+00
  1.935648e+01    1.322845e+00
  1.938823e+01    1.358031e+00
  1.941998e+01    1.312039e+00
  1.945173e+01    1.359765e+00
  1.948349e+01    1.311613e+00
  1.951524e+01    1.335909e+00
  1.954699e+01    1.294946e+00
  1.957874e+01    1.286393e+00
  1.961049e+01    1.303098e+00
  1.964224e+01    1.296884e+00
  1.967399e+01    1.267457e+00
  1.970574e+01    1.281440e+00
  1.973749e+01    1.320984e+00
  1.976925e+01    1.292966e+00
  1.980100e+01    1.269615e+00
  1.983275e+01    1.290260e+00
  1.986450e+01    1.280387e+00
  1.989625e+01    1.274837e+00
  1.992800e+01    1.282083e+00
  1.995975e+01    1.256874e+00
  1.999150e+01    1.265351e+00
  2.002325e+01    1.268381e+00
  2.005501e+01    1.289132e+00
  2.008676e+01    1.236477e+00
  2.011851e+01    1.247765e+00
  2.015026e+01    1.261364e+00
  2.018201e+01    1.265504e+00
  2.021376e+01    1.244060e+00
  2.024551e+01    1.254565e+00
  2.027726e+01    1.221489e+00
  2.030902e+01    1.230860e+00
  2.034077e+01    1.236547e+00
  2.037252e+01    1.218402e+00
  2.040427e+01    1.252918e+00
  2.043602e+01    1.220362e+00
  2.046777e+01    1.216878e+00
  2.049952e+01    1.225675e+00
  2.053127e+01    1.219808e+00
  2.056302e+01    1.220239e+00
  2.059478e+01    1.216387e+00
  2.062653e+01    1.227621e+00
  2.065828e+01    1.213730e+00
  2.069003e+01    1.243969e+00
  2.072178e+01    1.193130e+00
  2.075353e+01    1.194519e+00
  2.078528e+01    1.207508e+00
  2.081703e+01    1.216754e+00
  2.084878e+01    1.184627e+00
  2.088054e+01    1.238450e+00
  2.091229e+01    1.204789e+00
  2.094404e+01    1.214586e+00
  2.097579e+01    1.198286e+00
  2.100754e+01    1.194385e+00
  2.103929e+01    1.217962e+00
  2.107104e+01    1.219367e+00
  2.110279e+01    1.229782e+00
  2.113455e+01    1.223610e+00
  2.116630e+01    1.240301e+00
  2.119805e+01    1.211637e+00
  2.122980e+01    1.245893e+00
  2.126155e+01    1.227083e+00
  2.129330e+01    1.260468e+00
  2.132505e+01    1.232533e+00
  2.135680e+01    1.282977e+00
  2.138855e+01    1.271232e+00
  2.142031e+01    1.296571e+00
  2.145206e+01    1.349238e+00
  2.148381e+01    1.386822e+00
  2.151556e+01    1.409584e+00
  2.154731e+01    1.503322e+00
  2.157906e+01    1.598510e+00
  2.161081e+01    1.745756e+00
  2.164256e+01    1.904606e+00
  2.167431e+01    2.253268e+00
  2.170607e+01    2.739207e+00
  2.173782e+01    3.462254e+00
  2.176957e+01    4.550070e+00
  2.180132e+01    5.780159e+00
  2.183307e+01    7.089060e+00
  2.186482e+01    8.241710e+00
  2.189657e+01    8.804239e+00
  2.192832e+01    8.165708e+00
  2.196007e+01    6.534389e+00
  2.199183e+01    4.776091e+00
  2.202358e+01    3.544451e+00
  2.205533e+01    2.776184e+00
  2.208708e+01    2.294053e+00
  2.211883e+01    1.960943e+00
  2.215058e+01    1.755310e+00
  2.218233e+01    1.578234e+00
  2.221408e+01    1.470446e+00
  2.224584e+01    1.378558e+00
  2.227759e+01    1.335298e+00
  2.230934e+01    1.283958e+00
  2.234109e+01    1.224299e+00
  2.237284e+01    1.210027e+00
  2.240459e+01    1.187240e+00
  2.243634e+01    1.177632e+00
  2.246809e+01    1.144599e+00
  2.249984e+01    1.138185e+00
  2.253160e+01    1.111635e+00
  2.256335e+01    1.134536e+00
  2.259510e+01    1.097334e+00
  2.262685e+01    1.109500e+00
  2.265860e+01    1.085133e+00
  2.269035e+01    1.070337e+00
  2.272210e+01    1.063384e+00
  2.275385e+01    1.045609e+00
  2.278560e+01    1.042244e+00
  2.281736e+01    1.047448e+00
  2.284911e+01    1.052547e+00
  2.288086e+01    1.044191e+00
  2.291261e+01    1.013668e+00
  2.294436e+01    1.007898e+00
  2.297611e+01    1.017431e+00
  2.300786e+01    1.001488e+00
  2.303961e+01    9.922911e-01
  2.307137e+01    1.019390e+00
  2.310312e+01    9.883907e-01
  2.313487e+01    9.816367e-01
  2.316662e+01    9.996524e-01
  2.319837e+01    9.812526e-01
  2.323012e+01    9.638701e-01
  2.326187e+01    9.707488e-01
  2.329362e+01    9.914931e-01
  2.332537e+01    9.668148e-01
  2.335713e+01    9.680389e-01
  2.338888e+01    9.764462e-01
  2.342063e+01    9.720129e-01
  2.345238e+01    9.311878e-01
  2.348413e+01    9.540451e-01
  2.351588e+01    9.511349e-01
  2.354763e+01    9.538737e-01
  2.357938e+01    9.453683e-01
  2.361113e+01    9.596431e-01
  2.364289e+01    9.432029e-01
  2.367464e+01    9.385117e-01
  2.370639e+01    9.317815e-01
  2.373814e+01    9.128976e-01
  2.376989e+01    9.120372e-01
  2.380164e+01    8.954999e-01
  2.383339e+01    9.082758e-01
  2.386514e+01    9.061258e-01
  2.389689e+01    8.979116e-01
  2.392865e+01    8.908888e-01
  2.396040e+01    9.054480e-01
  2.399215e+01    8.781704e-01
  2.402390e+01    9.010999e-01
  2.405565e+01    8.939657e-01
  2.408740e+01    8.689984e-01
  2.411915e+01    8.783184e-01
  2.415090e+01    8.810460e-01
  2.418266e+01    8.816432e-01
  2.421441e+01    8.785509e-01
  2.424616e+01    8.628737e-01
  2.427791e+01    8.872039e-01
  2.430966e+01    8.770990e-01
  2.434141e+01    8.770681e-01
  2.437316e+01    8.957075e-01
  2.440491e+01    8.913820e-01
  2.443666e+01    8.843938e-01
  2.446842e+01    8.767354e-01
  2.450017e+01    8.829299e-01
  2.453192e+01    8.940869e-01
  2.456367e+01    8.834820e-01
  2.459542e+01    8.805625e-01
  2.462717e+01    8.757156e-01
  2.465892e+01    8.651506e-01
  2.469067e+01    8.769092e-01
  2.472242e+01    8.667896e-01
  2.475418e+01    8.641210e-01
  2.478593e+01    8.642733e-01
  2.481768e+01    8.790696e-01
  2.484943e+01    8.798328e-01
  2.488118e+01    8.960493e-01
  2.491293e+01    8.834849e-01
  2.494468e+01    8.757961e-01
  2.497643e+01    9.002956e-01
  2.500819e+01    8.960928e-01
  2.503994e+01    8.877770e-01
  2.507169e+01    8.690832e-01
  2.510344e+01    8.944404e-01
  2.513519e+01    8.891935e-01
  2.516694e+01    9.108416e-01
  2.519869e+01    9.031006e-01
  2.523044e+01    8.964450e-01
  2.526219e+01    9.303744e-01
  2.529395e+01    9.344194e-01
  2.532570e+01    9.588671e-01
  2.535745e+01    9.445031e-01
  2.538920e+01    9.760931e-01
  2.542095e+01    1.001495e+00
  2.545270e+01    1.004765e+00
  2.548445e+01    1.031782e+00
  2.551620e+01    1.041905e+00
  2.554795e+01    1.101080e+00
  2.557971e+01    1.154839e+00
  2.561146e+01    1.187441e+00
  2.564321e+01    1.283959e+00
  2.567496e+01    1.375951e+00
  2.570671e+01    1.555474e+00
  2.573846e+01    1.838014e+00
  2.577021e+01    2.177649e+00
  2.580196e+01    2.762327e+00
  2.583371e+01    3.574291e+00
  2.586547e+01    4.626135e+00
  2.589722e+01    5.732654e+00
  2.592897e+01    6.689682e+00
  2.596072e+01    6.995914e+00
  2.599247e+01    6.466557e+00
  2.602422e+01    5.272102e+00
  2.605597e+01    3.898604e+00
  2.608772e+01    2.953900e+00
  2.611948e+01    2.337235e+00
  2.615123e+01    1.938510e+00
  2.618298e+01    1.651557e+00
  2.621473e+01    1.461734e+00
  2.624648e+01    1.337998e+00
  2.627823e+01    1.249685e+00
  2.630998e+01    1.161037e+00
  2.634173e+01    1.104620e+00
  2.637348e+01    1.065620e+00
  2.640524e+01    1.042624e+00
  2.643699e+01    1.033648e+00
  2.646874e+01    1.006316e+00
  2.650049e+01    9.786595e-01
  2.653224e+01    9.789945e-01
  2.656399e+01    9.723441e-01
  2.659574e+01    9.732803e-01
  2.662749e+01    9.633463e-01
  2.665924e+01    9.773020e-01
  2.669100e+01    9.668099e-01
  2.672275e+01    9.699333e-01
  2.675450e+01    9.529055e-01
  2.678625e+01    9.612721e-01
  2.681800e+01    9.697758e-01
  2.684975e+01    9.901550e-01
  2.688150e+01    9.904997e-01
  2.691325e+01    9.864947e-01
  2.694501e+01    1.007444e+00
  2.697676e+01    1.057251e+00
  2.700851e+01    1.123165e+00
  2.704026e+01    1.190273e+00
  2.707201e+01    1.283655e+00
  2.710376e+01    1.475214e+00
  2.713551e+01    1.699594e+00
  2.716726e+01    1.945506e+00
  2.719901e+01    2.057105e+00
  2.723077e+01    2.120056e+00
  2.726252e+01    1.950384e+00
  2.729427e+01    1.679129e+00
  2.732602e+01    1.464290e+00
  2.735777e+01    1.289032e+00
  2.738952e+01    1.177716e+00
  2.742127e+01    1.071002e+00
  2.745302e+01    1.051249e+00
  2.748477e+01    9.991922e-01
  2.751653e+01    9.680847e-01
  2.754828e+01    9.110604e-01
  2.758003e+01    9.200768e-01
  2.761178e+01    9.151556e-01
  2.764353e+01    9.152834e-01
  2.767528e+01    9.015974e-01
  2.770703e+01    8.747891e-01
  2.773878e+01    8.904338e-01
  2.777054e+01    8.888226e-01
  2.780229e+01    8.653848e-01
  2.783404e+01    8.641019e-01
  2.786579e+01    8.586465e-01
  2.789754e+01    8.682771e-01
  2.792929e+01    8.675107e-01
  2.796104e+01    8.721772e-01
  2.799279e+01    8.681362e-01
  2.802454e+01    8.635505e-01
  2.805630e+01    8.525636e-01
  2.808805e+01    8.438352e-01
  2.811980e+01    8.405959e-01
  2.815155e+01    8.523425e-01
  2.818330e+01    8.218559e-01
  2.821505e+01    8.455557e-01
  2.824680e+01    8.199344e-01
  2.827855e+01    8.402522e-01
  2.831030e+01    8.516092e-01
  2.834206e+01    8.308667e-01
  2.837381e+01    8.523867e-01
  2.840556e+01    8.244447e-01
  2.843731e+01    8.419831e-01
  2.846906e+01    8.110800e-01
  2.850081e+01    8.364671e-01
  2.853256e+01    8.207059e-01
  2.856431e+01    8.199356e-01
  2.859606e+01    8.171290e-01
  2.862782e+01    8.143642e-01
  2.865957e+01    8.063632e-01
  2.869132e+01    8.125476e-01
  2.872307e+01    8.296356e-01
  2.875482e+01    8.117303e-01
  2.878657e+01    8.162616e-01
  2.881832e+01    8.013538e-01
  2.885007e+01    8.287547e-01
  2.888183e+01    8.124540e-01
  2.891358e+01    8.337737e-01
  2.894533e+01    8.220764e-01
  2.897708e+01    8.138466e-01
  2.900883e+01    8.207443e-01
  2.904058e+01    7.934826e-01
  2.907233e+01    8.050615e-01
  2.910408e+01    8.045561e-01
  2.913583e+01    8.229636e-01
  2.916759e+01    7.955666e-01
  2.919934e+01    7.992537e-01
  2.923109e+01    7.825540e-01
  2.926284e+01    8.104100e-01
  2.929459e+01    7.922043e-01
  2.932634e+01    7.985494e-01
  2.935809e+01    8.102326e-01
  2.938984e+01    7.923213e-01
  2.942159e+01    7.844526e-01
  2.945335e+01    7.877964e-01
  2.948510e+01    8.156685e-01
  2.951685e+01    7.801385e-01
  2.954860e+01    7.939731e-01
  2.958035e+01    8.010986e-01
  2.961210e+01    8.008421e-01
  2.964385e+01    7.651582e-01
  2.967560e+01    7.933221e-01
  2.970736e+01    7.805456e-01
  2.973911e+01    7.796911e-01
  2.977086e+01    7.614473e-01
  2.980261e+01    7.733263e-01
  2.983436e+01    7.864627e-01
  2.986611e+01    7.650616e-01
  2.989786e+01    7.908498e-01
  2.992961e+01    7.810584e-01
  2.996136e+01    7.724204e-01
  2.999312e+01    7.713991e-01
  3.002487e+01    8.063397e-01
  3.005662e+01    8.106637e-01
  3.008837e+01    8.030089e-01
  3.012012e+01    7.906998e-01
  3.015187e+01    7.887787e-01
  3.018362e+01    7.839417e-01
  3.021537e+01    7.800713e-01
  3.024712e+01    7.795201e-01
  3.027888e+01    7.918899e-01
  3.031063e+01    7.588348e-01
  3.034238e+01    7.564186e-01
  3.037413e+01    7.791487e-01
  3.040588e+01    7.711840e-01
  3.043763e+01    7.556082e-01
  3.046938e+01    7.915210e-01
  3.050113e+01    7.704837e-01
  3.053288e+01    7.691256e-01
  3.056464e+01    7.835279e-01
  3.059639e+01    7.766742e-01
  3.062814e+01    7.866060e-01
  3.065989e+01    7.664398e-01
  3.069164e+01    7.710790e-01
  3.072339e+01    7.629059e-01
  3.075514e+01    7.781153e-01
  3.078689e+01    7.691757e-01
  3.081865e+01    7.720391e-01
  3.085040e+01    7.724281e-01
  3.088215e+01    7.725931e-01
  3.091390e+01    7.787045e-01
  3.094565e+01    7.680711e-01
  3.097740e+01    7.795776e-01
  3.100915e+01    7.883750e-01
  3.104090e+01    7.582965e-01
  3.107265e+01    7.511414e-01
  3.110441e+01    8.021303e-01
  3.113616e+01    7.706984e-01
  3.116791e+01    7.782772e-01
  3.119966e+01    7.892579e-01
  3.123141e+01    7.575775e-01
  3.126316e+01    7.690196e-01
  3.129491e+01    7.822667e-01
  3.132666e+01    7.889783e-01
  3.135841e+01    7.953136e-01
  3.139017e+01    7.810690e-01
  3.142192e+01    7.997198e-01
  3.145367e+01    8.087155e-01
  3.148542e+01    8.351366e-01
  3.151717e+01    8.383800e-01
  3.154892e+01    8.255739e-01
  3.158067e+01    8.488631e-01
  3.161242e+01    8.906088e-01
  3.164418e+01    9.010249e-01
  3.167593e+01    9.565060e-01
  3.170768e+01    1.015850e+00
  3.173943e+01    1.091798e+00
  3.177118e+01    1.251228e+00
  3.180293e+01    1.433805e+00
  3.183468e+01    1.649777e+00
  3.186643e+01    1.926985e+00
  3.189818e+01    2.051956e+00
  3.192994e+01    1.989820e+00
  3.196169e+01    1.781791e+00
  3.199344e+01    1.538624e+00
  3.202519e+01    1.297686e+00
  3.205694e+01    1.158391e+00
  3.208869e+01    1.027857e+00
  3.212044e+01    9.532562e-01
  3.215219e+01    8.804641e-01
  3.218394e+01    8.544825e-01
  3.221570e+01    8.555375e-01
  3.224745e+01    8.212433e-01
  3.227920e+01    8.071021e-01
  3.231095e+01    8.015705e-01
  3.234270e+01    8.010280e-01
  3.237445e+01    7.983310e-01
  3.240620e+01    7.577147e-01
  3.243795e+01    7.759544e-01
  3.246970e+01    7.946766e-01
  3.250146e+01    7.741750e-01
  3.253321e+01    7.750469e-01
  3.254908e+01    7.613631e-01