File: XRD/Reaction conditions/2024-07-27_003_Ru-CGO-ex_Reaction_dwell_000023_data_000020.dat
# == pyFAI calibration ==
# Distance Sample to Detector: 0.4 m
# PONI: 9.750e-02, 1.135e-01 m
# Rotations: -0.000175 0.000000 -0.000000 rad
#
# == Fit2d calibration ==
# Distance Sample-beamCenter: 400.000 mm
# Center: x=1514.000, y=1300.000 pix
# Tilt: 0.010 deg  TiltPlanRot: 0.010 deg
#
# Detector Detector	 Spline= None	 PixelSize= 7.500e-05, 7.500e-05 m
#    Detector has a mask: False
#    Detector has a dark current: False
#    detector has a flat field: False
#
# Wavelength: 6.888e-11 m
# Mask applied: user provided
# Dark current applied: False
# Flat field applied: False
# Polarization factor: 0.99
# Normalization factor: 1.0
# --> /home/myspot/data/2024_07_Rosario/Ru-CGO-ex/2024-07-27_003_Ru-CGO-ex_Reaction_dwell_000023_data_000020.dat
#       q_nm^-1             I
  2.003187e-02    0.000000e+00
  5.178302e-02    4.781393e-02
  8.353417e-02    1.330310e-01
  1.152853e-01    9.806183e-02
  1.470365e-01    2.712464e-02
  1.787876e-01    2.891221e-02
  2.105388e-01    0.000000e+00
  2.422899e-01    5.617305e-02
  2.740411e-01    0.000000e+00
  3.057922e-01    2.616464e-02
  3.375433e-01    6.235338e-02
  3.692945e-01    1.801303e-02
  4.010456e-01    2.915828e-02
  4.327968e-01    5.885150e-02
  4.645479e-01    9.410734e-02
  4.962991e-01    2.808349e-02
  5.280502e-01    5.219745e-02
  5.598014e-01    7.352093e-02
  5.915525e-01    2.395262e-02
  6.233037e-01    3.863825e-02
  6.550548e-01    3.757386e-02
  6.868060e-01    6.436373e-02
  7.185571e-01    5.800124e-02
  7.503083e-01    8.359838e-02
  7.820594e-01    8.315165e-02
  8.138106e-01    1.915365e-01
  8.455617e-01    3.657384e-01
  8.773129e-01    5.008506e-01
  9.090640e-01    5.836325e-01
  9.408152e-01    8.360302e-01
  9.725663e-01    1.094141e+00
  1.004317e+00    1.234786e+00
  1.036069e+00    1.356892e+00
  1.067820e+00    1.423995e+00
  1.099571e+00    1.580796e+00
  1.131322e+00    1.512260e+00
  1.163073e+00    1.880145e+00
  1.194824e+00    1.827247e+00
  1.226575e+00    2.217769e+00
  1.258327e+00    2.479494e+00
  1.290078e+00    2.751778e+00
  1.321829e+00    2.713749e+00
  1.353580e+00    2.783509e+00
  1.385331e+00    2.816231e+00
  1.417082e+00    2.840926e+00
  1.448834e+00    3.046062e+00
  1.480585e+00    2.955287e+00
  1.512336e+00    3.168533e+00
  1.544087e+00    3.103281e+00
  1.575838e+00    3.298952e+00
  1.607589e+00    3.130673e+00
  1.639340e+00    3.197469e+00
  1.671092e+00    3.331323e+00
  1.702843e+00    3.153984e+00
  1.734594e+00    3.191944e+00
  1.766345e+00    3.130629e+00
  1.798096e+00    3.082591e+00
  1.829847e+00    3.144038e+00
  1.861598e+00    3.029127e+00
  1.893350e+00    3.027258e+00
  1.925101e+00    3.159176e+00
  1.956852e+00    3.040771e+00
  1.988603e+00    3.037440e+00
  2.020354e+00    3.027269e+00
  2.052105e+00    3.130686e+00
  2.083856e+00    3.218555e+00
  2.115608e+00    3.087992e+00
  2.147359e+00    2.986587e+00
  2.179110e+00    3.115221e+00
  2.210861e+00    3.191189e+00
  2.242612e+00    3.142576e+00
  2.274363e+00    3.263646e+00
  2.306115e+00    3.250787e+00
  2.337866e+00    3.073071e+00
  2.369617e+00    3.049811e+00
  2.401368e+00    3.083756e+00
  2.433119e+00    3.102700e+00
  2.464870e+00    3.299243e+00
  2.496621e+00    3.215629e+00
  2.528373e+00    3.208680e+00
  2.560124e+00    3.235789e+00
  2.591875e+00    3.268470e+00
  2.623626e+00    3.262667e+00
  2.655377e+00    3.372245e+00
  2.687128e+00    3.318765e+00
  2.718879e+00    3.213877e+00
  2.750631e+00    3.274037e+00
  2.782382e+00    3.288436e+00
  2.814133e+00    3.441442e+00
  2.845884e+00    3.322721e+00
  2.877635e+00    3.339548e+00
  2.909386e+00    3.345268e+00
  2.941137e+00    3.267353e+00
  2.972889e+00    3.276199e+00
  3.004640e+00    3.309137e+00
  3.036391e+00    3.360556e+00
  3.068142e+00    3.439337e+00
  3.099893e+00    3.419295e+00
  3.131644e+00    3.416629e+00
  3.163395e+00    3.392982e+00
  3.195147e+00    3.390863e+00
  3.226898e+00    3.453021e+00
  3.258649e+00    3.396943e+00
  3.290400e+00    3.347949e+00
  3.322151e+00    3.458737e+00
  3.353902e+00    3.453568e+00
  3.385654e+00    3.458978e+00
  3.417405e+00    3.549785e+00
  3.449156e+00    3.572501e+00
  3.480907e+00    3.535432e+00
  3.512658e+00    3.479112e+00
  3.544409e+00    3.462859e+00
  3.576160e+00    3.555198e+00
  3.607912e+00    3.535311e+00
  3.639663e+00    3.459621e+00
  3.671414e+00    3.481547e+00
  3.703165e+00    3.538380e+00
  3.734916e+00    3.520605e+00
  3.766667e+00    3.567835e+00
  3.798418e+00    3.528523e+00
  3.830170e+00    3.525688e+00
  3.861921e+00    3.552114e+00
  3.893672e+00    3.601379e+00
  3.925423e+00    3.550066e+00
  3.957174e+00    3.613685e+00
  3.988925e+00    3.498322e+00
  4.020676e+00    3.579053e+00
  4.052428e+00    3.527767e+00
  4.084179e+00    3.555823e+00
  4.115930e+00    3.518803e+00
  4.147681e+00    3.673505e+00
  4.179432e+00    3.605832e+00
  4.211183e+00    3.527860e+00
  4.242935e+00    3.506777e+00
  4.274686e+00    3.539134e+00
  4.306437e+00    3.658669e+00
  4.338188e+00    3.618648e+00
  4.369939e+00    3.562297e+00
  4.401690e+00    3.586492e+00
  4.433441e+00    3.654925e+00
  4.465193e+00    3.524615e+00
  4.496944e+00    3.652032e+00
  4.528695e+00    3.631482e+00
  4.560446e+00    3.584678e+00
  4.592197e+00    3.660399e+00
  4.623948e+00    3.631929e+00
  4.655699e+00    3.642597e+00
  4.687451e+00    3.644325e+00
  4.719202e+00    3.640818e+00
  4.750953e+00    3.631180e+00
  4.782704e+00    3.560707e+00
  4.814455e+00    3.557668e+00
  4.846206e+00    3.587321e+00
  4.877957e+00    3.733673e+00
  4.909709e+00    3.662345e+00
  4.941460e+00    3.611814e+00
  4.973211e+00    3.775772e+00
  5.004962e+00    3.701451e+00
  5.036713e+00    3.643748e+00
  5.068464e+00    3.628091e+00
  5.100216e+00    3.701720e+00
  5.131967e+00    3.555239e+00
  5.163718e+00    3.645661e+00
  5.195469e+00    3.668045e+00
  5.227220e+00    3.694247e+00
  5.258971e+00    3.598152e+00
  5.290722e+00    3.721468e+00
  5.322474e+00    3.660650e+00
  5.354225e+00    3.696681e+00
  5.385976e+00    3.671071e+00
  5.417727e+00    3.640597e+00
  5.449478e+00    3.642284e+00
  5.481229e+00    3.627680e+00
  5.512980e+00    3.641875e+00
  5.544732e+00    3.666225e+00
  5.576483e+00    3.570592e+00
  5.608234e+00    3.531222e+00
  5.639985e+00    3.592271e+00
  5.671736e+00    3.649737e+00
  5.703487e+00    3.668330e+00
  5.735238e+00    3.615290e+00
  5.766990e+00    3.626991e+00
  5.798741e+00    3.596171e+00
  5.830492e+00    3.584253e+00
  5.862243e+00    3.703894e+00
  5.893994e+00    3.605220e+00
  5.925745e+00    3.560280e+00
  5.957497e+00    3.577930e+00
  5.989248e+00    3.533373e+00
  6.020999e+00    3.513971e+00
  6.052750e+00    3.546042e+00
  6.084501e+00    3.596002e+00
  6.116252e+00    3.647637e+00
  6.148003e+00    3.642769e+00
  6.179755e+00    3.611439e+00
  6.211506e+00    3.646452e+00
  6.243257e+00    3.584758e+00
  6.275008e+00    3.569189e+00
  6.306759e+00    3.584756e+00
  6.338510e+00    3.588154e+00
  6.370261e+00    3.573676e+00
  6.402013e+00    3.617840e+00
  6.433764e+00    3.628314e+00
  6.465515e+00    3.654348e+00
  6.497266e+00    3.584110e+00
  6.529017e+00    3.577620e+00
  6.560768e+00    3.538329e+00
  6.592519e+00    3.597554e+00
  6.624271e+00    3.549292e+00
  6.656022e+00    3.606663e+00
  6.687773e+00    3.522356e+00
  6.719524e+00    3.602581e+00
  6.751275e+00    3.616958e+00
  6.783026e+00    3.639375e+00
  6.814777e+00    3.602249e+00
  6.846529e+00    3.529349e+00
  6.878280e+00    3.515209e+00
  6.910031e+00    3.540956e+00
  6.941782e+00    3.535394e+00
  6.973533e+00    3.589425e+00
  7.005284e+00    3.557376e+00
  7.037036e+00    3.560432e+00
  7.068787e+00    3.634005e+00
  7.100538e+00    3.609269e+00
  7.132289e+00    3.610146e+00
  7.164040e+00    3.506485e+00
  7.195791e+00    3.606060e+00
  7.227542e+00    3.485117e+00
  7.259294e+00    3.568948e+00
  7.291045e+00    3.440667e+00
  7.322796e+00    3.533691e+00
  7.354547e+00    3.486701e+00
  7.386298e+00    3.461260e+00
  7.418049e+00    3.473283e+00
  7.449800e+00    3.485220e+00
  7.481552e+00    3.481207e+00
  7.513303e+00    3.480661e+00
  7.545054e+00    3.418983e+00
  7.576805e+00    3.433858e+00
  7.608556e+00    3.472717e+00
  7.640307e+00    3.580155e+00
  7.672058e+00    3.520192e+00
  7.703810e+00    3.511844e+00
  7.735561e+00    3.524899e+00
  7.767312e+00    3.464776e+00
  7.799063e+00    3.475495e+00
  7.830814e+00    3.469732e+00
  7.862565e+00    3.406513e+00
  7.894317e+00    3.479483e+00
  7.926068e+00    3.423907e+00
  7.957819e+00    3.383182e+00
  7.989570e+00    3.382188e+00
  8.021321e+00    3.431580e+00
  8.053072e+00    3.417157e+00
  8.084823e+00    3.505697e+00
  8.116575e+00    3.499675e+00
  8.148326e+00    3.513692e+00
  8.180077e+00    3.483503e+00
  8.211828e+00    3.507438e+00
  8.243579e+00    3.533503e+00
  8.275330e+00    3.476429e+00
  8.307081e+00    3.388293e+00
  8.338833e+00    3.436103e+00
  8.370584e+00    3.390280e+00
  8.402335e+00    3.439353e+00
  8.434086e+00    3.383257e+00
  8.465837e+00    3.345251e+00
  8.497588e+00    3.415567e+00
  8.529339e+00    3.363053e+00
  8.561091e+00    3.419053e+00
  8.592842e+00    3.363820e+00
  8.624593e+00    3.397663e+00
  8.656344e+00    3.394984e+00
  8.688095e+00    3.373003e+00
  8.719846e+00    3.349842e+00
  8.751598e+00    3.323612e+00
  8.783349e+00    3.311290e+00
  8.815100e+00    3.363450e+00
  8.846851e+00    3.304054e+00
  8.878602e+00    3.311404e+00
  8.910353e+00    3.362015e+00
  8.942104e+00    3.369927e+00
  8.973856e+00    3.345917e+00
  9.005607e+00    3.276103e+00
  9.037358e+00    3.293830e+00
  9.069109e+00    3.345035e+00
  9.100860e+00    3.270896e+00
  9.132611e+00    3.337662e+00
  9.164362e+00    3.323269e+00
  9.196114e+00    3.251309e+00
  9.227865e+00    3.264719e+00
  9.259616e+00    3.260928e+00
  9.291367e+00    3.197399e+00
  9.323118e+00    3.297654e+00
  9.354869e+00    3.249438e+00
  9.386620e+00    3.164279e+00
  9.418372e+00    3.281721e+00
  9.450123e+00    3.229603e+00
  9.481874e+00    3.231769e+00
  9.513625e+00    3.241998e+00
  9.545376e+00    3.278149e+00
  9.577127e+00    3.239096e+00
  9.608878e+00    3.225491e+00
  9.640630e+00    3.212581e+00
  9.672381e+00    3.235759e+00
  9.704132e+00    3.238379e+00
  9.735883e+00    3.271541e+00
  9.767634e+00    3.257608e+00
  9.799385e+00    3.160256e+00
  9.831137e+00    3.161280e+00
  9.862888e+00    3.085117e+00
  9.894639e+00    3.164080e+00
  9.926390e+00    3.166726e+00
  9.958141e+00    3.146771e+00
  9.989892e+00    3.133026e+00
  1.002164e+01    3.116336e+00
  1.005339e+01    3.163934e+00
  1.008515e+01    3.089182e+00
  1.011690e+01    3.119504e+00
  1.014865e+01    3.066731e+00
  1.018040e+01    3.069355e+00
  1.021215e+01    3.095429e+00
  1.024390e+01    3.013858e+00
  1.027565e+01    3.048274e+00
  1.030740e+01    3.073262e+00
  1.033915e+01    3.106692e+00
  1.037091e+01    3.087675e+00
  1.040266e+01    3.073811e+00
  1.043441e+01    3.026051e+00
  1.046616e+01    3.034570e+00
  1.049791e+01    2.981884e+00
  1.052966e+01    3.028840e+00
  1.056141e+01    3.024484e+00
  1.059316e+01    3.031721e+00
  1.062492e+01    2.998655e+00
  1.065667e+01    2.991757e+00
  1.068842e+01    2.982280e+00
  1.072017e+01    2.986612e+00
  1.075192e+01    2.981017e+00
  1.078367e+01    2.934824e+00
  1.081542e+01    3.011217e+00
  1.084717e+01    2.877315e+00
  1.087892e+01    2.976097e+00
  1.091068e+01    2.987128e+00
  1.094243e+01    2.999930e+00
  1.097418e+01    2.928535e+00
  1.100593e+01    2.933571e+00
  1.103768e+01    2.885081e+00
  1.106943e+01    2.847157e+00
  1.110118e+01    2.896351e+00
  1.113293e+01    2.846352e+00
  1.116468e+01    2.905176e+00
  1.119644e+01    2.897861e+00
  1.122819e+01    2.864349e+00
  1.125994e+01    2.908932e+00
  1.129169e+01    2.887121e+00
  1.132344e+01    2.837348e+00
  1.135519e+01    2.829295e+00
  1.138694e+01    2.822070e+00
  1.141869e+01    2.830896e+00
  1.145045e+01    2.791030e+00
  1.148220e+01    2.820153e+00
  1.151395e+01    2.793937e+00
  1.154570e+01    2.742589e+00
  1.157745e+01    2.797158e+00
  1.160920e+01    2.808617e+00
  1.164095e+01    2.832344e+00
  1.167270e+01    2.728937e+00
  1.170445e+01    2.771967e+00
  1.173621e+01    2.836966e+00
  1.176796e+01    2.811508e+00
  1.179971e+01    2.764441e+00
  1.183146e+01    2.788840e+00
  1.186321e+01    2.719889e+00
  1.189496e+01    2.747321e+00
  1.192671e+01    2.713690e+00
  1.195846e+01    2.691613e+00
  1.199021e+01    2.730248e+00
  1.202197e+01    2.754897e+00
  1.205372e+01    2.706072e+00
  1.208547e+01    2.707741e+00
  1.211722e+01    2.704680e+00
  1.214897e+01    2.745372e+00
  1.218072e+01    2.761607e+00
  1.221247e+01    2.698516e+00
  1.224422e+01    2.749795e+00
  1.227597e+01    2.658767e+00
  1.230773e+01    2.688305e+00
  1.233948e+01    2.699528e+00
  1.237123e+01    2.760064e+00
  1.240298e+01    2.717824e+00
  1.243473e+01    2.725260e+00
  1.246648e+01    2.690190e+00
  1.249823e+01    2.701751e+00
  1.252998e+01    2.766812e+00
  1.256174e+01    2.735937e+00
  1.259349e+01    2.744080e+00
  1.262524e+01    2.802154e+00
  1.265699e+01    2.805841e+00
  1.268874e+01    2.840874e+00
  1.272049e+01    2.823923e+00
  1.275224e+01    2.940734e+00
  1.278399e+01    2.969941e+00
  1.281574e+01    3.111287e+00
  1.284750e+01    3.163624e+00
  1.287925e+01    3.433787e+00
  1.291100e+01    3.732883e+00
  1.294275e+01    4.194633e+00
  1.297450e+01    4.899681e+00
  1.300625e+01    5.998774e+00
  1.303800e+01    7.808613e+00
  1.306975e+01    1.027769e+01
  1.310150e+01    1.277023e+01
  1.313326e+01    1.496053e+01
  1.316501e+01    1.639283e+01
  1.319676e+01    1.558549e+01
  1.322851e+01    1.252958e+01
  1.326026e+01    9.105320e+00
  1.329201e+01    6.699637e+00
  1.332376e+01    5.294422e+00
  1.335551e+01    4.438141e+00
  1.338727e+01    3.873167e+00
  1.341902e+01    3.464494e+00
  1.345077e+01    3.251682e+00
  1.348252e+01    3.083378e+00
  1.351427e+01    2.926033e+00
  1.354602e+01    2.885356e+00
  1.357777e+01    2.743199e+00
  1.360952e+01    2.692634e+00
  1.364127e+01    2.641111e+00
  1.367303e+01    2.632968e+00
  1.370478e+01    2.573575e+00
  1.373653e+01    2.564869e+00
  1.376828e+01    2.507272e+00
  1.380003e+01    2.508069e+00
  1.383178e+01    2.495369e+00
  1.386353e+01    2.439473e+00
  1.389528e+01    2.371272e+00
  1.392703e+01    2.435755e+00
  1.395879e+01    2.430442e+00
  1.399054e+01    2.361573e+00
  1.402229e+01    2.352793e+00
  1.405404e+01    2.378686e+00
  1.408579e+01    2.332256e+00
  1.411754e+01    2.358276e+00
  1.414929e+01    2.369594e+00
  1.418104e+01    2.275546e+00
  1.421279e+01    2.342284e+00
  1.424455e+01    2.343908e+00
  1.427630e+01    2.296227e+00
  1.430805e+01    2.296933e+00
  1.433980e+01    2.285515e+00
  1.437155e+01    2.276205e+00
  1.440330e+01    2.257379e+00
  1.443505e+01    2.230398e+00
  1.446680e+01    2.261147e+00
  1.449856e+01    2.209992e+00
  1.453031e+01    2.219286e+00
  1.456206e+01    2.208764e+00
  1.459381e+01    2.208168e+00
  1.462556e+01    2.247339e+00
  1.465731e+01    2.199616e+00
  1.468906e+01    2.198549e+00
  1.472081e+01    2.200588e+00
  1.475256e+01    2.211323e+00
  1.478432e+01    2.189826e+00
  1.481607e+01    2.223262e+00
  1.484782e+01    2.232970e+00
  1.487957e+01    2.265930e+00
  1.491132e+01    2.277489e+00
  1.494307e+01    2.303217e+00
  1.497482e+01    2.329674e+00
  1.500657e+01    2.466254e+00
  1.503832e+01    2.589347e+00
  1.507008e+01    2.887628e+00
  1.510183e+01    3.202390e+00
  1.513358e+01    3.871982e+00
  1.516533e+01    4.554393e+00
  1.519708e+01    5.317192e+00
  1.522883e+01    5.716477e+00
  1.526058e+01    5.929059e+00
  1.529233e+01    5.465568e+00
  1.532409e+01    4.647000e+00
  1.535584e+01    3.785454e+00
  1.538759e+01    3.169454e+00
  1.541934e+01    2.764333e+00
  1.545109e+01    2.512169e+00
  1.548284e+01    2.401068e+00
  1.551459e+01    2.286681e+00
  1.554634e+01    2.221042e+00
  1.557809e+01    2.148030e+00
  1.560985e+01    2.105676e+00
  1.564160e+01    2.050291e+00
  1.567335e+01    2.034245e+00
  1.570510e+01    2.026536e+00
  1.573685e+01    2.011134e+00
  1.576860e+01    1.973373e+00
  1.580035e+01    1.967102e+00
  1.583210e+01    1.962442e+00
  1.586385e+01    1.940463e+00
  1.589561e+01    1.893212e+00
  1.592736e+01    1.924618e+00
  1.595911e+01    1.921150e+00
  1.599086e+01    1.885940e+00
  1.602261e+01    1.856569e+00
  1.605436e+01    1.909614e+00
  1.608611e+01    1.890520e+00
  1.611786e+01    1.863282e+00
  1.614961e+01    1.830669e+00
  1.618137e+01    1.821926e+00
  1.621312e+01    1.829639e+00
  1.624487e+01    1.845618e+00
  1.627662e+01    1.802974e+00
  1.630837e+01    1.828687e+00
  1.634012e+01    1.783985e+00
  1.637187e+01    1.828566e+00
  1.640362e+01    1.802560e+00
  1.643538e+01    1.802236e+00
  1.646713e+01    1.778895e+00
  1.649888e+01    1.758277e+00
  1.653063e+01    1.783287e+00
  1.656238e+01    1.781014e+00
  1.659413e+01    1.731628e+00
  1.662588e+01    1.721397e+00
  1.665763e+01    1.741947e+00
  1.668938e+01    1.725754e+00
  1.672114e+01    1.740631e+00
  1.675289e+01    1.740247e+00
  1.678464e+01    1.706901e+00
  1.681639e+01    1.707977e+00
  1.684814e+01    1.725732e+00
  1.687989e+01    1.710144e+00
  1.691164e+01    1.692694e+00
  1.694339e+01    1.682397e+00
  1.697514e+01    1.698299e+00
  1.700690e+01    1.683173e+00
  1.703865e+01    1.679765e+00
  1.707040e+01    1.674491e+00
  1.710215e+01    1.651776e+00
  1.713390e+01    1.661882e+00
  1.716565e+01    1.626152e+00
  1.719740e+01    1.646325e+00
  1.722915e+01    1.617564e+00
  1.726091e+01    1.593122e+00
  1.729266e+01    1.584245e+00
  1.732441e+01    1.625355e+00
  1.735616e+01    1.617977e+00
  1.738791e+01    1.622323e+00
  1.741966e+01    1.631314e+00
  1.745141e+01    1.588453e+00
  1.748316e+01    1.607200e+00
  1.751491e+01    1.623277e+00
  1.754667e+01    1.594585e+00
  1.757842e+01    1.553992e+00
  1.761017e+01    1.573512e+00
  1.764192e+01    1.574277e+00
  1.767367e+01    1.576045e+00
  1.770542e+01    1.567900e+00
  1.773717e+01    1.554351e+00
  1.776892e+01    1.566166e+00
  1.780067e+01    1.550339e+00
  1.783243e+01    1.545524e+00
  1.786418e+01    1.556110e+00
  1.789593e+01    1.541044e+00
  1.792768e+01    1.533653e+00
  1.795943e+01    1.532794e+00
  1.799118e+01    1.539107e+00
  1.802293e+01    1.533381e+00
  1.805468e+01    1.519353e+00
  1.808643e+01    1.525605e+00
  1.811819e+01    1.512163e+00
  1.814994e+01    1.503191e+00
  1.818169e+01    1.502320e+00
  1.821344e+01    1.496866e+00
  1.824519e+01    1.475684e+00
  1.827694e+01    1.499612e+00
  1.830869e+01    1.467998e+00
  1.834044e+01    1.483963e+00
  1.837220e+01    1.477002e+00
  1.840395e+01    1.462555e+00
  1.843570e+01    1.450716e+00
  1.846745e+01    1.469219e+00
  1.849920e+01    1.478598e+00
  1.853095e+01    1.477441e+00
  1.856270e+01    1.429288e+00
  1.859445e+01    1.502426e+00
  1.862620e+01    1.468701e+00
  1.865796e+01    1.439614e+00
  1.868971e+01    1.412367e+00
  1.872146e+01    1.446183e+00
  1.875321e+01    1.414008e+00
  1.878496e+01    1.384347e+00
  1.881671e+01    1.449654e+00
  1.884846e+01    1.422071e+00
  1.888021e+01    1.412401e+00
  1.891196e+01    1.399831e+00
  1.894372e+01    1.391560e+00
  1.897547e+01    1.401716e+00
  1.900722e+01    1.381722e+00
  1.903897e+01    1.381206e+00
  1.907072e+01    1.382209e+00
  1.910247e+01    1.381062e+00
  1.913422e+01    1.400321e+00
  1.916597e+01    1.364499e+00
  1.919773e+01    1.376220e+00
  1.922948e+01    1.343905e+00
  1.926123e+01    1.352851e+00
  1.929298e+01    1.379298e+00
  1.932473e+01    1.353310e+00
  1.935648e+01    1.349255e+00
  1.938823e+01    1.349512e+00
  1.941998e+01    1.346260e+00
  1.945173e+01    1.338745e+00
  1.948349e+01    1.373771e+00
  1.951524e+01    1.355263e+00
  1.954699e+01    1.343139e+00
  1.957874e+01    1.341405e+00
  1.961049e+01    1.344630e+00
  1.964224e+01    1.327072e+00
  1.967399e+01    1.323799e+00
  1.970574e+01    1.322345e+00
  1.973749e+01    1.341425e+00
  1.976925e+01    1.327592e+00
  1.980100e+01    1.309208e+00
  1.983275e+01    1.333171e+00
  1.986450e+01    1.285359e+00
  1.989625e+01    1.311094e+00
  1.992800e+01    1.315361e+00
  1.995975e+01    1.276907e+00
  1.999150e+01    1.267165e+00
  2.002325e+01    1.271884e+00
  2.005501e+01    1.271866e+00
  2.008676e+01    1.305138e+00
  2.011851e+01    1.267491e+00
  2.015026e+01    1.266913e+00
  2.018201e+01    1.274675e+00
  2.021376e+01    1.274763e+00
  2.024551e+01    1.272704e+00
  2.027726e+01    1.250669e+00
  2.030902e+01    1.252872e+00
  2.034077e+01    1.251814e+00
  2.037252e+01    1.267088e+00
  2.040427e+01    1.272489e+00
  2.043602e+01    1.255622e+00
  2.046777e+01    1.238596e+00
  2.049952e+01    1.254792e+00
  2.053127e+01    1.246171e+00
  2.056302e+01    1.246645e+00
  2.059478e+01    1.243029e+00
  2.062653e+01    1.237973e+00
  2.065828e+01    1.258945e+00
  2.069003e+01    1.245005e+00
  2.072178e+01    1.244833e+00
  2.075353e+01    1.223334e+00
  2.078528e+01    1.239140e+00
  2.081703e+01    1.265860e+00
  2.084878e+01    1.241842e+00
  2.088054e+01    1.251979e+00
  2.091229e+01    1.247173e+00
  2.094404e+01    1.229577e+00
  2.097579e+01    1.225854e+00
  2.100754e+01    1.232365e+00
  2.103929e+01    1.231038e+00
  2.107104e+01    1.253184e+00
  2.110279e+01    1.208045e+00
  2.113455e+01    1.249655e+00
  2.116630e+01    1.243545e+00
  2.119805e+01    1.229882e+00
  2.122980e+01    1.245437e+00
  2.126155e+01    1.262276e+00
  2.129330e+01    1.291133e+00
  2.132505e+01    1.278330e+00
  2.135680e+01    1.315960e+00
  2.138855e+01    1.286021e+00
  2.142031e+01    1.356763e+00
  2.145206e+01    1.379396e+00
  2.148381e+01    1.388307e+00
  2.151556e+01    1.443268e+00
  2.154731e+01    1.517915e+00
  2.157906e+01    1.690999e+00
  2.161081e+01    1.778277e+00
  2.164256e+01    2.030143e+00
  2.167431e+01    2.340774e+00
  2.170607e+01    2.854929e+00
  2.173782e+01    3.602737e+00
  2.176957e+01    4.724845e+00
  2.180132e+01    5.981572e+00
  2.183307e+01    7.332673e+00
  2.186482e+01    8.550604e+00
  2.189657e+01    9.019040e+00
  2.192832e+01    8.231649e+00
  2.196007e+01    6.528438e+00
  2.199183e+01    4.775662e+00
  2.202358e+01    3.557873e+00
  2.205533e+01    2.819622e+00
  2.208708e+01    2.341923e+00
  2.211883e+01    1.999738e+00
  2.215058e+01    1.745128e+00
  2.218233e+01    1.609826e+00
  2.221408e+01    1.495859e+00
  2.224584e+01    1.398115e+00
  2.227759e+01    1.352991e+00
  2.230934e+01    1.299691e+00
  2.234109e+01    1.265429e+00
  2.237284e+01    1.211862e+00
  2.240459e+01    1.234840e+00
  2.243634e+01    1.192613e+00
  2.246809e+01    1.181177e+00
  2.249984e+01    1.147884e+00
  2.253160e+01    1.136041e+00
  2.256335e+01    1.116324e+00
  2.259510e+01    1.119953e+00
  2.262685e+01    1.111372e+00
  2.265860e+01    1.087264e+00
  2.269035e+01    1.084659e+00
  2.272210e+01    1.097884e+00
  2.275385e+01    1.078228e+00
  2.278560e+01    1.064193e+00
  2.281736e+01    1.054506e+00
  2.284911e+01    1.056252e+00
  2.288086e+01    1.041969e+00
  2.291261e+01    1.043032e+00
  2.294436e+01    1.048454e+00
  2.297611e+01    1.038846e+00
  2.300786e+01    1.041078e+00
  2.303961e+01    1.022099e+00
  2.307137e+01    1.009861e+00
  2.310312e+01    1.007141e+00
  2.313487e+01    1.013589e+00
  2.316662e+01    1.014627e+00
  2.319837e+01    1.005804e+00
  2.323012e+01    1.005937e+00
  2.326187e+01    9.948382e-01
  2.329362e+01    9.801326e-01
  2.332537e+01    9.994578e-01
  2.335713e+01    9.960883e-01
  2.338888e+01    9.677440e-01
  2.342063e+01    9.677047e-01
  2.345238e+01    9.580871e-01
  2.348413e+01    9.787581e-01
  2.351588e+01    9.776819e-01
  2.354763e+01    9.564932e-01
  2.357938e+01    9.517834e-01
  2.361113e+01    9.603477e-01
  2.364289e+01    9.761756e-01
  2.367464e+01    9.581900e-01
  2.370639e+01    9.574856e-01
  2.373814e+01    9.505789e-01
  2.376989e+01    9.469039e-01
  2.380164e+01    9.296402e-01
  2.383339e+01    9.264197e-01
  2.386514e+01    9.226447e-01
  2.389689e+01    9.143218e-01
  2.392865e+01    8.935310e-01
  2.396040e+01    9.114164e-01
  2.399215e+01    9.171979e-01
  2.402390e+01    8.936687e-01
  2.405565e+01    8.960496e-01
  2.408740e+01    9.035669e-01
  2.411915e+01    8.719743e-01
  2.415090e+01    8.962172e-01
  2.418266e+01    8.796288e-01
  2.421441e+01    8.877831e-01
  2.424616e+01    8.951607e-01
  2.427791e+01    8.789746e-01
  2.430966e+01    8.968748e-01
  2.434141e+01    9.099035e-01
  2.437316e+01    9.075549e-01
  2.440491e+01    8.992252e-01
  2.443666e+01    8.997041e-01
  2.446842e+01    9.077196e-01
  2.450017e+01    8.978326e-01
  2.453192e+01    8.898765e-01
  2.456367e+01    8.919184e-01
  2.459542e+01    9.207349e-01
  2.462717e+01    9.055437e-01
  2.465892e+01    8.851885e-01
  2.469067e+01    9.017576e-01
  2.472242e+01    8.980075e-01
  2.475418e+01    8.882730e-01
  2.478593e+01    8.811061e-01
  2.481768e+01    8.717888e-01
  2.484943e+01    8.931056e-01
  2.488118e+01    8.911051e-01
  2.491293e+01    8.777288e-01
  2.494468e+01    8.913505e-01
  2.497643e+01    9.003044e-01
  2.500819e+01    9.004821e-01
  2.503994e+01    8.944616e-01
  2.507169e+01    9.087808e-01
  2.510344e+01    9.110904e-01
  2.513519e+01    9.017168e-01
  2.516694e+01    9.103483e-01
  2.519869e+01    9.360982e-01
  2.523044e+01    9.497705e-01
  2.526219e+01    9.625051e-01
  2.529395e+01    9.535407e-01
  2.532570e+01    9.567071e-01
  2.535745e+01    1.001303e+00
  2.538920e+01    1.000337e+00
  2.542095e+01    9.798265e-01
  2.545270e+01    1.014052e+00
  2.548445e+01    1.024713e+00
  2.551620e+01    1.068359e+00
  2.554795e+01    1.106111e+00
  2.557971e+01    1.149264e+00
  2.561146e+01    1.238000e+00
  2.564321e+01    1.321540e+00
  2.567496e+01    1.461769e+00
  2.570671e+01    1.625423e+00
  2.573846e+01    1.898970e+00
  2.577021e+01    2.272352e+00
  2.580196e+01    2.872062e+00
  2.583371e+01    3.769311e+00
  2.586547e+01    4.792654e+00
  2.589722e+01    6.036762e+00
  2.592897e+01    6.915775e+00
  2.596072e+01    7.194398e+00
  2.599247e+01    6.583842e+00
  2.602422e+01    5.217923e+00
  2.605597e+01    3.887519e+00
  2.608772e+01    2.967304e+00
  2.611948e+01    2.353648e+00
  2.615123e+01    1.920620e+00
  2.618298e+01    1.674170e+00
  2.621473e+01    1.502012e+00
  2.624648e+01    1.344522e+00
  2.627823e+01    1.247070e+00
  2.630998e+01    1.168592e+00
  2.634173e+01    1.152686e+00
  2.637348e+01    1.075882e+00
  2.640524e+01    1.065548e+00
  2.643699e+01    1.024983e+00
  2.646874e+01    1.021411e+00
  2.650049e+01    1.011054e+00
  2.653224e+01    1.008954e+00
  2.656399e+01    9.877881e-01
  2.659574e+01    9.938799e-01
  2.662749e+01    9.931316e-01
  2.665924e+01    9.939891e-01
  2.669100e+01    9.774912e-01
  2.672275e+01    9.725761e-01
  2.675450e+01    9.807811e-01
  2.678625e+01    9.866470e-01
  2.681800e+01    9.868704e-01
  2.684975e+01    9.852992e-01
  2.688150e+01    1.006330e+00
  2.691325e+01    1.031742e+00
  2.694501e+01    1.034715e+00
  2.697676e+01    1.074934e+00
  2.700851e+01    1.132810e+00
  2.704026e+01    1.178807e+00
  2.707201e+01    1.348125e+00
  2.710376e+01    1.544346e+00
  2.713551e+01    1.774050e+00
  2.716726e+01    2.027371e+00
  2.719901e+01    2.194707e+00
  2.723077e+01    2.163534e+00
  2.726252e+01    1.976565e+00
  2.729427e+01    1.694995e+00
  2.732602e+01    1.444815e+00
  2.735777e+01    1.272612e+00
  2.738952e+01    1.139035e+00
  2.742127e+01    1.105656e+00
  2.745302e+01    1.055360e+00
  2.748477e+01    1.005936e+00
  2.751653e+01    9.572426e-01
  2.754828e+01    9.613491e-01
  2.758003e+01    9.764163e-01
  2.761178e+01    9.524922e-01
  2.764353e+01    9.253093e-01
  2.767528e+01    9.093042e-01
  2.770703e+01    9.142217e-01
  2.773878e+01    8.914506e-01
  2.777054e+01    8.877785e-01
  2.780229e+01    9.078248e-01
  2.783404e+01    8.793656e-01
  2.786579e+01    8.699660e-01
  2.789754e+01    8.820329e-01
  2.792929e+01    8.775915e-01
  2.796104e+01    8.616226e-01
  2.799279e+01    8.861457e-01
  2.802454e+01    8.823112e-01
  2.805630e+01    8.638960e-01
  2.808805e+01    8.664404e-01
  2.811980e+01    8.626043e-01
  2.815155e+01    8.722790e-01
  2.818330e+01    8.693879e-01
  2.821505e+01    8.649281e-01
  2.824680e+01    8.541619e-01
  2.827855e+01    8.455610e-01
  2.831030e+01    8.449472e-01
  2.834206e+01    8.619970e-01
  2.837381e+01    8.422039e-01
  2.840556e+01    8.642284e-01
  2.843731e+01    8.315252e-01
  2.846906e+01    8.377889e-01
  2.850081e+01    8.430786e-01
  2.853256e+01    8.395368e-01
  2.856431e+01    8.395052e-01
  2.859606e+01    8.274689e-01
  2.862782e+01    8.493724e-01
  2.865957e+01    8.318204e-01
  2.869132e+01    8.463408e-01
  2.872307e+01    8.357753e-01
  2.875482e+01    8.404739e-01
  2.878657e+01    8.226892e-01
  2.881832e+01    8.400359e-01
  2.885007e+01    8.285602e-01
  2.888183e+01    8.505000e-01
  2.891358e+01    8.139329e-01
  2.894533e+01    8.280044e-01
  2.897708e+01    8.382334e-01
  2.900883e+01    8.178892e-01
  2.904058e+01    8.283721e-01
  2.907233e+01    8.253444e-01
  2.910408e+01    8.323399e-01
  2.913583e+01    8.150830e-01
  2.916759e+01    8.227162e-01
  2.919934e+01    8.151953e-01
  2.923109e+01    8.376455e-01
  2.926284e+01    8.303742e-01
  2.929459e+01    8.098217e-01
  2.932634e+01    8.167968e-01
  2.935809e+01    8.057591e-01
  2.938984e+01    8.219185e-01
  2.942159e+01    8.022394e-01
  2.945335e+01    8.108770e-01
  2.948510e+01    8.120074e-01
  2.951685e+01    8.024855e-01
  2.954860e+01    7.968331e-01
  2.958035e+01    8.016634e-01
  2.961210e+01    8.003733e-01
  2.964385e+01    7.808142e-01
  2.967560e+01    8.090405e-01
  2.970736e+01    8.115773e-01
  2.973911e+01    7.959433e-01
  2.977086e+01    7.729318e-01
  2.980261e+01    8.062325e-01
  2.983436e+01    7.897307e-01
  2.986611e+01    8.124272e-01
  2.989786e+01    7.966622e-01
  2.992961e+01    8.002515e-01
  2.996136e+01    8.223900e-01
  2.999312e+01    8.220599e-01
  3.002487e+01    8.321170e-01
  3.005662e+01    8.199409e-01
  3.008837e+01    8.091586e-01
  3.012012e+01    8.147305e-01
  3.015187e+01    7.900321e-01
  3.018362e+01    7.888735e-01
  3.021537e+01    7.831560e-01
  3.024712e+01    7.903090e-01
  3.027888e+01    7.711275e-01
  3.031063e+01    7.924277e-01
  3.034238e+01    7.732590e-01
  3.037413e+01    7.975214e-01
  3.040588e+01    7.838526e-01
  3.043763e+01    7.795600e-01
  3.046938e+01    7.979457e-01
  3.050113e+01    7.637255e-01
  3.053288e+01    7.854565e-01
  3.056464e+01    7.717251e-01
  3.059639e+01    7.706749e-01
  3.062814e+01    7.887452e-01
  3.065989e+01    7.967309e-01
  3.069164e+01    7.989791e-01
  3.072339e+01    8.088312e-01
  3.075514e+01    8.155079e-01
  3.078689e+01    7.991175e-01
  3.081865e+01    7.973197e-01
  3.085040e+01    8.039989e-01
  3.088215e+01    7.801585e-01
  3.091390e+01    7.974357e-01
  3.094565e+01    7.958501e-01
  3.097740e+01    7.797676e-01
  3.100915e+01    8.004576e-01
  3.104090e+01    7.896730e-01
  3.107265e+01    8.070712e-01
  3.110441e+01    7.984356e-01
  3.113616e+01    7.754661e-01
  3.116791e+01    7.880269e-01
  3.119966e+01    8.104421e-01
  3.123141e+01    7.918211e-01
  3.126316e+01    8.196646e-01
  3.129491e+01    7.804152e-01
  3.132666e+01    8.096794e-01
  3.135841e+01    8.095242e-01
  3.139017e+01    7.988209e-01
  3.142192e+01    8.094772e-01
  3.145367e+01    8.236756e-01
  3.148542e+01    8.239235e-01
  3.151717e+01    8.408068e-01
  3.154892e+01    8.366398e-01
  3.158067e+01    8.961523e-01
  3.161242e+01    8.919078e-01
  3.164418e+01    9.397766e-01
  3.167593e+01    9.500573e-01
  3.170768e+01    1.049208e+00
  3.173943e+01    1.154487e+00
  3.177118e+01    1.293595e+00
  3.180293e+01    1.501095e+00
  3.183468e+01    1.743426e+00
  3.186643e+01    1.965585e+00
  3.189818e+01    2.122244e+00
  3.192994e+01    2.029744e+00
  3.196169e+01    1.792915e+00
  3.199344e+01    1.531426e+00
  3.202519e+01    1.320409e+00
  3.205694e+01    1.174115e+00
  3.208869e+01    1.030096e+00
  3.212044e+01    9.750207e-01
  3.215219e+01    9.312835e-01
  3.218394e+01    8.651841e-01
  3.221570e+01    8.417567e-01
  3.224745e+01    8.374208e-01
  3.227920e+01    8.208192e-01
  3.231095e+01    8.167364e-01
  3.234270e+01    8.158101e-01
  3.237445e+01    7.903874e-01
  3.240620e+01    7.979875e-01
  3.243795e+01    8.027921e-01
  3.246970e+01    8.119388e-01
  3.250146e+01    7.802073e-01
  3.253321e+01    7.718776e-01
  3.254908e+01    7.576967e-01