File: XRD/Reaction conditions/2024-07-27_003_Ru-CGO-ex_Reaction_dwell_000023_data_000183.dat
# == pyFAI calibration ==
# Distance Sample to Detector: 0.4 m
# PONI: 9.750e-02, 1.135e-01 m
# Rotations: -0.000175 0.000000 -0.000000 rad
#
# == Fit2d calibration ==
# Distance Sample-beamCenter: 400.000 mm
# Center: x=1514.000, y=1300.000 pix
# Tilt: 0.010 deg  TiltPlanRot: 0.010 deg
#
# Detector Detector	 Spline= None	 PixelSize= 7.500e-05, 7.500e-05 m
#    Detector has a mask: False
#    Detector has a dark current: False
#    detector has a flat field: False
#
# Wavelength: 6.888e-11 m
# Mask applied: user provided
# Dark current applied: False
# Flat field applied: False
# Polarization factor: 0.99
# Normalization factor: 1.0
# --> /home/myspot/data/2024_07_Rosario/Ru-CGO-ex/2024-07-27_003_Ru-CGO-ex_Reaction_dwell_000023_data_000183.dat
#       q_nm^-1             I
  2.003187e-02    7.712225e-02
  5.178302e-02    4.781393e-02
  8.353417e-02    1.126412e-01
  1.152853e-01    6.484532e-02
  1.470365e-01    7.838871e-02
  1.787876e-01    5.148542e-02
  2.105388e-01    2.365456e-02
  2.422899e-01    1.091688e-02
  2.740411e-01    6.548562e-02
  3.057922e-01    1.843404e-02
  3.375433e-01    5.535797e-02
  3.692945e-01    5.878291e-02
  4.010456e-01    5.068605e-03
  4.327968e-01    6.729373e-02
  4.645479e-01    3.369385e-02
  4.962991e-01    4.492489e-02
  5.280502e-01    4.647551e-02
  5.598014e-01    3.044565e-02
  5.915525e-01    3.240758e-02
  6.233037e-01    2.698090e-02
  6.550548e-01    3.221142e-02
  6.868060e-01    3.115404e-02
  7.185571e-01    5.902148e-02
  7.503083e-01    3.624076e-02
  7.820594e-01    1.006929e-01
  8.138106e-01    1.646577e-01
  8.455617e-01    4.031464e-01
  8.773129e-01    5.213352e-01
  9.090640e-01    5.024935e-01
  9.408152e-01    8.600908e-01
  9.725663e-01    9.032900e-01
  1.004317e+00    1.184472e+00
  1.036069e+00    1.329586e+00
  1.067820e+00    1.533598e+00
  1.099571e+00    1.536988e+00
  1.131322e+00    1.480358e+00
  1.163073e+00    1.752441e+00
  1.194824e+00    1.915764e+00
  1.226575e+00    2.249219e+00
  1.258327e+00    2.442012e+00
  1.290078e+00    2.533895e+00
  1.321829e+00    2.606556e+00
  1.353580e+00    2.553319e+00
  1.385331e+00    2.831254e+00
  1.417082e+00    2.788338e+00
  1.448834e+00    2.744243e+00
  1.480585e+00    2.947535e+00
  1.512336e+00    3.079545e+00
  1.544087e+00    3.185400e+00
  1.575838e+00    3.207451e+00
  1.607589e+00    3.077407e+00
  1.639340e+00    3.097657e+00
  1.671092e+00    3.105935e+00
  1.702843e+00    2.986120e+00
  1.734594e+00    3.012477e+00
  1.766345e+00    3.030858e+00
  1.798096e+00    2.975970e+00
  1.829847e+00    3.107496e+00
  1.861598e+00    3.037715e+00
  1.893350e+00    2.938841e+00
  1.925101e+00    2.987778e+00
  1.956852e+00    3.075393e+00
  1.988603e+00    3.138201e+00
  2.020354e+00    2.973495e+00
  2.052105e+00    3.007258e+00
  2.083856e+00    3.039885e+00
  2.115608e+00    3.106732e+00
  2.147359e+00    3.160295e+00
  2.179110e+00    2.911969e+00
  2.210861e+00    2.996756e+00
  2.242612e+00    3.025000e+00
  2.274363e+00    3.075676e+00
  2.306115e+00    3.114266e+00
  2.337866e+00    3.199843e+00
  2.369617e+00    3.062636e+00
  2.401368e+00    3.186260e+00
  2.433119e+00    3.134047e+00
  2.464870e+00    3.083341e+00
  2.496621e+00    3.106034e+00
  2.528373e+00    3.120456e+00
  2.560124e+00    3.203262e+00
  2.591875e+00    3.150809e+00
  2.623626e+00    3.189414e+00
  2.655377e+00    3.196561e+00
  2.687128e+00    3.184157e+00
  2.718879e+00    3.168085e+00
  2.750631e+00    3.190175e+00
  2.782382e+00    3.185251e+00
  2.814133e+00    3.208768e+00
  2.845884e+00    3.357293e+00
  2.877635e+00    3.125379e+00
  2.909386e+00    3.138908e+00
  2.941137e+00    3.200929e+00
  2.972889e+00    3.297978e+00
  3.004640e+00    3.283175e+00
  3.036391e+00    3.268933e+00
  3.068142e+00    3.311550e+00
  3.099893e+00    3.349207e+00
  3.131644e+00    3.331298e+00
  3.163395e+00    3.227798e+00
  3.195147e+00    3.235549e+00
  3.226898e+00    3.381033e+00
  3.258649e+00    3.378750e+00
  3.290400e+00    3.278604e+00
  3.322151e+00    3.283553e+00
  3.353902e+00    3.340717e+00
  3.385654e+00    3.431908e+00
  3.417405e+00    3.401154e+00
  3.449156e+00    3.417211e+00
  3.480907e+00    3.336956e+00
  3.512658e+00    3.449731e+00
  3.544409e+00    3.389044e+00
  3.576160e+00    3.397248e+00
  3.607912e+00    3.366076e+00
  3.639663e+00    3.461445e+00
  3.671414e+00    3.514655e+00
  3.703165e+00    3.448548e+00
  3.734916e+00    3.540483e+00
  3.766667e+00    3.369748e+00
  3.798418e+00    3.328626e+00
  3.830170e+00    3.366993e+00
  3.861921e+00    3.393899e+00
  3.893672e+00    3.487930e+00
  3.925423e+00    3.345881e+00
  3.957174e+00    3.483045e+00
  3.988925e+00    3.476344e+00
  4.020676e+00    3.480904e+00
  4.052428e+00    3.520561e+00
  4.084179e+00    3.529256e+00
  4.115930e+00    3.501364e+00
  4.147681e+00    3.531286e+00
  4.179432e+00    3.537630e+00
  4.211183e+00    3.503416e+00
  4.242935e+00    3.490471e+00
  4.274686e+00    3.486423e+00
  4.306437e+00    3.447342e+00
  4.338188e+00    3.538483e+00
  4.369939e+00    3.516222e+00
  4.401690e+00    3.627914e+00
  4.433441e+00    3.504470e+00
  4.465193e+00    3.543931e+00
  4.496944e+00    3.460124e+00
  4.528695e+00    3.608406e+00
  4.560446e+00    3.629163e+00
  4.592197e+00    3.547663e+00
  4.623948e+00    3.613452e+00
  4.655699e+00    3.575130e+00
  4.687451e+00    3.564564e+00
  4.719202e+00    3.608495e+00
  4.750953e+00    3.543260e+00
  4.782704e+00    3.533259e+00
  4.814455e+00    3.510771e+00
  4.846206e+00    3.655723e+00
  4.877957e+00    3.573693e+00
  4.909709e+00    3.528197e+00
  4.941460e+00    3.667188e+00
  4.973211e+00    3.526806e+00
  5.004962e+00    3.593577e+00
  5.036713e+00    3.541562e+00
  5.068464e+00    3.582181e+00
  5.100216e+00    3.601699e+00
  5.131967e+00    3.544485e+00
  5.163718e+00    3.597720e+00
  5.195469e+00    3.613904e+00
  5.227220e+00    3.705684e+00
  5.258971e+00    3.659072e+00
  5.290722e+00    3.537637e+00
  5.322474e+00    3.575860e+00
  5.354225e+00    3.531544e+00
  5.385976e+00    3.649425e+00
  5.417727e+00    3.517939e+00
  5.449478e+00    3.605123e+00
  5.481229e+00    3.600773e+00
  5.512980e+00    3.581641e+00
  5.544732e+00    3.546360e+00
  5.576483e+00    3.591755e+00
  5.608234e+00    3.544702e+00
  5.639985e+00    3.543719e+00
  5.671736e+00    3.605581e+00
  5.703487e+00    3.484100e+00
  5.735238e+00    3.515907e+00
  5.766990e+00    3.570124e+00
  5.798741e+00    3.521545e+00
  5.830492e+00    3.474733e+00
  5.862243e+00    3.491789e+00
  5.893994e+00    3.414538e+00
  5.925745e+00    3.533414e+00
  5.957497e+00    3.413873e+00
  5.989248e+00    3.522737e+00
  6.020999e+00    3.432494e+00
  6.052750e+00    3.546870e+00
  6.084501e+00    3.516600e+00
  6.116252e+00    3.480495e+00
  6.148003e+00    3.544255e+00
  6.179755e+00    3.508937e+00
  6.211506e+00    3.564496e+00
  6.243257e+00    3.529771e+00
  6.275008e+00    3.527722e+00
  6.306759e+00    3.414261e+00
  6.338510e+00    3.539768e+00
  6.370261e+00    3.477843e+00
  6.402013e+00    3.524956e+00
  6.433764e+00    3.471657e+00
  6.465515e+00    3.521192e+00
  6.497266e+00    3.507514e+00
  6.529017e+00    3.367164e+00
  6.560768e+00    3.566600e+00
  6.592519e+00    3.479835e+00
  6.624271e+00    3.526578e+00
  6.656022e+00    3.537465e+00
  6.687773e+00    3.545356e+00
  6.719524e+00    3.536131e+00
  6.751275e+00    3.484963e+00
  6.783026e+00    3.504239e+00
  6.814777e+00    3.454968e+00
  6.846529e+00    3.471161e+00
  6.878280e+00    3.474339e+00
  6.910031e+00    3.548085e+00
  6.941782e+00    3.486111e+00
  6.973533e+00    3.549004e+00
  7.005284e+00    3.411448e+00
  7.037036e+00    3.461302e+00
  7.068787e+00    3.542845e+00
  7.100538e+00    3.454073e+00
  7.132289e+00    3.549639e+00
  7.164040e+00    3.497490e+00
  7.195791e+00    3.524241e+00
  7.227542e+00    3.483513e+00
  7.259294e+00    3.475560e+00
  7.291045e+00    3.454340e+00
  7.322796e+00    3.479390e+00
  7.354547e+00    3.442128e+00
  7.386298e+00    3.440069e+00
  7.418049e+00    3.451722e+00
  7.449800e+00    3.429337e+00
  7.481552e+00    3.478072e+00
  7.513303e+00    3.478714e+00
  7.545054e+00    3.437024e+00
  7.576805e+00    3.395593e+00
  7.608556e+00    3.406588e+00
  7.640307e+00    3.351225e+00
  7.672058e+00    3.403084e+00
  7.703810e+00    3.395764e+00
  7.735561e+00    3.407500e+00
  7.767312e+00    3.423300e+00
  7.799063e+00    3.342127e+00
  7.830814e+00    3.366637e+00
  7.862565e+00    3.408687e+00
  7.894317e+00    3.413732e+00
  7.926068e+00    3.358687e+00
  7.957819e+00    3.416847e+00
  7.989570e+00    3.382180e+00
  8.021321e+00    3.340143e+00
  8.053072e+00    3.334571e+00
  8.084823e+00    3.356285e+00
  8.116575e+00    3.372581e+00
  8.148326e+00    3.349330e+00
  8.180077e+00    3.438423e+00
  8.211828e+00    3.418911e+00
  8.243579e+00    3.374256e+00
  8.275330e+00    3.408407e+00
  8.307081e+00    3.341195e+00
  8.338833e+00    3.348921e+00
  8.370584e+00    3.336311e+00
  8.402335e+00    3.315648e+00
  8.434086e+00    3.359511e+00
  8.465837e+00    3.304744e+00
  8.497588e+00    3.289114e+00
  8.529339e+00    3.267200e+00
  8.561091e+00    3.314886e+00
  8.592842e+00    3.300442e+00
  8.624593e+00    3.300006e+00
  8.656344e+00    3.329691e+00
  8.688095e+00    3.307429e+00
  8.719846e+00    3.282801e+00
  8.751598e+00    3.246884e+00
  8.783349e+00    3.297631e+00
  8.815100e+00    3.250200e+00
  8.846851e+00    3.244629e+00
  8.878602e+00    3.252232e+00
  8.910353e+00    3.270122e+00
  8.942104e+00    3.289653e+00
  8.973856e+00    3.227007e+00
  9.005607e+00    3.269491e+00
  9.037358e+00    3.249280e+00
  9.069109e+00    3.196481e+00
  9.100860e+00    3.240533e+00
  9.132611e+00    3.180580e+00
  9.164362e+00    3.211268e+00
  9.196114e+00    3.135750e+00
  9.227865e+00    3.206230e+00
  9.259616e+00    3.202074e+00
  9.291367e+00    3.209692e+00
  9.323118e+00    3.235510e+00
  9.354869e+00    3.227865e+00
  9.386620e+00    3.205610e+00
  9.418372e+00    3.187350e+00
  9.450123e+00    3.204186e+00
  9.481874e+00    3.159247e+00
  9.513625e+00    3.199363e+00
  9.545376e+00    3.183519e+00
  9.577127e+00    3.134168e+00
  9.608878e+00    3.128874e+00
  9.640630e+00    3.112957e+00
  9.672381e+00    3.154299e+00
  9.704132e+00    3.128991e+00
  9.735883e+00    3.173630e+00
  9.767634e+00    3.157718e+00
  9.799385e+00    3.131201e+00
  9.831137e+00    3.097833e+00
  9.862888e+00    3.137749e+00
  9.894639e+00    3.103372e+00
  9.926390e+00    3.088261e+00
  9.958141e+00    3.078459e+00
  9.989892e+00    3.060849e+00
  1.002164e+01    3.036350e+00
  1.005339e+01    3.108203e+00
  1.008515e+01    3.100095e+00
  1.011690e+01    3.090182e+00
  1.014865e+01    3.068827e+00
  1.018040e+01    3.079605e+00
  1.021215e+01    2.999512e+00
  1.024390e+01    3.031618e+00
  1.027565e+01    2.983161e+00
  1.030740e+01    3.047219e+00
  1.033915e+01    3.007751e+00
  1.037091e+01    2.985249e+00
  1.040266e+01    2.986267e+00
  1.043441e+01    3.012922e+00
  1.046616e+01    3.001177e+00
  1.049791e+01    3.064595e+00
  1.052966e+01    2.957305e+00
  1.056141e+01    2.956532e+00
  1.059316e+01    2.970107e+00
  1.062492e+01    2.900470e+00
  1.065667e+01    2.904434e+00
  1.068842e+01    2.939728e+00
  1.072017e+01    2.925972e+00
  1.075192e+01    2.916987e+00
  1.078367e+01    2.891424e+00
  1.081542e+01    2.902595e+00
  1.084717e+01    2.921451e+00
  1.087892e+01    2.832871e+00
  1.091068e+01    2.895487e+00
  1.094243e+01    2.870322e+00
  1.097418e+01    2.872166e+00
  1.100593e+01    2.905559e+00
  1.103768e+01    2.853488e+00
  1.106943e+01    2.863519e+00
  1.110118e+01    2.834235e+00
  1.113293e+01    2.858800e+00
  1.116468e+01    2.838846e+00
  1.119644e+01    2.820656e+00
  1.122819e+01    2.820148e+00
  1.125994e+01    2.818562e+00
  1.129169e+01    2.811635e+00
  1.132344e+01    2.851321e+00
  1.135519e+01    2.786003e+00
  1.138694e+01    2.800101e+00
  1.141869e+01    2.733010e+00
  1.145045e+01    2.758597e+00
  1.148220e+01    2.788323e+00
  1.151395e+01    2.785238e+00
  1.154570e+01    2.757314e+00
  1.157745e+01    2.751180e+00
  1.160920e+01    2.733912e+00
  1.164095e+01    2.727836e+00
  1.167270e+01    2.712716e+00
  1.170445e+01    2.703883e+00
  1.173621e+01    2.718602e+00
  1.176796e+01    2.662878e+00
  1.179971e+01    2.712620e+00
  1.183146e+01    2.705214e+00
  1.186321e+01    2.707881e+00
  1.189496e+01    2.672868e+00
  1.192671e+01    2.677501e+00
  1.195846e+01    2.670832e+00
  1.199021e+01    2.684168e+00
  1.202197e+01    2.687477e+00
  1.205372e+01    2.654747e+00
  1.208547e+01    2.665280e+00
  1.211722e+01    2.662424e+00
  1.214897e+01    2.728133e+00
  1.218072e+01    2.661723e+00
  1.221247e+01    2.698671e+00
  1.224422e+01    2.664971e+00
  1.227597e+01    2.655110e+00
  1.230773e+01    2.649945e+00
  1.233948e+01    2.636631e+00
  1.237123e+01    2.630364e+00
  1.240298e+01    2.654338e+00
  1.243473e+01    2.625853e+00
  1.246648e+01    2.685699e+00
  1.249823e+01    2.628277e+00
  1.252998e+01    2.674566e+00
  1.256174e+01    2.681105e+00
  1.259349e+01    2.673229e+00
  1.262524e+01    2.678142e+00
  1.265699e+01    2.732759e+00
  1.268874e+01    2.817609e+00
  1.272049e+01    2.805408e+00
  1.275224e+01    2.851223e+00
  1.278399e+01    2.842620e+00
  1.281574e+01    3.027021e+00
  1.284750e+01    3.191404e+00
  1.287925e+01    3.301069e+00
  1.291100e+01    3.550706e+00
  1.294275e+01    4.110244e+00
  1.297450e+01    4.717894e+00
  1.300625e+01    5.820179e+00
  1.303800e+01    7.486784e+00
  1.306975e+01    9.862544e+00
  1.310150e+01    1.242323e+01
  1.313326e+01    1.452329e+01
  1.316501e+01    1.594011e+01
  1.319676e+01    1.549750e+01
  1.322851e+01    1.243479e+01
  1.326026e+01    8.921909e+00
  1.329201e+01    6.645705e+00
  1.332376e+01    5.213927e+00
  1.335551e+01    4.383945e+00
  1.338727e+01    3.751510e+00
  1.341902e+01    3.437537e+00
  1.345077e+01    3.202669e+00
  1.348252e+01    2.970927e+00
  1.351427e+01    2.937659e+00
  1.354602e+01    2.736589e+00
  1.357777e+01    2.701195e+00
  1.360952e+01    2.636856e+00
  1.364127e+01    2.599524e+00
  1.367303e+01    2.534272e+00
  1.370478e+01    2.499548e+00
  1.373653e+01    2.505334e+00
  1.376828e+01    2.474689e+00
  1.380003e+01    2.491367e+00
  1.383178e+01    2.419178e+00
  1.386353e+01    2.395203e+00
  1.389528e+01    2.401966e+00
  1.392703e+01    2.335158e+00
  1.395879e+01    2.371544e+00
  1.399054e+01    2.347824e+00
  1.402229e+01    2.331012e+00
  1.405404e+01    2.304295e+00
  1.408579e+01    2.316661e+00
  1.411754e+01    2.289395e+00
  1.414929e+01    2.263128e+00
  1.418104e+01    2.272618e+00
  1.421279e+01    2.235545e+00
  1.424455e+01    2.237397e+00
  1.427630e+01    2.264416e+00
  1.430805e+01    2.255948e+00
  1.433980e+01    2.257566e+00
  1.437155e+01    2.233161e+00
  1.440330e+01    2.195760e+00
  1.443505e+01    2.212911e+00
  1.446680e+01    2.192255e+00
  1.449856e+01    2.189562e+00
  1.453031e+01    2.191476e+00
  1.456206e+01    2.235063e+00
  1.459381e+01    2.154435e+00
  1.462556e+01    2.210122e+00
  1.465731e+01    2.149490e+00
  1.468906e+01    2.178588e+00
  1.472081e+01    2.181849e+00
  1.475256e+01    2.157036e+00
  1.478432e+01    2.169742e+00
  1.481607e+01    2.165057e+00
  1.484782e+01    2.171557e+00
  1.487957e+01    2.221426e+00
  1.491132e+01    2.232054e+00
  1.494307e+01    2.246458e+00
  1.497482e+01    2.334918e+00
  1.500657e+01    2.385205e+00
  1.503832e+01    2.562164e+00
  1.507008e+01    2.776842e+00
  1.510183e+01    3.117008e+00
  1.513358e+01    3.717571e+00
  1.516533e+01    4.454438e+00
  1.519708e+01    5.099258e+00
  1.522883e+01    5.519086e+00
  1.526058e+01    5.708338e+00
  1.529233e+01    5.394894e+00
  1.532409e+01    4.594359e+00
  1.535584e+01    3.787007e+00
  1.538759e+01    3.068918e+00
  1.541934e+01    2.724960e+00
  1.545109e+01    2.483625e+00
  1.548284e+01    2.317760e+00
  1.551459e+01    2.222290e+00
  1.554634e+01    2.184135e+00
  1.557809e+01    2.109704e+00
  1.560985e+01    2.029463e+00
  1.564160e+01    1.993691e+00
  1.567335e+01    2.011234e+00
  1.570510e+01    1.995436e+00
  1.573685e+01    1.951512e+00
  1.576860e+01    1.981267e+00
  1.580035e+01    1.949508e+00
  1.583210e+01    1.874062e+00
  1.586385e+01    1.925749e+00
  1.589561e+01    1.881337e+00
  1.592736e+01    1.843963e+00
  1.595911e+01    1.869488e+00
  1.599086e+01    1.862303e+00
  1.602261e+01    1.827016e+00
  1.605436e+01    1.843377e+00
  1.608611e+01    1.847699e+00
  1.611786e+01    1.809031e+00
  1.614961e+01    1.823117e+00
  1.618137e+01    1.818577e+00
  1.621312e+01    1.803141e+00
  1.624487e+01    1.798562e+00
  1.627662e+01    1.795304e+00
  1.630837e+01    1.758803e+00
  1.634012e+01    1.792890e+00
  1.637187e+01    1.754655e+00
  1.640362e+01    1.787980e+00
  1.643538e+01    1.745162e+00
  1.646713e+01    1.741016e+00
  1.649888e+01    1.752895e+00
  1.653063e+01    1.750305e+00
  1.656238e+01    1.712507e+00
  1.659413e+01    1.733104e+00
  1.662588e+01    1.728252e+00
  1.665763e+01    1.702585e+00
  1.668938e+01    1.692802e+00
  1.672114e+01    1.695087e+00
  1.675289e+01    1.708078e+00
  1.678464e+01    1.706476e+00
  1.681639e+01    1.651539e+00
  1.684814e+01    1.674330e+00
  1.687989e+01    1.700881e+00
  1.691164e+01    1.622885e+00
  1.694339e+01    1.659142e+00
  1.697514e+01    1.647756e+00
  1.700690e+01    1.652027e+00
  1.703865e+01    1.627934e+00
  1.707040e+01    1.652317e+00
  1.710215e+01    1.593277e+00
  1.713390e+01    1.614388e+00
  1.716565e+01    1.646830e+00
  1.719740e+01    1.606016e+00
  1.722915e+01    1.613168e+00
  1.726091e+01    1.592245e+00
  1.729266e+01    1.606812e+00
  1.732441e+01    1.590720e+00
  1.735616e+01    1.589959e+00
  1.738791e+01    1.571496e+00
  1.741966e+01    1.594648e+00
  1.745141e+01    1.559733e+00
  1.748316e+01    1.542417e+00
  1.751491e+01    1.555589e+00
  1.754667e+01    1.543589e+00
  1.757842e+01    1.549050e+00
  1.761017e+01    1.544885e+00
  1.764192e+01    1.551629e+00
  1.767367e+01    1.518433e+00
  1.770542e+01    1.530789e+00
  1.773717e+01    1.535542e+00
  1.776892e+01    1.542453e+00
  1.780067e+01    1.499245e+00
  1.783243e+01    1.497712e+00
  1.786418e+01    1.533045e+00
  1.789593e+01    1.507936e+00
  1.792768e+01    1.497213e+00
  1.795943e+01    1.473568e+00
  1.799118e+01    1.508790e+00
  1.802293e+01    1.481017e+00
  1.805468e+01    1.493702e+00
  1.808643e+01    1.458493e+00
  1.811819e+01    1.476413e+00
  1.814994e+01    1.479475e+00
  1.818169e+01    1.470966e+00
  1.821344e+01    1.438630e+00
  1.824519e+01    1.469472e+00
  1.827694e+01    1.440245e+00
  1.830869e+01    1.464414e+00
  1.834044e+01    1.430801e+00
  1.837220e+01    1.459780e+00
  1.840395e+01    1.423715e+00
  1.843570e+01    1.402350e+00
  1.846745e+01    1.424503e+00
  1.849920e+01    1.405602e+00
  1.853095e+01    1.436090e+00
  1.856270e+01    1.402845e+00
  1.859445e+01    1.412248e+00
  1.862620e+01    1.423054e+00
  1.865796e+01    1.413098e+00
  1.868971e+01    1.430991e+00
  1.872146e+01    1.392183e+00
  1.875321e+01    1.375574e+00
  1.878496e+01    1.399090e+00
  1.881671e+01    1.367523e+00
  1.884846e+01    1.356021e+00
  1.888021e+01    1.417147e+00
  1.891196e+01    1.380025e+00
  1.894372e+01    1.385462e+00
  1.897547e+01    1.360121e+00
  1.900722e+01    1.370351e+00
  1.903897e+01    1.327349e+00
  1.907072e+01    1.343546e+00
  1.910247e+01    1.329959e+00
  1.913422e+01    1.370011e+00
  1.916597e+01    1.357145e+00
  1.919773e+01    1.326699e+00
  1.922948e+01    1.338654e+00
  1.926123e+01    1.331529e+00
  1.929298e+01    1.308829e+00
  1.932473e+01    1.315366e+00
  1.935648e+01    1.322057e+00
  1.938823e+01    1.329144e+00
  1.941998e+01    1.301070e+00
  1.945173e+01    1.323879e+00
  1.948349e+01    1.309385e+00
  1.951524e+01    1.326256e+00
  1.954699e+01    1.303562e+00
  1.957874e+01    1.325528e+00
  1.961049e+01    1.262980e+00
  1.964224e+01    1.315488e+00
  1.967399e+01    1.301194e+00
  1.970574e+01    1.278371e+00
  1.973749e+01    1.287120e+00
  1.976925e+01    1.297137e+00
  1.980100e+01    1.260821e+00
  1.983275e+01    1.251514e+00
  1.986450e+01    1.280236e+00
  1.989625e+01    1.273975e+00
  1.992800e+01    1.271848e+00
  1.995975e+01    1.295199e+00
  1.999150e+01    1.250913e+00
  2.002325e+01    1.275350e+00
  2.005501e+01    1.279269e+00
  2.008676e+01    1.237919e+00
  2.011851e+01    1.233593e+00
  2.015026e+01    1.242705e+00
  2.018201e+01    1.258466e+00
  2.021376e+01    1.227827e+00
  2.024551e+01    1.206493e+00
  2.027726e+01    1.225179e+00
  2.030902e+01    1.255223e+00
  2.034077e+01    1.236557e+00
  2.037252e+01    1.237077e+00
  2.040427e+01    1.227481e+00
  2.043602e+01    1.227976e+00
  2.046777e+01    1.232399e+00
  2.049952e+01    1.215168e+00
  2.053127e+01    1.252026e+00
  2.056302e+01    1.193880e+00
  2.059478e+01    1.230451e+00
  2.062653e+01    1.189492e+00
  2.065828e+01    1.208816e+00
  2.069003e+01    1.199576e+00
  2.072178e+01    1.214176e+00
  2.075353e+01    1.197729e+00
  2.078528e+01    1.215316e+00
  2.081703e+01    1.229373e+00
  2.084878e+01    1.197654e+00
  2.088054e+01    1.217987e+00
  2.091229e+01    1.209997e+00
  2.094404e+01    1.188900e+00
  2.097579e+01    1.194931e+00
  2.100754e+01    1.204840e+00
  2.103929e+01    1.218543e+00
  2.107104e+01    1.196925e+00
  2.110279e+01    1.186838e+00
  2.113455e+01    1.209327e+00
  2.116630e+01    1.215043e+00
  2.119805e+01    1.191841e+00
  2.122980e+01    1.205114e+00
  2.126155e+01    1.238868e+00
  2.129330e+01    1.262808e+00
  2.132505e+01    1.244649e+00
  2.135680e+01    1.292015e+00
  2.138855e+01    1.272219e+00
  2.142031e+01    1.285186e+00
  2.145206e+01    1.362829e+00
  2.148381e+01    1.360871e+00
  2.151556e+01    1.417278e+00
  2.154731e+01    1.504358e+00
  2.157906e+01    1.589209e+00
  2.161081e+01    1.743355e+00
  2.164256e+01    1.922639e+00
  2.167431e+01    2.222635e+00
  2.170607e+01    2.726778e+00
  2.173782e+01    3.466233e+00
  2.176957e+01    4.512651e+00
  2.180132e+01    5.712004e+00
  2.183307e+01    7.011048e+00
  2.186482e+01    8.195937e+00
  2.189657e+01    8.847634e+00
  2.192832e+01    8.124406e+00
  2.196007e+01    6.470494e+00
  2.199183e+01    4.759486e+00
  2.202358e+01    3.637708e+00
  2.205533e+01    2.794634e+00
  2.208708e+01    2.322894e+00
  2.211883e+01    1.972772e+00
  2.215058e+01    1.743120e+00
  2.218233e+01    1.592015e+00
  2.221408e+01    1.491476e+00
  2.224584e+01    1.375057e+00
  2.227759e+01    1.300994e+00
  2.230934e+01    1.308766e+00
  2.234109e+01    1.264414e+00
  2.237284e+01    1.211680e+00
  2.240459e+01    1.185131e+00
  2.243634e+01    1.181018e+00
  2.246809e+01    1.144763e+00
  2.249984e+01    1.126157e+00
  2.253160e+01    1.110874e+00
  2.256335e+01    1.115427e+00
  2.259510e+01    1.085439e+00
  2.262685e+01    1.083238e+00
  2.265860e+01    1.069460e+00
  2.269035e+01    1.066794e+00
  2.272210e+01    1.033301e+00
  2.275385e+01    1.035785e+00
  2.278560e+01    1.057191e+00
  2.281736e+01    1.036454e+00
  2.284911e+01    1.030558e+00
  2.288086e+01    1.054319e+00
  2.291261e+01    1.039184e+00
  2.294436e+01    1.045258e+00
  2.297611e+01    1.006713e+00
  2.300786e+01    9.929397e-01
  2.303961e+01    9.997108e-01
  2.307137e+01    9.862730e-01
  2.310312e+01    9.890218e-01
  2.313487e+01    9.892943e-01
  2.316662e+01    9.909573e-01
  2.319837e+01    9.676265e-01
  2.323012e+01    9.898347e-01
  2.326187e+01    9.655754e-01
  2.329362e+01    9.624894e-01
  2.332537e+01    9.616852e-01
  2.335713e+01    9.602603e-01
  2.338888e+01    9.410399e-01
  2.342063e+01    9.445500e-01
  2.345238e+01    9.881490e-01
  2.348413e+01    9.727930e-01
  2.351588e+01    9.527245e-01
  2.354763e+01    9.311700e-01
  2.357938e+01    9.492714e-01
  2.361113e+01    9.336463e-01
  2.364289e+01    9.399123e-01
  2.367464e+01    9.398906e-01
  2.370639e+01    9.193718e-01
  2.373814e+01    9.178698e-01
  2.376989e+01    9.153814e-01
  2.380164e+01    9.198145e-01
  2.383339e+01    9.242594e-01
  2.386514e+01    9.036210e-01
  2.389689e+01    9.162676e-01
  2.392865e+01    8.746892e-01
  2.396040e+01    8.913280e-01
  2.399215e+01    8.631638e-01
  2.402390e+01    8.858847e-01
  2.405565e+01    8.678696e-01
  2.408740e+01    8.770187e-01
  2.411915e+01    8.637070e-01
  2.415090e+01    8.782905e-01
  2.418266e+01    8.504056e-01
  2.421441e+01    8.826513e-01
  2.424616e+01    8.603173e-01
  2.427791e+01    8.792048e-01
  2.430966e+01    8.711141e-01
  2.434141e+01    8.913229e-01
  2.437316e+01    8.847203e-01
  2.440491e+01    8.834488e-01
  2.443666e+01    8.671077e-01
  2.446842e+01    8.911013e-01
  2.450017e+01    8.881717e-01
  2.453192e+01    8.625748e-01
  2.456367e+01    8.747814e-01
  2.459542e+01    8.533112e-01
  2.462717e+01    8.688293e-01
  2.465892e+01    8.779916e-01
  2.469067e+01    8.903151e-01
  2.472242e+01    8.685725e-01
  2.475418e+01    8.819156e-01
  2.478593e+01    8.811064e-01
  2.481768e+01    8.623549e-01
  2.484943e+01    8.683288e-01
  2.488118e+01    8.691188e-01
  2.491293e+01    8.759923e-01
  2.494468e+01    8.725654e-01
  2.497643e+01    8.750993e-01
  2.500819e+01    8.826910e-01
  2.503994e+01    8.680230e-01
  2.507169e+01    8.979213e-01
  2.510344e+01    8.992164e-01
  2.513519e+01    8.849379e-01
  2.516694e+01    9.084256e-01
  2.519869e+01    8.984631e-01
  2.523044e+01    8.983697e-01
  2.526219e+01    9.400677e-01
  2.529395e+01    9.407155e-01
  2.532570e+01    9.705052e-01
  2.535745e+01    9.441466e-01
  2.538920e+01    9.507641e-01
  2.542095e+01    9.948831e-01
  2.545270e+01    1.007062e+00
  2.548445e+01    1.024741e+00
  2.551620e+01    1.039744e+00
  2.554795e+01    1.091580e+00
  2.557971e+01    1.136631e+00
  2.561146e+01    1.210143e+00
  2.564321e+01    1.261212e+00
  2.567496e+01    1.415424e+00
  2.570671e+01    1.579254e+00
  2.573846e+01    1.790222e+00
  2.577021e+01    2.192880e+00
  2.580196e+01    2.753860e+00
  2.583371e+01    3.517223e+00
  2.586547e+01    4.553816e+00
  2.589722e+01    5.685676e+00
  2.592897e+01    6.582917e+00
  2.596072e+01    6.993296e+00
  2.599247e+01    6.443978e+00
  2.602422e+01    5.276842e+00
  2.605597e+01    3.989708e+00
  2.608772e+01    2.998555e+00
  2.611948e+01    2.335809e+00
  2.615123e+01    1.964157e+00
  2.618298e+01    1.662353e+00
  2.621473e+01    1.434879e+00
  2.624648e+01    1.307441e+00
  2.627823e+01    1.227160e+00
  2.630998e+01    1.148834e+00
  2.634173e+01    1.095923e+00
  2.637348e+01    1.078069e+00
  2.640524e+01    1.036145e+00
  2.643699e+01    1.017636e+00
  2.646874e+01    1.030726e+00
  2.650049e+01    9.872823e-01
  2.653224e+01    9.757066e-01
  2.656399e+01    9.879434e-01
  2.659574e+01    9.461853e-01
  2.662749e+01    9.682831e-01
  2.665924e+01    9.347286e-01
  2.669100e+01    9.449969e-01
  2.672275e+01    9.404005e-01
  2.675450e+01    9.592812e-01
  2.678625e+01    9.696690e-01
  2.681800e+01    9.572093e-01
  2.684975e+01    9.822100e-01
  2.688150e+01    9.619373e-01
  2.691325e+01    9.828198e-01
  2.694501e+01    1.012470e+00
  2.697676e+01    1.046598e+00
  2.700851e+01    1.089416e+00
  2.704026e+01    1.178065e+00
  2.707201e+01    1.278765e+00
  2.710376e+01    1.464551e+00
  2.713551e+01    1.679974e+00
  2.716726e+01    1.960570e+00
  2.719901e+01    2.089042e+00
  2.723077e+01    2.159495e+00
  2.726252e+01    1.949586e+00
  2.729427e+01    1.672360e+00
  2.732602e+01    1.433994e+00
  2.735777e+01    1.270763e+00
  2.738952e+01    1.160184e+00
  2.742127e+01    1.086578e+00
  2.745302e+01    1.032084e+00
  2.748477e+01    9.702010e-01
  2.751653e+01    9.550590e-01
  2.754828e+01    9.448772e-01
  2.758003e+01    9.259763e-01
  2.761178e+01    9.047479e-01
  2.764353e+01    9.173808e-01
  2.767528e+01    8.963134e-01
  2.770703e+01    8.830159e-01
  2.773878e+01    8.668816e-01
  2.777054e+01    8.733266e-01
  2.780229e+01    8.745533e-01
  2.783404e+01    8.853444e-01
  2.786579e+01    8.726271e-01
  2.789754e+01    8.746797e-01
  2.792929e+01    8.608996e-01
  2.796104e+01    8.665991e-01
  2.799279e+01    8.505806e-01
  2.802454e+01    8.440374e-01
  2.805630e+01    8.419983e-01
  2.808805e+01    8.727649e-01
  2.811980e+01    8.413185e-01
  2.815155e+01    8.406119e-01
  2.818330e+01    8.503596e-01
  2.821505e+01    8.671148e-01
  2.824680e+01    8.365131e-01
  2.827855e+01    8.398004e-01
  2.831030e+01    8.265262e-01
  2.834206e+01    8.424745e-01
  2.837381e+01    8.363109e-01
  2.840556e+01    8.260127e-01
  2.843731e+01    8.172590e-01
  2.846906e+01    8.137688e-01
  2.850081e+01    8.254092e-01
  2.853256e+01    8.454583e-01
  2.856431e+01    8.117194e-01
  2.859606e+01    8.143239e-01
  2.862782e+01    8.187502e-01
  2.865957e+01    8.065906e-01
  2.869132e+01    8.353325e-01
  2.872307e+01    8.137826e-01
  2.875482e+01    8.302863e-01
  2.878657e+01    8.343743e-01
  2.881832e+01    8.253776e-01
  2.885007e+01    7.940524e-01
  2.888183e+01    8.096009e-01
  2.891358e+01    8.117628e-01
  2.894533e+01    8.132951e-01
  2.897708e+01    7.953604e-01
  2.900883e+01    7.971265e-01
  2.904058e+01    8.200387e-01
  2.907233e+01    8.010923e-01
  2.910408e+01    8.095259e-01
  2.913583e+01    8.045311e-01
  2.916759e+01    8.153166e-01
  2.919934e+01    8.007153e-01
  2.923109e+01    7.825996e-01
  2.926284e+01    7.975096e-01
  2.929459e+01    7.994667e-01
  2.932634e+01    7.832946e-01
  2.935809e+01    8.067821e-01
  2.938984e+01    7.770196e-01
  2.942159e+01    7.878972e-01
  2.945335e+01    7.815459e-01
  2.948510e+01    8.018288e-01
  2.951685e+01    7.809538e-01
  2.954860e+01    7.941657e-01
  2.958035e+01    7.933336e-01
  2.961210e+01    8.094717e-01
  2.964385e+01    7.868035e-01
  2.967560e+01    7.796397e-01
  2.970736e+01    7.764068e-01
  2.973911e+01    7.755951e-01
  2.977086e+01    7.747505e-01
  2.980261e+01    7.695100e-01
  2.983436e+01    7.730933e-01
  2.986611e+01    7.810393e-01
  2.989786e+01    7.864360e-01
  2.992961e+01    7.877399e-01
  2.996136e+01    8.166105e-01
  2.999312e+01    8.004639e-01
  3.002487e+01    7.887267e-01
  3.005662e+01    7.987322e-01
  3.008837e+01    7.910294e-01
  3.012012e+01    7.800372e-01
  3.015187e+01    7.686511e-01
  3.018362e+01    8.015578e-01
  3.021537e+01    7.697217e-01
  3.024712e+01    7.501748e-01
  3.027888e+01    7.644782e-01
  3.031063e+01    7.657107e-01
  3.034238e+01    7.647769e-01
  3.037413e+01    7.819358e-01
  3.040588e+01    8.014323e-01
  3.043763e+01    7.702401e-01
  3.046938e+01    7.618735e-01
  3.050113e+01    7.729494e-01
  3.053288e+01    7.418173e-01
  3.056464e+01    7.983765e-01
  3.059639e+01    7.978392e-01
  3.062814e+01    7.412623e-01
  3.065989e+01    7.709599e-01
  3.069164e+01    7.828174e-01
  3.072339e+01    7.697418e-01
  3.075514e+01    7.524909e-01
  3.078689e+01    7.664581e-01
  3.081865e+01    7.862604e-01
  3.085040e+01    7.592753e-01
  3.088215e+01    7.943326e-01
  3.091390e+01    8.039309e-01
  3.094565e+01    7.845265e-01
  3.097740e+01    7.954164e-01
  3.100915e+01    7.564224e-01
  3.104090e+01    7.998343e-01
  3.107265e+01    7.838880e-01
  3.110441e+01    8.090005e-01
  3.113616e+01    7.913049e-01
  3.116791e+01    7.810816e-01
  3.119966e+01    7.874265e-01
  3.123141e+01    7.952683e-01
  3.126316e+01    7.733722e-01
  3.129491e+01    7.817142e-01
  3.132666e+01    7.736037e-01
  3.135841e+01    7.833303e-01
  3.139017e+01    7.878749e-01
  3.142192e+01    8.067908e-01
  3.145367e+01    8.373081e-01
  3.148542e+01    8.048989e-01
  3.151717e+01    8.189793e-01
  3.154892e+01    8.391374e-01
  3.158067e+01    8.589616e-01
  3.161242e+01    8.704078e-01
  3.164418e+01    9.152227e-01
  3.167593e+01    9.437644e-01
  3.170768e+01    1.028164e+00
  3.173943e+01    1.111976e+00
  3.177118e+01    1.233641e+00
  3.180293e+01    1.435999e+00
  3.183468e+01    1.659462e+00
  3.186643e+01    1.906535e+00
  3.189818e+01    2.063537e+00
  3.192994e+01    2.004421e+00
  3.196169e+01    1.820393e+00
  3.199344e+01    1.565632e+00
  3.202519e+01    1.310197e+00
  3.205694e+01    1.145988e+00
  3.208869e+01    1.010905e+00
  3.212044e+01    9.529749e-01
  3.215219e+01    8.733446e-01
  3.218394e+01    8.924453e-01
  3.221570e+01    8.555595e-01
  3.224745e+01    8.185136e-01
  3.227920e+01    8.073591e-01
  3.231095e+01    8.038143e-01
  3.234270e+01    7.953201e-01
  3.237445e+01    7.988438e-01
  3.240620e+01    7.924010e-01
  3.243795e+01    7.932632e-01
  3.246970e+01    7.778810e-01
  3.250146e+01    7.646985e-01
  3.253321e+01    7.775318e-01
  3.254908e+01    7.587222e-01