File: XRD/Reaction conditions/2024-07-27_003_Ru-CGO-ex_Reaction_dwell_000023_data_000149.dat
# == pyFAI calibration ==
# Distance Sample to Detector: 0.4 m
# PONI: 9.750e-02, 1.135e-01 m
# Rotations: -0.000175 0.000000 -0.000000 rad
#
# == Fit2d calibration ==
# Distance Sample-beamCenter: 400.000 mm
# Center: x=1514.000, y=1300.000 pix
# Tilt: 0.010 deg  TiltPlanRot: 0.010 deg
#
# Detector Detector	 Spline= None	 PixelSize= 7.500e-05, 7.500e-05 m
#    Detector has a mask: False
#    Detector has a dark current: False
#    detector has a flat field: False
#
# Wavelength: 6.888e-11 m
# Mask applied: user provided
# Dark current applied: False
# Flat field applied: False
# Polarization factor: 0.99
# Normalization factor: 1.0
# --> /home/myspot/data/2024_07_Rosario/Ru-CGO-ex/2024-07-27_003_Ru-CGO-ex_Reaction_dwell_000023_data_000149.dat
#       q_nm^-1             I
  2.003187e-02    0.000000e+00
  5.178302e-02    0.000000e+00
  8.353417e-02    2.209792e-01
  1.152853e-01    1.158962e-01
  1.470365e-01    3.044760e-03
  1.787876e-01    6.381053e-02
  2.105388e-01    2.766978e-03
  2.422899e-01    3.384357e-02
  2.740411e-01    2.404351e-02
  3.057922e-01    4.176672e-02
  3.375433e-01    4.478503e-02
  3.692945e-01    6.998910e-02
  4.010456e-01    5.746765e-02
  4.327968e-01    3.077800e-02
  4.645479e-01    6.046303e-02
  4.962991e-01    2.532736e-02
  5.280502e-01    3.718648e-02
  5.598014e-01    3.318637e-02
  5.915525e-01    4.589652e-02
  6.233037e-01    6.266244e-02
  6.550548e-01    3.699702e-02
  6.868060e-01    2.259571e-02
  7.185571e-01    5.594270e-02
  7.503083e-01    8.369225e-02
  7.820594e-01    1.245352e-01
  8.138106e-01    2.685027e-01
  8.455617e-01    3.428362e-01
  8.773129e-01    4.945862e-01
  9.090640e-01    6.128485e-01
  9.408152e-01    8.382785e-01
  9.725663e-01    9.653675e-01
  1.004317e+00    1.216327e+00
  1.036069e+00    1.270819e+00
  1.067820e+00    1.448150e+00
  1.099571e+00    1.646408e+00
  1.131322e+00    1.492268e+00
  1.163073e+00    1.727239e+00
  1.194824e+00    1.818188e+00
  1.226575e+00    2.305999e+00
  1.258327e+00    2.483721e+00
  1.290078e+00    2.654404e+00
  1.321829e+00    2.520847e+00
  1.353580e+00    2.858454e+00
  1.385331e+00    2.882644e+00
  1.417082e+00    2.857778e+00
  1.448834e+00    2.858172e+00
  1.480585e+00    3.101925e+00
  1.512336e+00    3.108428e+00
  1.544087e+00    3.163900e+00
  1.575838e+00    3.070469e+00
  1.607589e+00    3.142604e+00
  1.639340e+00    3.147290e+00
  1.671092e+00    3.237069e+00
  1.702843e+00    3.037432e+00
  1.734594e+00    3.073785e+00
  1.766345e+00    3.094105e+00
  1.798096e+00    2.993888e+00
  1.829847e+00    3.169240e+00
  1.861598e+00    3.023098e+00
  1.893350e+00    3.058797e+00
  1.925101e+00    3.096262e+00
  1.956852e+00    2.971974e+00
  1.988603e+00    3.000205e+00
  2.020354e+00    2.962449e+00
  2.052105e+00    3.205943e+00
  2.083856e+00    3.006261e+00
  2.115608e+00    3.075006e+00
  2.147359e+00    3.092282e+00
  2.179110e+00    3.101493e+00
  2.210861e+00    3.130764e+00
  2.242612e+00    3.100915e+00
  2.274363e+00    3.046963e+00
  2.306115e+00    3.143475e+00
  2.337866e+00    3.171856e+00
  2.369617e+00    3.128095e+00
  2.401368e+00    3.246620e+00
  2.433119e+00    3.255642e+00
  2.464870e+00    2.999366e+00
  2.496621e+00    3.129195e+00
  2.528373e+00    3.112991e+00
  2.560124e+00    3.191828e+00
  2.591875e+00    3.169929e+00
  2.623626e+00    3.296090e+00
  2.655377e+00    3.270564e+00
  2.687128e+00    3.252886e+00
  2.718879e+00    3.286043e+00
  2.750631e+00    3.235669e+00
  2.782382e+00    3.311381e+00
  2.814133e+00    3.310180e+00
  2.845884e+00    3.314999e+00
  2.877635e+00    3.311225e+00
  2.909386e+00    3.357348e+00
  2.941137e+00    3.371531e+00
  2.972889e+00    3.374274e+00
  3.004640e+00    3.355230e+00
  3.036391e+00    3.291558e+00
  3.068142e+00    3.344455e+00
  3.099893e+00    3.265003e+00
  3.131644e+00    3.334966e+00
  3.163395e+00    3.416070e+00
  3.195147e+00    3.385405e+00
  3.226898e+00    3.305649e+00
  3.258649e+00    3.464620e+00
  3.290400e+00    3.397224e+00
  3.322151e+00    3.345346e+00
  3.353902e+00    3.435302e+00
  3.385654e+00    3.422832e+00
  3.417405e+00    3.464996e+00
  3.449156e+00    3.471963e+00
  3.480907e+00    3.472291e+00
  3.512658e+00    3.534271e+00
  3.544409e+00    3.376542e+00
  3.576160e+00    3.453372e+00
  3.607912e+00    3.542984e+00
  3.639663e+00    3.423778e+00
  3.671414e+00    3.470131e+00
  3.703165e+00    3.426535e+00
  3.734916e+00    3.493254e+00
  3.766667e+00    3.525916e+00
  3.798418e+00    3.415872e+00
  3.830170e+00    3.492061e+00
  3.861921e+00    3.575695e+00
  3.893672e+00    3.405125e+00
  3.925423e+00    3.453282e+00
  3.957174e+00    3.418233e+00
  3.988925e+00    3.505174e+00
  4.020676e+00    3.525639e+00
  4.052428e+00    3.464108e+00
  4.084179e+00    3.502562e+00
  4.115930e+00    3.513603e+00
  4.147681e+00    3.572670e+00
  4.179432e+00    3.499573e+00
  4.211183e+00    3.582412e+00
  4.242935e+00    3.506534e+00
  4.274686e+00    3.526154e+00
  4.306437e+00    3.507415e+00
  4.338188e+00    3.450246e+00
  4.369939e+00    3.552181e+00
  4.401690e+00    3.587440e+00
  4.433441e+00    3.531636e+00
  4.465193e+00    3.578811e+00
  4.496944e+00    3.614118e+00
  4.528695e+00    3.589383e+00
  4.560446e+00    3.561413e+00
  4.592197e+00    3.589029e+00
  4.623948e+00    3.560902e+00
  4.655699e+00    3.556679e+00
  4.687451e+00    3.607775e+00
  4.719202e+00    3.650925e+00
  4.750953e+00    3.673520e+00
  4.782704e+00    3.621302e+00
  4.814455e+00    3.651036e+00
  4.846206e+00    3.683148e+00
  4.877957e+00    3.552785e+00
  4.909709e+00    3.679700e+00
  4.941460e+00    3.685120e+00
  4.973211e+00    3.668439e+00
  5.004962e+00    3.566840e+00
  5.036713e+00    3.592477e+00
  5.068464e+00    3.624331e+00
  5.100216e+00    3.601936e+00
  5.131967e+00    3.581637e+00
  5.163718e+00    3.609892e+00
  5.195469e+00    3.680517e+00
  5.227220e+00    3.698196e+00
  5.258971e+00    3.647700e+00
  5.290722e+00    3.628718e+00
  5.322474e+00    3.652080e+00
  5.354225e+00    3.598540e+00
  5.385976e+00    3.620656e+00
  5.417727e+00    3.661242e+00
  5.449478e+00    3.619912e+00
  5.481229e+00    3.567162e+00
  5.512980e+00    3.630988e+00
  5.544732e+00    3.595047e+00
  5.576483e+00    3.666111e+00
  5.608234e+00    3.510687e+00
  5.639985e+00    3.603615e+00
  5.671736e+00    3.610144e+00
  5.703487e+00    3.583957e+00
  5.735238e+00    3.537223e+00
  5.766990e+00    3.510912e+00
  5.798741e+00    3.554816e+00
  5.830492e+00    3.595857e+00
  5.862243e+00    3.439620e+00
  5.893994e+00    3.516300e+00
  5.925745e+00    3.537485e+00
  5.957497e+00    3.565436e+00
  5.989248e+00    3.495294e+00
  6.020999e+00    3.457679e+00
  6.052750e+00    3.560375e+00
  6.084501e+00    3.610043e+00
  6.116252e+00    3.497569e+00
  6.148003e+00    3.566557e+00
  6.179755e+00    3.551204e+00
  6.211506e+00    3.549268e+00
  6.243257e+00    3.596758e+00
  6.275008e+00    3.611199e+00
  6.306759e+00    3.533331e+00
  6.338510e+00    3.497266e+00
  6.370261e+00    3.549517e+00
  6.402013e+00    3.574528e+00
  6.433764e+00    3.576777e+00
  6.465515e+00    3.623212e+00
  6.497266e+00    3.511195e+00
  6.529017e+00    3.508081e+00
  6.560768e+00    3.469097e+00
  6.592519e+00    3.593603e+00
  6.624271e+00    3.648643e+00
  6.656022e+00    3.563220e+00
  6.687773e+00    3.510568e+00
  6.719524e+00    3.526256e+00
  6.751275e+00    3.506084e+00
  6.783026e+00    3.559317e+00
  6.814777e+00    3.543684e+00
  6.846529e+00    3.459224e+00
  6.878280e+00    3.507550e+00
  6.910031e+00    3.533676e+00
  6.941782e+00    3.578177e+00
  6.973533e+00    3.484001e+00
  7.005284e+00    3.451205e+00
  7.037036e+00    3.584464e+00
  7.068787e+00    3.530071e+00
  7.100538e+00    3.535055e+00
  7.132289e+00    3.431881e+00
  7.164040e+00    3.456731e+00
  7.195791e+00    3.546383e+00
  7.227542e+00    3.475384e+00
  7.259294e+00    3.483603e+00
  7.291045e+00    3.454902e+00
  7.322796e+00    3.463090e+00
  7.354547e+00    3.536087e+00
  7.386298e+00    3.504514e+00
  7.418049e+00    3.492563e+00
  7.449800e+00    3.547095e+00
  7.481552e+00    3.471288e+00
  7.513303e+00    3.484821e+00
  7.545054e+00    3.404394e+00
  7.576805e+00    3.537081e+00
  7.608556e+00    3.444405e+00
  7.640307e+00    3.521916e+00
  7.672058e+00    3.439754e+00
  7.703810e+00    3.481534e+00
  7.735561e+00    3.452346e+00
  7.767312e+00    3.418576e+00
  7.799063e+00    3.480361e+00
  7.830814e+00    3.543759e+00
  7.862565e+00    3.382935e+00
  7.894317e+00    3.383046e+00
  7.926068e+00    3.404962e+00
  7.957819e+00    3.428210e+00
  7.989570e+00    3.440090e+00
  8.021321e+00    3.459097e+00
  8.053072e+00    3.477101e+00
  8.084823e+00    3.391490e+00
  8.116575e+00    3.464940e+00
  8.148326e+00    3.505575e+00
  8.180077e+00    3.441573e+00
  8.211828e+00    3.420514e+00
  8.243579e+00    3.451318e+00
  8.275330e+00    3.374645e+00
  8.307081e+00    3.388558e+00
  8.338833e+00    3.413416e+00
  8.370584e+00    3.438506e+00
  8.402335e+00    3.360769e+00
  8.434086e+00    3.403024e+00
  8.465837e+00    3.339868e+00
  8.497588e+00    3.374073e+00
  8.529339e+00    3.370207e+00
  8.561091e+00    3.313005e+00
  8.592842e+00    3.336494e+00
  8.624593e+00    3.389689e+00
  8.656344e+00    3.324596e+00
  8.688095e+00    3.348334e+00
  8.719846e+00    3.337550e+00
  8.751598e+00    3.288057e+00
  8.783349e+00    3.316231e+00
  8.815100e+00    3.300446e+00
  8.846851e+00    3.277469e+00
  8.878602e+00    3.299742e+00
  8.910353e+00    3.299142e+00
  8.942104e+00    3.261642e+00
  8.973856e+00    3.283748e+00
  9.005607e+00    3.286245e+00
  9.037358e+00    3.216569e+00
  9.069109e+00    3.293160e+00
  9.100860e+00    3.277776e+00
  9.132611e+00    3.284601e+00
  9.164362e+00    3.275301e+00
  9.196114e+00    3.209228e+00
  9.227865e+00    3.217898e+00
  9.259616e+00    3.253945e+00
  9.291367e+00    3.217320e+00
  9.323118e+00    3.258220e+00
  9.354869e+00    3.187303e+00
  9.386620e+00    3.214350e+00
  9.418372e+00    3.163666e+00
  9.450123e+00    3.281718e+00
  9.481874e+00    3.182406e+00
  9.513625e+00    3.187511e+00
  9.545376e+00    3.164590e+00
  9.577127e+00    3.190905e+00
  9.608878e+00    3.151876e+00
  9.640630e+00    3.218637e+00
  9.672381e+00    3.133865e+00
  9.704132e+00    3.149607e+00
  9.735883e+00    3.179731e+00
  9.767634e+00    3.196296e+00
  9.799385e+00    3.162391e+00
  9.831137e+00    3.118046e+00
  9.862888e+00    3.152308e+00
  9.894639e+00    3.146424e+00
  9.926390e+00    3.175799e+00
  9.958141e+00    3.138951e+00
  9.989892e+00    3.074238e+00
  1.002164e+01    3.147670e+00
  1.005339e+01    3.160199e+00
  1.008515e+01    3.085521e+00
  1.011690e+01    3.056319e+00
  1.014865e+01    3.071317e+00
  1.018040e+01    3.101104e+00
  1.021215e+01    3.087598e+00
  1.024390e+01    3.038590e+00
  1.027565e+01    3.080187e+00
  1.030740e+01    3.073246e+00
  1.033915e+01    3.013408e+00
  1.037091e+01    3.017302e+00
  1.040266e+01    2.960898e+00
  1.043441e+01    3.035505e+00
  1.046616e+01    3.013154e+00
  1.049791e+01    2.970739e+00
  1.052966e+01    3.026751e+00
  1.056141e+01    2.986842e+00
  1.059316e+01    3.021914e+00
  1.062492e+01    2.892343e+00
  1.065667e+01    2.982624e+00
  1.068842e+01    2.940949e+00
  1.072017e+01    2.939780e+00
  1.075192e+01    3.019733e+00
  1.078367e+01    2.950385e+00
  1.081542e+01    2.982241e+00
  1.084717e+01    2.998697e+00
  1.087892e+01    2.911878e+00
  1.091068e+01    2.957946e+00
  1.094243e+01    2.885571e+00
  1.097418e+01    2.911119e+00
  1.100593e+01    2.869381e+00
  1.103768e+01    2.896343e+00
  1.106943e+01    2.880729e+00
  1.110118e+01    2.836092e+00
  1.113293e+01    2.914664e+00
  1.116468e+01    2.908784e+00
  1.119644e+01    2.911243e+00
  1.122819e+01    2.858634e+00
  1.125994e+01    2.864403e+00
  1.129169e+01    2.869249e+00
  1.132344e+01    2.834391e+00
  1.135519e+01    2.790921e+00
  1.138694e+01    2.834523e+00
  1.141869e+01    2.800023e+00
  1.145045e+01    2.830776e+00
  1.148220e+01    2.831504e+00
  1.151395e+01    2.805496e+00
  1.154570e+01    2.734443e+00
  1.157745e+01    2.833844e+00
  1.160920e+01    2.740067e+00
  1.164095e+01    2.820230e+00
  1.167270e+01    2.717033e+00
  1.170445e+01    2.742175e+00
  1.173621e+01    2.713748e+00
  1.176796e+01    2.748405e+00
  1.179971e+01    2.736898e+00
  1.183146e+01    2.716126e+00
  1.186321e+01    2.739096e+00
  1.189496e+01    2.739997e+00
  1.192671e+01    2.678989e+00
  1.195846e+01    2.745358e+00
  1.199021e+01    2.751789e+00
  1.202197e+01    2.714540e+00
  1.205372e+01    2.661114e+00
  1.208547e+01    2.712983e+00
  1.211722e+01    2.719410e+00
  1.214897e+01    2.722955e+00
  1.218072e+01    2.692894e+00
  1.221247e+01    2.681535e+00
  1.224422e+01    2.688162e+00
  1.227597e+01    2.673994e+00
  1.230773e+01    2.658180e+00
  1.233948e+01    2.672324e+00
  1.237123e+01    2.706708e+00
  1.240298e+01    2.705878e+00
  1.243473e+01    2.667817e+00
  1.246648e+01    2.702511e+00
  1.249823e+01    2.632130e+00
  1.252998e+01    2.711352e+00
  1.256174e+01    2.684240e+00
  1.259349e+01    2.704740e+00
  1.262524e+01    2.762737e+00
  1.265699e+01    2.755991e+00
  1.268874e+01    2.774059e+00
  1.272049e+01    2.820099e+00
  1.275224e+01    2.832356e+00
  1.278399e+01    2.984165e+00
  1.281574e+01    3.026390e+00
  1.284750e+01    3.197587e+00
  1.287925e+01    3.347141e+00
  1.291100e+01    3.577299e+00
  1.294275e+01    4.068224e+00
  1.297450e+01    4.751633e+00
  1.300625e+01    5.885533e+00
  1.303800e+01    7.690047e+00
  1.306975e+01    1.010482e+01
  1.310150e+01    1.264474e+01
  1.313326e+01    1.459259e+01
  1.316501e+01    1.614225e+01
  1.319676e+01    1.557786e+01
  1.322851e+01    1.246365e+01
  1.326026e+01    8.958423e+00
  1.329201e+01    6.699389e+00
  1.332376e+01    5.292655e+00
  1.335551e+01    4.380999e+00
  1.338727e+01    3.842870e+00
  1.341902e+01    3.478697e+00
  1.345077e+01    3.219007e+00
  1.348252e+01    3.022783e+00
  1.351427e+01    2.894868e+00
  1.354602e+01    2.774683e+00
  1.357777e+01    2.779930e+00
  1.360952e+01    2.649898e+00
  1.364127e+01    2.622436e+00
  1.367303e+01    2.551282e+00
  1.370478e+01    2.528825e+00
  1.373653e+01    2.551544e+00
  1.376828e+01    2.481547e+00
  1.380003e+01    2.443480e+00
  1.383178e+01    2.459086e+00
  1.386353e+01    2.411235e+00
  1.389528e+01    2.431235e+00
  1.392703e+01    2.360200e+00
  1.395879e+01    2.369771e+00
  1.399054e+01    2.365856e+00
  1.402229e+01    2.380324e+00
  1.405404e+01    2.388051e+00
  1.408579e+01    2.319128e+00
  1.411754e+01    2.353081e+00
  1.414929e+01    2.350036e+00
  1.418104e+01    2.281486e+00
  1.421279e+01    2.265200e+00
  1.424455e+01    2.292558e+00
  1.427630e+01    2.254201e+00
  1.430805e+01    2.223261e+00
  1.433980e+01    2.203017e+00
  1.437155e+01    2.261682e+00
  1.440330e+01    2.223484e+00
  1.443505e+01    2.215378e+00
  1.446680e+01    2.240713e+00
  1.449856e+01    2.202147e+00
  1.453031e+01    2.246383e+00
  1.456206e+01    2.186002e+00
  1.459381e+01    2.206531e+00
  1.462556e+01    2.200536e+00
  1.465731e+01    2.226667e+00
  1.468906e+01    2.241618e+00
  1.472081e+01    2.214386e+00
  1.475256e+01    2.198703e+00
  1.478432e+01    2.154995e+00
  1.481607e+01    2.224841e+00
  1.484782e+01    2.224196e+00
  1.487957e+01    2.240617e+00
  1.491132e+01    2.230999e+00
  1.494307e+01    2.290632e+00
  1.497482e+01    2.330904e+00
  1.500657e+01    2.440527e+00
  1.503832e+01    2.545055e+00
  1.507008e+01    2.805464e+00
  1.510183e+01    3.183550e+00
  1.513358e+01    3.732345e+00
  1.516533e+01    4.455285e+00
  1.519708e+01    5.096521e+00
  1.522883e+01    5.504291e+00
  1.526058e+01    5.723503e+00
  1.529233e+01    5.462007e+00
  1.532409e+01    4.621322e+00
  1.535584e+01    3.760682e+00
  1.538759e+01    3.134819e+00
  1.541934e+01    2.764736e+00
  1.545109e+01    2.537256e+00
  1.548284e+01    2.355042e+00
  1.551459e+01    2.240246e+00
  1.554634e+01    2.164824e+00
  1.557809e+01    2.085950e+00
  1.560985e+01    2.074000e+00
  1.564160e+01    2.054735e+00
  1.567335e+01    1.998632e+00
  1.570510e+01    2.008804e+00
  1.573685e+01    1.946252e+00
  1.576860e+01    1.935896e+00
  1.580035e+01    1.916078e+00
  1.583210e+01    1.914794e+00
  1.586385e+01    1.887479e+00
  1.589561e+01    1.883753e+00
  1.592736e+01    1.890362e+00
  1.595911e+01    1.927228e+00
  1.599086e+01    1.863731e+00
  1.602261e+01    1.888418e+00
  1.605436e+01    1.852949e+00
  1.608611e+01    1.822622e+00
  1.611786e+01    1.852191e+00
  1.614961e+01    1.763600e+00
  1.618137e+01    1.828510e+00
  1.621312e+01    1.830440e+00
  1.624487e+01    1.815733e+00
  1.627662e+01    1.817083e+00
  1.630837e+01    1.762140e+00
  1.634012e+01    1.773438e+00
  1.637187e+01    1.815946e+00
  1.640362e+01    1.786240e+00
  1.643538e+01    1.746960e+00
  1.646713e+01    1.785494e+00
  1.649888e+01    1.779155e+00
  1.653063e+01    1.737921e+00
  1.656238e+01    1.730113e+00
  1.659413e+01    1.734268e+00
  1.662588e+01    1.703503e+00
  1.665763e+01    1.721560e+00
  1.668938e+01    1.713322e+00
  1.672114e+01    1.704981e+00
  1.675289e+01    1.737097e+00
  1.678464e+01    1.669271e+00
  1.681639e+01    1.692043e+00
  1.684814e+01    1.718663e+00
  1.687989e+01    1.703144e+00
  1.691164e+01    1.681216e+00
  1.694339e+01    1.658527e+00
  1.697514e+01    1.695036e+00
  1.700690e+01    1.644538e+00
  1.703865e+01    1.613306e+00
  1.707040e+01    1.616400e+00
  1.710215e+01    1.622931e+00
  1.713390e+01    1.637552e+00
  1.716565e+01    1.639468e+00
  1.719740e+01    1.667970e+00
  1.722915e+01    1.622683e+00
  1.726091e+01    1.613281e+00
  1.729266e+01    1.631779e+00
  1.732441e+01    1.623937e+00
  1.735616e+01    1.590407e+00
  1.738791e+01    1.629576e+00
  1.741966e+01    1.595976e+00
  1.745141e+01    1.580940e+00
  1.748316e+01    1.582726e+00
  1.751491e+01    1.611855e+00
  1.754667e+01    1.560891e+00
  1.757842e+01    1.595740e+00
  1.761017e+01    1.570156e+00
  1.764192e+01    1.536624e+00
  1.767367e+01    1.538913e+00
  1.770542e+01    1.530493e+00
  1.773717e+01    1.529930e+00
  1.776892e+01    1.534265e+00
  1.780067e+01    1.531017e+00
  1.783243e+01    1.553194e+00
  1.786418e+01    1.519865e+00
  1.789593e+01    1.528031e+00
  1.792768e+01    1.514683e+00
  1.795943e+01    1.530436e+00
  1.799118e+01    1.528363e+00
  1.802293e+01    1.495345e+00
  1.805468e+01    1.529361e+00
  1.808643e+01    1.487230e+00
  1.811819e+01    1.500289e+00
  1.814994e+01    1.475992e+00
  1.818169e+01    1.466726e+00
  1.821344e+01    1.482066e+00
  1.824519e+01    1.463509e+00
  1.827694e+01    1.459399e+00
  1.830869e+01    1.461468e+00
  1.834044e+01    1.426733e+00
  1.837220e+01    1.465175e+00
  1.840395e+01    1.452479e+00
  1.843570e+01    1.423315e+00
  1.846745e+01    1.436789e+00
  1.849920e+01    1.435916e+00
  1.853095e+01    1.421918e+00
  1.856270e+01    1.447600e+00
  1.859445e+01    1.418974e+00
  1.862620e+01    1.418490e+00
  1.865796e+01    1.399262e+00
  1.868971e+01    1.385922e+00
  1.872146e+01    1.386591e+00
  1.875321e+01    1.389315e+00
  1.878496e+01    1.415395e+00
  1.881671e+01    1.385343e+00
  1.884846e+01    1.395683e+00
  1.888021e+01    1.406428e+00
  1.891196e+01    1.394209e+00
  1.894372e+01    1.373709e+00
  1.897547e+01    1.372309e+00
  1.900722e+01    1.380438e+00
  1.903897e+01    1.356735e+00
  1.907072e+01    1.378934e+00
  1.910247e+01    1.366101e+00
  1.913422e+01    1.365095e+00
  1.916597e+01    1.387985e+00
  1.919773e+01    1.369980e+00
  1.922948e+01    1.354728e+00
  1.926123e+01    1.369194e+00
  1.929298e+01    1.325637e+00
  1.932473e+01    1.347522e+00
  1.935648e+01    1.339242e+00
  1.938823e+01    1.327114e+00
  1.941998e+01    1.384583e+00
  1.945173e+01    1.327567e+00
  1.948349e+01    1.329871e+00
  1.951524e+01    1.306348e+00
  1.954699e+01    1.305707e+00
  1.957874e+01    1.310241e+00
  1.961049e+01    1.324101e+00
  1.964224e+01    1.321118e+00
  1.967399e+01    1.301293e+00
  1.970574e+01    1.322220e+00
  1.973749e+01    1.312176e+00
  1.976925e+01    1.314073e+00
  1.980100e+01    1.270466e+00
  1.983275e+01    1.295484e+00
  1.986450e+01    1.331933e+00
  1.989625e+01    1.281808e+00
  1.992800e+01    1.288887e+00
  1.995975e+01    1.259576e+00
  1.999150e+01    1.252390e+00
  2.002325e+01    1.267332e+00
  2.005501e+01    1.296377e+00
  2.008676e+01    1.264713e+00
  2.011851e+01    1.282750e+00
  2.015026e+01    1.248582e+00
  2.018201e+01    1.263165e+00
  2.021376e+01    1.279433e+00
  2.024551e+01    1.262807e+00
  2.027726e+01    1.290871e+00
  2.030902e+01    1.245151e+00
  2.034077e+01    1.244656e+00
  2.037252e+01    1.264534e+00
  2.040427e+01    1.233854e+00
  2.043602e+01    1.238578e+00
  2.046777e+01    1.244969e+00
  2.049952e+01    1.268524e+00
  2.053127e+01    1.241360e+00
  2.056302e+01    1.225461e+00
  2.059478e+01    1.220117e+00
  2.062653e+01    1.237484e+00
  2.065828e+01    1.232224e+00
  2.069003e+01    1.212840e+00
  2.072178e+01    1.230653e+00
  2.075353e+01    1.211372e+00
  2.078528e+01    1.196201e+00
  2.081703e+01    1.213222e+00
  2.084878e+01    1.218934e+00
  2.088054e+01    1.220646e+00
  2.091229e+01    1.220844e+00
  2.094404e+01    1.203555e+00
  2.097579e+01    1.212709e+00
  2.100754e+01    1.207621e+00
  2.103929e+01    1.200634e+00
  2.107104e+01    1.212914e+00
  2.110279e+01    1.190161e+00
  2.113455e+01    1.215928e+00
  2.116630e+01    1.217884e+00
  2.119805e+01    1.246592e+00
  2.122980e+01    1.229518e+00
  2.126155e+01    1.231621e+00
  2.129330e+01    1.254932e+00
  2.132505e+01    1.263088e+00
  2.135680e+01    1.291138e+00
  2.138855e+01    1.310538e+00
  2.142031e+01    1.328758e+00
  2.145206e+01    1.340257e+00
  2.148381e+01    1.398948e+00
  2.151556e+01    1.425877e+00
  2.154731e+01    1.524440e+00
  2.157906e+01    1.598466e+00
  2.161081e+01    1.759435e+00
  2.164256e+01    1.980561e+00
  2.167431e+01    2.276385e+00
  2.170607e+01    2.727208e+00
  2.173782e+01    3.512164e+00
  2.176957e+01    4.558394e+00
  2.180132e+01    5.857263e+00
  2.183307e+01    7.129900e+00
  2.186482e+01    8.290434e+00
  2.189657e+01    8.813226e+00
  2.192832e+01    8.207097e+00
  2.196007e+01    6.575582e+00
  2.199183e+01    4.834523e+00
  2.202358e+01    3.587574e+00
  2.205533e+01    2.787428e+00
  2.208708e+01    2.325421e+00
  2.211883e+01    1.991162e+00
  2.215058e+01    1.791839e+00
  2.218233e+01    1.605648e+00
  2.221408e+01    1.469470e+00
  2.224584e+01    1.418135e+00
  2.227759e+01    1.350102e+00
  2.230934e+01    1.271969e+00
  2.234109e+01    1.252353e+00
  2.237284e+01    1.215621e+00
  2.240459e+01    1.184433e+00
  2.243634e+01    1.165239e+00
  2.246809e+01    1.172808e+00
  2.249984e+01    1.147979e+00
  2.253160e+01    1.132580e+00
  2.256335e+01    1.117224e+00
  2.259510e+01    1.079725e+00
  2.262685e+01    1.096285e+00
  2.265860e+01    1.074611e+00
  2.269035e+01    1.058663e+00
  2.272210e+01    1.083917e+00
  2.275385e+01    1.034142e+00
  2.278560e+01    1.028575e+00
  2.281736e+01    1.048729e+00
  2.284911e+01    1.041103e+00
  2.288086e+01    1.053031e+00
  2.291261e+01    1.030323e+00
  2.294436e+01    1.016387e+00
  2.297611e+01    1.012709e+00
  2.300786e+01    1.012875e+00
  2.303961e+01    1.006448e+00
  2.307137e+01    1.018315e+00
  2.310312e+01    9.849600e-01
  2.313487e+01    1.004369e+00
  2.316662e+01    1.006840e+00
  2.319837e+01    9.825282e-01
  2.323012e+01    9.952074e-01
  2.326187e+01    9.742163e-01
  2.329362e+01    9.548835e-01
  2.332537e+01    9.555541e-01
  2.335713e+01    9.658569e-01
  2.338888e+01    9.785798e-01
  2.342063e+01    9.643238e-01
  2.345238e+01    9.958667e-01
  2.348413e+01    9.564222e-01
  2.351588e+01    9.587810e-01
  2.354763e+01    9.530135e-01
  2.357938e+01    9.551756e-01
  2.361113e+01    9.310746e-01
  2.364289e+01    9.548483e-01
  2.367464e+01    9.374450e-01
  2.370639e+01    9.521255e-01
  2.373814e+01    9.531513e-01
  2.376989e+01    9.097316e-01
  2.380164e+01    9.312890e-01
  2.383339e+01    9.107578e-01
  2.386514e+01    9.080964e-01
  2.389689e+01    9.083127e-01
  2.392865e+01    8.952926e-01
  2.396040e+01    9.169640e-01
  2.399215e+01    9.069138e-01
  2.402390e+01    9.084191e-01
  2.405565e+01    8.829000e-01
  2.408740e+01    8.970470e-01
  2.411915e+01    8.866990e-01
  2.415090e+01    8.844774e-01
  2.418266e+01    8.858768e-01
  2.421441e+01    9.039476e-01
  2.424616e+01    8.735369e-01
  2.427791e+01    8.796030e-01
  2.430966e+01    8.901343e-01
  2.434141e+01    8.813598e-01
  2.437316e+01    8.920670e-01
  2.440491e+01    8.756524e-01
  2.443666e+01    9.015530e-01
  2.446842e+01    8.713349e-01
  2.450017e+01    8.837541e-01
  2.453192e+01    8.954563e-01
  2.456367e+01    8.853421e-01
  2.459542e+01    8.655540e-01
  2.462717e+01    8.901422e-01
  2.465892e+01    8.873210e-01
  2.469067e+01    9.132879e-01
  2.472242e+01    8.833652e-01
  2.475418e+01    8.869622e-01
  2.478593e+01    9.041238e-01
  2.481768e+01    8.831595e-01
  2.484943e+01    8.908157e-01
  2.488118e+01    9.280718e-01
  2.491293e+01    8.994054e-01
  2.494468e+01    8.786677e-01
  2.497643e+01    8.742886e-01
  2.500819e+01    8.877527e-01
  2.503994e+01    8.881716e-01
  2.507169e+01    8.761849e-01
  2.510344e+01    8.866772e-01
  2.513519e+01    8.957735e-01
  2.516694e+01    9.023505e-01
  2.519869e+01    9.234473e-01
  2.523044e+01    9.225488e-01
  2.526219e+01    9.374456e-01
  2.529395e+01    9.393772e-01
  2.532570e+01    9.618790e-01
  2.535745e+01    9.685168e-01
  2.538920e+01    9.893903e-01
  2.542095e+01    1.008516e+00
  2.545270e+01    1.012588e+00
  2.548445e+01    1.018281e+00
  2.551620e+01    1.077461e+00
  2.554795e+01    1.112237e+00
  2.557971e+01    1.171619e+00
  2.561146e+01    1.203694e+00
  2.564321e+01    1.299152e+00
  2.567496e+01    1.413039e+00
  2.570671e+01    1.579397e+00
  2.573846e+01    1.842659e+00
  2.577021e+01    2.242255e+00
  2.580196e+01    2.830084e+00
  2.583371e+01    3.597574e+00
  2.586547e+01    4.636077e+00
  2.589722e+01    5.775597e+00
  2.592897e+01    6.666059e+00
  2.596072e+01    7.094182e+00
  2.599247e+01    6.511015e+00
  2.602422e+01    5.257589e+00
  2.605597e+01    3.954832e+00
  2.608772e+01    2.963993e+00
  2.611948e+01    2.350043e+00
  2.615123e+01    1.956492e+00
  2.618298e+01    1.675471e+00
  2.621473e+01    1.474444e+00
  2.624648e+01    1.340995e+00
  2.627823e+01    1.247169e+00
  2.630998e+01    1.161625e+00
  2.634173e+01    1.103649e+00
  2.637348e+01    1.076503e+00
  2.640524e+01    1.042155e+00
  2.643699e+01    1.026437e+00
  2.646874e+01    1.026362e+00
  2.650049e+01    1.004513e+00
  2.653224e+01    1.014468e+00
  2.656399e+01    9.774183e-01
  2.659574e+01    9.708532e-01
  2.662749e+01    9.745687e-01
  2.665924e+01    9.676709e-01
  2.669100e+01    1.006663e+00
  2.672275e+01    9.730285e-01
  2.675450e+01    9.309288e-01
  2.678625e+01    9.721370e-01
  2.681800e+01    9.649165e-01
  2.684975e+01    9.994407e-01
  2.688150e+01    9.968049e-01
  2.691325e+01    9.950877e-01
  2.694501e+01    1.019913e+00
  2.697676e+01    1.032431e+00
  2.700851e+01    1.122567e+00
  2.704026e+01    1.159623e+00
  2.707201e+01    1.275895e+00
  2.710376e+01    1.491488e+00
  2.713551e+01    1.721024e+00
  2.716726e+01    1.964022e+00
  2.719901e+01    2.122648e+00
  2.723077e+01    2.125896e+00
  2.726252e+01    1.955126e+00
  2.729427e+01    1.684975e+00
  2.732602e+01    1.485111e+00
  2.735777e+01    1.282722e+00
  2.738952e+01    1.172318e+00
  2.742127e+01    1.079906e+00
  2.745302e+01    1.031236e+00
  2.748477e+01    1.006153e+00
  2.751653e+01    9.859746e-01
  2.754828e+01    9.431586e-01
  2.758003e+01    9.416273e-01
  2.761178e+01    9.128201e-01
  2.764353e+01    9.100401e-01
  2.767528e+01    9.131541e-01
  2.770703e+01    8.932731e-01
  2.773878e+01    9.110704e-01
  2.777054e+01    8.847557e-01
  2.780229e+01    9.068773e-01
  2.783404e+01    8.964003e-01
  2.786579e+01    8.891479e-01
  2.789754e+01    8.797317e-01
  2.792929e+01    8.656678e-01
  2.796104e+01    8.752002e-01
  2.799279e+01    8.422447e-01
  2.802454e+01    8.508437e-01
  2.805630e+01    8.810752e-01
  2.808805e+01    8.531542e-01
  2.811980e+01    8.495424e-01
  2.815155e+01    8.338122e-01
  2.818330e+01    8.550720e-01
  2.821505e+01    8.374352e-01
  2.824680e+01    8.447499e-01
  2.827855e+01    8.461300e-01
  2.831030e+01    8.589166e-01
  2.834206e+01    8.681020e-01
  2.837381e+01    8.375995e-01
  2.840556e+01    8.394014e-01
  2.843731e+01    8.333310e-01
  2.846906e+01    8.295876e-01
  2.850081e+01    8.342603e-01
  2.853256e+01    8.390622e-01
  2.856431e+01    8.341140e-01
  2.859606e+01    8.457939e-01
  2.862782e+01    8.572101e-01
  2.865957e+01    8.200186e-01
  2.869132e+01    8.276315e-01
  2.872307e+01    8.233887e-01
  2.875482e+01    8.033885e-01
  2.878657e+01    8.160166e-01
  2.881832e+01    8.411365e-01
  2.885007e+01    8.287877e-01
  2.888183e+01    8.261195e-01
  2.891358e+01    8.233975e-01
  2.894533e+01    8.204086e-01
  2.897708e+01    8.224150e-01
  2.900883e+01    8.229010e-01
  2.904058e+01    8.308768e-01
  2.907233e+01    8.192036e-01
  2.910408e+01    8.062218e-01
  2.913583e+01    8.100569e-01
  2.916759e+01    8.113212e-01
  2.919934e+01    7.953263e-01
  2.923109e+01    7.914795e-01
  2.926284e+01    8.179129e-01
  2.929459e+01    7.911742e-01
  2.932634e+01    7.981699e-01
  2.935809e+01    8.234377e-01
  2.938984e+01    8.118755e-01
  2.942159e+01    8.089822e-01
  2.945335e+01    7.937083e-01
  2.948510e+01    8.043680e-01
  2.951685e+01    8.094326e-01
  2.954860e+01    7.948353e-01
  2.958035e+01    7.937743e-01
  2.961210e+01    8.000453e-01
  2.964385e+01    7.905830e-01
  2.967560e+01    8.018087e-01
  2.970736e+01    7.947156e-01
  2.973911e+01    7.772995e-01
  2.977086e+01    7.842380e-01
  2.980261e+01    7.739729e-01
  2.983436e+01    8.017744e-01
  2.986611e+01    8.014575e-01
  2.989786e+01    8.042300e-01
  2.992961e+01    7.931606e-01
  2.996136e+01    7.962680e-01
  2.999312e+01    7.890641e-01
  3.002487e+01    8.019468e-01
  3.005662e+01    7.783847e-01
  3.008837e+01    8.120404e-01
  3.012012e+01    8.044063e-01
  3.015187e+01    8.047038e-01
  3.018362e+01    7.721800e-01
  3.021537e+01    7.662635e-01
  3.024712e+01    7.784402e-01
  3.027888e+01    7.911427e-01
  3.031063e+01    7.941123e-01
  3.034238e+01    7.845316e-01
  3.037413e+01    7.732888e-01
  3.040588e+01    7.784311e-01
  3.043763e+01    7.873329e-01
  3.046938e+01    7.824721e-01
  3.050113e+01    7.954504e-01
  3.053288e+01    7.936462e-01
  3.056464e+01    7.945822e-01
  3.059639e+01    8.030572e-01
  3.062814e+01    7.657185e-01
  3.065989e+01    7.684534e-01
  3.069164e+01    7.729872e-01
  3.072339e+01    7.790771e-01
  3.075514e+01    7.946727e-01
  3.078689e+01    7.842059e-01
  3.081865e+01    7.759184e-01
  3.085040e+01    7.793373e-01
  3.088215e+01    7.706174e-01
  3.091390e+01    7.774465e-01
  3.094565e+01    7.648575e-01
  3.097740e+01    7.745503e-01
  3.100915e+01    8.046084e-01
  3.104090e+01    7.482505e-01
  3.107265e+01    7.963679e-01
  3.110441e+01    7.779307e-01
  3.113616e+01    7.899584e-01
  3.116791e+01    7.919837e-01
  3.119966e+01    7.994145e-01
  3.123141e+01    7.806886e-01
  3.126316e+01    7.984610e-01
  3.129491e+01    7.920738e-01
  3.132666e+01    8.128042e-01
  3.135841e+01    7.979044e-01
  3.139017e+01    7.852522e-01
  3.142192e+01    8.257446e-01
  3.145367e+01    8.131092e-01
  3.148542e+01    8.168128e-01
  3.151717e+01    8.244679e-01
  3.154892e+01    8.527355e-01
  3.158067e+01    8.750700e-01
  3.161242e+01    9.043963e-01
  3.164418e+01    9.152381e-01
  3.167593e+01    9.419283e-01
  3.170768e+01    1.025857e+00
  3.173943e+01    1.101247e+00
  3.177118e+01    1.231741e+00
  3.180293e+01    1.456551e+00
  3.183468e+01    1.694463e+00
  3.186643e+01    1.924769e+00
  3.189818e+01    2.058275e+00
  3.192994e+01    2.014902e+00
  3.196169e+01    1.821075e+00
  3.199344e+01    1.548987e+00
  3.202519e+01    1.318142e+00
  3.205694e+01    1.167527e+00
  3.208869e+01    1.042589e+00
  3.212044e+01    9.523786e-01
  3.215219e+01    9.139001e-01
  3.218394e+01    8.739532e-01
  3.221570e+01    8.626273e-01
  3.224745e+01    8.299438e-01
  3.227920e+01    8.144141e-01
  3.231095e+01    8.088460e-01
  3.234270e+01    7.901371e-01
  3.237445e+01    8.166704e-01
  3.240620e+01    7.863147e-01
  3.243795e+01    7.624037e-01
  3.246970e+01    7.882079e-01
  3.250146e+01    7.739531e-01
  3.253321e+01    7.570876e-01
  3.254908e+01    7.596462e-01