File: XRD/Reaction conditions/2024-07-27_003_Ru-CGO-ex_Reaction_dwell_000023_data_000064.dat
# == pyFAI calibration ==
# Distance Sample to Detector: 0.4 m
# PONI: 9.750e-02, 1.135e-01 m
# Rotations: -0.000175 0.000000 -0.000000 rad
#
# == Fit2d calibration ==
# Distance Sample-beamCenter: 400.000 mm
# Center: x=1514.000, y=1300.000 pix
# Tilt: 0.010 deg  TiltPlanRot: 0.010 deg
#
# Detector Detector	 Spline= None	 PixelSize= 7.500e-05, 7.500e-05 m
#    Detector has a mask: False
#    Detector has a dark current: False
#    detector has a flat field: False
#
# Wavelength: 6.888e-11 m
# Mask applied: user provided
# Dark current applied: False
# Flat field applied: False
# Polarization factor: 0.99
# Normalization factor: 1.0
# --> /home/myspot/data/2024_07_Rosario/Ru-CGO-ex/2024-07-27_003_Ru-CGO-ex_Reaction_dwell_000023_data_000064.dat
#       q_nm^-1             I
  2.003187e-02    7.712225e-02
  5.178302e-02    1.210474e-01
  8.353417e-02    1.454488e-01
  1.152853e-01    1.220215e-01
  1.470365e-01    4.788825e-02
  1.787876e-01    6.517459e-02
  2.105388e-01    4.112971e-02
  2.422899e-01    5.702686e-02
  2.740411e-01    3.805527e-03
  3.057922e-01    5.842101e-02
  3.375433e-01    4.360964e-02
  3.692945e-01    3.864500e-02
  4.010456e-01    3.654153e-02
  4.327968e-01    2.481432e-02
  4.645479e-01    3.721396e-02
  4.962991e-01    2.554715e-02
  5.280502e-01    2.989101e-02
  5.598014e-01    5.655104e-02
  5.915525e-01    2.392782e-02
  6.233037e-01    4.310966e-02
  6.550548e-01    2.951275e-02
  6.868060e-01    3.134716e-02
  7.185571e-01    2.689730e-02
  7.503083e-01    6.351908e-02
  7.820594e-01    1.715169e-01
  8.138106e-01    2.103343e-01
  8.455617e-01    3.693132e-01
  8.773129e-01    4.572280e-01
  9.090640e-01    5.539005e-01
  9.408152e-01    7.865916e-01
  9.725663e-01    1.061276e+00
  1.004317e+00    1.180164e+00
  1.036069e+00    1.258630e+00
  1.067820e+00    1.454303e+00
  1.099571e+00    1.575660e+00
  1.131322e+00    1.591883e+00
  1.163073e+00    1.624965e+00
  1.194824e+00    1.873573e+00
  1.226575e+00    2.194850e+00
  1.258327e+00    2.456927e+00
  1.290078e+00    2.657157e+00
  1.321829e+00    2.769412e+00
  1.353580e+00    2.768726e+00
  1.385331e+00    2.933577e+00
  1.417082e+00    2.783555e+00
  1.448834e+00    2.840166e+00
  1.480585e+00    2.988582e+00
  1.512336e+00    3.069201e+00
  1.544087e+00    3.205554e+00
  1.575838e+00    3.436552e+00
  1.607589e+00    3.176601e+00
  1.639340e+00    3.141555e+00
  1.671092e+00    3.110046e+00
  1.702843e+00    3.050693e+00
  1.734594e+00    3.130353e+00
  1.766345e+00    2.986039e+00
  1.798096e+00    3.031247e+00
  1.829847e+00    2.944748e+00
  1.861598e+00    3.062356e+00
  1.893350e+00    3.001130e+00
  1.925101e+00    3.116257e+00
  1.956852e+00    3.086722e+00
  1.988603e+00    3.008764e+00
  2.020354e+00    2.988677e+00
  2.052105e+00    3.125658e+00
  2.083856e+00    2.951719e+00
  2.115608e+00    3.033115e+00
  2.147359e+00    3.078914e+00
  2.179110e+00    3.053643e+00
  2.210861e+00    2.975947e+00
  2.242612e+00    3.104751e+00
  2.274363e+00    3.137779e+00
  2.306115e+00    3.150228e+00
  2.337866e+00    3.170279e+00
  2.369617e+00    3.125643e+00
  2.401368e+00    3.105717e+00
  2.433119e+00    3.219432e+00
  2.464870e+00    3.068821e+00
  2.496621e+00    3.285559e+00
  2.528373e+00    3.203720e+00
  2.560124e+00    3.188470e+00
  2.591875e+00    3.179232e+00
  2.623626e+00    3.225697e+00
  2.655377e+00    3.277148e+00
  2.687128e+00    3.227732e+00
  2.718879e+00    3.223882e+00
  2.750631e+00    3.213998e+00
  2.782382e+00    3.349187e+00
  2.814133e+00    3.288016e+00
  2.845884e+00    3.195021e+00
  2.877635e+00    3.339295e+00
  2.909386e+00    3.314483e+00
  2.941137e+00    3.402552e+00
  2.972889e+00    3.366133e+00
  3.004640e+00    3.349430e+00
  3.036391e+00    3.376538e+00
  3.068142e+00    3.353491e+00
  3.099893e+00    3.323892e+00
  3.131644e+00    3.422320e+00
  3.163395e+00    3.415499e+00
  3.195147e+00    3.354363e+00
  3.226898e+00    3.373073e+00
  3.258649e+00    3.315741e+00
  3.290400e+00    3.416738e+00
  3.322151e+00    3.491164e+00
  3.353902e+00    3.398171e+00
  3.385654e+00    3.433441e+00
  3.417405e+00    3.336154e+00
  3.449156e+00    3.414723e+00
  3.480907e+00    3.461048e+00
  3.512658e+00    3.490141e+00
  3.544409e+00    3.397093e+00
  3.576160e+00    3.467760e+00
  3.607912e+00    3.413828e+00
  3.639663e+00    3.547689e+00
  3.671414e+00    3.616290e+00
  3.703165e+00    3.487948e+00
  3.734916e+00    3.513119e+00
  3.766667e+00    3.460234e+00
  3.798418e+00    3.502050e+00
  3.830170e+00    3.582116e+00
  3.861921e+00    3.661654e+00
  3.893672e+00    3.535216e+00
  3.925423e+00    3.420993e+00
  3.957174e+00    3.601804e+00
  3.988925e+00    3.569799e+00
  4.020676e+00    3.592564e+00
  4.052428e+00    3.511784e+00
  4.084179e+00    3.563716e+00
  4.115930e+00    3.465430e+00
  4.147681e+00    3.633806e+00
  4.179432e+00    3.487705e+00
  4.211183e+00    3.521354e+00
  4.242935e+00    3.533867e+00
  4.274686e+00    3.594947e+00
  4.306437e+00    3.544747e+00
  4.338188e+00    3.563840e+00
  4.369939e+00    3.636941e+00
  4.401690e+00    3.575024e+00
  4.433441e+00    3.654876e+00
  4.465193e+00    3.652045e+00
  4.496944e+00    3.538892e+00
  4.528695e+00    3.587400e+00
  4.560446e+00    3.587301e+00
  4.592197e+00    3.577796e+00
  4.623948e+00    3.584703e+00
  4.655699e+00    3.588183e+00
  4.687451e+00    3.572968e+00
  4.719202e+00    3.672462e+00
  4.750953e+00    3.678657e+00
  4.782704e+00    3.642753e+00
  4.814455e+00    3.684473e+00
  4.846206e+00    3.651183e+00
  4.877957e+00    3.744525e+00
  4.909709e+00    3.677313e+00
  4.941460e+00    3.634872e+00
  4.973211e+00    3.662147e+00
  5.004962e+00    3.603222e+00
  5.036713e+00    3.610165e+00
  5.068464e+00    3.672655e+00
  5.100216e+00    3.621203e+00
  5.131967e+00    3.707762e+00
  5.163718e+00    3.720121e+00
  5.195469e+00    3.677761e+00
  5.227220e+00    3.648334e+00
  5.258971e+00    3.618713e+00
  5.290722e+00    3.721934e+00
  5.322474e+00    3.696150e+00
  5.354225e+00    3.647224e+00
  5.385976e+00    3.550036e+00
  5.417727e+00    3.631784e+00
  5.449478e+00    3.697546e+00
  5.481229e+00    3.615275e+00
  5.512980e+00    3.609961e+00
  5.544732e+00    3.660915e+00
  5.576483e+00    3.647710e+00
  5.608234e+00    3.556669e+00
  5.639985e+00    3.648264e+00
  5.671736e+00    3.541502e+00
  5.703487e+00    3.603911e+00
  5.735238e+00    3.606061e+00
  5.766990e+00    3.587102e+00
  5.798741e+00    3.539442e+00
  5.830492e+00    3.509082e+00
  5.862243e+00    3.647470e+00
  5.893994e+00    3.517589e+00
  5.925745e+00    3.520023e+00
  5.957497e+00    3.582030e+00
  5.989248e+00    3.483076e+00
  6.020999e+00    3.594430e+00
  6.052750e+00    3.599650e+00
  6.084501e+00    3.598427e+00
  6.116252e+00    3.582271e+00
  6.148003e+00    3.621907e+00
  6.179755e+00    3.588491e+00
  6.211506e+00    3.657700e+00
  6.243257e+00    3.564095e+00
  6.275008e+00    3.587214e+00
  6.306759e+00    3.612270e+00
  6.338510e+00    3.605989e+00
  6.370261e+00    3.560982e+00
  6.402013e+00    3.613600e+00
  6.433764e+00    3.542352e+00
  6.465515e+00    3.479101e+00
  6.497266e+00    3.600016e+00
  6.529017e+00    3.595858e+00
  6.560768e+00    3.638677e+00
  6.592519e+00    3.585119e+00
  6.624271e+00    3.541000e+00
  6.656022e+00    3.602779e+00
  6.687773e+00    3.544581e+00
  6.719524e+00    3.530783e+00
  6.751275e+00    3.490777e+00
  6.783026e+00    3.550898e+00
  6.814777e+00    3.533962e+00
  6.846529e+00    3.575783e+00
  6.878280e+00    3.529595e+00
  6.910031e+00    3.670831e+00
  6.941782e+00    3.515109e+00
  6.973533e+00    3.542111e+00
  7.005284e+00    3.590367e+00
  7.037036e+00    3.520266e+00
  7.068787e+00    3.530731e+00
  7.100538e+00    3.536051e+00
  7.132289e+00    3.592116e+00
  7.164040e+00    3.628324e+00
  7.195791e+00    3.485975e+00
  7.227542e+00    3.534288e+00
  7.259294e+00    3.562389e+00
  7.291045e+00    3.525811e+00
  7.322796e+00    3.572889e+00
  7.354547e+00    3.582473e+00
  7.386298e+00    3.466540e+00
  7.418049e+00    3.465008e+00
  7.449800e+00    3.538291e+00
  7.481552e+00    3.545463e+00
  7.513303e+00    3.463658e+00
  7.545054e+00    3.533507e+00
  7.576805e+00    3.440158e+00
  7.608556e+00    3.547354e+00
  7.640307e+00    3.413833e+00
  7.672058e+00    3.534106e+00
  7.703810e+00    3.463562e+00
  7.735561e+00    3.430769e+00
  7.767312e+00    3.481786e+00
  7.799063e+00    3.580528e+00
  7.830814e+00    3.446008e+00
  7.862565e+00    3.531067e+00
  7.894317e+00    3.410028e+00
  7.926068e+00    3.358254e+00
  7.957819e+00    3.457146e+00
  7.989570e+00    3.432928e+00
  8.021321e+00    3.412348e+00
  8.053072e+00    3.408111e+00
  8.084823e+00    3.428374e+00
  8.116575e+00    3.474059e+00
  8.148326e+00    3.460886e+00
  8.180077e+00    3.424684e+00
  8.211828e+00    3.495677e+00
  8.243579e+00    3.484601e+00
  8.275330e+00    3.440639e+00
  8.307081e+00    3.416078e+00
  8.338833e+00    3.487689e+00
  8.370584e+00    3.413028e+00
  8.402335e+00    3.423118e+00
  8.434086e+00    3.394605e+00
  8.465837e+00    3.335440e+00
  8.497588e+00    3.434286e+00
  8.529339e+00    3.335303e+00
  8.561091e+00    3.358553e+00
  8.592842e+00    3.426488e+00
  8.624593e+00    3.434205e+00
  8.656344e+00    3.406507e+00
  8.688095e+00    3.341200e+00
  8.719846e+00    3.370301e+00
  8.751598e+00    3.317629e+00
  8.783349e+00    3.359367e+00
  8.815100e+00    3.312481e+00
  8.846851e+00    3.279666e+00
  8.878602e+00    3.283794e+00
  8.910353e+00    3.288507e+00
  8.942104e+00    3.276850e+00
  8.973856e+00    3.266137e+00
  9.005607e+00    3.320643e+00
  9.037358e+00    3.260625e+00
  9.069109e+00    3.303371e+00
  9.100860e+00    3.316982e+00
  9.132611e+00    3.326785e+00
  9.164362e+00    3.232168e+00
  9.196114e+00    3.204769e+00
  9.227865e+00    3.231020e+00
  9.259616e+00    3.292509e+00
  9.291367e+00    3.309994e+00
  9.323118e+00    3.220236e+00
  9.354869e+00    3.271225e+00
  9.386620e+00    3.235829e+00
  9.418372e+00    3.280945e+00
  9.450123e+00    3.197151e+00
  9.481874e+00    3.249828e+00
  9.513625e+00    3.287789e+00
  9.545376e+00    3.230177e+00
  9.577127e+00    3.291454e+00
  9.608878e+00    3.227041e+00
  9.640630e+00    3.154039e+00
  9.672381e+00    3.198075e+00
  9.704132e+00    3.259254e+00
  9.735883e+00    3.201450e+00
  9.767634e+00    3.205886e+00
  9.799385e+00    3.180007e+00
  9.831137e+00    3.175767e+00
  9.862888e+00    3.180130e+00
  9.894639e+00    3.150272e+00
  9.926390e+00    3.134828e+00
  9.958141e+00    3.083578e+00
  9.989892e+00    3.116572e+00
  1.002164e+01    3.101322e+00
  1.005339e+01    3.053493e+00
  1.008515e+01    3.096093e+00
  1.011690e+01    3.079078e+00
  1.014865e+01    3.090306e+00
  1.018040e+01    3.061503e+00
  1.021215e+01    3.118993e+00
  1.024390e+01    3.106705e+00
  1.027565e+01    3.072762e+00
  1.030740e+01    3.034779e+00
  1.033915e+01    3.077880e+00
  1.037091e+01    3.114006e+00
  1.040266e+01    3.037550e+00
  1.043441e+01    3.082667e+00
  1.046616e+01    3.060337e+00
  1.049791e+01    3.048951e+00
  1.052966e+01    3.010313e+00
  1.056141e+01    3.005655e+00
  1.059316e+01    2.983404e+00
  1.062492e+01    2.953109e+00
  1.065667e+01    2.993815e+00
  1.068842e+01    2.963786e+00
  1.072017e+01    2.989382e+00
  1.075192e+01    2.970484e+00
  1.078367e+01    2.972099e+00
  1.081542e+01    3.001389e+00
  1.084717e+01    2.937972e+00
  1.087892e+01    2.963111e+00
  1.091068e+01    2.922976e+00
  1.094243e+01    2.890104e+00
  1.097418e+01    2.926721e+00
  1.100593e+01    2.908272e+00
  1.103768e+01    2.886387e+00
  1.106943e+01    2.870438e+00
  1.110118e+01    2.855712e+00
  1.113293e+01    2.895024e+00
  1.116468e+01    2.840355e+00
  1.119644e+01    2.845443e+00
  1.122819e+01    2.883099e+00
  1.125994e+01    2.900028e+00
  1.129169e+01    2.848825e+00
  1.132344e+01    2.834457e+00
  1.135519e+01    2.844396e+00
  1.138694e+01    2.808003e+00
  1.141869e+01    2.878123e+00
  1.145045e+01    2.798145e+00
  1.148220e+01    2.794657e+00
  1.151395e+01    2.785715e+00
  1.154570e+01    2.773471e+00
  1.157745e+01    2.821424e+00
  1.160920e+01    2.853629e+00
  1.164095e+01    2.791445e+00
  1.167270e+01    2.815142e+00
  1.170445e+01    2.741339e+00
  1.173621e+01    2.747282e+00
  1.176796e+01    2.738399e+00
  1.179971e+01    2.776769e+00
  1.183146e+01    2.702740e+00
  1.186321e+01    2.770610e+00
  1.189496e+01    2.725773e+00
  1.192671e+01    2.694347e+00
  1.195846e+01    2.724073e+00
  1.199021e+01    2.700589e+00
  1.202197e+01    2.698960e+00
  1.205372e+01    2.709917e+00
  1.208547e+01    2.701023e+00
  1.211722e+01    2.665183e+00
  1.214897e+01    2.700929e+00
  1.218072e+01    2.690159e+00
  1.221247e+01    2.695789e+00
  1.224422e+01    2.741296e+00
  1.227597e+01    2.705242e+00
  1.230773e+01    2.677372e+00
  1.233948e+01    2.683418e+00
  1.237123e+01    2.692043e+00
  1.240298e+01    2.714463e+00
  1.243473e+01    2.710712e+00
  1.246648e+01    2.727355e+00
  1.249823e+01    2.707646e+00
  1.252998e+01    2.731448e+00
  1.256174e+01    2.747031e+00
  1.259349e+01    2.735064e+00
  1.262524e+01    2.778655e+00
  1.265699e+01    2.754257e+00
  1.268874e+01    2.840425e+00
  1.272049e+01    2.851101e+00
  1.275224e+01    2.884565e+00
  1.278399e+01    2.946047e+00
  1.281574e+01    3.059104e+00
  1.284750e+01    3.132592e+00
  1.287925e+01    3.382506e+00
  1.291100e+01    3.688662e+00
  1.294275e+01    4.106187e+00
  1.297450e+01    4.801672e+00
  1.300625e+01    5.879222e+00
  1.303800e+01    7.663073e+00
  1.306975e+01    1.023129e+01
  1.310150e+01    1.265145e+01
  1.313326e+01    1.487431e+01
  1.316501e+01    1.632790e+01
  1.319676e+01    1.577136e+01
  1.322851e+01    1.260436e+01
  1.326026e+01    9.113320e+00
  1.329201e+01    6.822674e+00
  1.332376e+01    5.354238e+00
  1.335551e+01    4.447114e+00
  1.338727e+01    3.884651e+00
  1.341902e+01    3.497864e+00
  1.345077e+01    3.253737e+00
  1.348252e+01    3.038558e+00
  1.351427e+01    2.937538e+00
  1.354602e+01    2.817977e+00
  1.357777e+01    2.743563e+00
  1.360952e+01    2.684577e+00
  1.364127e+01    2.647568e+00
  1.367303e+01    2.626450e+00
  1.370478e+01    2.580245e+00
  1.373653e+01    2.533827e+00
  1.376828e+01    2.507638e+00
  1.380003e+01    2.490763e+00
  1.383178e+01    2.488199e+00
  1.386353e+01    2.504422e+00
  1.389528e+01    2.419724e+00
  1.392703e+01    2.377009e+00
  1.395879e+01    2.391783e+00
  1.399054e+01    2.381849e+00
  1.402229e+01    2.328905e+00
  1.405404e+01    2.354637e+00
  1.408579e+01    2.332727e+00
  1.411754e+01    2.365369e+00
  1.414929e+01    2.374825e+00
  1.418104e+01    2.334852e+00
  1.421279e+01    2.333200e+00
  1.424455e+01    2.288178e+00
  1.427630e+01    2.261767e+00
  1.430805e+01    2.245834e+00
  1.433980e+01    2.252242e+00
  1.437155e+01    2.263799e+00
  1.440330e+01    2.263646e+00
  1.443505e+01    2.230539e+00
  1.446680e+01    2.263115e+00
  1.449856e+01    2.250561e+00
  1.453031e+01    2.201363e+00
  1.456206e+01    2.234253e+00
  1.459381e+01    2.220086e+00
  1.462556e+01    2.226487e+00
  1.465731e+01    2.215925e+00
  1.468906e+01    2.175789e+00
  1.472081e+01    2.227730e+00
  1.475256e+01    2.214855e+00
  1.478432e+01    2.209007e+00
  1.481607e+01    2.179232e+00
  1.484782e+01    2.213233e+00
  1.487957e+01    2.232165e+00
  1.491132e+01    2.303968e+00
  1.494307e+01    2.327174e+00
  1.497482e+01    2.391913e+00
  1.500657e+01    2.443969e+00
  1.503832e+01    2.576115e+00
  1.507008e+01    2.789650e+00
  1.510183e+01    3.192285e+00
  1.513358e+01    3.790300e+00
  1.516533e+01    4.485834e+00
  1.519708e+01    5.190432e+00
  1.522883e+01    5.639821e+00
  1.526058e+01    5.803909e+00
  1.529233e+01    5.465040e+00
  1.532409e+01    4.639520e+00
  1.535584e+01    3.779342e+00
  1.538759e+01    3.174822e+00
  1.541934e+01    2.761573e+00
  1.545109e+01    2.557390e+00
  1.548284e+01    2.390243e+00
  1.551459e+01    2.272432e+00
  1.554634e+01    2.206111e+00
  1.557809e+01    2.146248e+00
  1.560985e+01    2.065041e+00
  1.564160e+01    2.040815e+00
  1.567335e+01    1.998075e+00
  1.570510e+01    1.995674e+00
  1.573685e+01    2.002043e+00
  1.576860e+01    1.955950e+00
  1.580035e+01    1.957495e+00
  1.583210e+01    1.961205e+00
  1.586385e+01    1.925717e+00
  1.589561e+01    1.900581e+00
  1.592736e+01    1.877807e+00
  1.595911e+01    1.883116e+00
  1.599086e+01    1.878911e+00
  1.602261e+01    1.874413e+00
  1.605436e+01    1.851742e+00
  1.608611e+01    1.825732e+00
  1.611786e+01    1.862101e+00
  1.614961e+01    1.842827e+00
  1.618137e+01    1.834439e+00
  1.621312e+01    1.840972e+00
  1.624487e+01    1.804847e+00
  1.627662e+01    1.876773e+00
  1.630837e+01    1.810695e+00
  1.634012e+01    1.796522e+00
  1.637187e+01    1.809307e+00
  1.640362e+01    1.780983e+00
  1.643538e+01    1.806892e+00
  1.646713e+01    1.777413e+00
  1.649888e+01    1.754742e+00
  1.653063e+01    1.774933e+00
  1.656238e+01    1.738782e+00
  1.659413e+01    1.739141e+00
  1.662588e+01    1.721885e+00
  1.665763e+01    1.770237e+00
  1.668938e+01    1.728956e+00
  1.672114e+01    1.707489e+00
  1.675289e+01    1.730650e+00
  1.678464e+01    1.735889e+00
  1.681639e+01    1.671110e+00
  1.684814e+01    1.688549e+00
  1.687989e+01    1.700919e+00
  1.691164e+01    1.697508e+00
  1.694339e+01    1.713715e+00
  1.697514e+01    1.694418e+00
  1.700690e+01    1.635097e+00
  1.703865e+01    1.660807e+00
  1.707040e+01    1.634293e+00
  1.710215e+01    1.672694e+00
  1.713390e+01    1.656201e+00
  1.716565e+01    1.658194e+00
  1.719740e+01    1.638677e+00
  1.722915e+01    1.624434e+00
  1.726091e+01    1.629445e+00
  1.729266e+01    1.602263e+00
  1.732441e+01    1.643976e+00
  1.735616e+01    1.603435e+00
  1.738791e+01    1.609200e+00
  1.741966e+01    1.641207e+00
  1.745141e+01    1.619405e+00
  1.748316e+01    1.566459e+00
  1.751491e+01    1.595070e+00
  1.754667e+01    1.608541e+00
  1.757842e+01    1.570072e+00
  1.761017e+01    1.563330e+00
  1.764192e+01    1.554378e+00
  1.767367e+01    1.587621e+00
  1.770542e+01    1.552230e+00
  1.773717e+01    1.543272e+00
  1.776892e+01    1.549665e+00
  1.780067e+01    1.527605e+00
  1.783243e+01    1.543803e+00
  1.786418e+01    1.539178e+00
  1.789593e+01    1.542140e+00
  1.792768e+01    1.504103e+00
  1.795943e+01    1.522166e+00
  1.799118e+01    1.516872e+00
  1.802293e+01    1.525573e+00
  1.805468e+01    1.499914e+00
  1.808643e+01    1.517760e+00
  1.811819e+01    1.490572e+00
  1.814994e+01    1.466715e+00
  1.818169e+01    1.499896e+00
  1.821344e+01    1.473235e+00
  1.824519e+01    1.518287e+00
  1.827694e+01    1.439671e+00
  1.830869e+01    1.468150e+00
  1.834044e+01    1.497653e+00
  1.837220e+01    1.474622e+00
  1.840395e+01    1.477100e+00
  1.843570e+01    1.453875e+00
  1.846745e+01    1.444130e+00
  1.849920e+01    1.455241e+00
  1.853095e+01    1.434904e+00
  1.856270e+01    1.416251e+00
  1.859445e+01    1.424121e+00
  1.862620e+01    1.420689e+00
  1.865796e+01    1.433068e+00
  1.868971e+01    1.409323e+00
  1.872146e+01    1.448930e+00
  1.875321e+01    1.399316e+00
  1.878496e+01    1.413519e+00
  1.881671e+01    1.419171e+00
  1.884846e+01    1.435470e+00
  1.888021e+01    1.419275e+00
  1.891196e+01    1.381995e+00
  1.894372e+01    1.411639e+00
  1.897547e+01    1.412524e+00
  1.900722e+01    1.385069e+00
  1.903897e+01    1.420244e+00
  1.907072e+01    1.348224e+00
  1.910247e+01    1.352244e+00
  1.913422e+01    1.367592e+00
  1.916597e+01    1.377009e+00
  1.919773e+01    1.379236e+00
  1.922948e+01    1.331681e+00
  1.926123e+01    1.381093e+00
  1.929298e+01    1.374157e+00
  1.932473e+01    1.354934e+00
  1.935648e+01    1.355695e+00
  1.938823e+01    1.327840e+00
  1.941998e+01    1.327479e+00
  1.945173e+01    1.352840e+00
  1.948349e+01    1.334425e+00
  1.951524e+01    1.351415e+00
  1.954699e+01    1.337821e+00
  1.957874e+01    1.346002e+00
  1.961049e+01    1.323240e+00
  1.964224e+01    1.340209e+00
  1.967399e+01    1.315835e+00
  1.970574e+01    1.304671e+00
  1.973749e+01    1.348765e+00
  1.976925e+01    1.297656e+00
  1.980100e+01    1.279029e+00
  1.983275e+01    1.315319e+00
  1.986450e+01    1.327041e+00
  1.989625e+01    1.311667e+00
  1.992800e+01    1.299155e+00
  1.995975e+01    1.284093e+00
  1.999150e+01    1.310364e+00
  2.002325e+01    1.277867e+00
  2.005501e+01    1.259767e+00
  2.008676e+01    1.248813e+00
  2.011851e+01    1.305316e+00
  2.015026e+01    1.265049e+00
  2.018201e+01    1.275437e+00
  2.021376e+01    1.268139e+00
  2.024551e+01    1.247420e+00
  2.027726e+01    1.273507e+00
  2.030902e+01    1.266431e+00
  2.034077e+01    1.265103e+00
  2.037252e+01    1.267518e+00
  2.040427e+01    1.258152e+00
  2.043602e+01    1.248019e+00
  2.046777e+01    1.252836e+00
  2.049952e+01    1.211303e+00
  2.053127e+01    1.226109e+00
  2.056302e+01    1.234445e+00
  2.059478e+01    1.240311e+00
  2.062653e+01    1.219507e+00
  2.065828e+01    1.216236e+00
  2.069003e+01    1.241506e+00
  2.072178e+01    1.238582e+00
  2.075353e+01    1.237950e+00
  2.078528e+01    1.223201e+00
  2.081703e+01    1.233983e+00
  2.084878e+01    1.242950e+00
  2.088054e+01    1.245721e+00
  2.091229e+01    1.224034e+00
  2.094404e+01    1.245747e+00
  2.097579e+01    1.256484e+00
  2.100754e+01    1.215359e+00
  2.103929e+01    1.207485e+00
  2.107104e+01    1.233564e+00
  2.110279e+01    1.228608e+00
  2.113455e+01    1.230778e+00
  2.116630e+01    1.236909e+00
  2.119805e+01    1.239341e+00
  2.122980e+01    1.240069e+00
  2.126155e+01    1.237525e+00
  2.129330e+01    1.251782e+00
  2.132505e+01    1.294171e+00
  2.135680e+01    1.281793e+00
  2.138855e+01    1.298899e+00
  2.142031e+01    1.345524e+00
  2.145206e+01    1.387293e+00
  2.148381e+01    1.412290e+00
  2.151556e+01    1.457667e+00
  2.154731e+01    1.507794e+00
  2.157906e+01    1.632358e+00
  2.161081e+01    1.750970e+00
  2.164256e+01    1.966864e+00
  2.167431e+01    2.273964e+00
  2.170607e+01    2.746953e+00
  2.173782e+01    3.557835e+00
  2.176957e+01    4.583067e+00
  2.180132e+01    5.870294e+00
  2.183307e+01    7.158700e+00
  2.186482e+01    8.436171e+00
  2.189657e+01    8.858488e+00
  2.192832e+01    8.286110e+00
  2.196007e+01    6.644165e+00
  2.199183e+01    4.917247e+00
  2.202358e+01    3.651722e+00
  2.205533e+01    2.834088e+00
  2.208708e+01    2.328547e+00
  2.211883e+01    1.984255e+00
  2.215058e+01    1.791090e+00
  2.218233e+01    1.624508e+00
  2.221408e+01    1.504122e+00
  2.224584e+01    1.403605e+00
  2.227759e+01    1.329277e+00
  2.230934e+01    1.274100e+00
  2.234109e+01    1.259055e+00
  2.237284e+01    1.242808e+00
  2.240459e+01    1.200189e+00
  2.243634e+01    1.190695e+00
  2.246809e+01    1.167487e+00
  2.249984e+01    1.175496e+00
  2.253160e+01    1.131585e+00
  2.256335e+01    1.143960e+00
  2.259510e+01    1.095288e+00
  2.262685e+01    1.094869e+00
  2.265860e+01    1.104341e+00
  2.269035e+01    1.086330e+00
  2.272210e+01    1.073073e+00
  2.275385e+01    1.066450e+00
  2.278560e+01    1.062411e+00
  2.281736e+01    1.062434e+00
  2.284911e+01    1.040992e+00
  2.288086e+01    1.021676e+00
  2.291261e+01    1.022865e+00
  2.294436e+01    1.018348e+00
  2.297611e+01    1.023252e+00
  2.300786e+01    1.005418e+00
  2.303961e+01    9.861053e-01
  2.307137e+01    1.021833e+00
  2.310312e+01    1.025717e+00
  2.313487e+01    1.011429e+00
  2.316662e+01    1.015603e+00
  2.319837e+01    1.012563e+00
  2.323012e+01    9.843079e-01
  2.326187e+01    9.852305e-01
  2.329362e+01    9.982274e-01
  2.332537e+01    9.669220e-01
  2.335713e+01    9.771178e-01
  2.338888e+01    9.774286e-01
  2.342063e+01    9.668698e-01
  2.345238e+01    9.558062e-01
  2.348413e+01    9.683329e-01
  2.351588e+01    9.719886e-01
  2.354763e+01    9.557947e-01
  2.357938e+01    9.701579e-01
  2.361113e+01    9.585203e-01
  2.364289e+01    9.441732e-01
  2.367464e+01    9.488282e-01
  2.370639e+01    9.375256e-01
  2.373814e+01    9.289593e-01
  2.376989e+01    9.248377e-01
  2.380164e+01    9.181318e-01
  2.383339e+01    9.180494e-01
  2.386514e+01    9.183363e-01
  2.389689e+01    9.264386e-01
  2.392865e+01    8.897666e-01
  2.396040e+01    9.058889e-01
  2.399215e+01    8.962305e-01
  2.402390e+01    9.183333e-01
  2.405565e+01    8.882634e-01
  2.408740e+01    9.075179e-01
  2.411915e+01    8.775685e-01
  2.415090e+01    8.812133e-01
  2.418266e+01    8.977742e-01
  2.421441e+01    8.906451e-01
  2.424616e+01    8.955973e-01
  2.427791e+01    9.011908e-01
  2.430966e+01    9.185304e-01
  2.434141e+01    8.895142e-01
  2.437316e+01    9.037171e-01
  2.440491e+01    9.063246e-01
  2.443666e+01    9.100761e-01
  2.446842e+01    9.064043e-01
  2.450017e+01    9.032997e-01
  2.453192e+01    9.017359e-01
  2.456367e+01    8.820265e-01
  2.459542e+01    8.758464e-01
  2.462717e+01    8.866035e-01
  2.465892e+01    9.069803e-01
  2.469067e+01    9.006554e-01
  2.472242e+01    8.989311e-01
  2.475418e+01    8.730948e-01
  2.478593e+01    8.945317e-01
  2.481768e+01    9.004375e-01
  2.484943e+01    8.798795e-01
  2.488118e+01    9.239776e-01
  2.491293e+01    8.911576e-01
  2.494468e+01    8.974838e-01
  2.497643e+01    9.096754e-01
  2.500819e+01    8.979331e-01
  2.503994e+01    9.121780e-01
  2.507169e+01    9.128706e-01
  2.510344e+01    9.096832e-01
  2.513519e+01    9.261809e-01
  2.516694e+01    9.200462e-01
  2.519869e+01    8.988361e-01
  2.523044e+01    9.258084e-01
  2.526219e+01    9.306914e-01
  2.529395e+01    9.511867e-01
  2.532570e+01    9.637151e-01
  2.535745e+01    9.658524e-01
  2.538920e+01    9.949450e-01
  2.542095e+01    1.002642e+00
  2.545270e+01    1.026122e+00
  2.548445e+01    1.041977e+00
  2.551620e+01    1.083068e+00
  2.554795e+01    1.092020e+00
  2.557971e+01    1.169859e+00
  2.561146e+01    1.234074e+00
  2.564321e+01    1.293615e+00
  2.567496e+01    1.408152e+00
  2.570671e+01    1.607284e+00
  2.573846e+01    1.839482e+00
  2.577021e+01    2.220124e+00
  2.580196e+01    2.801897e+00
  2.583371e+01    3.579162e+00
  2.586547e+01    4.678084e+00
  2.589722e+01    5.776402e+00
  2.592897e+01    6.785129e+00
  2.596072e+01    7.166169e+00
  2.599247e+01    6.595551e+00
  2.602422e+01    5.379919e+00
  2.605597e+01    3.972103e+00
  2.608772e+01    3.057308e+00
  2.611948e+01    2.403312e+00
  2.615123e+01    1.961061e+00
  2.618298e+01    1.718334e+00
  2.621473e+01    1.485551e+00
  2.624648e+01    1.354095e+00
  2.627823e+01    1.255214e+00
  2.630998e+01    1.184854e+00
  2.634173e+01    1.132839e+00
  2.637348e+01    1.081903e+00
  2.640524e+01    1.057494e+00
  2.643699e+01    1.023814e+00
  2.646874e+01    1.020101e+00
  2.650049e+01    1.019557e+00
  2.653224e+01    1.001727e+00
  2.656399e+01    9.933230e-01
  2.659574e+01    9.770388e-01
  2.662749e+01    9.814345e-01
  2.665924e+01    9.648441e-01
  2.669100e+01    9.703038e-01
  2.672275e+01    9.620160e-01
  2.675450e+01    9.895384e-01
  2.678625e+01    9.924030e-01
  2.681800e+01    9.902034e-01
  2.684975e+01    9.896677e-01
  2.688150e+01    1.001666e+00
  2.691325e+01    1.023524e+00
  2.694501e+01    1.014137e+00
  2.697676e+01    1.062651e+00
  2.700851e+01    1.102270e+00
  2.704026e+01    1.215480e+00
  2.707201e+01    1.292421e+00
  2.710376e+01    1.481004e+00
  2.713551e+01    1.707685e+00
  2.716726e+01    1.959680e+00
  2.719901e+01    2.123210e+00
  2.723077e+01    2.177083e+00
  2.726252e+01    1.973063e+00
  2.729427e+01    1.694766e+00
  2.732602e+01    1.459360e+00
  2.735777e+01    1.292391e+00
  2.738952e+01    1.173417e+00
  2.742127e+01    1.085493e+00
  2.745302e+01    1.054471e+00
  2.748477e+01    1.001775e+00
  2.751653e+01    9.732852e-01
  2.754828e+01    9.407455e-01
  2.758003e+01    9.477206e-01
  2.761178e+01    9.155412e-01
  2.764353e+01    9.248372e-01
  2.767528e+01    9.324040e-01
  2.770703e+01    9.028147e-01
  2.773878e+01    8.997782e-01
  2.777054e+01    9.037753e-01
  2.780229e+01    8.993541e-01
  2.783404e+01    8.846181e-01
  2.786579e+01    8.835470e-01
  2.789754e+01    9.015847e-01
  2.792929e+01    8.816139e-01
  2.796104e+01    8.828377e-01
  2.799279e+01    8.706850e-01
  2.802454e+01    8.801118e-01
  2.805630e+01    8.692452e-01
  2.808805e+01    8.700298e-01
  2.811980e+01    8.682076e-01
  2.815155e+01    8.662230e-01
  2.818330e+01    8.634986e-01
  2.821505e+01    8.821653e-01
  2.824680e+01    8.504148e-01
  2.827855e+01    8.619430e-01
  2.831030e+01    8.562820e-01
  2.834206e+01    8.553521e-01
  2.837381e+01    8.632742e-01
  2.840556e+01    8.548973e-01
  2.843731e+01    8.389364e-01
  2.846906e+01    8.448641e-01
  2.850081e+01    8.471533e-01
  2.853256e+01    8.415928e-01
  2.856431e+01    8.436559e-01
  2.859606e+01    8.334121e-01
  2.862782e+01    8.361289e-01
  2.865957e+01    8.415406e-01
  2.869132e+01    8.431396e-01
  2.872307e+01    8.537859e-01
  2.875482e+01    8.278040e-01
  2.878657e+01    8.164834e-01
  2.881832e+01    8.535576e-01
  2.885007e+01    8.136431e-01
  2.888183e+01    8.158090e-01
  2.891358e+01    8.294226e-01
  2.894533e+01    8.103644e-01
  2.897708e+01    8.359249e-01
  2.900883e+01    8.294719e-01
  2.904058e+01    8.181885e-01
  2.907233e+01    8.458522e-01
  2.910408e+01    8.375646e-01
  2.913583e+01    8.053927e-01
  2.916759e+01    8.280195e-01
  2.919934e+01    8.001898e-01
  2.923109e+01    8.271131e-01
  2.926284e+01    8.090010e-01
  2.929459e+01    8.191061e-01
  2.932634e+01    8.028748e-01
  2.935809e+01    8.104768e-01
  2.938984e+01    8.245243e-01
  2.942159e+01    8.077766e-01
  2.945335e+01    8.280632e-01
  2.948510e+01    8.143750e-01
  2.951685e+01    8.086359e-01
  2.954860e+01    8.175573e-01
  2.958035e+01    8.265706e-01
  2.961210e+01    8.060561e-01
  2.964385e+01    8.120174e-01
  2.967560e+01    7.938855e-01
  2.970736e+01    8.131555e-01
  2.973911e+01    7.894412e-01
  2.977086e+01    7.867901e-01
  2.980261e+01    8.165827e-01
  2.983436e+01    7.981450e-01
  2.986611e+01    8.114089e-01
  2.989786e+01    7.901270e-01
  2.992961e+01    7.852990e-01
  2.996136e+01    8.073835e-01
  2.999312e+01    8.261709e-01
  3.002487e+01    8.051931e-01
  3.005662e+01    8.081267e-01
  3.008837e+01    8.012016e-01
  3.012012e+01    7.961887e-01
  3.015187e+01    7.851906e-01
  3.018362e+01    7.932764e-01
  3.021537e+01    7.945512e-01
  3.024712e+01    7.974445e-01
  3.027888e+01    7.915669e-01
  3.031063e+01    7.758991e-01
  3.034238e+01    7.743364e-01
  3.037413e+01    7.766402e-01
  3.040588e+01    7.851120e-01
  3.043763e+01    7.829456e-01
  3.046938e+01    8.010481e-01
  3.050113e+01    7.948707e-01
  3.053288e+01    7.660012e-01
  3.056464e+01    7.966526e-01
  3.059639e+01    7.981175e-01
  3.062814e+01    7.966570e-01
  3.065989e+01    7.904518e-01
  3.069164e+01    7.867303e-01
  3.072339e+01    7.823125e-01
  3.075514e+01    7.813862e-01
  3.078689e+01    7.695462e-01
  3.081865e+01    8.088222e-01
  3.085040e+01    7.962483e-01
  3.088215e+01    7.892199e-01
  3.091390e+01    7.735853e-01
  3.094565e+01    7.718599e-01
  3.097740e+01    7.820332e-01
  3.100915e+01    7.972782e-01
  3.104090e+01    7.940888e-01
  3.107265e+01    7.797579e-01
  3.110441e+01    7.896801e-01
  3.113616e+01    7.671615e-01
  3.116791e+01    7.844710e-01
  3.119966e+01    7.973526e-01
  3.123141e+01    7.888933e-01
  3.126316e+01    8.045726e-01
  3.129491e+01    7.773753e-01
  3.132666e+01    7.978843e-01
  3.135841e+01    8.289908e-01
  3.139017e+01    8.020273e-01
  3.142192e+01    7.969441e-01
  3.145367e+01    8.098515e-01
  3.148542e+01    8.125434e-01
  3.151717e+01    8.365207e-01
  3.154892e+01    8.500279e-01
  3.158067e+01    8.585817e-01
  3.161242e+01    8.796363e-01
  3.164418e+01    8.912562e-01
  3.167593e+01    9.570099e-01
  3.170768e+01    1.023456e+00
  3.173943e+01    1.115741e+00
  3.177118e+01    1.246464e+00
  3.180293e+01    1.440017e+00
  3.183468e+01    1.691018e+00
  3.186643e+01    1.952435e+00
  3.189818e+01    2.114117e+00
  3.192994e+01    2.038678e+00
  3.196169e+01    1.849764e+00
  3.199344e+01    1.548178e+00
  3.202519e+01    1.339125e+00
  3.205694e+01    1.149824e+00
  3.208869e+01    1.045495e+00
  3.212044e+01    9.904481e-01
  3.215219e+01    9.071323e-01
  3.218394e+01    8.725610e-01
  3.221570e+01    8.475769e-01
  3.224745e+01    8.419137e-01
  3.227920e+01    8.225664e-01
  3.231095e+01    8.218350e-01
  3.234270e+01    8.203255e-01
  3.237445e+01    8.101983e-01
  3.240620e+01    7.776039e-01
  3.243795e+01    7.796094e-01
  3.246970e+01    7.983767e-01
  3.250146e+01    7.715966e-01
  3.253321e+01    7.766476e-01
  3.254908e+01    7.672931e-01