File: XRD/Reaction conditions/2024-07-27_003_Ru-CGO-ex_Reaction_dwell_000023_data_000148.dat
# == pyFAI calibration ==
# Distance Sample to Detector: 0.4 m
# PONI: 9.750e-02, 1.135e-01 m
# Rotations: -0.000175 0.000000 -0.000000 rad
#
# == Fit2d calibration ==
# Distance Sample-beamCenter: 400.000 mm
# Center: x=1514.000, y=1300.000 pix
# Tilt: 0.010 deg  TiltPlanRot: 0.010 deg
#
# Detector Detector	 Spline= None	 PixelSize= 7.500e-05, 7.500e-05 m
#    Detector has a mask: False
#    Detector has a dark current: False
#    detector has a flat field: False
#
# Wavelength: 6.888e-11 m
# Mask applied: user provided
# Dark current applied: False
# Flat field applied: False
# Polarization factor: 0.99
# Normalization factor: 1.0
# --> /home/myspot/data/2024_07_Rosario/Ru-CGO-ex/2024-07-27_003_Ru-CGO-ex_Reaction_dwell_000023_data_000148.dat
#       q_nm^-1             I
  2.003187e-02    2.418543e-01
  5.178302e-02    2.061078e-01
  8.353417e-02    1.534332e-01
  1.152853e-01    4.417604e-02
  1.470365e-01    5.432060e-02
  1.787876e-01    1.085904e-02
  2.105388e-01    6.458192e-02
  2.422899e-01    4.067328e-02
  2.740411e-01    8.198438e-02
  3.057922e-01    1.850600e-02
  3.375433e-01    5.599621e-02
  3.692945e-01    7.073207e-02
  4.010456e-01    3.318771e-02
  4.327968e-01    3.855093e-02
  4.645479e-01    1.155779e-02
  4.962991e-01    5.539967e-02
  5.280502e-01    6.349242e-02
  5.598014e-01    3.451189e-02
  5.915525e-01    3.169158e-02
  6.233037e-01    7.744146e-02
  6.550548e-01    4.986168e-02
  6.868060e-01    2.952388e-02
  7.185571e-01    2.873798e-02
  7.503083e-01    4.210945e-02
  7.820594e-01    1.238133e-01
  8.138106e-01    2.335019e-01
  8.455617e-01    3.772602e-01
  8.773129e-01    4.638825e-01
  9.090640e-01    6.749971e-01
  9.408152e-01    8.412397e-01
  9.725663e-01    1.032697e+00
  1.004317e+00    1.158623e+00
  1.036069e+00    1.358466e+00
  1.067820e+00    1.451778e+00
  1.099571e+00    1.596220e+00
  1.131322e+00    1.547920e+00
  1.163073e+00    1.617641e+00
  1.194824e+00    1.760754e+00
  1.226575e+00    2.119686e+00
  1.258327e+00    2.419987e+00
  1.290078e+00    2.649899e+00
  1.321829e+00    2.725890e+00
  1.353580e+00    2.748426e+00
  1.385331e+00    2.760401e+00
  1.417082e+00    2.778200e+00
  1.448834e+00    2.816335e+00
  1.480585e+00    2.980371e+00
  1.512336e+00    3.041091e+00
  1.544087e+00    3.239960e+00
  1.575838e+00    3.140726e+00
  1.607589e+00    3.158855e+00
  1.639340e+00    3.131018e+00
  1.671092e+00    3.102020e+00
  1.702843e+00    3.161897e+00
  1.734594e+00    3.116320e+00
  1.766345e+00    3.023723e+00
  1.798096e+00    3.087183e+00
  1.829847e+00    2.977047e+00
  1.861598e+00    3.062552e+00
  1.893350e+00    3.138547e+00
  1.925101e+00    3.045972e+00
  1.956852e+00    3.028973e+00
  1.988603e+00    3.024321e+00
  2.020354e+00    3.063679e+00
  2.052105e+00    3.025125e+00
  2.083856e+00    3.077439e+00
  2.115608e+00    3.117227e+00
  2.147359e+00    3.043262e+00
  2.179110e+00    3.134750e+00
  2.210861e+00    3.101413e+00
  2.242612e+00    3.016995e+00
  2.274363e+00    3.052702e+00
  2.306115e+00    3.093486e+00
  2.337866e+00    3.194318e+00
  2.369617e+00    3.152390e+00
  2.401368e+00    3.164330e+00
  2.433119e+00    3.225924e+00
  2.464870e+00    3.210473e+00
  2.496621e+00    3.352625e+00
  2.528373e+00    3.137873e+00
  2.560124e+00    3.237599e+00
  2.591875e+00    3.289073e+00
  2.623626e+00    3.085286e+00
  2.655377e+00    3.193949e+00
  2.687128e+00    3.289372e+00
  2.718879e+00    3.305314e+00
  2.750631e+00    3.275484e+00
  2.782382e+00    3.314234e+00
  2.814133e+00    3.193798e+00
  2.845884e+00    3.226512e+00
  2.877635e+00    3.385698e+00
  2.909386e+00    3.332701e+00
  2.941137e+00    3.289122e+00
  2.972889e+00    3.301774e+00
  3.004640e+00    3.430979e+00
  3.036391e+00    3.463375e+00
  3.068142e+00    3.295811e+00
  3.099893e+00    3.473015e+00
  3.131644e+00    3.356715e+00
  3.163395e+00    3.309255e+00
  3.195147e+00    3.347109e+00
  3.226898e+00    3.427169e+00
  3.258649e+00    3.409817e+00
  3.290400e+00    3.408273e+00
  3.322151e+00    3.281503e+00
  3.353902e+00    3.450857e+00
  3.385654e+00    3.315709e+00
  3.417405e+00    3.432628e+00
  3.449156e+00    3.364304e+00
  3.480907e+00    3.364066e+00
  3.512658e+00    3.435229e+00
  3.544409e+00    3.476587e+00
  3.576160e+00    3.513107e+00
  3.607912e+00    3.501189e+00
  3.639663e+00    3.553645e+00
  3.671414e+00    3.421219e+00
  3.703165e+00    3.490433e+00
  3.734916e+00    3.472827e+00
  3.766667e+00    3.492477e+00
  3.798418e+00    3.497098e+00
  3.830170e+00    3.465050e+00
  3.861921e+00    3.478431e+00
  3.893672e+00    3.494653e+00
  3.925423e+00    3.518764e+00
  3.957174e+00    3.506417e+00
  3.988925e+00    3.455171e+00
  4.020676e+00    3.627448e+00
  4.052428e+00    3.590761e+00
  4.084179e+00    3.612065e+00
  4.115930e+00    3.541031e+00
  4.147681e+00    3.490405e+00
  4.179432e+00    3.461482e+00
  4.211183e+00    3.604758e+00
  4.242935e+00    3.455747e+00
  4.274686e+00    3.552868e+00
  4.306437e+00    3.601834e+00
  4.338188e+00    3.574196e+00
  4.369939e+00    3.607692e+00
  4.401690e+00    3.573810e+00
  4.433441e+00    3.579976e+00
  4.465193e+00    3.569489e+00
  4.496944e+00    3.603092e+00
  4.528695e+00    3.580899e+00
  4.560446e+00    3.605150e+00
  4.592197e+00    3.651693e+00
  4.623948e+00    3.645296e+00
  4.655699e+00    3.622481e+00
  4.687451e+00    3.631132e+00
  4.719202e+00    3.631913e+00
  4.750953e+00    3.707086e+00
  4.782704e+00    3.615949e+00
  4.814455e+00    3.614377e+00
  4.846206e+00    3.635891e+00
  4.877957e+00    3.705685e+00
  4.909709e+00    3.655117e+00
  4.941460e+00    3.619579e+00
  4.973211e+00    3.621552e+00
  5.004962e+00    3.625332e+00
  5.036713e+00    3.685948e+00
  5.068464e+00    3.675073e+00
  5.100216e+00    3.604769e+00
  5.131967e+00    3.644800e+00
  5.163718e+00    3.723450e+00
  5.195469e+00    3.710883e+00
  5.227220e+00    3.701971e+00
  5.258971e+00    3.644914e+00
  5.290722e+00    3.619900e+00
  5.322474e+00    3.605023e+00
  5.354225e+00    3.708503e+00
  5.385976e+00    3.662734e+00
  5.417727e+00    3.649477e+00
  5.449478e+00    3.593604e+00
  5.481229e+00    3.588491e+00
  5.512980e+00    3.526885e+00
  5.544732e+00    3.593249e+00
  5.576483e+00    3.586082e+00
  5.608234e+00    3.609471e+00
  5.639985e+00    3.675839e+00
  5.671736e+00    3.502029e+00
  5.703487e+00    3.605666e+00
  5.735238e+00    3.603061e+00
  5.766990e+00    3.582695e+00
  5.798741e+00    3.595027e+00
  5.830492e+00    3.519507e+00
  5.862243e+00    3.533043e+00
  5.893994e+00    3.559182e+00
  5.925745e+00    3.538841e+00
  5.957497e+00    3.606606e+00
  5.989248e+00    3.562112e+00
  6.020999e+00    3.449716e+00
  6.052750e+00    3.616733e+00
  6.084501e+00    3.551003e+00
  6.116252e+00    3.590351e+00
  6.148003e+00    3.564629e+00
  6.179755e+00    3.601326e+00
  6.211506e+00    3.556953e+00
  6.243257e+00    3.467442e+00
  6.275008e+00    3.587737e+00
  6.306759e+00    3.629847e+00
  6.338510e+00    3.561539e+00
  6.370261e+00    3.519658e+00
  6.402013e+00    3.623566e+00
  6.433764e+00    3.578850e+00
  6.465515e+00    3.616843e+00
  6.497266e+00    3.544498e+00
  6.529017e+00    3.611454e+00
  6.560768e+00    3.597809e+00
  6.592519e+00    3.518729e+00
  6.624271e+00    3.512144e+00
  6.656022e+00    3.617699e+00
  6.687773e+00    3.587292e+00
  6.719524e+00    3.445203e+00
  6.751275e+00    3.538891e+00
  6.783026e+00    3.443909e+00
  6.814777e+00    3.586065e+00
  6.846529e+00    3.658864e+00
  6.878280e+00    3.532821e+00
  6.910031e+00    3.466616e+00
  6.941782e+00    3.473829e+00
  6.973533e+00    3.577485e+00
  7.005284e+00    3.525670e+00
  7.037036e+00    3.555365e+00
  7.068787e+00    3.509182e+00
  7.100538e+00    3.548360e+00
  7.132289e+00    3.472344e+00
  7.164040e+00    3.507559e+00
  7.195791e+00    3.533075e+00
  7.227542e+00    3.549022e+00
  7.259294e+00    3.473162e+00
  7.291045e+00    3.478750e+00
  7.322796e+00    3.550279e+00
  7.354547e+00    3.525346e+00
  7.386298e+00    3.500020e+00
  7.418049e+00    3.477262e+00
  7.449800e+00    3.424739e+00
  7.481552e+00    3.480344e+00
  7.513303e+00    3.404881e+00
  7.545054e+00    3.388103e+00
  7.576805e+00    3.533535e+00
  7.608556e+00    3.482700e+00
  7.640307e+00    3.528193e+00
  7.672058e+00    3.455892e+00
  7.703810e+00    3.456212e+00
  7.735561e+00    3.427990e+00
  7.767312e+00    3.429419e+00
  7.799063e+00    3.396461e+00
  7.830814e+00    3.458654e+00
  7.862565e+00    3.428860e+00
  7.894317e+00    3.400460e+00
  7.926068e+00    3.511982e+00
  7.957819e+00    3.451063e+00
  7.989570e+00    3.387962e+00
  8.021321e+00    3.412614e+00
  8.053072e+00    3.397194e+00
  8.084823e+00    3.421479e+00
  8.116575e+00    3.483227e+00
  8.148326e+00    3.375132e+00
  8.180077e+00    3.446770e+00
  8.211828e+00    3.453658e+00
  8.243579e+00    3.508142e+00
  8.275330e+00    3.391842e+00
  8.307081e+00    3.409455e+00
  8.338833e+00    3.379368e+00
  8.370584e+00    3.376901e+00
  8.402335e+00    3.380417e+00
  8.434086e+00    3.339618e+00
  8.465837e+00    3.349012e+00
  8.497588e+00    3.364373e+00
  8.529339e+00    3.374674e+00
  8.561091e+00    3.343694e+00
  8.592842e+00    3.297605e+00
  8.624593e+00    3.381981e+00
  8.656344e+00    3.362092e+00
  8.688095e+00    3.340137e+00
  8.719846e+00    3.334664e+00
  8.751598e+00    3.332110e+00
  8.783349e+00    3.296139e+00
  8.815100e+00    3.315628e+00
  8.846851e+00    3.290783e+00
  8.878602e+00    3.287103e+00
  8.910353e+00    3.312768e+00
  8.942104e+00    3.242789e+00
  8.973856e+00    3.221964e+00
  9.005607e+00    3.296115e+00
  9.037358e+00    3.287948e+00
  9.069109e+00    3.369792e+00
  9.100860e+00    3.230904e+00
  9.132611e+00    3.277040e+00
  9.164362e+00    3.284366e+00
  9.196114e+00    3.236415e+00
  9.227865e+00    3.256658e+00
  9.259616e+00    3.234288e+00
  9.291367e+00    3.273089e+00
  9.323118e+00    3.161907e+00
  9.354869e+00    3.266443e+00
  9.386620e+00    3.238536e+00
  9.418372e+00    3.244004e+00
  9.450123e+00    3.216537e+00
  9.481874e+00    3.173823e+00
  9.513625e+00    3.177502e+00
  9.545376e+00    3.211425e+00
  9.577127e+00    3.206264e+00
  9.608878e+00    3.165669e+00
  9.640630e+00    3.186028e+00
  9.672381e+00    3.101569e+00
  9.704132e+00    3.137008e+00
  9.735883e+00    3.237450e+00
  9.767634e+00    3.173886e+00
  9.799385e+00    3.134795e+00
  9.831137e+00    3.117215e+00
  9.862888e+00    3.122092e+00
  9.894639e+00    3.104220e+00
  9.926390e+00    3.108334e+00
  9.958141e+00    3.092765e+00
  9.989892e+00    3.117234e+00
  1.002164e+01    3.072034e+00
  1.005339e+01    3.086374e+00
  1.008515e+01    3.084909e+00
  1.011690e+01    3.092725e+00
  1.014865e+01    3.077234e+00
  1.018040e+01    3.034658e+00
  1.021215e+01    3.044260e+00
  1.024390e+01    3.042313e+00
  1.027565e+01    3.051764e+00
  1.030740e+01    3.076220e+00
  1.033915e+01    3.053729e+00
  1.037091e+01    3.078911e+00
  1.040266e+01    3.070563e+00
  1.043441e+01    2.997353e+00
  1.046616e+01    3.020662e+00
  1.049791e+01    2.968689e+00
  1.052966e+01    2.957159e+00
  1.056141e+01    3.007087e+00
  1.059316e+01    3.032205e+00
  1.062492e+01    2.980242e+00
  1.065667e+01    2.972012e+00
  1.068842e+01    2.908965e+00
  1.072017e+01    2.988057e+00
  1.075192e+01    2.947040e+00
  1.078367e+01    2.953513e+00
  1.081542e+01    2.977944e+00
  1.084717e+01    2.913382e+00
  1.087892e+01    2.928632e+00
  1.091068e+01    2.920494e+00
  1.094243e+01    2.882876e+00
  1.097418e+01    2.915890e+00
  1.100593e+01    2.897046e+00
  1.103768e+01    2.864708e+00
  1.106943e+01    2.944874e+00
  1.110118e+01    2.869525e+00
  1.113293e+01    2.818644e+00
  1.116468e+01    2.881669e+00
  1.119644e+01    2.852867e+00
  1.122819e+01    2.831329e+00
  1.125994e+01    2.859673e+00
  1.129169e+01    2.799934e+00
  1.132344e+01    2.857885e+00
  1.135519e+01    2.831457e+00
  1.138694e+01    2.829551e+00
  1.141869e+01    2.824602e+00
  1.145045e+01    2.809953e+00
  1.148220e+01    2.825970e+00
  1.151395e+01    2.801397e+00
  1.154570e+01    2.736772e+00
  1.157745e+01    2.752251e+00
  1.160920e+01    2.774673e+00
  1.164095e+01    2.756589e+00
  1.167270e+01    2.801765e+00
  1.170445e+01    2.729654e+00
  1.173621e+01    2.766797e+00
  1.176796e+01    2.716789e+00
  1.179971e+01    2.717237e+00
  1.183146e+01    2.738695e+00
  1.186321e+01    2.718718e+00
  1.189496e+01    2.744249e+00
  1.192671e+01    2.708325e+00
  1.195846e+01    2.696677e+00
  1.199021e+01    2.699369e+00
  1.202197e+01    2.715181e+00
  1.205372e+01    2.700453e+00
  1.208547e+01    2.710420e+00
  1.211722e+01    2.630062e+00
  1.214897e+01    2.681737e+00
  1.218072e+01    2.725837e+00
  1.221247e+01    2.688075e+00
  1.224422e+01    2.687081e+00
  1.227597e+01    2.690023e+00
  1.230773e+01    2.651651e+00
  1.233948e+01    2.729754e+00
  1.237123e+01    2.694453e+00
  1.240298e+01    2.647913e+00
  1.243473e+01    2.701989e+00
  1.246648e+01    2.721393e+00
  1.249823e+01    2.706110e+00
  1.252998e+01    2.669145e+00
  1.256174e+01    2.649669e+00
  1.259349e+01    2.704164e+00
  1.262524e+01    2.756579e+00
  1.265699e+01    2.771428e+00
  1.268874e+01    2.825988e+00
  1.272049e+01    2.850786e+00
  1.275224e+01    2.880682e+00
  1.278399e+01    2.930930e+00
  1.281574e+01    3.041899e+00
  1.284750e+01    3.164519e+00
  1.287925e+01    3.346777e+00
  1.291100e+01    3.628768e+00
  1.294275e+01    4.139570e+00
  1.297450e+01    4.717151e+00
  1.300625e+01    5.843285e+00
  1.303800e+01    7.670110e+00
  1.306975e+01    1.010526e+01
  1.310150e+01    1.255073e+01
  1.313326e+01    1.478547e+01
  1.316501e+01    1.616190e+01
  1.319676e+01    1.566413e+01
  1.322851e+01    1.243482e+01
  1.326026e+01    9.088156e+00
  1.329201e+01    6.799329e+00
  1.332376e+01    5.311165e+00
  1.335551e+01    4.424857e+00
  1.338727e+01    3.816890e+00
  1.341902e+01    3.457169e+00
  1.345077e+01    3.200974e+00
  1.348252e+01    3.059449e+00
  1.351427e+01    2.927534e+00
  1.354602e+01    2.874901e+00
  1.357777e+01    2.699787e+00
  1.360952e+01    2.648795e+00
  1.364127e+01    2.590562e+00
  1.367303e+01    2.560848e+00
  1.370478e+01    2.532756e+00
  1.373653e+01    2.536888e+00
  1.376828e+01    2.515049e+00
  1.380003e+01    2.484908e+00
  1.383178e+01    2.507101e+00
  1.386353e+01    2.433145e+00
  1.389528e+01    2.404998e+00
  1.392703e+01    2.422102e+00
  1.395879e+01    2.356929e+00
  1.399054e+01    2.368190e+00
  1.402229e+01    2.321798e+00
  1.405404e+01    2.340546e+00
  1.408579e+01    2.358301e+00
  1.411754e+01    2.276629e+00
  1.414929e+01    2.351229e+00
  1.418104e+01    2.296485e+00
  1.421279e+01    2.304280e+00
  1.424455e+01    2.318844e+00
  1.427630e+01    2.213874e+00
  1.430805e+01    2.265630e+00
  1.433980e+01    2.262084e+00
  1.437155e+01    2.219536e+00
  1.440330e+01    2.230859e+00
  1.443505e+01    2.216861e+00
  1.446680e+01    2.193578e+00
  1.449856e+01    2.215638e+00
  1.453031e+01    2.219982e+00
  1.456206e+01    2.208266e+00
  1.459381e+01    2.232919e+00
  1.462556e+01    2.215997e+00
  1.465731e+01    2.241145e+00
  1.468906e+01    2.134825e+00
  1.472081e+01    2.149837e+00
  1.475256e+01    2.183841e+00
  1.478432e+01    2.167355e+00
  1.481607e+01    2.192314e+00
  1.484782e+01    2.262412e+00
  1.487957e+01    2.193070e+00
  1.491132e+01    2.282502e+00
  1.494307e+01    2.279505e+00
  1.497482e+01    2.279822e+00
  1.500657e+01    2.408194e+00
  1.503832e+01    2.548415e+00
  1.507008e+01    2.838453e+00
  1.510183e+01    3.210107e+00
  1.513358e+01    3.798740e+00
  1.516533e+01    4.502821e+00
  1.519708e+01    5.140321e+00
  1.522883e+01    5.588713e+00
  1.526058e+01    5.730957e+00
  1.529233e+01    5.366949e+00
  1.532409e+01    4.676221e+00
  1.535584e+01    3.696517e+00
  1.538759e+01    3.150112e+00
  1.541934e+01    2.699862e+00
  1.545109e+01    2.488389e+00
  1.548284e+01    2.380090e+00
  1.551459e+01    2.266499e+00
  1.554634e+01    2.174654e+00
  1.557809e+01    2.101034e+00
  1.560985e+01    2.130605e+00
  1.564160e+01    2.042684e+00
  1.567335e+01    1.977469e+00
  1.570510e+01    2.006470e+00
  1.573685e+01    1.968545e+00
  1.576860e+01    1.946474e+00
  1.580035e+01    1.931396e+00
  1.583210e+01    1.898492e+00
  1.586385e+01    1.906540e+00
  1.589561e+01    1.925724e+00
  1.592736e+01    1.882271e+00
  1.595911e+01    1.885378e+00
  1.599086e+01    1.874217e+00
  1.602261e+01    1.852795e+00
  1.605436e+01    1.890052e+00
  1.608611e+01    1.853247e+00
  1.611786e+01    1.832639e+00
  1.614961e+01    1.862215e+00
  1.618137e+01    1.831311e+00
  1.621312e+01    1.837774e+00
  1.624487e+01    1.837148e+00
  1.627662e+01    1.790677e+00
  1.630837e+01    1.812931e+00
  1.634012e+01    1.796333e+00
  1.637187e+01    1.760839e+00
  1.640362e+01    1.779533e+00
  1.643538e+01    1.799089e+00
  1.646713e+01    1.766260e+00
  1.649888e+01    1.737443e+00
  1.653063e+01    1.753602e+00
  1.656238e+01    1.732592e+00
  1.659413e+01    1.692766e+00
  1.662588e+01    1.746680e+00
  1.665763e+01    1.726664e+00
  1.668938e+01    1.707426e+00
  1.672114e+01    1.699506e+00
  1.675289e+01    1.719681e+00
  1.678464e+01    1.693669e+00
  1.681639e+01    1.689390e+00
  1.684814e+01    1.718677e+00
  1.687989e+01    1.693722e+00
  1.691164e+01    1.686553e+00
  1.694339e+01    1.670127e+00
  1.697514e+01    1.650379e+00
  1.700690e+01    1.662040e+00
  1.703865e+01    1.658999e+00
  1.707040e+01    1.657960e+00
  1.710215e+01    1.658101e+00
  1.713390e+01    1.689760e+00
  1.716565e+01    1.664123e+00
  1.719740e+01    1.638873e+00
  1.722915e+01    1.622528e+00
  1.726091e+01    1.639386e+00
  1.729266e+01    1.626480e+00
  1.732441e+01    1.595625e+00
  1.735616e+01    1.597713e+00
  1.738791e+01    1.571084e+00
  1.741966e+01    1.632703e+00
  1.745141e+01    1.597935e+00
  1.748316e+01    1.584009e+00
  1.751491e+01    1.598201e+00
  1.754667e+01    1.590425e+00
  1.757842e+01    1.570997e+00
  1.761017e+01    1.589937e+00
  1.764192e+01    1.536617e+00
  1.767367e+01    1.534310e+00
  1.770542e+01    1.564545e+00
  1.773717e+01    1.534910e+00
  1.776892e+01    1.554939e+00
  1.780067e+01    1.498483e+00
  1.783243e+01    1.558283e+00
  1.786418e+01    1.560037e+00
  1.789593e+01    1.525163e+00
  1.792768e+01    1.510216e+00
  1.795943e+01    1.515750e+00
  1.799118e+01    1.488240e+00
  1.802293e+01    1.478135e+00
  1.805468e+01    1.504462e+00
  1.808643e+01    1.507514e+00
  1.811819e+01    1.490859e+00
  1.814994e+01    1.479190e+00
  1.818169e+01    1.496255e+00
  1.821344e+01    1.449219e+00
  1.824519e+01    1.461234e+00
  1.827694e+01    1.427436e+00
  1.830869e+01    1.467129e+00
  1.834044e+01    1.457788e+00
  1.837220e+01    1.428469e+00
  1.840395e+01    1.462752e+00
  1.843570e+01    1.437276e+00
  1.846745e+01    1.439125e+00
  1.849920e+01    1.437514e+00
  1.853095e+01    1.431704e+00
  1.856270e+01    1.441068e+00
  1.859445e+01    1.439142e+00
  1.862620e+01    1.429707e+00
  1.865796e+01    1.399029e+00
  1.868971e+01    1.396292e+00
  1.872146e+01    1.407749e+00
  1.875321e+01    1.425628e+00
  1.878496e+01    1.432438e+00
  1.881671e+01    1.414692e+00
  1.884846e+01    1.427608e+00
  1.888021e+01    1.373130e+00
  1.891196e+01    1.369669e+00
  1.894372e+01    1.385353e+00
  1.897547e+01    1.381570e+00
  1.900722e+01    1.396137e+00
  1.903897e+01    1.360648e+00
  1.907072e+01    1.406327e+00
  1.910247e+01    1.359083e+00
  1.913422e+01    1.336196e+00
  1.916597e+01    1.352611e+00
  1.919773e+01    1.348829e+00
  1.922948e+01    1.363017e+00
  1.926123e+01    1.358450e+00
  1.929298e+01    1.326374e+00
  1.932473e+01    1.357256e+00
  1.935648e+01    1.358774e+00
  1.938823e+01    1.331388e+00
  1.941998e+01    1.368536e+00
  1.945173e+01    1.324717e+00
  1.948349e+01    1.337267e+00
  1.951524e+01    1.311873e+00
  1.954699e+01    1.337430e+00
  1.957874e+01    1.335821e+00
  1.961049e+01    1.299401e+00
  1.964224e+01    1.310003e+00
  1.967399e+01    1.312790e+00
  1.970574e+01    1.293055e+00
  1.973749e+01    1.323647e+00
  1.976925e+01    1.306264e+00
  1.980100e+01    1.318458e+00
  1.983275e+01    1.313419e+00
  1.986450e+01    1.275468e+00
  1.989625e+01    1.285184e+00
  1.992800e+01    1.263532e+00
  1.995975e+01    1.283418e+00
  1.999150e+01    1.299539e+00
  2.002325e+01    1.269104e+00
  2.005501e+01    1.251463e+00
  2.008676e+01    1.266402e+00
  2.011851e+01    1.258821e+00
  2.015026e+01    1.264604e+00
  2.018201e+01    1.266745e+00
  2.021376e+01    1.250346e+00
  2.024551e+01    1.246658e+00
  2.027726e+01    1.257105e+00
  2.030902e+01    1.267959e+00
  2.034077e+01    1.241907e+00
  2.037252e+01    1.258940e+00
  2.040427e+01    1.268536e+00
  2.043602e+01    1.242220e+00
  2.046777e+01    1.249772e+00
  2.049952e+01    1.231923e+00
  2.053127e+01    1.259338e+00
  2.056302e+01    1.267480e+00
  2.059478e+01    1.264812e+00
  2.062653e+01    1.228477e+00
  2.065828e+01    1.238408e+00
  2.069003e+01    1.241084e+00
  2.072178e+01    1.214980e+00
  2.075353e+01    1.248927e+00
  2.078528e+01    1.236120e+00
  2.081703e+01    1.214785e+00
  2.084878e+01    1.212012e+00
  2.088054e+01    1.223762e+00
  2.091229e+01    1.212631e+00
  2.094404e+01    1.238713e+00
  2.097579e+01    1.191926e+00
  2.100754e+01    1.206381e+00
  2.103929e+01    1.235608e+00
  2.107104e+01    1.231335e+00
  2.110279e+01    1.218437e+00
  2.113455e+01    1.219311e+00
  2.116630e+01    1.240842e+00
  2.119805e+01    1.217926e+00
  2.122980e+01    1.238301e+00
  2.126155e+01    1.252383e+00
  2.129330e+01    1.265155e+00
  2.132505e+01    1.305352e+00
  2.135680e+01    1.282511e+00
  2.138855e+01    1.303625e+00
  2.142031e+01    1.333242e+00
  2.145206e+01    1.337769e+00
  2.148381e+01    1.369756e+00
  2.151556e+01    1.436270e+00
  2.154731e+01    1.498996e+00
  2.157906e+01    1.601209e+00
  2.161081e+01    1.769934e+00
  2.164256e+01    1.942856e+00
  2.167431e+01    2.259391e+00
  2.170607e+01    2.729617e+00
  2.173782e+01    3.497230e+00
  2.176957e+01    4.549229e+00
  2.180132e+01    5.770561e+00
  2.183307e+01    7.126889e+00
  2.186482e+01    8.354360e+00
  2.189657e+01    8.811673e+00
  2.192832e+01    8.258245e+00
  2.196007e+01    6.536952e+00
  2.199183e+01    4.863812e+00
  2.202358e+01    3.645262e+00
  2.205533e+01    2.854630e+00
  2.208708e+01    2.342026e+00
  2.211883e+01    1.938842e+00
  2.215058e+01    1.783575e+00
  2.218233e+01    1.616591e+00
  2.221408e+01    1.507021e+00
  2.224584e+01    1.421701e+00
  2.227759e+01    1.348015e+00
  2.230934e+01    1.295841e+00
  2.234109e+01    1.254341e+00
  2.237284e+01    1.249249e+00
  2.240459e+01    1.191445e+00
  2.243634e+01    1.192919e+00
  2.246809e+01    1.163421e+00
  2.249984e+01    1.163311e+00
  2.253160e+01    1.136399e+00
  2.256335e+01    1.132069e+00
  2.259510e+01    1.098821e+00
  2.262685e+01    1.089111e+00
  2.265860e+01    1.097860e+00
  2.269035e+01    1.081749e+00
  2.272210e+01    1.069695e+00
  2.275385e+01    1.045472e+00
  2.278560e+01    1.054652e+00
  2.281736e+01    1.049217e+00
  2.284911e+01    1.045403e+00
  2.288086e+01    1.015893e+00
  2.291261e+01    1.037868e+00
  2.294436e+01    1.029243e+00
  2.297611e+01    1.036941e+00
  2.300786e+01    1.019769e+00
  2.303961e+01    9.808763e-01
  2.307137e+01    1.003237e+00
  2.310312e+01    1.013512e+00
  2.313487e+01    1.006373e+00
  2.316662e+01    1.007030e+00
  2.319837e+01    9.899181e-01
  2.323012e+01    9.915019e-01
  2.326187e+01    9.981282e-01
  2.329362e+01    9.779899e-01
  2.332537e+01    9.826781e-01
  2.335713e+01    9.683440e-01
  2.338888e+01    9.979791e-01
  2.342063e+01    9.742920e-01
  2.345238e+01    9.794240e-01
  2.348413e+01    9.668253e-01
  2.351588e+01    9.371467e-01
  2.354763e+01    9.857187e-01
  2.357938e+01    9.727555e-01
  2.361113e+01    9.807876e-01
  2.364289e+01    9.407203e-01
  2.367464e+01    9.540357e-01
  2.370639e+01    9.511698e-01
  2.373814e+01    9.371738e-01
  2.376989e+01    9.403955e-01
  2.380164e+01    9.293462e-01
  2.383339e+01    9.060626e-01
  2.386514e+01    9.251615e-01
  2.389689e+01    9.352472e-01
  2.392865e+01    8.974724e-01
  2.396040e+01    9.040235e-01
  2.399215e+01    8.911214e-01
  2.402390e+01    8.946208e-01
  2.405565e+01    8.852189e-01
  2.408740e+01    8.719994e-01
  2.411915e+01    8.880945e-01
  2.415090e+01    9.077126e-01
  2.418266e+01    8.770036e-01
  2.421441e+01    8.791533e-01
  2.424616e+01    8.783252e-01
  2.427791e+01    8.926395e-01
  2.430966e+01    8.792365e-01
  2.434141e+01    9.023406e-01
  2.437316e+01    8.813221e-01
  2.440491e+01    8.788483e-01
  2.443666e+01    8.930891e-01
  2.446842e+01    9.013170e-01
  2.450017e+01    8.794937e-01
  2.453192e+01    8.973761e-01
  2.456367e+01    8.881298e-01
  2.459542e+01    8.948251e-01
  2.462717e+01    8.983796e-01
  2.465892e+01    9.079506e-01
  2.469067e+01    8.800715e-01
  2.472242e+01    8.928267e-01
  2.475418e+01    8.944473e-01
  2.478593e+01    8.926938e-01
  2.481768e+01    8.838359e-01
  2.484943e+01    8.963199e-01
  2.488118e+01    8.941458e-01
  2.491293e+01    8.715028e-01
  2.494468e+01    8.704355e-01
  2.497643e+01    8.756060e-01
  2.500819e+01    8.852204e-01
  2.503994e+01    8.941405e-01
  2.507169e+01    8.990087e-01
  2.510344e+01    8.956149e-01
  2.513519e+01    9.190539e-01
  2.516694e+01    9.142473e-01
  2.519869e+01    9.331161e-01
  2.523044e+01    9.293803e-01
  2.526219e+01    9.587355e-01
  2.529395e+01    9.531538e-01
  2.532570e+01    9.659307e-01
  2.535745e+01    9.565414e-01
  2.538920e+01    9.831332e-01
  2.542095e+01    1.016762e+00
  2.545270e+01    1.003804e+00
  2.548445e+01    1.032127e+00
  2.551620e+01    1.058689e+00
  2.554795e+01    1.109366e+00
  2.557971e+01    1.144399e+00
  2.561146e+01    1.202396e+00
  2.564321e+01    1.290898e+00
  2.567496e+01    1.423848e+00
  2.570671e+01    1.602711e+00
  2.573846e+01    1.806375e+00
  2.577021e+01    2.221397e+00
  2.580196e+01    2.753250e+00
  2.583371e+01    3.602705e+00
  2.586547e+01    4.619861e+00
  2.589722e+01    5.771163e+00
  2.592897e+01    6.693889e+00
  2.596072e+01    7.129244e+00
  2.599247e+01    6.447972e+00
  2.602422e+01    5.291426e+00
  2.605597e+01    4.013217e+00
  2.608772e+01    2.990837e+00
  2.611948e+01    2.372793e+00
  2.615123e+01    1.958606e+00
  2.618298e+01    1.701197e+00
  2.621473e+01    1.496926e+00
  2.624648e+01    1.367799e+00
  2.627823e+01    1.232272e+00
  2.630998e+01    1.176894e+00
  2.634173e+01    1.114230e+00
  2.637348e+01    1.083950e+00
  2.640524e+01    1.055201e+00
  2.643699e+01    1.015194e+00
  2.646874e+01    1.051288e+00
  2.650049e+01    9.995638e-01
  2.653224e+01    1.006482e+00
  2.656399e+01    9.879016e-01
  2.659574e+01    9.848331e-01
  2.662749e+01    9.916295e-01
  2.665924e+01    9.950703e-01
  2.669100e+01    9.740874e-01
  2.672275e+01    9.762015e-01
  2.675450e+01    9.569073e-01
  2.678625e+01    9.801508e-01
  2.681800e+01    9.770730e-01
  2.684975e+01    9.818194e-01
  2.688150e+01    9.685273e-01
  2.691325e+01    9.897473e-01
  2.694501e+01    1.016150e+00
  2.697676e+01    1.053271e+00
  2.700851e+01    1.099879e+00
  2.704026e+01    1.192168e+00
  2.707201e+01    1.327934e+00
  2.710376e+01    1.477115e+00
  2.713551e+01    1.712172e+00
  2.716726e+01    1.958987e+00
  2.719901e+01    2.118795e+00
  2.723077e+01    2.156502e+00
  2.726252e+01    1.971741e+00
  2.729427e+01    1.707267e+00
  2.732602e+01    1.467041e+00
  2.735777e+01    1.273223e+00
  2.738952e+01    1.156963e+00
  2.742127e+01    1.082879e+00
  2.745302e+01    1.024050e+00
  2.748477e+01    1.007204e+00
  2.751653e+01    9.616382e-01
  2.754828e+01    9.459431e-01
  2.758003e+01    9.200907e-01
  2.761178e+01    9.195480e-01
  2.764353e+01    9.076602e-01
  2.767528e+01    9.184133e-01
  2.770703e+01    8.969182e-01
  2.773878e+01    8.858486e-01
  2.777054e+01    9.152656e-01
  2.780229e+01    8.723447e-01
  2.783404e+01    8.853473e-01
  2.786579e+01    8.578435e-01
  2.789754e+01    8.719399e-01
  2.792929e+01    8.544204e-01
  2.796104e+01    8.507937e-01
  2.799279e+01    8.529781e-01
  2.802454e+01    8.627849e-01
  2.805630e+01    8.393207e-01
  2.808805e+01    8.493591e-01
  2.811980e+01    8.452083e-01
  2.815155e+01    8.695244e-01
  2.818330e+01    8.526651e-01
  2.821505e+01    8.432833e-01
  2.824680e+01    8.398223e-01
  2.827855e+01    8.585325e-01
  2.831030e+01    8.349096e-01
  2.834206e+01    8.545701e-01
  2.837381e+01    8.462709e-01
  2.840556e+01    8.395071e-01
  2.843731e+01    8.263655e-01
  2.846906e+01    8.087517e-01
  2.850081e+01    8.221760e-01
  2.853256e+01    8.309989e-01
  2.856431e+01    8.267426e-01
  2.859606e+01    8.427980e-01
  2.862782e+01    8.456088e-01
  2.865957e+01    8.543827e-01
  2.869132e+01    8.361655e-01
  2.872307e+01    8.411438e-01
  2.875482e+01    8.235126e-01
  2.878657e+01    8.286561e-01
  2.881832e+01    8.203277e-01
  2.885007e+01    8.202564e-01
  2.888183e+01    8.377978e-01
  2.891358e+01    8.085312e-01
  2.894533e+01    8.267988e-01
  2.897708e+01    8.394396e-01
  2.900883e+01    8.016215e-01
  2.904058e+01    8.003737e-01
  2.907233e+01    8.081230e-01
  2.910408e+01    8.119323e-01
  2.913583e+01    8.066134e-01
  2.916759e+01    8.121601e-01
  2.919934e+01    8.136267e-01
  2.923109e+01    7.935781e-01
  2.926284e+01    8.129225e-01
  2.929459e+01    7.987042e-01
  2.932634e+01    8.153960e-01
  2.935809e+01    8.192918e-01
  2.938984e+01    8.077586e-01
  2.942159e+01    8.142534e-01
  2.945335e+01    8.189026e-01
  2.948510e+01    7.879760e-01
  2.951685e+01    8.142707e-01
  2.954860e+01    7.959611e-01
  2.958035e+01    7.893950e-01
  2.961210e+01    7.866164e-01
  2.964385e+01    7.947021e-01
  2.967560e+01    7.729753e-01
  2.970736e+01    7.927759e-01
  2.973911e+01    7.979615e-01
  2.977086e+01    7.963036e-01
  2.980261e+01    7.942364e-01
  2.983436e+01    7.916155e-01
  2.986611e+01    7.899709e-01
  2.989786e+01    7.910797e-01
  2.992961e+01    7.975137e-01
  2.996136e+01    7.864370e-01
  2.999312e+01    7.914324e-01
  3.002487e+01    7.918078e-01
  3.005662e+01    8.212503e-01
  3.008837e+01    8.050851e-01
  3.012012e+01    7.773739e-01
  3.015187e+01    8.004566e-01
  3.018362e+01    8.031836e-01
  3.021537e+01    7.887036e-01
  3.024712e+01    7.759004e-01
  3.027888e+01    7.885128e-01
  3.031063e+01    7.742195e-01
  3.034238e+01    7.738329e-01
  3.037413e+01    7.946863e-01
  3.040588e+01    7.882291e-01
  3.043763e+01    7.986957e-01
  3.046938e+01    7.934588e-01
  3.050113e+01    7.775769e-01
  3.053288e+01    7.800294e-01
  3.056464e+01    7.807040e-01
  3.059639e+01    7.766746e-01
  3.062814e+01    7.855213e-01
  3.065989e+01    8.007243e-01
  3.069164e+01    7.684205e-01
  3.072339e+01    7.844155e-01
  3.075514e+01    7.759755e-01
  3.078689e+01    7.487636e-01
  3.081865e+01    7.571093e-01
  3.085040e+01    7.575682e-01
  3.088215e+01    7.696244e-01
  3.091390e+01    7.758319e-01
  3.094565e+01    7.813705e-01
  3.097740e+01    7.901765e-01
  3.100915e+01    7.836449e-01
  3.104090e+01    7.585014e-01
  3.107265e+01    7.721089e-01
  3.110441e+01    7.789584e-01
  3.113616e+01    7.827514e-01
  3.116791e+01    7.813715e-01
  3.119966e+01    7.924824e-01
  3.123141e+01    7.886945e-01
  3.126316e+01    8.145953e-01
  3.129491e+01    7.916365e-01
  3.132666e+01    7.926944e-01
  3.135841e+01    8.152684e-01
  3.139017e+01    7.886420e-01
  3.142192e+01    8.090270e-01
  3.145367e+01    8.210930e-01
  3.148542e+01    8.076150e-01
  3.151717e+01    8.168972e-01
  3.154892e+01    8.421491e-01
  3.158067e+01    8.574296e-01
  3.161242e+01    8.721701e-01
  3.164418e+01    9.264672e-01
  3.167593e+01    9.719073e-01
  3.170768e+01    1.022899e+00
  3.173943e+01    1.122751e+00
  3.177118e+01    1.247128e+00
  3.180293e+01    1.437849e+00
  3.183468e+01    1.715575e+00
  3.186643e+01    1.916022e+00
  3.189818e+01    2.070847e+00
  3.192994e+01    1.992020e+00
  3.196169e+01    1.799273e+00
  3.199344e+01    1.574019e+00
  3.202519e+01    1.319466e+00
  3.205694e+01    1.140065e+00
  3.208869e+01    1.046259e+00
  3.212044e+01    9.825860e-01
  3.215219e+01    8.963991e-01
  3.218394e+01    8.837661e-01
  3.221570e+01    8.836525e-01
  3.224745e+01    7.978113e-01
  3.227920e+01    8.189536e-01
  3.231095e+01    8.045023e-01
  3.234270e+01    8.008713e-01
  3.237445e+01    7.869523e-01
  3.240620e+01    7.830778e-01
  3.243795e+01    8.052912e-01
  3.246970e+01    7.648720e-01
  3.250146e+01    7.442788e-01
  3.253321e+01    7.682934e-01
  3.254908e+01    7.547859e-01