File: XRD/Reaction conditions/2024-07-27_003_Ru-CGO-ex_Reaction_dwell_000023_data_000168.dat
# == pyFAI calibration ==
# Distance Sample to Detector: 0.4 m
# PONI: 9.750e-02, 1.135e-01 m
# Rotations: -0.000175 0.000000 -0.000000 rad
#
# == Fit2d calibration ==
# Distance Sample-beamCenter: 400.000 mm
# Center: x=1514.000, y=1300.000 pix
# Tilt: 0.010 deg  TiltPlanRot: 0.010 deg
#
# Detector Detector	 Spline= None	 PixelSize= 7.500e-05, 7.500e-05 m
#    Detector has a mask: False
#    Detector has a dark current: False
#    detector has a flat field: False
#
# Wavelength: 6.888e-11 m
# Mask applied: user provided
# Dark current applied: False
# Flat field applied: False
# Polarization factor: 0.99
# Normalization factor: 1.0
# --> /home/myspot/data/2024_07_Rosario/Ru-CGO-ex/2024-07-27_003_Ru-CGO-ex_Reaction_dwell_000023_data_000168.dat
#       q_nm^-1             I
  2.003187e-02    0.000000e+00
  5.178302e-02    2.670345e-02
  8.353417e-02    2.004095e-01
  1.152853e-01    5.577515e-02
  1.470365e-01    4.782688e-02
  1.787876e-01    7.571593e-02
  2.105388e-01    4.172035e-02
  2.422899e-01    3.901599e-02
  2.740411e-01    4.537906e-02
  3.057922e-01    1.252654e-02
  3.375433e-01    6.226616e-02
  3.692945e-01    1.403091e-02
  4.010456e-01    7.129736e-02
  4.327968e-01    6.278903e-02
  4.645479e-01    5.348338e-02
  4.962991e-01    8.362560e-03
  5.280502e-01    3.148757e-02
  5.598014e-01    2.071904e-02
  5.915525e-01    3.665875e-02
  6.233037e-01    3.274965e-02
  6.550548e-01    3.995382e-02
  6.868060e-01    4.183586e-02
  7.185571e-01    4.868599e-02
  7.503083e-01    6.611635e-02
  7.820594e-01    1.090267e-01
  8.138106e-01    2.315399e-01
  8.455617e-01    2.984136e-01
  8.773129e-01    4.617304e-01
  9.090640e-01    6.746286e-01
  9.408152e-01    8.212242e-01
  9.725663e-01    9.829869e-01
  1.004317e+00    1.200724e+00
  1.036069e+00    1.372592e+00
  1.067820e+00    1.428147e+00
  1.099571e+00    1.551482e+00
  1.131322e+00    1.517181e+00
  1.163073e+00    1.718769e+00
  1.194824e+00    1.811510e+00
  1.226575e+00    2.305084e+00
  1.258327e+00    2.400817e+00
  1.290078e+00    2.522951e+00
  1.321829e+00    2.700219e+00
  1.353580e+00    2.695721e+00
  1.385331e+00    2.767899e+00
  1.417082e+00    2.708059e+00
  1.448834e+00    2.907069e+00
  1.480585e+00    3.209442e+00
  1.512336e+00    3.173725e+00
  1.544087e+00    3.126814e+00
  1.575838e+00    3.305699e+00
  1.607589e+00    3.108016e+00
  1.639340e+00    3.144549e+00
  1.671092e+00    2.939480e+00
  1.702843e+00    2.983973e+00
  1.734594e+00    3.113219e+00
  1.766345e+00    3.106666e+00
  1.798096e+00    3.002620e+00
  1.829847e+00    3.061204e+00
  1.861598e+00    3.020012e+00
  1.893350e+00    2.914160e+00
  1.925101e+00    3.097119e+00
  1.956852e+00    3.004253e+00
  1.988603e+00    3.150487e+00
  2.020354e+00    3.001796e+00
  2.052105e+00    3.125891e+00
  2.083856e+00    3.119399e+00
  2.115608e+00    3.132062e+00
  2.147359e+00    3.057021e+00
  2.179110e+00    2.933710e+00
  2.210861e+00    3.003006e+00
  2.242612e+00    3.139169e+00
  2.274363e+00    3.043142e+00
  2.306115e+00    3.111365e+00
  2.337866e+00    3.148869e+00
  2.369617e+00    2.989011e+00
  2.401368e+00    3.032259e+00
  2.433119e+00    3.156265e+00
  2.464870e+00    3.072014e+00
  2.496621e+00    2.991635e+00
  2.528373e+00    3.084945e+00
  2.560124e+00    3.215131e+00
  2.591875e+00    3.117043e+00
  2.623626e+00    3.160902e+00
  2.655377e+00    3.209877e+00
  2.687128e+00    3.152203e+00
  2.718879e+00    3.284646e+00
  2.750631e+00    3.322105e+00
  2.782382e+00    3.381642e+00
  2.814133e+00    3.233978e+00
  2.845884e+00    3.331271e+00
  2.877635e+00    3.361449e+00
  2.909386e+00    3.251286e+00
  2.941137e+00    3.284081e+00
  2.972889e+00    3.390048e+00
  3.004640e+00    3.305546e+00
  3.036391e+00    3.278806e+00
  3.068142e+00    3.307952e+00
  3.099893e+00    3.337087e+00
  3.131644e+00    3.220996e+00
  3.163395e+00    3.397406e+00
  3.195147e+00    3.326773e+00
  3.226898e+00    3.353700e+00
  3.258649e+00    3.370380e+00
  3.290400e+00    3.319034e+00
  3.322151e+00    3.346535e+00
  3.353902e+00    3.243538e+00
  3.385654e+00    3.451848e+00
  3.417405e+00    3.289412e+00
  3.449156e+00    3.303146e+00
  3.480907e+00    3.415962e+00
  3.512658e+00    3.354716e+00
  3.544409e+00    3.385504e+00
  3.576160e+00    3.372348e+00
  3.607912e+00    3.401335e+00
  3.639663e+00    3.505266e+00
  3.671414e+00    3.489592e+00
  3.703165e+00    3.406521e+00
  3.734916e+00    3.563975e+00
  3.766667e+00    3.431571e+00
  3.798418e+00    3.386742e+00
  3.830170e+00    3.487820e+00
  3.861921e+00    3.463478e+00
  3.893672e+00    3.377911e+00
  3.925423e+00    3.453769e+00
  3.957174e+00    3.494424e+00
  3.988925e+00    3.325762e+00
  4.020676e+00    3.474783e+00
  4.052428e+00    3.469586e+00
  4.084179e+00    3.571468e+00
  4.115930e+00    3.467170e+00
  4.147681e+00    3.447671e+00
  4.179432e+00    3.598988e+00
  4.211183e+00    3.518739e+00
  4.242935e+00    3.309279e+00
  4.274686e+00    3.469979e+00
  4.306437e+00    3.470053e+00
  4.338188e+00    3.537230e+00
  4.369939e+00    3.549332e+00
  4.401690e+00    3.561607e+00
  4.433441e+00    3.541253e+00
  4.465193e+00    3.528720e+00
  4.496944e+00    3.539278e+00
  4.528695e+00    3.511418e+00
  4.560446e+00    3.585504e+00
  4.592197e+00    3.527102e+00
  4.623948e+00    3.565886e+00
  4.655699e+00    3.579875e+00
  4.687451e+00    3.551843e+00
  4.719202e+00    3.520335e+00
  4.750953e+00    3.542912e+00
  4.782704e+00    3.611871e+00
  4.814455e+00    3.579381e+00
  4.846206e+00    3.662894e+00
  4.877957e+00    3.552107e+00
  4.909709e+00    3.562105e+00
  4.941460e+00    3.680816e+00
  4.973211e+00    3.667069e+00
  5.004962e+00    3.625069e+00
  5.036713e+00    3.671215e+00
  5.068464e+00    3.622538e+00
  5.100216e+00    3.564933e+00
  5.131967e+00    3.647445e+00
  5.163718e+00    3.601221e+00
  5.195469e+00    3.672441e+00
  5.227220e+00    3.607786e+00
  5.258971e+00    3.590894e+00
  5.290722e+00    3.669324e+00
  5.322474e+00    3.609647e+00
  5.354225e+00    3.618556e+00
  5.385976e+00    3.652338e+00
  5.417727e+00    3.580411e+00
  5.449478e+00    3.510525e+00
  5.481229e+00    3.532040e+00
  5.512980e+00    3.510005e+00
  5.544732e+00    3.526155e+00
  5.576483e+00    3.560794e+00
  5.608234e+00    3.572235e+00
  5.639985e+00    3.602955e+00
  5.671736e+00    3.514360e+00
  5.703487e+00    3.504826e+00
  5.735238e+00    3.568903e+00
  5.766990e+00    3.597315e+00
  5.798741e+00    3.549519e+00
  5.830492e+00    3.510478e+00
  5.862243e+00    3.592056e+00
  5.893994e+00    3.523226e+00
  5.925745e+00    3.486489e+00
  5.957497e+00    3.486707e+00
  5.989248e+00    3.429782e+00
  6.020999e+00    3.511211e+00
  6.052750e+00    3.548696e+00
  6.084501e+00    3.585674e+00
  6.116252e+00    3.563208e+00
  6.148003e+00    3.601459e+00
  6.179755e+00    3.454725e+00
  6.211506e+00    3.533336e+00
  6.243257e+00    3.531662e+00
  6.275008e+00    3.557797e+00
  6.306759e+00    3.446971e+00
  6.338510e+00    3.516172e+00
  6.370261e+00    3.533480e+00
  6.402013e+00    3.504679e+00
  6.433764e+00    3.640499e+00
  6.465515e+00    3.482560e+00
  6.497266e+00    3.543694e+00
  6.529017e+00    3.552578e+00
  6.560768e+00    3.535976e+00
  6.592519e+00    3.545857e+00
  6.624271e+00    3.463874e+00
  6.656022e+00    3.473866e+00
  6.687773e+00    3.528270e+00
  6.719524e+00    3.437610e+00
  6.751275e+00    3.483202e+00
  6.783026e+00    3.499029e+00
  6.814777e+00    3.544630e+00
  6.846529e+00    3.501785e+00
  6.878280e+00    3.504019e+00
  6.910031e+00    3.519838e+00
  6.941782e+00    3.517258e+00
  6.973533e+00    3.490119e+00
  7.005284e+00    3.449959e+00
  7.037036e+00    3.449342e+00
  7.068787e+00    3.520617e+00
  7.100538e+00    3.440745e+00
  7.132289e+00    3.508696e+00
  7.164040e+00    3.411287e+00
  7.195791e+00    3.469367e+00
  7.227542e+00    3.427505e+00
  7.259294e+00    3.489795e+00
  7.291045e+00    3.459038e+00
  7.322796e+00    3.506581e+00
  7.354547e+00    3.460572e+00
  7.386298e+00    3.379977e+00
  7.418049e+00    3.525293e+00
  7.449800e+00    3.429719e+00
  7.481552e+00    3.460867e+00
  7.513303e+00    3.431302e+00
  7.545054e+00    3.383675e+00
  7.576805e+00    3.375257e+00
  7.608556e+00    3.433050e+00
  7.640307e+00    3.441131e+00
  7.672058e+00    3.506186e+00
  7.703810e+00    3.393473e+00
  7.735561e+00    3.403343e+00
  7.767312e+00    3.454640e+00
  7.799063e+00    3.325172e+00
  7.830814e+00    3.416794e+00
  7.862565e+00    3.373955e+00
  7.894317e+00    3.481580e+00
  7.926068e+00    3.421275e+00
  7.957819e+00    3.389061e+00
  7.989570e+00    3.371818e+00
  8.021321e+00    3.414187e+00
  8.053072e+00    3.360659e+00
  8.084823e+00    3.376973e+00
  8.116575e+00    3.454825e+00
  8.148326e+00    3.430960e+00
  8.180077e+00    3.377500e+00
  8.211828e+00    3.472769e+00
  8.243579e+00    3.487312e+00
  8.275330e+00    3.467783e+00
  8.307081e+00    3.337601e+00
  8.338833e+00    3.416973e+00
  8.370584e+00    3.384135e+00
  8.402335e+00    3.368182e+00
  8.434086e+00    3.315346e+00
  8.465837e+00    3.361031e+00
  8.497588e+00    3.274307e+00
  8.529339e+00    3.320136e+00
  8.561091e+00    3.275379e+00
  8.592842e+00    3.350586e+00
  8.624593e+00    3.228101e+00
  8.656344e+00    3.320283e+00
  8.688095e+00    3.275069e+00
  8.719846e+00    3.311295e+00
  8.751598e+00    3.338293e+00
  8.783349e+00    3.341740e+00
  8.815100e+00    3.210117e+00
  8.846851e+00    3.229417e+00
  8.878602e+00    3.357145e+00
  8.910353e+00    3.241369e+00
  8.942104e+00    3.303629e+00
  8.973856e+00    3.349411e+00
  9.005607e+00    3.296676e+00
  9.037358e+00    3.267156e+00
  9.069109e+00    3.190905e+00
  9.100860e+00    3.282938e+00
  9.132611e+00    3.254951e+00
  9.164362e+00    3.263907e+00
  9.196114e+00    3.254850e+00
  9.227865e+00    3.241596e+00
  9.259616e+00    3.234314e+00
  9.291367e+00    3.291085e+00
  9.323118e+00    3.219642e+00
  9.354869e+00    3.213160e+00
  9.386620e+00    3.192805e+00
  9.418372e+00    3.204839e+00
  9.450123e+00    3.143059e+00
  9.481874e+00    3.203888e+00
  9.513625e+00    3.169740e+00
  9.545376e+00    3.159464e+00
  9.577127e+00    3.159323e+00
  9.608878e+00    3.235650e+00
  9.640630e+00    3.151966e+00
  9.672381e+00    3.168908e+00
  9.704132e+00    3.163885e+00
  9.735883e+00    3.204211e+00
  9.767634e+00    3.149755e+00
  9.799385e+00    3.107119e+00
  9.831137e+00    3.131164e+00
  9.862888e+00    3.107019e+00
  9.894639e+00    3.148507e+00
  9.926390e+00    3.097088e+00
  9.958141e+00    3.103439e+00
  9.989892e+00    3.106979e+00
  1.002164e+01    3.116806e+00
  1.005339e+01    3.092167e+00
  1.008515e+01    3.049625e+00
  1.011690e+01    3.117937e+00
  1.014865e+01    3.033971e+00
  1.018040e+01    3.087080e+00
  1.021215e+01    3.071860e+00
  1.024390e+01    3.004205e+00
  1.027565e+01    3.092047e+00
  1.030740e+01    2.970720e+00
  1.033915e+01    3.050972e+00
  1.037091e+01    2.997124e+00
  1.040266e+01    2.966260e+00
  1.043441e+01    3.017435e+00
  1.046616e+01    2.967160e+00
  1.049791e+01    2.986943e+00
  1.052966e+01    3.041330e+00
  1.056141e+01    2.996302e+00
  1.059316e+01    2.966389e+00
  1.062492e+01    3.008806e+00
  1.065667e+01    2.953598e+00
  1.068842e+01    2.946085e+00
  1.072017e+01    2.897357e+00
  1.075192e+01    2.979623e+00
  1.078367e+01    2.934176e+00
  1.081542e+01    2.956620e+00
  1.084717e+01    2.881738e+00
  1.087892e+01    2.864461e+00
  1.091068e+01    2.857231e+00
  1.094243e+01    2.888071e+00
  1.097418e+01    2.905762e+00
  1.100593e+01    2.883586e+00
  1.103768e+01    2.881298e+00
  1.106943e+01    2.875934e+00
  1.110118e+01    2.874613e+00
  1.113293e+01    2.866661e+00
  1.116468e+01    2.830644e+00
  1.119644e+01    2.814737e+00
  1.122819e+01    2.807013e+00
  1.125994e+01    2.802796e+00
  1.129169e+01    2.842616e+00
  1.132344e+01    2.793852e+00
  1.135519e+01    2.792973e+00
  1.138694e+01    2.789955e+00
  1.141869e+01    2.790937e+00
  1.145045e+01    2.760894e+00
  1.148220e+01    2.781835e+00
  1.151395e+01    2.772008e+00
  1.154570e+01    2.728999e+00
  1.157745e+01    2.717723e+00
  1.160920e+01    2.801845e+00
  1.164095e+01    2.716029e+00
  1.167270e+01    2.763468e+00
  1.170445e+01    2.723118e+00
  1.173621e+01    2.792996e+00
  1.176796e+01    2.749020e+00
  1.179971e+01    2.713238e+00
  1.183146e+01    2.706659e+00
  1.186321e+01    2.686074e+00
  1.189496e+01    2.677024e+00
  1.192671e+01    2.737214e+00
  1.195846e+01    2.658483e+00
  1.199021e+01    2.661663e+00
  1.202197e+01    2.670167e+00
  1.205372e+01    2.696872e+00
  1.208547e+01    2.702804e+00
  1.211722e+01    2.720052e+00
  1.214897e+01    2.642698e+00
  1.218072e+01    2.672747e+00
  1.221247e+01    2.697139e+00
  1.224422e+01    2.667243e+00
  1.227597e+01    2.646106e+00
  1.230773e+01    2.677591e+00
  1.233948e+01    2.660917e+00
  1.237123e+01    2.648765e+00
  1.240298e+01    2.699555e+00
  1.243473e+01    2.675706e+00
  1.246648e+01    2.649912e+00
  1.249823e+01    2.667403e+00
  1.252998e+01    2.681378e+00
  1.256174e+01    2.659662e+00
  1.259349e+01    2.693730e+00
  1.262524e+01    2.773776e+00
  1.265699e+01    2.732973e+00
  1.268874e+01    2.777061e+00
  1.272049e+01    2.845581e+00
  1.275224e+01    2.835997e+00
  1.278399e+01    2.928430e+00
  1.281574e+01    2.989240e+00
  1.284750e+01    3.203437e+00
  1.287925e+01    3.408672e+00
  1.291100e+01    3.613168e+00
  1.294275e+01    4.040032e+00
  1.297450e+01    4.658807e+00
  1.300625e+01    5.825468e+00
  1.303800e+01    7.665035e+00
  1.306975e+01    1.005209e+01
  1.310150e+01    1.256334e+01
  1.313326e+01    1.470768e+01
  1.316501e+01    1.615214e+01
  1.319676e+01    1.546556e+01
  1.322851e+01    1.233619e+01
  1.326026e+01    8.975201e+00
  1.329201e+01    6.686885e+00
  1.332376e+01    5.320517e+00
  1.335551e+01    4.417040e+00
  1.338727e+01    3.869051e+00
  1.341902e+01    3.441366e+00
  1.345077e+01    3.173715e+00
  1.348252e+01    3.017160e+00
  1.351427e+01    2.872293e+00
  1.354602e+01    2.763569e+00
  1.357777e+01    2.729980e+00
  1.360952e+01    2.637807e+00
  1.364127e+01    2.578554e+00
  1.367303e+01    2.514533e+00
  1.370478e+01    2.505692e+00
  1.373653e+01    2.493280e+00
  1.376828e+01    2.454879e+00
  1.380003e+01    2.461732e+00
  1.383178e+01    2.433786e+00
  1.386353e+01    2.395708e+00
  1.389528e+01    2.394515e+00
  1.392703e+01    2.384934e+00
  1.395879e+01    2.310759e+00
  1.399054e+01    2.323665e+00
  1.402229e+01    2.304575e+00
  1.405404e+01    2.319420e+00
  1.408579e+01    2.295023e+00
  1.411754e+01    2.330047e+00
  1.414929e+01    2.285792e+00
  1.418104e+01    2.316494e+00
  1.421279e+01    2.289951e+00
  1.424455e+01    2.249799e+00
  1.427630e+01    2.243840e+00
  1.430805e+01    2.232258e+00
  1.433980e+01    2.217648e+00
  1.437155e+01    2.261504e+00
  1.440330e+01    2.215574e+00
  1.443505e+01    2.221117e+00
  1.446680e+01    2.207325e+00
  1.449856e+01    2.182761e+00
  1.453031e+01    2.207216e+00
  1.456206e+01    2.201899e+00
  1.459381e+01    2.163347e+00
  1.462556e+01    2.194752e+00
  1.465731e+01    2.235469e+00
  1.468906e+01    2.174845e+00
  1.472081e+01    2.178562e+00
  1.475256e+01    2.171167e+00
  1.478432e+01    2.184853e+00
  1.481607e+01    2.179627e+00
  1.484782e+01    2.207983e+00
  1.487957e+01    2.186006e+00
  1.491132e+01    2.201157e+00
  1.494307e+01    2.239611e+00
  1.497482e+01    2.329104e+00
  1.500657e+01    2.398899e+00
  1.503832e+01    2.582110e+00
  1.507008e+01    2.755202e+00
  1.510183e+01    3.185617e+00
  1.513358e+01    3.739524e+00
  1.516533e+01    4.535708e+00
  1.519708e+01    5.111402e+00
  1.522883e+01    5.487510e+00
  1.526058e+01    5.704770e+00
  1.529233e+01    5.356726e+00
  1.532409e+01    4.565312e+00
  1.535584e+01    3.703594e+00
  1.538759e+01    3.136817e+00
  1.541934e+01    2.713194e+00
  1.545109e+01    2.479103e+00
  1.548284e+01    2.336124e+00
  1.551459e+01    2.174129e+00
  1.554634e+01    2.163009e+00
  1.557809e+01    2.140626e+00
  1.560985e+01    2.054420e+00
  1.564160e+01    2.044796e+00
  1.567335e+01    2.025644e+00
  1.570510e+01    1.981262e+00
  1.573685e+01    1.920214e+00
  1.576860e+01    1.921770e+00
  1.580035e+01    1.922361e+00
  1.583210e+01    1.940527e+00
  1.586385e+01    1.909427e+00
  1.589561e+01    1.898228e+00
  1.592736e+01    1.900725e+00
  1.595911e+01    1.857370e+00
  1.599086e+01    1.904745e+00
  1.602261e+01    1.844884e+00
  1.605436e+01    1.836884e+00
  1.608611e+01    1.829897e+00
  1.611786e+01    1.858080e+00
  1.614961e+01    1.832529e+00
  1.618137e+01    1.773836e+00
  1.621312e+01    1.754611e+00
  1.624487e+01    1.795769e+00
  1.627662e+01    1.794852e+00
  1.630837e+01    1.763000e+00
  1.634012e+01    1.744145e+00
  1.637187e+01    1.797457e+00
  1.640362e+01    1.731097e+00
  1.643538e+01    1.750568e+00
  1.646713e+01    1.754996e+00
  1.649888e+01    1.718441e+00
  1.653063e+01    1.725158e+00
  1.656238e+01    1.720794e+00
  1.659413e+01    1.696990e+00
  1.662588e+01    1.683107e+00
  1.665763e+01    1.717051e+00
  1.668938e+01    1.747119e+00
  1.672114e+01    1.710548e+00
  1.675289e+01    1.682067e+00
  1.678464e+01    1.710860e+00
  1.681639e+01    1.693971e+00
  1.684814e+01    1.685236e+00
  1.687989e+01    1.687743e+00
  1.691164e+01    1.666588e+00
  1.694339e+01    1.682690e+00
  1.697514e+01    1.626770e+00
  1.700690e+01    1.647561e+00
  1.703865e+01    1.656972e+00
  1.707040e+01    1.619919e+00
  1.710215e+01    1.604503e+00
  1.713390e+01    1.635360e+00
  1.716565e+01    1.640198e+00
  1.719740e+01    1.615815e+00
  1.722915e+01    1.614462e+00
  1.726091e+01    1.591696e+00
  1.729266e+01    1.606995e+00
  1.732441e+01    1.576564e+00
  1.735616e+01    1.584324e+00
  1.738791e+01    1.618192e+00
  1.741966e+01    1.573995e+00
  1.745141e+01    1.595895e+00
  1.748316e+01    1.573371e+00
  1.751491e+01    1.598355e+00
  1.754667e+01    1.600092e+00
  1.757842e+01    1.568584e+00
  1.761017e+01    1.545487e+00
  1.764192e+01    1.555242e+00
  1.767367e+01    1.567790e+00
  1.770542e+01    1.509224e+00
  1.773717e+01    1.544111e+00
  1.776892e+01    1.501316e+00
  1.780067e+01    1.525554e+00
  1.783243e+01    1.538115e+00
  1.786418e+01    1.516278e+00
  1.789593e+01    1.535823e+00
  1.792768e+01    1.511110e+00
  1.795943e+01    1.496282e+00
  1.799118e+01    1.481060e+00
  1.802293e+01    1.498094e+00
  1.805468e+01    1.452964e+00
  1.808643e+01    1.491970e+00
  1.811819e+01    1.481598e+00
  1.814994e+01    1.458612e+00
  1.818169e+01    1.458941e+00
  1.821344e+01    1.448933e+00
  1.824519e+01    1.518511e+00
  1.827694e+01    1.477842e+00
  1.830869e+01    1.437617e+00
  1.834044e+01    1.428484e+00
  1.837220e+01    1.458393e+00
  1.840395e+01    1.434716e+00
  1.843570e+01    1.445376e+00
  1.846745e+01    1.443798e+00
  1.849920e+01    1.436696e+00
  1.853095e+01    1.411587e+00
  1.856270e+01    1.419971e+00
  1.859445e+01    1.407486e+00
  1.862620e+01    1.411221e+00
  1.865796e+01    1.435198e+00
  1.868971e+01    1.410623e+00
  1.872146e+01    1.407930e+00
  1.875321e+01    1.416996e+00
  1.878496e+01    1.411488e+00
  1.881671e+01    1.391554e+00
  1.884846e+01    1.401218e+00
  1.888021e+01    1.371486e+00
  1.891196e+01    1.336594e+00
  1.894372e+01    1.404257e+00
  1.897547e+01    1.379914e+00
  1.900722e+01    1.354127e+00
  1.903897e+01    1.339957e+00
  1.907072e+01    1.353244e+00
  1.910247e+01    1.399004e+00
  1.913422e+01    1.372039e+00
  1.916597e+01    1.340434e+00
  1.919773e+01    1.320789e+00
  1.922948e+01    1.358125e+00
  1.926123e+01    1.349371e+00
  1.929298e+01    1.348017e+00
  1.932473e+01    1.337059e+00
  1.935648e+01    1.315045e+00
  1.938823e+01    1.308942e+00
  1.941998e+01    1.304164e+00
  1.945173e+01    1.311692e+00
  1.948349e+01    1.306703e+00
  1.951524e+01    1.339325e+00
  1.954699e+01    1.319914e+00
  1.957874e+01    1.314838e+00
  1.961049e+01    1.309652e+00
  1.964224e+01    1.309767e+00
  1.967399e+01    1.279613e+00
  1.970574e+01    1.291980e+00
  1.973749e+01    1.288257e+00
  1.976925e+01    1.272819e+00
  1.980100e+01    1.305119e+00
  1.983275e+01    1.273723e+00
  1.986450e+01    1.274522e+00
  1.989625e+01    1.278747e+00
  1.992800e+01    1.308521e+00
  1.995975e+01    1.287080e+00
  1.999150e+01    1.260331e+00
  2.002325e+01    1.246501e+00
  2.005501e+01    1.257801e+00
  2.008676e+01    1.279941e+00
  2.011851e+01    1.252250e+00
  2.015026e+01    1.238555e+00
  2.018201e+01    1.243292e+00
  2.021376e+01    1.238646e+00
  2.024551e+01    1.240892e+00
  2.027726e+01    1.234327e+00
  2.030902e+01    1.218752e+00
  2.034077e+01    1.232290e+00
  2.037252e+01    1.238928e+00
  2.040427e+01    1.237962e+00
  2.043602e+01    1.257483e+00
  2.046777e+01    1.243009e+00
  2.049952e+01    1.213011e+00
  2.053127e+01    1.218134e+00
  2.056302e+01    1.213097e+00
  2.059478e+01    1.218374e+00
  2.062653e+01    1.220764e+00
  2.065828e+01    1.224648e+00
  2.069003e+01    1.242778e+00
  2.072178e+01    1.225973e+00
  2.075353e+01    1.204929e+00
  2.078528e+01    1.194121e+00
  2.081703e+01    1.218668e+00
  2.084878e+01    1.222919e+00
  2.088054e+01    1.218557e+00
  2.091229e+01    1.188346e+00
  2.094404e+01    1.214142e+00
  2.097579e+01    1.205010e+00
  2.100754e+01    1.239004e+00
  2.103929e+01    1.208762e+00
  2.107104e+01    1.201848e+00
  2.110279e+01    1.213999e+00
  2.113455e+01    1.209140e+00
  2.116630e+01    1.211777e+00
  2.119805e+01    1.177035e+00
  2.122980e+01    1.250804e+00
  2.126155e+01    1.236046e+00
  2.129330e+01    1.217815e+00
  2.132505e+01    1.253374e+00
  2.135680e+01    1.286303e+00
  2.138855e+01    1.256221e+00
  2.142031e+01    1.326172e+00
  2.145206e+01    1.357371e+00
  2.148381e+01    1.379424e+00
  2.151556e+01    1.436591e+00
  2.154731e+01    1.526381e+00
  2.157906e+01    1.602051e+00
  2.161081e+01    1.739651e+00
  2.164256e+01    1.949379e+00
  2.167431e+01    2.277751e+00
  2.170607e+01    2.738965e+00
  2.173782e+01    3.493066e+00
  2.176957e+01    4.550812e+00
  2.180132e+01    5.782517e+00
  2.183307e+01    7.047280e+00
  2.186482e+01    8.251080e+00
  2.189657e+01    8.787916e+00
  2.192832e+01    8.184777e+00
  2.196007e+01    6.529717e+00
  2.199183e+01    4.786248e+00
  2.202358e+01    3.534543e+00
  2.205533e+01    2.798331e+00
  2.208708e+01    2.276087e+00
  2.211883e+01    1.981369e+00
  2.215058e+01    1.730811e+00
  2.218233e+01    1.596330e+00
  2.221408e+01    1.471601e+00
  2.224584e+01    1.408553e+00
  2.227759e+01    1.336961e+00
  2.230934e+01    1.295271e+00
  2.234109e+01    1.255339e+00
  2.237284e+01    1.223499e+00
  2.240459e+01    1.188355e+00
  2.243634e+01    1.178724e+00
  2.246809e+01    1.147493e+00
  2.249984e+01    1.132941e+00
  2.253160e+01    1.146756e+00
  2.256335e+01    1.072902e+00
  2.259510e+01    1.080518e+00
  2.262685e+01    1.091847e+00
  2.265860e+01    1.088197e+00
  2.269035e+01    1.072191e+00
  2.272210e+01    1.048624e+00
  2.275385e+01    1.050080e+00
  2.278560e+01    1.051397e+00
  2.281736e+01    1.045582e+00
  2.284911e+01    1.049760e+00
  2.288086e+01    1.029407e+00
  2.291261e+01    1.048726e+00
  2.294436e+01    1.023921e+00
  2.297611e+01    1.014395e+00
  2.300786e+01    1.013365e+00
  2.303961e+01    1.014099e+00
  2.307137e+01    9.975139e-01
  2.310312e+01    1.015741e+00
  2.313487e+01    1.013646e+00
  2.316662e+01    9.866453e-01
  2.319837e+01    9.864156e-01
  2.323012e+01    9.683759e-01
  2.326187e+01    9.650249e-01
  2.329362e+01    9.830782e-01
  2.332537e+01    9.737255e-01
  2.335713e+01    9.556933e-01
  2.338888e+01    9.820106e-01
  2.342063e+01    9.671052e-01
  2.345238e+01    9.719976e-01
  2.348413e+01    9.583268e-01
  2.351588e+01    9.563897e-01
  2.354763e+01    9.572813e-01
  2.357938e+01    9.422948e-01
  2.361113e+01    9.445225e-01
  2.364289e+01    9.649986e-01
  2.367464e+01    9.336426e-01
  2.370639e+01    9.381432e-01
  2.373814e+01    9.046954e-01
  2.376989e+01    8.981398e-01
  2.380164e+01    8.928254e-01
  2.383339e+01    9.092990e-01
  2.386514e+01    9.315785e-01
  2.389689e+01    9.139445e-01
  2.392865e+01    8.910904e-01
  2.396040e+01    8.886281e-01
  2.399215e+01    9.149731e-01
  2.402390e+01    8.923577e-01
  2.405565e+01    8.790246e-01
  2.408740e+01    8.888645e-01
  2.411915e+01    8.661798e-01
  2.415090e+01    8.607427e-01
  2.418266e+01    8.511882e-01
  2.421441e+01    8.619754e-01
  2.424616e+01    8.734064e-01
  2.427791e+01    8.946988e-01
  2.430966e+01    8.893164e-01
  2.434141e+01    8.794749e-01
  2.437316e+01    8.857499e-01
  2.440491e+01    8.697343e-01
  2.443666e+01    8.994315e-01
  2.446842e+01    8.914899e-01
  2.450017e+01    8.852164e-01
  2.453192e+01    8.812812e-01
  2.456367e+01    8.847521e-01
  2.459542e+01    8.584501e-01
  2.462717e+01    8.870588e-01
  2.465892e+01    8.589236e-01
  2.469067e+01    8.864530e-01
  2.472242e+01    8.885277e-01
  2.475418e+01    8.740695e-01
  2.478593e+01    9.068002e-01
  2.481768e+01    8.670505e-01
  2.484943e+01    8.778294e-01
  2.488118e+01    8.763582e-01
  2.491293e+01    8.841541e-01
  2.494468e+01    8.914491e-01
  2.497643e+01    8.680068e-01
  2.500819e+01    8.911349e-01
  2.503994e+01    8.905705e-01
  2.507169e+01    8.892034e-01
  2.510344e+01    9.057238e-01
  2.513519e+01    8.812747e-01
  2.516694e+01    9.193740e-01
  2.519869e+01    9.127937e-01
  2.523044e+01    9.420334e-01
  2.526219e+01    9.085761e-01
  2.529395e+01    9.327080e-01
  2.532570e+01    9.523226e-01
  2.535745e+01    9.690130e-01
  2.538920e+01    9.853824e-01
  2.542095e+01    9.799890e-01
  2.545270e+01    9.949366e-01
  2.548445e+01    1.025953e+00
  2.551620e+01    1.062707e+00
  2.554795e+01    1.093951e+00
  2.557971e+01    1.151021e+00
  2.561146e+01    1.232013e+00
  2.564321e+01    1.304283e+00
  2.567496e+01    1.391410e+00
  2.570671e+01    1.560663e+00
  2.573846e+01    1.811309e+00
  2.577021e+01    2.178960e+00
  2.580196e+01    2.770783e+00
  2.583371e+01    3.632131e+00
  2.586547e+01    4.642405e+00
  2.589722e+01    5.740333e+00
  2.592897e+01    6.680274e+00
  2.596072e+01    7.030835e+00
  2.599247e+01    6.485193e+00
  2.602422e+01    5.230412e+00
  2.605597e+01    3.937551e+00
  2.608772e+01    2.982175e+00
  2.611948e+01    2.344936e+00
  2.615123e+01    1.911918e+00
  2.618298e+01    1.638371e+00
  2.621473e+01    1.466838e+00
  2.624648e+01    1.345311e+00
  2.627823e+01    1.238217e+00
  2.630998e+01    1.163275e+00
  2.634173e+01    1.103341e+00
  2.637348e+01    1.061859e+00
  2.640524e+01    1.027879e+00
  2.643699e+01    1.023270e+00
  2.646874e+01    1.000626e+00
  2.650049e+01    9.956031e-01
  2.653224e+01    9.870036e-01
  2.656399e+01    9.808392e-01
  2.659574e+01    9.834846e-01
  2.662749e+01    9.633895e-01
  2.665924e+01    9.657022e-01
  2.669100e+01    9.320886e-01
  2.672275e+01    9.365488e-01
  2.675450e+01    9.655964e-01
  2.678625e+01    9.729565e-01
  2.681800e+01    9.559177e-01
  2.684975e+01    9.532166e-01
  2.688150e+01    9.984047e-01
  2.691325e+01    9.899132e-01
  2.694501e+01    1.036026e+00
  2.697676e+01    1.040342e+00
  2.700851e+01    1.114859e+00
  2.704026e+01    1.171258e+00
  2.707201e+01    1.306791e+00
  2.710376e+01    1.481881e+00
  2.713551e+01    1.681419e+00
  2.716726e+01    1.938333e+00
  2.719901e+01    2.108104e+00
  2.723077e+01    2.129251e+00
  2.726252e+01    1.954158e+00
  2.729427e+01    1.661720e+00
  2.732602e+01    1.471343e+00
  2.735777e+01    1.263846e+00
  2.738952e+01    1.163534e+00
  2.742127e+01    1.070015e+00
  2.745302e+01    1.023223e+00
  2.748477e+01    1.012921e+00
  2.751653e+01    9.534672e-01
  2.754828e+01    9.547237e-01
  2.758003e+01    9.286939e-01
  2.761178e+01    9.325104e-01
  2.764353e+01    9.028217e-01
  2.767528e+01    8.806059e-01
  2.770703e+01    8.931057e-01
  2.773878e+01    8.662388e-01
  2.777054e+01    8.778538e-01
  2.780229e+01    8.823928e-01
  2.783404e+01    8.758770e-01
  2.786579e+01    8.682542e-01
  2.789754e+01    8.690782e-01
  2.792929e+01    8.574244e-01
  2.796104e+01    8.615769e-01
  2.799279e+01    8.631487e-01
  2.802454e+01    8.539842e-01
  2.805630e+01    8.600523e-01
  2.808805e+01    8.568792e-01
  2.811980e+01    8.302617e-01
  2.815155e+01    8.605754e-01
  2.818330e+01    8.395106e-01
  2.821505e+01    8.583800e-01
  2.824680e+01    8.413584e-01
  2.827855e+01    8.437023e-01
  2.831030e+01    8.256475e-01
  2.834206e+01    8.222535e-01
  2.837381e+01    8.537263e-01
  2.840556e+01    8.231434e-01
  2.843731e+01    8.197745e-01
  2.846906e+01    8.279877e-01
  2.850081e+01    8.270197e-01
  2.853256e+01    8.213316e-01
  2.856431e+01    8.253938e-01
  2.859606e+01    8.380793e-01
  2.862782e+01    8.224938e-01
  2.865957e+01    8.292598e-01
  2.869132e+01    8.354216e-01
  2.872307e+01    8.282570e-01
  2.875482e+01    8.069482e-01
  2.878657e+01    8.191826e-01
  2.881832e+01    7.868963e-01
  2.885007e+01    8.254673e-01
  2.888183e+01    8.232767e-01
  2.891358e+01    8.258883e-01
  2.894533e+01    8.177826e-01
  2.897708e+01    8.307213e-01
  2.900883e+01    8.320643e-01
  2.904058e+01    7.954419e-01
  2.907233e+01    7.950138e-01
  2.910408e+01    8.173452e-01
  2.913583e+01    8.111094e-01
  2.916759e+01    7.848867e-01
  2.919934e+01    7.979611e-01
  2.923109e+01    8.151591e-01
  2.926284e+01    7.774699e-01
  2.929459e+01    7.923710e-01
  2.932634e+01    8.055860e-01
  2.935809e+01    8.063837e-01
  2.938984e+01    7.839887e-01
  2.942159e+01    7.882560e-01
  2.945335e+01    7.928573e-01
  2.948510e+01    7.927039e-01
  2.951685e+01    8.032231e-01
  2.954860e+01    7.929584e-01
  2.958035e+01    7.970973e-01
  2.961210e+01    7.883097e-01
  2.964385e+01    7.889161e-01
  2.967560e+01    8.050666e-01
  2.970736e+01    7.746184e-01
  2.973911e+01    7.908857e-01
  2.977086e+01    8.007796e-01
  2.980261e+01    7.891494e-01
  2.983436e+01    8.075783e-01
  2.986611e+01    7.657989e-01
  2.989786e+01    7.849374e-01
  2.992961e+01    7.766343e-01
  2.996136e+01    7.973039e-01
  2.999312e+01    7.760518e-01
  3.002487e+01    7.902395e-01
  3.005662e+01    8.128763e-01
  3.008837e+01    7.957738e-01
  3.012012e+01    7.898977e-01
  3.015187e+01    7.800860e-01
  3.018362e+01    7.612146e-01
  3.021537e+01    7.730061e-01
  3.024712e+01    7.944978e-01
  3.027888e+01    7.644336e-01
  3.031063e+01    7.883894e-01
  3.034238e+01    7.740357e-01
  3.037413e+01    7.737619e-01
  3.040588e+01    7.727094e-01
  3.043763e+01    7.817474e-01
  3.046938e+01    7.815638e-01
  3.050113e+01    7.538859e-01
  3.053288e+01    7.960326e-01
  3.056464e+01    7.957865e-01
  3.059639e+01    7.759373e-01
  3.062814e+01    7.843848e-01
  3.065989e+01    7.716942e-01
  3.069164e+01    7.861542e-01
  3.072339e+01    7.751999e-01
  3.075514e+01    7.448252e-01
  3.078689e+01    7.665560e-01
  3.081865e+01    7.731751e-01
  3.085040e+01    7.927794e-01
  3.088215e+01    7.747725e-01
  3.091390e+01    7.592531e-01
  3.094565e+01    7.527877e-01
  3.097740e+01    7.879553e-01
  3.100915e+01    7.447039e-01
  3.104090e+01    7.788605e-01
  3.107265e+01    7.652030e-01
  3.110441e+01    7.693305e-01
  3.113616e+01    7.729505e-01
  3.116791e+01    7.935722e-01
  3.119966e+01    7.810416e-01
  3.123141e+01    7.869931e-01
  3.126316e+01    7.844905e-01
  3.129491e+01    7.898374e-01
  3.132666e+01    8.055335e-01
  3.135841e+01    8.188924e-01
  3.139017e+01    7.932787e-01
  3.142192e+01    7.749125e-01
  3.145367e+01    8.072033e-01
  3.148542e+01    8.212599e-01
  3.151717e+01    8.213272e-01
  3.154892e+01    8.284861e-01
  3.158067e+01    8.707088e-01
  3.161242e+01    8.652529e-01
  3.164418e+01    9.076864e-01
  3.167593e+01    9.379336e-01
  3.170768e+01    9.977614e-01
  3.173943e+01    1.121964e+00
  3.177118e+01    1.239252e+00
  3.180293e+01    1.461258e+00
  3.183468e+01    1.704619e+00
  3.186643e+01    1.955241e+00
  3.189818e+01    2.028826e+00
  3.192994e+01    2.017846e+00
  3.196169e+01    1.806969e+00
  3.199344e+01    1.531971e+00
  3.202519e+01    1.321900e+00
  3.205694e+01    1.160447e+00
  3.208869e+01    1.008773e+00
  3.212044e+01    9.661385e-01
  3.215219e+01    8.851491e-01
  3.218394e+01    8.552167e-01
  3.221570e+01    8.330230e-01
  3.224745e+01    8.189691e-01
  3.227920e+01    8.354120e-01
  3.231095e+01    8.098507e-01
  3.234270e+01    7.884472e-01
  3.237445e+01    7.853383e-01
  3.240620e+01    7.667717e-01
  3.243795e+01    7.934420e-01
  3.246970e+01    7.513939e-01
  3.250146e+01    7.582206e-01
  3.253321e+01    7.820675e-01
  3.254908e+01    7.730933e-01