File: XRD/Reaction conditions/2024-07-27_003_Ru-CGO-ex_Reaction_dwell_000023_data_000106.dat
# == pyFAI calibration ==
# Distance Sample to Detector: 0.4 m
# PONI: 9.750e-02, 1.135e-01 m
# Rotations: -0.000175 0.000000 -0.000000 rad
#
# == Fit2d calibration ==
# Distance Sample-beamCenter: 400.000 mm
# Center: x=1514.000, y=1300.000 pix
# Tilt: 0.010 deg  TiltPlanRot: 0.010 deg
#
# Detector Detector	 Spline= None	 PixelSize= 7.500e-05, 7.500e-05 m
#    Detector has a mask: False
#    Detector has a dark current: False
#    detector has a flat field: False
#
# Wavelength: 6.888e-11 m
# Mask applied: user provided
# Dark current applied: False
# Flat field applied: False
# Polarization factor: 0.99
# Normalization factor: 1.0
# --> /home/myspot/data/2024_07_Rosario/Ru-CGO-ex/2024-07-27_003_Ru-CGO-ex_Reaction_dwell_000023_data_000106.dat
#       q_nm^-1             I
  2.003187e-02    3.620480e-01
  5.178302e-02    1.421695e-01
  8.353417e-02    2.286591e-01
  1.152853e-01    4.197024e-02
  1.470365e-01    2.345890e-02
  1.787876e-01    3.301135e-02
  2.105388e-01    8.570584e-02
  2.422899e-01    6.146574e-02
  2.740411e-01    4.186407e-02
  3.057922e-01    6.220536e-02
  3.375433e-01    1.798904e-02
  3.692945e-01    1.786442e-02
  4.010456e-01    4.532135e-02
  4.327968e-01    5.226937e-02
  4.645479e-01    4.468705e-02
  4.962991e-01    3.446098e-02
  5.280502e-01    3.500355e-02
  5.598014e-01    2.812715e-02
  5.915525e-01    5.452770e-02
  6.233037e-01    6.638778e-02
  6.550548e-01    4.264656e-02
  6.868060e-01    3.483631e-02
  7.185571e-01    3.377019e-02
  7.503083e-01    6.510972e-02
  7.820594e-01    1.776147e-01
  8.138106e-01    2.878902e-01
  8.455617e-01    3.227925e-01
  8.773129e-01    4.559633e-01
  9.090640e-01    6.055254e-01
  9.408152e-01    8.532795e-01
  9.725663e-01    1.062657e+00
  1.004317e+00    1.227167e+00
  1.036069e+00    1.277842e+00
  1.067820e+00    1.407759e+00
  1.099571e+00    1.606157e+00
  1.131322e+00    1.547576e+00
  1.163073e+00    1.584684e+00
  1.194824e+00    1.788117e+00
  1.226575e+00    2.205829e+00
  1.258327e+00    2.447415e+00
  1.290078e+00    2.625643e+00
  1.321829e+00    2.844623e+00
  1.353580e+00    2.858580e+00
  1.385331e+00    2.885005e+00
  1.417082e+00    2.888104e+00
  1.448834e+00    2.862568e+00
  1.480585e+00    3.079845e+00
  1.512336e+00    3.154204e+00
  1.544087e+00    3.191303e+00
  1.575838e+00    2.986946e+00
  1.607589e+00    3.210016e+00
  1.639340e+00    3.164237e+00
  1.671092e+00    3.101172e+00
  1.702843e+00    3.093370e+00
  1.734594e+00    3.092631e+00
  1.766345e+00    3.134752e+00
  1.798096e+00    2.930378e+00
  1.829847e+00    3.093044e+00
  1.861598e+00    3.000076e+00
  1.893350e+00    2.986860e+00
  1.925101e+00    3.185651e+00
  1.956852e+00    3.166054e+00
  1.988603e+00    3.188177e+00
  2.020354e+00    3.049949e+00
  2.052105e+00    3.058611e+00
  2.083856e+00    3.129714e+00
  2.115608e+00    3.193252e+00
  2.147359e+00    3.035699e+00
  2.179110e+00    3.025684e+00
  2.210861e+00    3.100810e+00
  2.242612e+00    3.089683e+00
  2.274363e+00    3.288084e+00
  2.306115e+00    3.140671e+00
  2.337866e+00    3.068272e+00
  2.369617e+00    3.126727e+00
  2.401368e+00    3.219568e+00
  2.433119e+00    3.236519e+00
  2.464870e+00    3.105958e+00
  2.496621e+00    3.143915e+00
  2.528373e+00    3.190466e+00
  2.560124e+00    3.187854e+00
  2.591875e+00    3.136170e+00
  2.623626e+00    3.255193e+00
  2.655377e+00    3.242749e+00
  2.687128e+00    3.264468e+00
  2.718879e+00    3.330511e+00
  2.750631e+00    3.204017e+00
  2.782382e+00    3.121365e+00
  2.814133e+00    3.337384e+00
  2.845884e+00    3.303984e+00
  2.877635e+00    3.270110e+00
  2.909386e+00    3.305374e+00
  2.941137e+00    3.269194e+00
  2.972889e+00    3.281854e+00
  3.004640e+00    3.327869e+00
  3.036391e+00    3.322973e+00
  3.068142e+00    3.325931e+00
  3.099893e+00    3.387548e+00
  3.131644e+00    3.369400e+00
  3.163395e+00    3.383837e+00
  3.195147e+00    3.363743e+00
  3.226898e+00    3.422467e+00
  3.258649e+00    3.381520e+00
  3.290400e+00    3.378215e+00
  3.322151e+00    3.416332e+00
  3.353902e+00    3.479971e+00
  3.385654e+00    3.401401e+00
  3.417405e+00    3.445465e+00
  3.449156e+00    3.460391e+00
  3.480907e+00    3.456979e+00
  3.512658e+00    3.450258e+00
  3.544409e+00    3.357271e+00
  3.576160e+00    3.414462e+00
  3.607912e+00    3.344800e+00
  3.639663e+00    3.502692e+00
  3.671414e+00    3.456926e+00
  3.703165e+00    3.444098e+00
  3.734916e+00    3.371000e+00
  3.766667e+00    3.534440e+00
  3.798418e+00    3.527849e+00
  3.830170e+00    3.516911e+00
  3.861921e+00    3.638728e+00
  3.893672e+00    3.544250e+00
  3.925423e+00    3.563631e+00
  3.957174e+00    3.604974e+00
  3.988925e+00    3.562948e+00
  4.020676e+00    3.462055e+00
  4.052428e+00    3.504666e+00
  4.084179e+00    3.490825e+00
  4.115930e+00    3.550890e+00
  4.147681e+00    3.500841e+00
  4.179432e+00    3.563171e+00
  4.211183e+00    3.530158e+00
  4.242935e+00    3.548765e+00
  4.274686e+00    3.561321e+00
  4.306437e+00    3.608212e+00
  4.338188e+00    3.612460e+00
  4.369939e+00    3.534044e+00
  4.401690e+00    3.454801e+00
  4.433441e+00    3.476249e+00
  4.465193e+00    3.630333e+00
  4.496944e+00    3.598487e+00
  4.528695e+00    3.650969e+00
  4.560446e+00    3.612592e+00
  4.592197e+00    3.590143e+00
  4.623948e+00    3.639539e+00
  4.655699e+00    3.727785e+00
  4.687451e+00    3.589055e+00
  4.719202e+00    3.664337e+00
  4.750953e+00    3.567116e+00
  4.782704e+00    3.552599e+00
  4.814455e+00    3.572461e+00
  4.846206e+00    3.599089e+00
  4.877957e+00    3.701556e+00
  4.909709e+00    3.735240e+00
  4.941460e+00    3.637988e+00
  4.973211e+00    3.712541e+00
  5.004962e+00    3.569787e+00
  5.036713e+00    3.746168e+00
  5.068464e+00    3.683186e+00
  5.100216e+00    3.624803e+00
  5.131967e+00    3.678964e+00
  5.163718e+00    3.606457e+00
  5.195469e+00    3.698903e+00
  5.227220e+00    3.685337e+00
  5.258971e+00    3.733238e+00
  5.290722e+00    3.694601e+00
  5.322474e+00    3.698312e+00
  5.354225e+00    3.661933e+00
  5.385976e+00    3.616833e+00
  5.417727e+00    3.605370e+00
  5.449478e+00    3.629764e+00
  5.481229e+00    3.598698e+00
  5.512980e+00    3.598876e+00
  5.544732e+00    3.562998e+00
  5.576483e+00    3.516232e+00
  5.608234e+00    3.543987e+00
  5.639985e+00    3.613062e+00
  5.671736e+00    3.586087e+00
  5.703487e+00    3.562879e+00
  5.735238e+00    3.583574e+00
  5.766990e+00    3.541970e+00
  5.798741e+00    3.560491e+00
  5.830492e+00    3.535169e+00
  5.862243e+00    3.590273e+00
  5.893994e+00    3.586796e+00
  5.925745e+00    3.485937e+00
  5.957497e+00    3.531340e+00
  5.989248e+00    3.504550e+00
  6.020999e+00    3.526217e+00
  6.052750e+00    3.477057e+00
  6.084501e+00    3.622561e+00
  6.116252e+00    3.551427e+00
  6.148003e+00    3.591758e+00
  6.179755e+00    3.557347e+00
  6.211506e+00    3.592487e+00
  6.243257e+00    3.573757e+00
  6.275008e+00    3.652379e+00
  6.306759e+00    3.558306e+00
  6.338510e+00    3.590799e+00
  6.370261e+00    3.501267e+00
  6.402013e+00    3.509755e+00
  6.433764e+00    3.578427e+00
  6.465515e+00    3.541584e+00
  6.497266e+00    3.587858e+00
  6.529017e+00    3.549730e+00
  6.560768e+00    3.480523e+00
  6.592519e+00    3.560669e+00
  6.624271e+00    3.535826e+00
  6.656022e+00    3.541046e+00
  6.687773e+00    3.498899e+00
  6.719524e+00    3.548109e+00
  6.751275e+00    3.563204e+00
  6.783026e+00    3.512650e+00
  6.814777e+00    3.564983e+00
  6.846529e+00    3.578807e+00
  6.878280e+00    3.538790e+00
  6.910031e+00    3.621548e+00
  6.941782e+00    3.527268e+00
  6.973533e+00    3.544539e+00
  7.005284e+00    3.542325e+00
  7.037036e+00    3.454279e+00
  7.068787e+00    3.469266e+00
  7.100538e+00    3.504120e+00
  7.132289e+00    3.586899e+00
  7.164040e+00    3.533459e+00
  7.195791e+00    3.556408e+00
  7.227542e+00    3.516977e+00
  7.259294e+00    3.492321e+00
  7.291045e+00    3.494476e+00
  7.322796e+00    3.504315e+00
  7.354547e+00    3.543892e+00
  7.386298e+00    3.473912e+00
  7.418049e+00    3.463730e+00
  7.449800e+00    3.536175e+00
  7.481552e+00    3.530482e+00
  7.513303e+00    3.475783e+00
  7.545054e+00    3.470632e+00
  7.576805e+00    3.514127e+00
  7.608556e+00    3.450948e+00
  7.640307e+00    3.452816e+00
  7.672058e+00    3.461531e+00
  7.703810e+00    3.494589e+00
  7.735561e+00    3.363137e+00
  7.767312e+00    3.369771e+00
  7.799063e+00    3.532622e+00
  7.830814e+00    3.459158e+00
  7.862565e+00    3.461463e+00
  7.894317e+00    3.437860e+00
  7.926068e+00    3.451429e+00
  7.957819e+00    3.448644e+00
  7.989570e+00    3.467573e+00
  8.021321e+00    3.429868e+00
  8.053072e+00    3.385626e+00
  8.084823e+00    3.415343e+00
  8.116575e+00    3.454666e+00
  8.148326e+00    3.424957e+00
  8.180077e+00    3.464000e+00
  8.211828e+00    3.451625e+00
  8.243579e+00    3.448060e+00
  8.275330e+00    3.410438e+00
  8.307081e+00    3.384192e+00
  8.338833e+00    3.421253e+00
  8.370584e+00    3.400802e+00
  8.402335e+00    3.388954e+00
  8.434086e+00    3.437801e+00
  8.465837e+00    3.311584e+00
  8.497588e+00    3.386532e+00
  8.529339e+00    3.425458e+00
  8.561091e+00    3.342671e+00
  8.592842e+00    3.443955e+00
  8.624593e+00    3.312258e+00
  8.656344e+00    3.340415e+00
  8.688095e+00    3.314609e+00
  8.719846e+00    3.430865e+00
  8.751598e+00    3.318574e+00
  8.783349e+00    3.319028e+00
  8.815100e+00    3.268423e+00
  8.846851e+00    3.353699e+00
  8.878602e+00    3.363984e+00
  8.910353e+00    3.304127e+00
  8.942104e+00    3.305985e+00
  8.973856e+00    3.321843e+00
  9.005607e+00    3.274933e+00
  9.037358e+00    3.214535e+00
  9.069109e+00    3.350806e+00
  9.100860e+00    3.290884e+00
  9.132611e+00    3.264522e+00
  9.164362e+00    3.233594e+00
  9.196114e+00    3.236579e+00
  9.227865e+00    3.220163e+00
  9.259616e+00    3.186040e+00
  9.291367e+00    3.241727e+00
  9.323118e+00    3.229058e+00
  9.354869e+00    3.208151e+00
  9.386620e+00    3.274967e+00
  9.418372e+00    3.203825e+00
  9.450123e+00    3.201162e+00
  9.481874e+00    3.251570e+00
  9.513625e+00    3.180622e+00
  9.545376e+00    3.218450e+00
  9.577127e+00    3.192269e+00
  9.608878e+00    3.268894e+00
  9.640630e+00    3.141681e+00
  9.672381e+00    3.178265e+00
  9.704132e+00    3.198622e+00
  9.735883e+00    3.117975e+00
  9.767634e+00    3.159071e+00
  9.799385e+00    3.151332e+00
  9.831137e+00    3.210142e+00
  9.862888e+00    3.128426e+00
  9.894639e+00    3.158842e+00
  9.926390e+00    2.992255e+00
  9.958141e+00    3.116784e+00
  9.989892e+00    3.103034e+00
  1.002164e+01    3.120295e+00
  1.005339e+01    3.072018e+00
  1.008515e+01    3.086112e+00
  1.011690e+01    3.032514e+00
  1.014865e+01    3.066678e+00
  1.018040e+01    3.077390e+00
  1.021215e+01    3.098516e+00
  1.024390e+01    3.093193e+00
  1.027565e+01    3.049052e+00
  1.030740e+01    3.062222e+00
  1.033915e+01    3.058446e+00
  1.037091e+01    3.016154e+00
  1.040266e+01    3.051516e+00
  1.043441e+01    3.007841e+00
  1.046616e+01    2.964205e+00
  1.049791e+01    3.007666e+00
  1.052966e+01    2.973819e+00
  1.056141e+01    3.002106e+00
  1.059316e+01    2.977279e+00
  1.062492e+01    3.047804e+00
  1.065667e+01    2.965954e+00
  1.068842e+01    3.012429e+00
  1.072017e+01    2.991056e+00
  1.075192e+01    2.979796e+00
  1.078367e+01    2.957869e+00
  1.081542e+01    2.918105e+00
  1.084717e+01    2.908515e+00
  1.087892e+01    2.906425e+00
  1.091068e+01    2.973029e+00
  1.094243e+01    2.940084e+00
  1.097418e+01    2.897867e+00
  1.100593e+01    2.870846e+00
  1.103768e+01    2.866138e+00
  1.106943e+01    2.903455e+00
  1.110118e+01    2.905181e+00
  1.113293e+01    2.930346e+00
  1.116468e+01    2.849074e+00
  1.119644e+01    2.876745e+00
  1.122819e+01    2.872362e+00
  1.125994e+01    2.828994e+00
  1.129169e+01    2.848834e+00
  1.132344e+01    2.836616e+00
  1.135519e+01    2.843014e+00
  1.138694e+01    2.853981e+00
  1.141869e+01    2.803889e+00
  1.145045e+01    2.791375e+00
  1.148220e+01    2.801949e+00
  1.151395e+01    2.773791e+00
  1.154570e+01    2.810603e+00
  1.157745e+01    2.851339e+00
  1.160920e+01    2.825371e+00
  1.164095e+01    2.770780e+00
  1.167270e+01    2.777334e+00
  1.170445e+01    2.747692e+00
  1.173621e+01    2.801096e+00
  1.176796e+01    2.756945e+00
  1.179971e+01    2.717528e+00
  1.183146e+01    2.722045e+00
  1.186321e+01    2.709750e+00
  1.189496e+01    2.678834e+00
  1.192671e+01    2.739480e+00
  1.195846e+01    2.728213e+00
  1.199021e+01    2.703250e+00
  1.202197e+01    2.730536e+00
  1.205372e+01    2.675619e+00
  1.208547e+01    2.689411e+00
  1.211722e+01    2.657964e+00
  1.214897e+01    2.695639e+00
  1.218072e+01    2.725625e+00
  1.221247e+01    2.658403e+00
  1.224422e+01    2.730083e+00
  1.227597e+01    2.698157e+00
  1.230773e+01    2.724117e+00
  1.233948e+01    2.681460e+00
  1.237123e+01    2.729847e+00
  1.240298e+01    2.631431e+00
  1.243473e+01    2.747309e+00
  1.246648e+01    2.681456e+00
  1.249823e+01    2.696271e+00
  1.252998e+01    2.739806e+00
  1.256174e+01    2.719143e+00
  1.259349e+01    2.750267e+00
  1.262524e+01    2.768015e+00
  1.265699e+01    2.807221e+00
  1.268874e+01    2.791983e+00
  1.272049e+01    2.853050e+00
  1.275224e+01    2.819282e+00
  1.278399e+01    2.938641e+00
  1.281574e+01    3.053631e+00
  1.284750e+01    3.184037e+00
  1.287925e+01    3.438587e+00
  1.291100e+01    3.647320e+00
  1.294275e+01    4.014875e+00
  1.297450e+01    4.835294e+00
  1.300625e+01    5.992715e+00
  1.303800e+01    7.646922e+00
  1.306975e+01    1.015305e+01
  1.310150e+01    1.273176e+01
  1.313326e+01    1.482850e+01
  1.316501e+01    1.630359e+01
  1.319676e+01    1.564112e+01
  1.322851e+01    1.241569e+01
  1.326026e+01    9.139654e+00
  1.329201e+01    6.758946e+00
  1.332376e+01    5.369582e+00
  1.335551e+01    4.488428e+00
  1.338727e+01    3.848079e+00
  1.341902e+01    3.452672e+00
  1.345077e+01    3.190082e+00
  1.348252e+01    3.107788e+00
  1.351427e+01    2.937733e+00
  1.354602e+01    2.879096e+00
  1.357777e+01    2.781415e+00
  1.360952e+01    2.646586e+00
  1.364127e+01    2.702574e+00
  1.367303e+01    2.591885e+00
  1.370478e+01    2.588014e+00
  1.373653e+01    2.533521e+00
  1.376828e+01    2.542437e+00
  1.380003e+01    2.478039e+00
  1.383178e+01    2.431521e+00
  1.386353e+01    2.428977e+00
  1.389528e+01    2.432599e+00
  1.392703e+01    2.384142e+00
  1.395879e+01    2.358496e+00
  1.399054e+01    2.356189e+00
  1.402229e+01    2.368670e+00
  1.405404e+01    2.306776e+00
  1.408579e+01    2.330551e+00
  1.411754e+01    2.321143e+00
  1.414929e+01    2.302770e+00
  1.418104e+01    2.307588e+00
  1.421279e+01    2.316204e+00
  1.424455e+01    2.276248e+00
  1.427630e+01    2.290640e+00
  1.430805e+01    2.272998e+00
  1.433980e+01    2.260689e+00
  1.437155e+01    2.257784e+00
  1.440330e+01    2.222983e+00
  1.443505e+01    2.251737e+00
  1.446680e+01    2.212865e+00
  1.449856e+01    2.278827e+00
  1.453031e+01    2.226541e+00
  1.456206e+01    2.217768e+00
  1.459381e+01    2.209540e+00
  1.462556e+01    2.212421e+00
  1.465731e+01    2.190986e+00
  1.468906e+01    2.175936e+00
  1.472081e+01    2.222314e+00
  1.475256e+01    2.196888e+00
  1.478432e+01    2.169742e+00
  1.481607e+01    2.223432e+00
  1.484782e+01    2.199837e+00
  1.487957e+01    2.248328e+00
  1.491132e+01    2.293311e+00
  1.494307e+01    2.271188e+00
  1.497482e+01    2.314054e+00
  1.500657e+01    2.427436e+00
  1.503832e+01    2.578862e+00
  1.507008e+01    2.821496e+00
  1.510183e+01    3.210032e+00
  1.513358e+01    3.786078e+00
  1.516533e+01    4.544369e+00
  1.519708e+01    5.260613e+00
  1.522883e+01    5.573139e+00
  1.526058e+01    5.804013e+00
  1.529233e+01    5.414690e+00
  1.532409e+01    4.735478e+00
  1.535584e+01    3.766836e+00
  1.538759e+01    3.118675e+00
  1.541934e+01    2.785668e+00
  1.545109e+01    2.528033e+00
  1.548284e+01    2.405359e+00
  1.551459e+01    2.260934e+00
  1.554634e+01    2.163781e+00
  1.557809e+01    2.113429e+00
  1.560985e+01    2.084435e+00
  1.564160e+01    2.036953e+00
  1.567335e+01    2.044759e+00
  1.570510e+01    1.999044e+00
  1.573685e+01    1.956393e+00
  1.576860e+01    1.953149e+00
  1.580035e+01    1.944795e+00
  1.583210e+01    1.896588e+00
  1.586385e+01    1.895366e+00
  1.589561e+01    1.891796e+00
  1.592736e+01    1.889661e+00
  1.595911e+01    1.906181e+00
  1.599086e+01    1.890413e+00
  1.602261e+01    1.857534e+00
  1.605436e+01    1.818756e+00
  1.608611e+01    1.880112e+00
  1.611786e+01    1.846652e+00
  1.614961e+01    1.824175e+00
  1.618137e+01    1.841335e+00
  1.621312e+01    1.843909e+00
  1.624487e+01    1.769742e+00
  1.627662e+01    1.833547e+00
  1.630837e+01    1.811431e+00
  1.634012e+01    1.792369e+00
  1.637187e+01    1.782771e+00
  1.640362e+01    1.797498e+00
  1.643538e+01    1.778320e+00
  1.646713e+01    1.791352e+00
  1.649888e+01    1.770619e+00
  1.653063e+01    1.754559e+00
  1.656238e+01    1.728832e+00
  1.659413e+01    1.739470e+00
  1.662588e+01    1.720773e+00
  1.665763e+01    1.732838e+00
  1.668938e+01    1.703390e+00
  1.672114e+01    1.727134e+00
  1.675289e+01    1.727622e+00
  1.678464e+01    1.721507e+00
  1.681639e+01    1.691036e+00
  1.684814e+01    1.682011e+00
  1.687989e+01    1.646736e+00
  1.691164e+01    1.685646e+00
  1.694339e+01    1.658408e+00
  1.697514e+01    1.686608e+00
  1.700690e+01    1.667825e+00
  1.703865e+01    1.659654e+00
  1.707040e+01    1.681874e+00
  1.710215e+01    1.666452e+00
  1.713390e+01    1.623953e+00
  1.716565e+01    1.675273e+00
  1.719740e+01    1.650388e+00
  1.722915e+01    1.619967e+00
  1.726091e+01    1.637132e+00
  1.729266e+01    1.629311e+00
  1.732441e+01    1.631138e+00
  1.735616e+01    1.602712e+00
  1.738791e+01    1.621393e+00
  1.741966e+01    1.595779e+00
  1.745141e+01    1.618702e+00
  1.748316e+01    1.568468e+00
  1.751491e+01    1.540396e+00
  1.754667e+01    1.564579e+00
  1.757842e+01    1.573788e+00
  1.761017e+01    1.560243e+00
  1.764192e+01    1.595245e+00
  1.767367e+01    1.597508e+00
  1.770542e+01    1.526602e+00
  1.773717e+01    1.542182e+00
  1.776892e+01    1.551885e+00
  1.780067e+01    1.508209e+00
  1.783243e+01    1.534202e+00
  1.786418e+01    1.554386e+00
  1.789593e+01    1.500210e+00
  1.792768e+01    1.509538e+00
  1.795943e+01    1.502463e+00
  1.799118e+01    1.464238e+00
  1.802293e+01    1.550466e+00
  1.805468e+01    1.487088e+00
  1.808643e+01    1.531292e+00
  1.811819e+01    1.459905e+00
  1.814994e+01    1.488094e+00
  1.818169e+01    1.463452e+00
  1.821344e+01    1.486796e+00
  1.824519e+01    1.503651e+00
  1.827694e+01    1.494375e+00
  1.830869e+01    1.472458e+00
  1.834044e+01    1.465508e+00
  1.837220e+01    1.485024e+00
  1.840395e+01    1.415444e+00
  1.843570e+01    1.491422e+00
  1.846745e+01    1.427291e+00
  1.849920e+01    1.420090e+00
  1.853095e+01    1.433896e+00
  1.856270e+01    1.441087e+00
  1.859445e+01    1.434997e+00
  1.862620e+01    1.403047e+00
  1.865796e+01    1.422188e+00
  1.868971e+01    1.421720e+00
  1.872146e+01    1.420166e+00
  1.875321e+01    1.411558e+00
  1.878496e+01    1.387231e+00
  1.881671e+01    1.398444e+00
  1.884846e+01    1.396397e+00
  1.888021e+01    1.410096e+00
  1.891196e+01    1.395991e+00
  1.894372e+01    1.381734e+00
  1.897547e+01    1.392062e+00
  1.900722e+01    1.399737e+00
  1.903897e+01    1.381140e+00
  1.907072e+01    1.373906e+00
  1.910247e+01    1.344419e+00
  1.913422e+01    1.369067e+00
  1.916597e+01    1.368612e+00
  1.919773e+01    1.357817e+00
  1.922948e+01    1.376475e+00
  1.926123e+01    1.354757e+00
  1.929298e+01    1.346902e+00
  1.932473e+01    1.368513e+00
  1.935648e+01    1.342683e+00
  1.938823e+01    1.331272e+00
  1.941998e+01    1.334673e+00
  1.945173e+01    1.339884e+00
  1.948349e+01    1.383949e+00
  1.951524e+01    1.338980e+00
  1.954699e+01    1.326452e+00
  1.957874e+01    1.346755e+00
  1.961049e+01    1.308278e+00
  1.964224e+01    1.310705e+00
  1.967399e+01    1.342235e+00
  1.970574e+01    1.317763e+00
  1.973749e+01    1.307472e+00
  1.976925e+01    1.319575e+00
  1.980100e+01    1.312955e+00
  1.983275e+01    1.316573e+00
  1.986450e+01    1.308929e+00
  1.989625e+01    1.279412e+00
  1.992800e+01    1.318168e+00
  1.995975e+01    1.288939e+00
  1.999150e+01    1.284277e+00
  2.002325e+01    1.281563e+00
  2.005501e+01    1.259405e+00
  2.008676e+01    1.268822e+00
  2.011851e+01    1.260921e+00
  2.015026e+01    1.265272e+00
  2.018201e+01    1.239972e+00
  2.021376e+01    1.243615e+00
  2.024551e+01    1.227252e+00
  2.027726e+01    1.235639e+00
  2.030902e+01    1.275128e+00
  2.034077e+01    1.267038e+00
  2.037252e+01    1.278271e+00
  2.040427e+01    1.260874e+00
  2.043602e+01    1.225959e+00
  2.046777e+01    1.234862e+00
  2.049952e+01    1.231570e+00
  2.053127e+01    1.230800e+00
  2.056302e+01    1.246777e+00
  2.059478e+01    1.233601e+00
  2.062653e+01    1.235915e+00
  2.065828e+01    1.240623e+00
  2.069003e+01    1.217149e+00
  2.072178e+01    1.220738e+00
  2.075353e+01    1.241764e+00
  2.078528e+01    1.225479e+00
  2.081703e+01    1.231867e+00
  2.084878e+01    1.224265e+00
  2.088054e+01    1.246344e+00
  2.091229e+01    1.230177e+00
  2.094404e+01    1.225661e+00
  2.097579e+01    1.222436e+00
  2.100754e+01    1.224903e+00
  2.103929e+01    1.212501e+00
  2.107104e+01    1.202747e+00
  2.110279e+01    1.240822e+00
  2.113455e+01    1.238829e+00
  2.116630e+01    1.201450e+00
  2.119805e+01    1.218871e+00
  2.122980e+01    1.254312e+00
  2.126155e+01    1.238563e+00
  2.129330e+01    1.284755e+00
  2.132505e+01    1.278103e+00
  2.135680e+01    1.253999e+00
  2.138855e+01    1.297508e+00
  2.142031e+01    1.341118e+00
  2.145206e+01    1.333341e+00
  2.148381e+01    1.388930e+00
  2.151556e+01    1.447488e+00
  2.154731e+01    1.523606e+00
  2.157906e+01    1.628682e+00
  2.161081e+01    1.762144e+00
  2.164256e+01    1.936247e+00
  2.167431e+01    2.281444e+00
  2.170607e+01    2.787683e+00
  2.173782e+01    3.564395e+00
  2.176957e+01    4.573813e+00
  2.180132e+01    5.887760e+00
  2.183307e+01    7.168714e+00
  2.186482e+01    8.407645e+00
  2.189657e+01    8.904886e+00
  2.192832e+01    8.280725e+00
  2.196007e+01    6.608294e+00
  2.199183e+01    4.881837e+00
  2.202358e+01    3.645440e+00
  2.205533e+01    2.852943e+00
  2.208708e+01    2.332848e+00
  2.211883e+01    2.021197e+00
  2.215058e+01    1.800335e+00
  2.218233e+01    1.621124e+00
  2.221408e+01    1.485024e+00
  2.224584e+01    1.404002e+00
  2.227759e+01    1.344945e+00
  2.230934e+01    1.316801e+00
  2.234109e+01    1.286591e+00
  2.237284e+01    1.194780e+00
  2.240459e+01    1.243356e+00
  2.243634e+01    1.177875e+00
  2.246809e+01    1.186262e+00
  2.249984e+01    1.134394e+00
  2.253160e+01    1.118501e+00
  2.256335e+01    1.120587e+00
  2.259510e+01    1.122191e+00
  2.262685e+01    1.103440e+00
  2.265860e+01    1.120403e+00
  2.269035e+01    1.071014e+00
  2.272210e+01    1.057398e+00
  2.275385e+01    1.039400e+00
  2.278560e+01    1.048667e+00
  2.281736e+01    1.061186e+00
  2.284911e+01    1.029993e+00
  2.288086e+01    1.043810e+00
  2.291261e+01    1.041198e+00
  2.294436e+01    1.019195e+00
  2.297611e+01    1.031384e+00
  2.300786e+01    1.018457e+00
  2.303961e+01    1.014562e+00
  2.307137e+01    1.008040e+00
  2.310312e+01    1.011358e+00
  2.313487e+01    9.916438e-01
  2.316662e+01    1.011341e+00
  2.319837e+01    9.785188e-01
  2.323012e+01    9.883388e-01
  2.326187e+01    1.004512e+00
  2.329362e+01    9.795938e-01
  2.332537e+01    9.889388e-01
  2.335713e+01    9.861237e-01
  2.338888e+01    9.662755e-01
  2.342063e+01    9.749257e-01
  2.345238e+01    9.927434e-01
  2.348413e+01    9.675105e-01
  2.351588e+01    9.746493e-01
  2.354763e+01    9.737302e-01
  2.357938e+01    9.525684e-01
  2.361113e+01    9.668018e-01
  2.364289e+01    9.375874e-01
  2.367464e+01    9.554946e-01
  2.370639e+01    9.411762e-01
  2.373814e+01    9.297687e-01
  2.376989e+01    9.147182e-01
  2.380164e+01    9.499944e-01
  2.383339e+01    9.272297e-01
  2.386514e+01    9.239756e-01
  2.389689e+01    9.295372e-01
  2.392865e+01    9.041148e-01
  2.396040e+01    9.027408e-01
  2.399215e+01    8.992473e-01
  2.402390e+01    9.111741e-01
  2.405565e+01    8.960556e-01
  2.408740e+01    8.945146e-01
  2.411915e+01    8.912933e-01
  2.415090e+01    8.903255e-01
  2.418266e+01    8.919926e-01
  2.421441e+01    8.847989e-01
  2.424616e+01    8.994786e-01
  2.427791e+01    8.840256e-01
  2.430966e+01    8.998296e-01
  2.434141e+01    9.096825e-01
  2.437316e+01    8.963804e-01
  2.440491e+01    8.701977e-01
  2.443666e+01    8.753307e-01
  2.446842e+01    8.877628e-01
  2.450017e+01    8.724462e-01
  2.453192e+01    8.897009e-01
  2.456367e+01    8.891839e-01
  2.459542e+01    8.880889e-01
  2.462717e+01    8.840414e-01
  2.465892e+01    8.922822e-01
  2.469067e+01    8.921977e-01
  2.472242e+01    8.906484e-01
  2.475418e+01    8.919551e-01
  2.478593e+01    9.005709e-01
  2.481768e+01    8.849794e-01
  2.484943e+01    8.879074e-01
  2.488118e+01    9.010091e-01
  2.491293e+01    8.872408e-01
  2.494468e+01    9.065880e-01
  2.497643e+01    8.849904e-01
  2.500819e+01    8.839939e-01
  2.503994e+01    8.935184e-01
  2.507169e+01    9.055128e-01
  2.510344e+01    9.188965e-01
  2.513519e+01    9.149200e-01
  2.516694e+01    9.137639e-01
  2.519869e+01    9.084021e-01
  2.523044e+01    9.405767e-01
  2.526219e+01    9.465668e-01
  2.529395e+01    9.545158e-01
  2.532570e+01    9.423719e-01
  2.535745e+01    9.648452e-01
  2.538920e+01    9.956975e-01
  2.542095e+01    1.013028e+00
  2.545270e+01    1.018637e+00
  2.548445e+01    1.055855e+00
  2.551620e+01    1.103421e+00
  2.554795e+01    1.108449e+00
  2.557971e+01    1.156988e+00
  2.561146e+01    1.204645e+00
  2.564321e+01    1.289848e+00
  2.567496e+01    1.438025e+00
  2.570671e+01    1.604712e+00
  2.573846e+01    1.820979e+00
  2.577021e+01    2.231416e+00
  2.580196e+01    2.805164e+00
  2.583371e+01    3.639719e+00
  2.586547e+01    4.674590e+00
  2.589722e+01    5.833436e+00
  2.592897e+01    6.818486e+00
  2.596072e+01    7.113079e+00
  2.599247e+01    6.600737e+00
  2.602422e+01    5.310268e+00
  2.605597e+01    3.984117e+00
  2.608772e+01    3.026299e+00
  2.611948e+01    2.366127e+00
  2.615123e+01    1.981434e+00
  2.618298e+01    1.689927e+00
  2.621473e+01    1.471197e+00
  2.624648e+01    1.342698e+00
  2.627823e+01    1.264128e+00
  2.630998e+01    1.158548e+00
  2.634173e+01    1.109622e+00
  2.637348e+01    1.082254e+00
  2.640524e+01    1.050244e+00
  2.643699e+01    1.042179e+00
  2.646874e+01    1.024287e+00
  2.650049e+01    9.803888e-01
  2.653224e+01    9.922855e-01
  2.656399e+01    9.800642e-01
  2.659574e+01    9.828202e-01
  2.662749e+01    9.568866e-01
  2.665924e+01    9.793441e-01
  2.669100e+01    9.769575e-01
  2.672275e+01    9.763374e-01
  2.675450e+01    9.771256e-01
  2.678625e+01    9.767917e-01
  2.681800e+01    9.554068e-01
  2.684975e+01    9.887555e-01
  2.688150e+01    9.840068e-01
  2.691325e+01    9.876695e-01
  2.694501e+01    1.026262e+00
  2.697676e+01    1.066612e+00
  2.700851e+01    1.096953e+00
  2.704026e+01    1.195961e+00
  2.707201e+01    1.315939e+00
  2.710376e+01    1.503678e+00
  2.713551e+01    1.736320e+00
  2.716726e+01    1.961298e+00
  2.719901e+01    2.157368e+00
  2.723077e+01    2.186231e+00
  2.726252e+01    1.973060e+00
  2.729427e+01    1.740062e+00
  2.732602e+01    1.449895e+00
  2.735777e+01    1.298484e+00
  2.738952e+01    1.167311e+00
  2.742127e+01    1.102156e+00
  2.745302e+01    1.036635e+00
  2.748477e+01    1.005199e+00
  2.751653e+01    9.684281e-01
  2.754828e+01    9.776193e-01
  2.758003e+01    9.464472e-01
  2.761178e+01    9.315347e-01
  2.764353e+01    9.254242e-01
  2.767528e+01    8.883011e-01
  2.770703e+01    9.052510e-01
  2.773878e+01    9.178073e-01
  2.777054e+01    9.125437e-01
  2.780229e+01    9.022008e-01
  2.783404e+01    8.721003e-01
  2.786579e+01    8.703139e-01
  2.789754e+01    8.984771e-01
  2.792929e+01    8.591229e-01
  2.796104e+01    8.565147e-01
  2.799279e+01    8.800920e-01
  2.802454e+01    8.825524e-01
  2.805630e+01    8.435482e-01
  2.808805e+01    8.761234e-01
  2.811980e+01    8.607568e-01
  2.815155e+01    8.262247e-01
  2.818330e+01    8.336619e-01
  2.821505e+01    8.495368e-01
  2.824680e+01    8.520042e-01
  2.827855e+01    8.468817e-01
  2.831030e+01    8.676014e-01
  2.834206e+01    8.329789e-01
  2.837381e+01    8.458568e-01
  2.840556e+01    8.387559e-01
  2.843731e+01    8.537121e-01
  2.846906e+01    8.328428e-01
  2.850081e+01    8.385852e-01
  2.853256e+01    8.343886e-01
  2.856431e+01    8.489491e-01
  2.859606e+01    8.541326e-01
  2.862782e+01    8.339846e-01
  2.865957e+01    8.529446e-01
  2.869132e+01    8.265102e-01
  2.872307e+01    8.284893e-01
  2.875482e+01    8.130144e-01
  2.878657e+01    8.209416e-01
  2.881832e+01    8.187631e-01
  2.885007e+01    8.251923e-01
  2.888183e+01    8.380800e-01
  2.891358e+01    8.328458e-01
  2.894533e+01    8.338363e-01
  2.897708e+01    8.162028e-01
  2.900883e+01    8.171219e-01
  2.904058e+01    8.165450e-01
  2.907233e+01    8.087954e-01
  2.910408e+01    8.038848e-01
  2.913583e+01    8.162258e-01
  2.916759e+01    8.262562e-01
  2.919934e+01    8.412924e-01
  2.923109e+01    8.088748e-01
  2.926284e+01    8.001259e-01
  2.929459e+01    8.337219e-01
  2.932634e+01    7.994183e-01
  2.935809e+01    8.073744e-01
  2.938984e+01    8.137680e-01
  2.942159e+01    7.872966e-01
  2.945335e+01    8.122864e-01
  2.948510e+01    8.131668e-01
  2.951685e+01    8.102164e-01
  2.954860e+01    8.103145e-01
  2.958035e+01    7.854914e-01
  2.961210e+01    8.222240e-01
  2.964385e+01    7.852174e-01
  2.967560e+01    7.955863e-01
  2.970736e+01    8.030364e-01
  2.973911e+01    7.853568e-01
  2.977086e+01    8.012120e-01
  2.980261e+01    8.013269e-01
  2.983436e+01    7.830122e-01
  2.986611e+01    7.765977e-01
  2.989786e+01    7.970133e-01
  2.992961e+01    8.189462e-01
  2.996136e+01    7.896703e-01
  2.999312e+01    8.102192e-01
  3.002487e+01    8.112618e-01
  3.005662e+01    8.247228e-01
  3.008837e+01    8.208902e-01
  3.012012e+01    8.023700e-01
  3.015187e+01    8.039267e-01
  3.018362e+01    8.182157e-01
  3.021537e+01    7.951907e-01
  3.024712e+01    7.924505e-01
  3.027888e+01    8.194044e-01
  3.031063e+01    8.029589e-01
  3.034238e+01    8.048281e-01
  3.037413e+01    7.837753e-01
  3.040588e+01    8.086182e-01
  3.043763e+01    7.777109e-01
  3.046938e+01    7.833824e-01
  3.050113e+01    8.037576e-01
  3.053288e+01    7.927716e-01
  3.056464e+01    7.851847e-01
  3.059639e+01    7.927858e-01
  3.062814e+01    7.725307e-01
  3.065989e+01    7.989128e-01
  3.069164e+01    7.760673e-01
  3.072339e+01    7.806141e-01
  3.075514e+01    7.980044e-01
  3.078689e+01    7.906640e-01
  3.081865e+01    7.837833e-01
  3.085040e+01    7.956764e-01
  3.088215e+01    7.628734e-01
  3.091390e+01    7.813860e-01
  3.094565e+01    7.737473e-01
  3.097740e+01    7.803150e-01
  3.100915e+01    7.967016e-01
  3.104090e+01    7.916704e-01
  3.107265e+01    7.915583e-01
  3.110441e+01    7.834299e-01
  3.113616e+01    8.001688e-01
  3.116791e+01    7.806035e-01
  3.119966e+01    7.813143e-01
  3.123141e+01    7.811545e-01
  3.126316e+01    8.174022e-01
  3.129491e+01    7.797379e-01
  3.132666e+01    8.063788e-01
  3.135841e+01    8.088121e-01
  3.139017e+01    8.024477e-01
  3.142192e+01    8.106522e-01
  3.145367e+01    8.150858e-01
  3.148542e+01    8.299448e-01
  3.151717e+01    8.223511e-01
  3.154892e+01    8.591030e-01
  3.158067e+01    8.683304e-01
  3.161242e+01    9.046133e-01
  3.164418e+01    9.065217e-01
  3.167593e+01    9.619327e-01
  3.170768e+01    1.035787e+00
  3.173943e+01    1.107517e+00
  3.177118e+01    1.243342e+00
  3.180293e+01    1.469866e+00
  3.183468e+01    1.727811e+00
  3.186643e+01    1.972277e+00
  3.189818e+01    2.084276e+00
  3.192994e+01    2.066491e+00
  3.196169e+01    1.823985e+00
  3.199344e+01    1.554378e+00
  3.202519e+01    1.305592e+00
  3.205694e+01    1.192193e+00
  3.208869e+01    1.023812e+00
  3.212044e+01    9.773583e-01
  3.215219e+01    9.298609e-01
  3.218394e+01    8.652769e-01
  3.221570e+01    8.432707e-01
  3.224745e+01    8.062171e-01
  3.227920e+01    8.185964e-01
  3.231095e+01    8.036240e-01
  3.234270e+01    8.110954e-01
  3.237445e+01    8.052680e-01
  3.240620e+01    8.046598e-01
  3.243795e+01    7.879916e-01
  3.246970e+01    7.977678e-01
  3.250146e+01    7.996049e-01
  3.253321e+01    7.926682e-01
  3.254908e+01    7.740630e-01