File: XRD/Reaction conditions/2024-07-27_003_Ru-CGO-ex_Reaction_dwell_000023_data_000054.dat
# == pyFAI calibration ==
# Distance Sample to Detector: 0.4 m
# PONI: 9.750e-02, 1.135e-01 m
# Rotations: -0.000175 0.000000 -0.000000 rad
#
# == Fit2d calibration ==
# Distance Sample-beamCenter: 400.000 mm
# Center: x=1514.000, y=1300.000 pix
# Tilt: 0.010 deg  TiltPlanRot: 0.010 deg
#
# Detector Detector	 Spline= None	 PixelSize= 7.500e-05, 7.500e-05 m
#    Detector has a mask: False
#    Detector has a dark current: False
#    detector has a flat field: False
#
# Wavelength: 6.888e-11 m
# Mask applied: user provided
# Dark current applied: False
# Flat field applied: False
# Polarization factor: 0.99
# Normalization factor: 1.0
# --> /home/myspot/data/2024_07_Rosario/Ru-CGO-ex/2024-07-27_003_Ru-CGO-ex_Reaction_dwell_000023_data_000054.dat
#       q_nm^-1             I
  2.003187e-02    0.000000e+00
  5.178302e-02    7.387542e-02
  8.353417e-02    2.055596e-01
  1.152853e-01    6.501801e-02
  1.470365e-01    5.630890e-02
  1.787876e-01    2.378647e-02
  2.105388e-01    4.695478e-02
  2.422899e-01    1.455680e-02
  2.740411e-01    3.528644e-02
  3.057922e-01    6.580091e-02
  3.375433e-01    5.828075e-02
  3.692945e-01    3.374418e-02
  4.010456e-01    3.846614e-02
  4.327968e-01    2.735999e-02
  4.645479e-01    3.129325e-02
  4.962991e-01    3.929278e-02
  5.280502e-01    4.293237e-02
  5.598014e-01    3.111254e-02
  5.915525e-01    3.593958e-02
  6.233037e-01    4.737245e-02
  6.550548e-01    3.748398e-02
  6.868060e-01    3.697257e-02
  7.185571e-01    1.806927e-02
  7.503083e-01    8.304654e-02
  7.820594e-01    1.241775e-01
  8.138106e-01    2.792247e-01
  8.455617e-01    3.545644e-01
  8.773129e-01    4.599983e-01
  9.090640e-01    6.561851e-01
  9.408152e-01    7.739678e-01
  9.725663e-01    1.003456e+00
  1.004317e+00    1.083679e+00
  1.036069e+00    1.283881e+00
  1.067820e+00    1.356708e+00
  1.099571e+00    1.461343e+00
  1.131322e+00    1.682119e+00
  1.163073e+00    1.801088e+00
  1.194824e+00    1.834460e+00
  1.226575e+00    2.243557e+00
  1.258327e+00    2.503440e+00
  1.290078e+00    2.543057e+00
  1.321829e+00    2.693031e+00
  1.353580e+00    2.730077e+00
  1.385331e+00    2.979482e+00
  1.417082e+00    2.947305e+00
  1.448834e+00    3.025240e+00
  1.480585e+00    3.045529e+00
  1.512336e+00    3.018747e+00
  1.544087e+00    3.268649e+00
  1.575838e+00    3.159940e+00
  1.607589e+00    2.941512e+00
  1.639340e+00    3.160814e+00
  1.671092e+00    3.179015e+00
  1.702843e+00    2.934071e+00
  1.734594e+00    3.230534e+00
  1.766345e+00    3.016861e+00
  1.798096e+00    2.985668e+00
  1.829847e+00    3.134423e+00
  1.861598e+00    3.029141e+00
  1.893350e+00    3.102879e+00
  1.925101e+00    3.077022e+00
  1.956852e+00    2.995547e+00
  1.988603e+00    3.118841e+00
  2.020354e+00    2.987758e+00
  2.052105e+00    3.088656e+00
  2.083856e+00    3.144717e+00
  2.115608e+00    3.151086e+00
  2.147359e+00    2.986197e+00
  2.179110e+00    3.080594e+00
  2.210861e+00    3.101125e+00
  2.242612e+00    3.090712e+00
  2.274363e+00    3.164004e+00
  2.306115e+00    3.101231e+00
  2.337866e+00    3.167154e+00
  2.369617e+00    3.133425e+00
  2.401368e+00    3.260124e+00
  2.433119e+00    3.192714e+00
  2.464870e+00    3.159839e+00
  2.496621e+00    3.111456e+00
  2.528373e+00    3.295099e+00
  2.560124e+00    3.185476e+00
  2.591875e+00    3.217567e+00
  2.623626e+00    3.221489e+00
  2.655377e+00    3.216877e+00
  2.687128e+00    3.258459e+00
  2.718879e+00    3.188098e+00
  2.750631e+00    3.159189e+00
  2.782382e+00    3.314634e+00
  2.814133e+00    3.178523e+00
  2.845884e+00    3.245352e+00
  2.877635e+00    3.293493e+00
  2.909386e+00    3.231382e+00
  2.941137e+00    3.266713e+00
  2.972889e+00    3.300463e+00
  3.004640e+00    3.246786e+00
  3.036391e+00    3.426113e+00
  3.068142e+00    3.292148e+00
  3.099893e+00    3.404809e+00
  3.131644e+00    3.382193e+00
  3.163395e+00    3.383750e+00
  3.195147e+00    3.429880e+00
  3.226898e+00    3.377777e+00
  3.258649e+00    3.325101e+00
  3.290400e+00    3.437891e+00
  3.322151e+00    3.441468e+00
  3.353902e+00    3.397405e+00
  3.385654e+00    3.423197e+00
  3.417405e+00    3.443370e+00
  3.449156e+00    3.312509e+00
  3.480907e+00    3.437936e+00
  3.512658e+00    3.462964e+00
  3.544409e+00    3.410575e+00
  3.576160e+00    3.503966e+00
  3.607912e+00    3.384583e+00
  3.639663e+00    3.518435e+00
  3.671414e+00    3.451302e+00
  3.703165e+00    3.340826e+00
  3.734916e+00    3.514078e+00
  3.766667e+00    3.640157e+00
  3.798418e+00    3.608791e+00
  3.830170e+00    3.387908e+00
  3.861921e+00    3.533008e+00
  3.893672e+00    3.525943e+00
  3.925423e+00    3.596727e+00
  3.957174e+00    3.487346e+00
  3.988925e+00    3.452928e+00
  4.020676e+00    3.563629e+00
  4.052428e+00    3.504741e+00
  4.084179e+00    3.535790e+00
  4.115930e+00    3.633427e+00
  4.147681e+00    3.626294e+00
  4.179432e+00    3.637293e+00
  4.211183e+00    3.594047e+00
  4.242935e+00    3.483176e+00
  4.274686e+00    3.652834e+00
  4.306437e+00    3.549244e+00
  4.338188e+00    3.587048e+00
  4.369939e+00    3.616644e+00
  4.401690e+00    3.685131e+00
  4.433441e+00    3.622937e+00
  4.465193e+00    3.592233e+00
  4.496944e+00    3.515760e+00
  4.528695e+00    3.614061e+00
  4.560446e+00    3.629483e+00
  4.592197e+00    3.607403e+00
  4.623948e+00    3.569508e+00
  4.655699e+00    3.512406e+00
  4.687451e+00    3.611474e+00
  4.719202e+00    3.565431e+00
  4.750953e+00    3.654827e+00
  4.782704e+00    3.637438e+00
  4.814455e+00    3.569972e+00
  4.846206e+00    3.656084e+00
  4.877957e+00    3.682009e+00
  4.909709e+00    3.645402e+00
  4.941460e+00    3.727528e+00
  4.973211e+00    3.666430e+00
  5.004962e+00    3.663621e+00
  5.036713e+00    3.678047e+00
  5.068464e+00    3.626410e+00
  5.100216e+00    3.638789e+00
  5.131967e+00    3.690989e+00
  5.163718e+00    3.631345e+00
  5.195469e+00    3.585606e+00
  5.227220e+00    3.671502e+00
  5.258971e+00    3.642269e+00
  5.290722e+00    3.655819e+00
  5.322474e+00    3.602201e+00
  5.354225e+00    3.620502e+00
  5.385976e+00    3.687100e+00
  5.417727e+00    3.631673e+00
  5.449478e+00    3.667778e+00
  5.481229e+00    3.621280e+00
  5.512980e+00    3.466865e+00
  5.544732e+00    3.621217e+00
  5.576483e+00    3.589759e+00
  5.608234e+00    3.639375e+00
  5.639985e+00    3.555983e+00
  5.671736e+00    3.603773e+00
  5.703487e+00    3.555248e+00
  5.735238e+00    3.617806e+00
  5.766990e+00    3.578146e+00
  5.798741e+00    3.530121e+00
  5.830492e+00    3.583027e+00
  5.862243e+00    3.492451e+00
  5.893994e+00    3.677293e+00
  5.925745e+00    3.586112e+00
  5.957497e+00    3.599590e+00
  5.989248e+00    3.533118e+00
  6.020999e+00    3.509016e+00
  6.052750e+00    3.532338e+00
  6.084501e+00    3.610525e+00
  6.116252e+00    3.653855e+00
  6.148003e+00    3.626029e+00
  6.179755e+00    3.606776e+00
  6.211506e+00    3.574448e+00
  6.243257e+00    3.564144e+00
  6.275008e+00    3.551793e+00
  6.306759e+00    3.587955e+00
  6.338510e+00    3.480272e+00
  6.370261e+00    3.514219e+00
  6.402013e+00    3.605609e+00
  6.433764e+00    3.650228e+00
  6.465515e+00    3.540167e+00
  6.497266e+00    3.477197e+00
  6.529017e+00    3.556384e+00
  6.560768e+00    3.655742e+00
  6.592519e+00    3.596209e+00
  6.624271e+00    3.515769e+00
  6.656022e+00    3.591798e+00
  6.687773e+00    3.512349e+00
  6.719524e+00    3.573369e+00
  6.751275e+00    3.548676e+00
  6.783026e+00    3.553939e+00
  6.814777e+00    3.548316e+00
  6.846529e+00    3.597800e+00
  6.878280e+00    3.568710e+00
  6.910031e+00    3.538564e+00
  6.941782e+00    3.529431e+00
  6.973533e+00    3.471224e+00
  7.005284e+00    3.508708e+00
  7.037036e+00    3.583577e+00
  7.068787e+00    3.580093e+00
  7.100538e+00    3.478691e+00
  7.132289e+00    3.514373e+00
  7.164040e+00    3.444516e+00
  7.195791e+00    3.501385e+00
  7.227542e+00    3.566542e+00
  7.259294e+00    3.575150e+00
  7.291045e+00    3.546533e+00
  7.322796e+00    3.513272e+00
  7.354547e+00    3.579091e+00
  7.386298e+00    3.467804e+00
  7.418049e+00    3.524582e+00
  7.449800e+00    3.550632e+00
  7.481552e+00    3.551701e+00
  7.513303e+00    3.533259e+00
  7.545054e+00    3.508169e+00
  7.576805e+00    3.472895e+00
  7.608556e+00    3.478223e+00
  7.640307e+00    3.493679e+00
  7.672058e+00    3.481288e+00
  7.703810e+00    3.370780e+00
  7.735561e+00    3.519015e+00
  7.767312e+00    3.450383e+00
  7.799063e+00    3.391728e+00
  7.830814e+00    3.380687e+00
  7.862565e+00    3.424972e+00
  7.894317e+00    3.400409e+00
  7.926068e+00    3.480575e+00
  7.957819e+00    3.440600e+00
  7.989570e+00    3.385029e+00
  8.021321e+00    3.452820e+00
  8.053072e+00    3.403157e+00
  8.084823e+00    3.385953e+00
  8.116575e+00    3.481881e+00
  8.148326e+00    3.528370e+00
  8.180077e+00    3.383473e+00
  8.211828e+00    3.442585e+00
  8.243579e+00    3.476271e+00
  8.275330e+00    3.330261e+00
  8.307081e+00    3.444861e+00
  8.338833e+00    3.464204e+00
  8.370584e+00    3.442085e+00
  8.402335e+00    3.443677e+00
  8.434086e+00    3.411613e+00
  8.465837e+00    3.408798e+00
  8.497588e+00    3.369679e+00
  8.529339e+00    3.347372e+00
  8.561091e+00    3.355474e+00
  8.592842e+00    3.375790e+00
  8.624593e+00    3.374768e+00
  8.656344e+00    3.322434e+00
  8.688095e+00    3.323964e+00
  8.719846e+00    3.318005e+00
  8.751598e+00    3.351458e+00
  8.783349e+00    3.277905e+00
  8.815100e+00    3.328563e+00
  8.846851e+00    3.299269e+00
  8.878602e+00    3.324778e+00
  8.910353e+00    3.281254e+00
  8.942104e+00    3.308306e+00
  8.973856e+00    3.320230e+00
  9.005607e+00    3.283106e+00
  9.037358e+00    3.310010e+00
  9.069109e+00    3.254099e+00
  9.100860e+00    3.243789e+00
  9.132611e+00    3.228450e+00
  9.164362e+00    3.304055e+00
  9.196114e+00    3.201724e+00
  9.227865e+00    3.183468e+00
  9.259616e+00    3.252858e+00
  9.291367e+00    3.196420e+00
  9.323118e+00    3.199139e+00
  9.354869e+00    3.218441e+00
  9.386620e+00    3.227833e+00
  9.418372e+00    3.277301e+00
  9.450123e+00    3.203175e+00
  9.481874e+00    3.232233e+00
  9.513625e+00    3.163266e+00
  9.545376e+00    3.265806e+00
  9.577127e+00    3.174250e+00
  9.608878e+00    3.203524e+00
  9.640630e+00    3.235280e+00
  9.672381e+00    3.163318e+00
  9.704132e+00    3.196928e+00
  9.735883e+00    3.161640e+00
  9.767634e+00    3.159694e+00
  9.799385e+00    3.165190e+00
  9.831137e+00    3.163523e+00
  9.862888e+00    3.138641e+00
  9.894639e+00    3.133708e+00
  9.926390e+00    3.126394e+00
  9.958141e+00    3.112893e+00
  9.989892e+00    3.146204e+00
  1.002164e+01    3.118088e+00
  1.005339e+01    3.083012e+00
  1.008515e+01    3.122580e+00
  1.011690e+01    3.107961e+00
  1.014865e+01    3.151619e+00
  1.018040e+01    3.006391e+00
  1.021215e+01    3.091057e+00
  1.024390e+01    3.028666e+00
  1.027565e+01    2.987383e+00
  1.030740e+01    3.042880e+00
  1.033915e+01    3.077174e+00
  1.037091e+01    3.019022e+00
  1.040266e+01    3.042862e+00
  1.043441e+01    2.970674e+00
  1.046616e+01    2.989054e+00
  1.049791e+01    3.010438e+00
  1.052966e+01    3.005785e+00
  1.056141e+01    3.019976e+00
  1.059316e+01    2.997573e+00
  1.062492e+01    3.041703e+00
  1.065667e+01    2.984933e+00
  1.068842e+01    3.041195e+00
  1.072017e+01    2.967371e+00
  1.075192e+01    2.898366e+00
  1.078367e+01    2.983279e+00
  1.081542e+01    2.979777e+00
  1.084717e+01    2.915880e+00
  1.087892e+01    2.978992e+00
  1.091068e+01    2.863213e+00
  1.094243e+01    2.895365e+00
  1.097418e+01    2.905919e+00
  1.100593e+01    2.921079e+00
  1.103768e+01    2.919546e+00
  1.106943e+01    2.896575e+00
  1.110118e+01    2.893509e+00
  1.113293e+01    2.865945e+00
  1.116468e+01    2.869390e+00
  1.119644e+01    2.883426e+00
  1.122819e+01    2.856415e+00
  1.125994e+01    2.817408e+00
  1.129169e+01    2.842293e+00
  1.132344e+01    2.826320e+00
  1.135519e+01    2.873520e+00
  1.138694e+01    2.813584e+00
  1.141869e+01    2.773371e+00
  1.145045e+01    2.779524e+00
  1.148220e+01    2.839796e+00
  1.151395e+01    2.767768e+00
  1.154570e+01    2.757886e+00
  1.157745e+01    2.765942e+00
  1.160920e+01    2.783607e+00
  1.164095e+01    2.791803e+00
  1.167270e+01    2.737679e+00
  1.170445e+01    2.796688e+00
  1.173621e+01    2.743299e+00
  1.176796e+01    2.748666e+00
  1.179971e+01    2.761047e+00
  1.183146e+01    2.731358e+00
  1.186321e+01    2.756025e+00
  1.189496e+01    2.778393e+00
  1.192671e+01    2.716669e+00
  1.195846e+01    2.729682e+00
  1.199021e+01    2.734345e+00
  1.202197e+01    2.697027e+00
  1.205372e+01    2.696947e+00
  1.208547e+01    2.717842e+00
  1.211722e+01    2.671140e+00
  1.214897e+01    2.727474e+00
  1.218072e+01    2.669243e+00
  1.221247e+01    2.659149e+00
  1.224422e+01    2.699093e+00
  1.227597e+01    2.677779e+00
  1.230773e+01    2.694649e+00
  1.233948e+01    2.729784e+00
  1.237123e+01    2.707943e+00
  1.240298e+01    2.728660e+00
  1.243473e+01    2.691834e+00
  1.246648e+01    2.677546e+00
  1.249823e+01    2.623689e+00
  1.252998e+01    2.705716e+00
  1.256174e+01    2.694335e+00
  1.259349e+01    2.765791e+00
  1.262524e+01    2.748207e+00
  1.265699e+01    2.754667e+00
  1.268874e+01    2.788763e+00
  1.272049e+01    2.830673e+00
  1.275224e+01    2.884726e+00
  1.278399e+01    2.976373e+00
  1.281574e+01    3.064912e+00
  1.284750e+01    3.188715e+00
  1.287925e+01    3.356533e+00
  1.291100e+01    3.646309e+00
  1.294275e+01    4.081954e+00
  1.297450e+01    4.724147e+00
  1.300625e+01    5.846346e+00
  1.303800e+01    7.490380e+00
  1.306975e+01    1.005818e+01
  1.310150e+01    1.251321e+01
  1.313326e+01    1.466849e+01
  1.316501e+01    1.610357e+01
  1.319676e+01    1.566096e+01
  1.322851e+01    1.248839e+01
  1.326026e+01    9.107481e+00
  1.329201e+01    6.801028e+00
  1.332376e+01    5.424575e+00
  1.335551e+01    4.468739e+00
  1.338727e+01    3.886125e+00
  1.341902e+01    3.458265e+00
  1.345077e+01    3.229648e+00
  1.348252e+01    3.038594e+00
  1.351427e+01    2.921861e+00
  1.354602e+01    2.813504e+00
  1.357777e+01    2.743165e+00
  1.360952e+01    2.698682e+00
  1.364127e+01    2.627271e+00
  1.367303e+01    2.574725e+00
  1.370478e+01    2.554044e+00
  1.373653e+01    2.539904e+00
  1.376828e+01    2.463357e+00
  1.380003e+01    2.474345e+00
  1.383178e+01    2.430941e+00
  1.386353e+01    2.416434e+00
  1.389528e+01    2.421192e+00
  1.392703e+01    2.324501e+00
  1.395879e+01    2.405178e+00
  1.399054e+01    2.394015e+00
  1.402229e+01    2.339058e+00
  1.405404e+01    2.372603e+00
  1.408579e+01    2.333967e+00
  1.411754e+01    2.303807e+00
  1.414929e+01    2.342219e+00
  1.418104e+01    2.302225e+00
  1.421279e+01    2.326830e+00
  1.424455e+01    2.272157e+00
  1.427630e+01    2.253323e+00
  1.430805e+01    2.311055e+00
  1.433980e+01    2.239531e+00
  1.437155e+01    2.227634e+00
  1.440330e+01    2.207654e+00
  1.443505e+01    2.278014e+00
  1.446680e+01    2.223307e+00
  1.449856e+01    2.224221e+00
  1.453031e+01    2.217562e+00
  1.456206e+01    2.199413e+00
  1.459381e+01    2.219126e+00
  1.462556e+01    2.190266e+00
  1.465731e+01    2.258605e+00
  1.468906e+01    2.213924e+00
  1.472081e+01    2.198898e+00
  1.475256e+01    2.227430e+00
  1.478432e+01    2.216753e+00
  1.481607e+01    2.201474e+00
  1.484782e+01    2.201453e+00
  1.487957e+01    2.268573e+00
  1.491132e+01    2.191734e+00
  1.494307e+01    2.300975e+00
  1.497482e+01    2.344166e+00
  1.500657e+01    2.411519e+00
  1.503832e+01    2.614512e+00
  1.507008e+01    2.818437e+00
  1.510183e+01    3.182064e+00
  1.513358e+01    3.785467e+00
  1.516533e+01    4.525833e+00
  1.519708e+01    5.119911e+00
  1.522883e+01    5.569829e+00
  1.526058e+01    5.751691e+00
  1.529233e+01    5.461966e+00
  1.532409e+01    4.608000e+00
  1.535584e+01    3.776516e+00
  1.538759e+01    3.168255e+00
  1.541934e+01    2.787113e+00
  1.545109e+01    2.507067e+00
  1.548284e+01    2.356815e+00
  1.551459e+01    2.264014e+00
  1.554634e+01    2.198202e+00
  1.557809e+01    2.140891e+00
  1.560985e+01    2.131432e+00
  1.564160e+01    2.058473e+00
  1.567335e+01    2.019210e+00
  1.570510e+01    1.998791e+00
  1.573685e+01    1.932547e+00
  1.576860e+01    1.948270e+00
  1.580035e+01    1.934807e+00
  1.583210e+01    1.901720e+00
  1.586385e+01    1.894791e+00
  1.589561e+01    1.899045e+00
  1.592736e+01    1.934973e+00
  1.595911e+01    1.874447e+00
  1.599086e+01    1.847425e+00
  1.602261e+01    1.880746e+00
  1.605436e+01    1.817754e+00
  1.608611e+01    1.808609e+00
  1.611786e+01    1.818830e+00
  1.614961e+01    1.851107e+00
  1.618137e+01    1.839485e+00
  1.621312e+01    1.791693e+00
  1.624487e+01    1.815912e+00
  1.627662e+01    1.827721e+00
  1.630837e+01    1.830751e+00
  1.634012e+01    1.802045e+00
  1.637187e+01    1.778180e+00
  1.640362e+01    1.759151e+00
  1.643538e+01    1.737799e+00
  1.646713e+01    1.783308e+00
  1.649888e+01    1.769660e+00
  1.653063e+01    1.774512e+00
  1.656238e+01    1.714391e+00
  1.659413e+01    1.754300e+00
  1.662588e+01    1.767498e+00
  1.665763e+01    1.737947e+00
  1.668938e+01    1.734700e+00
  1.672114e+01    1.684739e+00
  1.675289e+01    1.720024e+00
  1.678464e+01    1.724329e+00
  1.681639e+01    1.695891e+00
  1.684814e+01    1.711593e+00
  1.687989e+01    1.712176e+00
  1.691164e+01    1.710523e+00
  1.694339e+01    1.674380e+00
  1.697514e+01    1.690628e+00
  1.700690e+01    1.711137e+00
  1.703865e+01    1.684932e+00
  1.707040e+01    1.645743e+00
  1.710215e+01    1.645881e+00
  1.713390e+01    1.676317e+00
  1.716565e+01    1.647679e+00
  1.719740e+01    1.609986e+00
  1.722915e+01    1.639553e+00
  1.726091e+01    1.604777e+00
  1.729266e+01    1.595861e+00
  1.732441e+01    1.612783e+00
  1.735616e+01    1.590425e+00
  1.738791e+01    1.613545e+00
  1.741966e+01    1.609344e+00
  1.745141e+01    1.600028e+00
  1.748316e+01    1.590473e+00
  1.751491e+01    1.564065e+00
  1.754667e+01    1.587417e+00
  1.757842e+01    1.553570e+00
  1.761017e+01    1.551173e+00
  1.764192e+01    1.581852e+00
  1.767367e+01    1.556829e+00
  1.770542e+01    1.568692e+00
  1.773717e+01    1.549044e+00
  1.776892e+01    1.542809e+00
  1.780067e+01    1.518468e+00
  1.783243e+01    1.535269e+00
  1.786418e+01    1.534299e+00
  1.789593e+01    1.526670e+00
  1.792768e+01    1.553714e+00
  1.795943e+01    1.504032e+00
  1.799118e+01    1.484344e+00
  1.802293e+01    1.490829e+00
  1.805468e+01    1.521450e+00
  1.808643e+01    1.491841e+00
  1.811819e+01    1.469404e+00
  1.814994e+01    1.476103e+00
  1.818169e+01    1.471993e+00
  1.821344e+01    1.479341e+00
  1.824519e+01    1.475439e+00
  1.827694e+01    1.495459e+00
  1.830869e+01    1.482477e+00
  1.834044e+01    1.465309e+00
  1.837220e+01    1.467143e+00
  1.840395e+01    1.463811e+00
  1.843570e+01    1.449500e+00
  1.846745e+01    1.465868e+00
  1.849920e+01    1.436505e+00
  1.853095e+01    1.430197e+00
  1.856270e+01    1.468063e+00
  1.859445e+01    1.448456e+00
  1.862620e+01    1.416903e+00
  1.865796e+01    1.435986e+00
  1.868971e+01    1.393081e+00
  1.872146e+01    1.431343e+00
  1.875321e+01    1.407461e+00
  1.878496e+01    1.401734e+00
  1.881671e+01    1.389676e+00
  1.884846e+01    1.421196e+00
  1.888021e+01    1.397729e+00
  1.891196e+01    1.427816e+00
  1.894372e+01    1.387446e+00
  1.897547e+01    1.409136e+00
  1.900722e+01    1.378656e+00
  1.903897e+01    1.364003e+00
  1.907072e+01    1.383731e+00
  1.910247e+01    1.373575e+00
  1.913422e+01    1.387504e+00
  1.916597e+01    1.381796e+00
  1.919773e+01    1.381362e+00
  1.922948e+01    1.332106e+00
  1.926123e+01    1.354357e+00
  1.929298e+01    1.323413e+00
  1.932473e+01    1.372485e+00
  1.935648e+01    1.323044e+00
  1.938823e+01    1.367978e+00
  1.941998e+01    1.343752e+00
  1.945173e+01    1.329881e+00
  1.948349e+01    1.332396e+00
  1.951524e+01    1.349348e+00
  1.954699e+01    1.318180e+00
  1.957874e+01    1.326410e+00
  1.961049e+01    1.307081e+00
  1.964224e+01    1.329682e+00
  1.967399e+01    1.312645e+00
  1.970574e+01    1.313567e+00
  1.973749e+01    1.335671e+00
  1.976925e+01    1.294116e+00
  1.980100e+01    1.310974e+00
  1.983275e+01    1.305524e+00
  1.986450e+01    1.297332e+00
  1.989625e+01    1.281292e+00
  1.992800e+01    1.277863e+00
  1.995975e+01    1.314532e+00
  1.999150e+01    1.274833e+00
  2.002325e+01    1.277534e+00
  2.005501e+01    1.286962e+00
  2.008676e+01    1.275830e+00
  2.011851e+01    1.254842e+00
  2.015026e+01    1.263892e+00
  2.018201e+01    1.278219e+00
  2.021376e+01    1.277936e+00
  2.024551e+01    1.276051e+00
  2.027726e+01    1.251133e+00
  2.030902e+01    1.252288e+00
  2.034077e+01    1.214164e+00
  2.037252e+01    1.245976e+00
  2.040427e+01    1.247297e+00
  2.043602e+01    1.253012e+00
  2.046777e+01    1.245653e+00
  2.049952e+01    1.241163e+00
  2.053127e+01    1.261081e+00
  2.056302e+01    1.224023e+00
  2.059478e+01    1.217401e+00
  2.062653e+01    1.247379e+00
  2.065828e+01    1.224754e+00
  2.069003e+01    1.227898e+00
  2.072178e+01    1.229863e+00
  2.075353e+01    1.229150e+00
  2.078528e+01    1.230984e+00
  2.081703e+01    1.237302e+00
  2.084878e+01    1.213593e+00
  2.088054e+01    1.202172e+00
  2.091229e+01    1.231380e+00
  2.094404e+01    1.246332e+00
  2.097579e+01    1.223819e+00
  2.100754e+01    1.222881e+00
  2.103929e+01    1.237234e+00
  2.107104e+01    1.249737e+00
  2.110279e+01    1.227724e+00
  2.113455e+01    1.241296e+00
  2.116630e+01    1.231460e+00
  2.119805e+01    1.239647e+00
  2.122980e+01    1.237202e+00
  2.126155e+01    1.269332e+00
  2.129330e+01    1.271596e+00
  2.132505e+01    1.243283e+00
  2.135680e+01    1.285398e+00
  2.138855e+01    1.286546e+00
  2.142031e+01    1.329796e+00
  2.145206e+01    1.344785e+00
  2.148381e+01    1.406378e+00
  2.151556e+01    1.446445e+00
  2.154731e+01    1.484048e+00
  2.157906e+01    1.596170e+00
  2.161081e+01    1.783702e+00
  2.164256e+01    2.002635e+00
  2.167431e+01    2.250378e+00
  2.170607e+01    2.769140e+00
  2.173782e+01    3.511544e+00
  2.176957e+01    4.468749e+00
  2.180132e+01    5.731473e+00
  2.183307e+01    7.081138e+00
  2.186482e+01    8.256889e+00
  2.189657e+01    8.860876e+00
  2.192832e+01    8.271221e+00
  2.196007e+01    6.599819e+00
  2.199183e+01    4.915685e+00
  2.202358e+01    3.644474e+00
  2.205533e+01    2.864656e+00
  2.208708e+01    2.346146e+00
  2.211883e+01    1.988736e+00
  2.215058e+01    1.773943e+00
  2.218233e+01    1.618583e+00
  2.221408e+01    1.485316e+00
  2.224584e+01    1.431106e+00
  2.227759e+01    1.357341e+00
  2.230934e+01    1.294969e+00
  2.234109e+01    1.264055e+00
  2.237284e+01    1.239152e+00
  2.240459e+01    1.226481e+00
  2.243634e+01    1.185131e+00
  2.246809e+01    1.148271e+00
  2.249984e+01    1.142750e+00
  2.253160e+01    1.132107e+00
  2.256335e+01    1.139173e+00
  2.259510e+01    1.115304e+00
  2.262685e+01    1.085382e+00
  2.265860e+01    1.076666e+00
  2.269035e+01    1.068425e+00
  2.272210e+01    1.047719e+00
  2.275385e+01    1.058933e+00
  2.278560e+01    1.074189e+00
  2.281736e+01    1.040066e+00
  2.284911e+01    1.047909e+00
  2.288086e+01    1.023135e+00
  2.291261e+01    1.047825e+00
  2.294436e+01    1.057564e+00
  2.297611e+01    1.028861e+00
  2.300786e+01    1.024979e+00
  2.303961e+01    9.972014e-01
  2.307137e+01    1.005221e+00
  2.310312e+01    1.007602e+00
  2.313487e+01    1.005291e+00
  2.316662e+01    1.012354e+00
  2.319837e+01    9.888926e-01
  2.323012e+01    9.781932e-01
  2.326187e+01    9.909056e-01
  2.329362e+01    9.886163e-01
  2.332537e+01    9.768262e-01
  2.335713e+01    9.754536e-01
  2.338888e+01    9.643325e-01
  2.342063e+01    9.993582e-01
  2.345238e+01    9.709080e-01
  2.348413e+01    9.596118e-01
  2.351588e+01    9.439892e-01
  2.354763e+01    9.440812e-01
  2.357938e+01    9.521965e-01
  2.361113e+01    9.557928e-01
  2.364289e+01    9.555855e-01
  2.367464e+01    9.357669e-01
  2.370639e+01    9.361450e-01
  2.373814e+01    9.354872e-01
  2.376989e+01    9.255140e-01
  2.380164e+01    9.164708e-01
  2.383339e+01    9.234748e-01
  2.386514e+01    9.288255e-01
  2.389689e+01    9.041937e-01
  2.392865e+01    9.065056e-01
  2.396040e+01    9.141752e-01
  2.399215e+01    8.950549e-01
  2.402390e+01    8.815753e-01
  2.405565e+01    8.769279e-01
  2.408740e+01    8.976362e-01
  2.411915e+01    8.867790e-01
  2.415090e+01    8.936475e-01
  2.418266e+01    8.865718e-01
  2.421441e+01    8.926404e-01
  2.424616e+01    8.708371e-01
  2.427791e+01    8.924604e-01
  2.430966e+01    9.132141e-01
  2.434141e+01    8.974134e-01
  2.437316e+01    8.959781e-01
  2.440491e+01    8.934395e-01
  2.443666e+01    8.748788e-01
  2.446842e+01    8.912016e-01
  2.450017e+01    8.846173e-01
  2.453192e+01    9.022085e-01
  2.456367e+01    8.991368e-01
  2.459542e+01    8.769057e-01
  2.462717e+01    8.921968e-01
  2.465892e+01    9.149287e-01
  2.469067e+01    8.867867e-01
  2.472242e+01    8.935586e-01
  2.475418e+01    8.882040e-01
  2.478593e+01    8.814088e-01
  2.481768e+01    8.996409e-01
  2.484943e+01    9.031577e-01
  2.488118e+01    8.741669e-01
  2.491293e+01    9.078791e-01
  2.494468e+01    9.079208e-01
  2.497643e+01    8.792605e-01
  2.500819e+01    8.885248e-01
  2.503994e+01    8.964243e-01
  2.507169e+01    8.802296e-01
  2.510344e+01    9.279169e-01
  2.513519e+01    9.141963e-01
  2.516694e+01    9.232189e-01
  2.519869e+01    9.325123e-01
  2.523044e+01    9.106106e-01
  2.526219e+01    9.419952e-01
  2.529395e+01    9.508206e-01
  2.532570e+01    9.813212e-01
  2.535745e+01    9.635182e-01
  2.538920e+01    9.986595e-01
  2.542095e+01    1.008404e+00
  2.545270e+01    1.014611e+00
  2.548445e+01    1.023067e+00
  2.551620e+01    1.101469e+00
  2.554795e+01    1.112553e+00
  2.557971e+01    1.172009e+00
  2.561146e+01    1.203704e+00
  2.564321e+01    1.314439e+00
  2.567496e+01    1.384314e+00
  2.570671e+01    1.562907e+00
  2.573846e+01    1.841416e+00
  2.577021e+01    2.217443e+00
  2.580196e+01    2.754662e+00
  2.583371e+01    3.542106e+00
  2.586547e+01    4.619642e+00
  2.589722e+01    5.724254e+00
  2.592897e+01    6.679850e+00
  2.596072e+01    7.077885e+00
  2.599247e+01    6.561779e+00
  2.602422e+01    5.347493e+00
  2.605597e+01    4.038196e+00
  2.608772e+01    3.018569e+00
  2.611948e+01    2.379620e+00
  2.615123e+01    1.937504e+00
  2.618298e+01    1.672631e+00
  2.621473e+01    1.530673e+00
  2.624648e+01    1.339742e+00
  2.627823e+01    1.254636e+00
  2.630998e+01    1.166198e+00
  2.634173e+01    1.125460e+00
  2.637348e+01    1.092157e+00
  2.640524e+01    1.038501e+00
  2.643699e+01    1.040778e+00
  2.646874e+01    1.002996e+00
  2.650049e+01    1.005178e+00
  2.653224e+01    1.020389e+00
  2.656399e+01    9.820406e-01
  2.659574e+01    9.917741e-01
  2.662749e+01    9.738435e-01
  2.665924e+01    9.669096e-01
  2.669100e+01    9.393944e-01
  2.672275e+01    9.717349e-01
  2.675450e+01    9.579872e-01
  2.678625e+01    9.685341e-01
  2.681800e+01    9.532698e-01
  2.684975e+01    9.609988e-01
  2.688150e+01    9.775104e-01
  2.691325e+01    1.016607e+00
  2.694501e+01    1.016021e+00
  2.697676e+01    1.055349e+00
  2.700851e+01    1.106806e+00
  2.704026e+01    1.215624e+00
  2.707201e+01    1.310404e+00
  2.710376e+01    1.481314e+00
  2.713551e+01    1.716527e+00
  2.716726e+01    1.929651e+00
  2.719901e+01    2.130755e+00
  2.723077e+01    2.127648e+00
  2.726252e+01    1.954121e+00
  2.729427e+01    1.705437e+00
  2.732602e+01    1.466477e+00
  2.735777e+01    1.283706e+00
  2.738952e+01    1.149828e+00
  2.742127e+01    1.094867e+00
  2.745302e+01    1.019799e+00
  2.748477e+01    1.032519e+00
  2.751653e+01    9.638242e-01
  2.754828e+01    9.520363e-01
  2.758003e+01    9.455407e-01
  2.761178e+01    9.095913e-01
  2.764353e+01    9.121449e-01
  2.767528e+01    8.978827e-01
  2.770703e+01    8.983486e-01
  2.773878e+01    8.932185e-01
  2.777054e+01    8.971831e-01
  2.780229e+01    8.945823e-01
  2.783404e+01    8.965131e-01
  2.786579e+01    8.877428e-01
  2.789754e+01    8.883161e-01
  2.792929e+01    9.033893e-01
  2.796104e+01    8.714364e-01
  2.799279e+01    8.867770e-01
  2.802454e+01    8.786387e-01
  2.805630e+01    8.608603e-01
  2.808805e+01    8.573514e-01
  2.811980e+01    8.829120e-01
  2.815155e+01    8.363959e-01
  2.818330e+01    8.602712e-01
  2.821505e+01    8.621888e-01
  2.824680e+01    8.491447e-01
  2.827855e+01    8.708327e-01
  2.831030e+01    8.537965e-01
  2.834206e+01    8.416603e-01
  2.837381e+01    8.564095e-01
  2.840556e+01    8.585095e-01
  2.843731e+01    8.367042e-01
  2.846906e+01    8.438409e-01
  2.850081e+01    8.429229e-01
  2.853256e+01    8.450115e-01
  2.856431e+01    8.129116e-01
  2.859606e+01    8.577802e-01
  2.862782e+01    8.279510e-01
  2.865957e+01    8.582242e-01
  2.869132e+01    8.538231e-01
  2.872307e+01    8.191293e-01
  2.875482e+01    8.060304e-01
  2.878657e+01    8.146207e-01
  2.881832e+01    8.292266e-01
  2.885007e+01    8.316532e-01
  2.888183e+01    8.143758e-01
  2.891358e+01    8.099399e-01
  2.894533e+01    8.348386e-01
  2.897708e+01    8.038561e-01
  2.900883e+01    8.235845e-01
  2.904058e+01    8.221809e-01
  2.907233e+01    7.933200e-01
  2.910408e+01    8.297961e-01
  2.913583e+01    8.015478e-01
  2.916759e+01    8.218652e-01
  2.919934e+01    7.989764e-01
  2.923109e+01    7.993721e-01
  2.926284e+01    8.141308e-01
  2.929459e+01    8.031374e-01
  2.932634e+01    8.380781e-01
  2.935809e+01    8.315731e-01
  2.938984e+01    7.845371e-01
  2.942159e+01    8.131103e-01
  2.945335e+01    7.915508e-01
  2.948510e+01    8.113235e-01
  2.951685e+01    8.006524e-01
  2.954860e+01    8.061919e-01
  2.958035e+01    7.967857e-01
  2.961210e+01    8.180295e-01
  2.964385e+01    8.070283e-01
  2.967560e+01    8.043676e-01
  2.970736e+01    7.923512e-01
  2.973911e+01    7.985486e-01
  2.977086e+01    7.823705e-01
  2.980261e+01    7.842539e-01
  2.983436e+01    7.897016e-01
  2.986611e+01    7.891206e-01
  2.989786e+01    7.860807e-01
  2.992961e+01    7.864352e-01
  2.996136e+01    8.132498e-01
  2.999312e+01    8.179723e-01
  3.002487e+01    7.903705e-01
  3.005662e+01    7.925602e-01
  3.008837e+01    8.219329e-01
  3.012012e+01    7.804023e-01
  3.015187e+01    7.872238e-01
  3.018362e+01    7.973184e-01
  3.021537e+01    8.031462e-01
  3.024712e+01    7.779678e-01
  3.027888e+01    7.957869e-01
  3.031063e+01    7.938249e-01
  3.034238e+01    7.819855e-01
  3.037413e+01    7.702590e-01
  3.040588e+01    7.790810e-01
  3.043763e+01    8.186421e-01
  3.046938e+01    7.920234e-01
  3.050113e+01    8.019210e-01
  3.053288e+01    7.831675e-01
  3.056464e+01    7.846928e-01
  3.059639e+01    7.813308e-01
  3.062814e+01    7.951322e-01
  3.065989e+01    7.913179e-01
  3.069164e+01    7.651672e-01
  3.072339e+01    7.943237e-01
  3.075514e+01    8.160032e-01
  3.078689e+01    7.796701e-01
  3.081865e+01    7.908904e-01
  3.085040e+01    7.751139e-01
  3.088215e+01    8.166244e-01
  3.091390e+01    7.779778e-01
  3.094565e+01    7.778523e-01
  3.097740e+01    7.735398e-01
  3.100915e+01    7.855146e-01
  3.104090e+01    7.901359e-01
  3.107265e+01    7.720755e-01
  3.110441e+01    7.776965e-01
  3.113616e+01    7.606584e-01
  3.116791e+01    8.008485e-01
  3.119966e+01    8.041457e-01
  3.123141e+01    7.840943e-01
  3.126316e+01    8.051712e-01
  3.129491e+01    7.960478e-01
  3.132666e+01    7.937661e-01
  3.135841e+01    7.599486e-01
  3.139017e+01    7.991301e-01
  3.142192e+01    8.036098e-01
  3.145367e+01    8.185815e-01
  3.148542e+01    8.244277e-01
  3.151717e+01    8.330076e-01
  3.154892e+01    8.359866e-01
  3.158067e+01    8.694296e-01
  3.161242e+01    8.972304e-01
  3.164418e+01    9.112061e-01
  3.167593e+01    9.489676e-01
  3.170768e+01    1.014162e+00
  3.173943e+01    1.128570e+00
  3.177118e+01    1.236090e+00
  3.180293e+01    1.431411e+00
  3.183468e+01    1.652637e+00
  3.186643e+01    1.910162e+00
  3.189818e+01    2.066793e+00
  3.192994e+01    1.995708e+00
  3.196169e+01    1.826093e+00
  3.199344e+01    1.571813e+00
  3.202519e+01    1.298285e+00
  3.205694e+01    1.197198e+00
  3.208869e+01    1.049758e+00
  3.212044e+01    9.779437e-01
  3.215219e+01    8.995514e-01
  3.218394e+01    8.956441e-01
  3.221570e+01    8.531770e-01
  3.224745e+01    8.310804e-01
  3.227920e+01    8.337976e-01
  3.231095e+01    8.079679e-01
  3.234270e+01    7.851372e-01
  3.237445e+01    8.035505e-01
  3.240620e+01    7.781444e-01
  3.243795e+01    7.994813e-01
  3.246970e+01    7.759618e-01
  3.250146e+01    7.754290e-01
  3.253321e+01    8.004724e-01
  3.254908e+01    7.746280e-01