File: XRD/Reaction conditions/2024-07-27_003_Ru-CGO-ex_Reaction_dwell_000023_data_000085.dat
# == pyFAI calibration ==
# Distance Sample to Detector: 0.4 m
# PONI: 9.750e-02, 1.135e-01 m
# Rotations: -0.000175 0.000000 -0.000000 rad
#
# == Fit2d calibration ==
# Distance Sample-beamCenter: 400.000 mm
# Center: x=1514.000, y=1300.000 pix
# Tilt: 0.010 deg  TiltPlanRot: 0.010 deg
#
# Detector Detector	 Spline= None	 PixelSize= 7.500e-05, 7.500e-05 m
#    Detector has a mask: False
#    Detector has a dark current: False
#    detector has a flat field: False
#
# Wavelength: 6.888e-11 m
# Mask applied: user provided
# Dark current applied: False
# Flat field applied: False
# Polarization factor: 0.99
# Normalization factor: 1.0
# --> /home/myspot/data/2024_07_Rosario/Ru-CGO-ex/2024-07-27_003_Ru-CGO-ex_Reaction_dwell_000023_data_000085.dat
#       q_nm^-1             I
  2.003187e-02    0.000000e+00
  5.178302e-02    2.671064e-02
  8.353417e-02    2.061996e-01
  1.152853e-01    4.336030e-02
  1.470365e-01    1.007033e-01
  1.787876e-01    3.289878e-02
  2.105388e-01    1.681185e-02
  2.422899e-01    5.395178e-02
  2.740411e-01    4.916428e-02
  3.057922e-01    6.011055e-02
  3.375433e-01    2.231732e-02
  3.692945e-01    7.729653e-02
  4.010456e-01    3.415168e-02
  4.327968e-01    1.540672e-02
  4.645479e-01    4.051188e-02
  4.962991e-01    2.453453e-02
  5.280502e-01    2.860043e-02
  5.598014e-01    6.018349e-02
  5.915525e-01    5.284949e-02
  6.233037e-01    4.492742e-02
  6.550548e-01    5.833473e-02
  6.868060e-01    3.360362e-02
  7.185571e-01    3.099150e-02
  7.503083e-01    5.042149e-02
  7.820594e-01    1.169078e-01
  8.138106e-01    2.367577e-01
  8.455617e-01    3.636588e-01
  8.773129e-01    4.658871e-01
  9.090640e-01    6.386687e-01
  9.408152e-01    7.533180e-01
  9.725663e-01    9.172127e-01
  1.004317e+00    1.210477e+00
  1.036069e+00    1.274616e+00
  1.067820e+00    1.529984e+00
  1.099571e+00    1.491181e+00
  1.131322e+00    1.624957e+00
  1.163073e+00    1.614735e+00
  1.194824e+00    1.759387e+00
  1.226575e+00    2.266411e+00
  1.258327e+00    2.415053e+00
  1.290078e+00    2.652282e+00
  1.321829e+00    2.828370e+00
  1.353580e+00    2.709636e+00
  1.385331e+00    2.847450e+00
  1.417082e+00    2.897627e+00
  1.448834e+00    2.949060e+00
  1.480585e+00    2.914855e+00
  1.512336e+00    3.255574e+00
  1.544087e+00    3.326611e+00
  1.575838e+00    3.272682e+00
  1.607589e+00    3.335603e+00
  1.639340e+00    3.133430e+00
  1.671092e+00    3.249252e+00
  1.702843e+00    3.117576e+00
  1.734594e+00    2.998382e+00
  1.766345e+00    3.039545e+00
  1.798096e+00    2.915244e+00
  1.829847e+00    3.182926e+00
  1.861598e+00    3.111522e+00
  1.893350e+00    3.053469e+00
  1.925101e+00    3.093156e+00
  1.956852e+00    3.011304e+00
  1.988603e+00    2.984154e+00
  2.020354e+00    3.068626e+00
  2.052105e+00    3.036072e+00
  2.083856e+00    3.172997e+00
  2.115608e+00    3.198665e+00
  2.147359e+00    3.020148e+00
  2.179110e+00    3.236608e+00
  2.210861e+00    3.177908e+00
  2.242612e+00    3.111518e+00
  2.274363e+00    3.075249e+00
  2.306115e+00    3.150948e+00
  2.337866e+00    3.188715e+00
  2.369617e+00    3.136670e+00
  2.401368e+00    3.151943e+00
  2.433119e+00    3.201163e+00
  2.464870e+00    3.317944e+00
  2.496621e+00    3.219460e+00
  2.528373e+00    3.261826e+00
  2.560124e+00    3.328730e+00
  2.591875e+00    3.186462e+00
  2.623626e+00    3.195719e+00
  2.655377e+00    3.241471e+00
  2.687128e+00    3.256260e+00
  2.718879e+00    3.241426e+00
  2.750631e+00    3.261452e+00
  2.782382e+00    3.360361e+00
  2.814133e+00    3.182198e+00
  2.845884e+00    3.304100e+00
  2.877635e+00    3.300233e+00
  2.909386e+00    3.348609e+00
  2.941137e+00    3.271779e+00
  2.972889e+00    3.373319e+00
  3.004640e+00    3.391113e+00
  3.036391e+00    3.371212e+00
  3.068142e+00    3.378143e+00
  3.099893e+00    3.346058e+00
  3.131644e+00    3.308809e+00
  3.163395e+00    3.437538e+00
  3.195147e+00    3.369706e+00
  3.226898e+00    3.285685e+00
  3.258649e+00    3.447700e+00
  3.290400e+00    3.370106e+00
  3.322151e+00    3.554910e+00
  3.353902e+00    3.390248e+00
  3.385654e+00    3.365902e+00
  3.417405e+00    3.434294e+00
  3.449156e+00    3.468677e+00
  3.480907e+00    3.461620e+00
  3.512658e+00    3.437323e+00
  3.544409e+00    3.581972e+00
  3.576160e+00    3.513501e+00
  3.607912e+00    3.502122e+00
  3.639663e+00    3.477774e+00
  3.671414e+00    3.419731e+00
  3.703165e+00    3.443411e+00
  3.734916e+00    3.430784e+00
  3.766667e+00    3.582843e+00
  3.798418e+00    3.532414e+00
  3.830170e+00    3.533788e+00
  3.861921e+00    3.522704e+00
  3.893672e+00    3.502161e+00
  3.925423e+00    3.376122e+00
  3.957174e+00    3.557390e+00
  3.988925e+00    3.602500e+00
  4.020676e+00    3.561037e+00
  4.052428e+00    3.471883e+00
  4.084179e+00    3.453171e+00
  4.115930e+00    3.485805e+00
  4.147681e+00    3.513910e+00
  4.179432e+00    3.555965e+00
  4.211183e+00    3.558441e+00
  4.242935e+00    3.597973e+00
  4.274686e+00    3.616275e+00
  4.306437e+00    3.528451e+00
  4.338188e+00    3.547668e+00
  4.369939e+00    3.629277e+00
  4.401690e+00    3.550795e+00
  4.433441e+00    3.663338e+00
  4.465193e+00    3.573601e+00
  4.496944e+00    3.468291e+00
  4.528695e+00    3.598417e+00
  4.560446e+00    3.555230e+00
  4.592197e+00    3.661333e+00
  4.623948e+00    3.671218e+00
  4.655699e+00    3.628514e+00
  4.687451e+00    3.668516e+00
  4.719202e+00    3.613486e+00
  4.750953e+00    3.636064e+00
  4.782704e+00    3.544260e+00
  4.814455e+00    3.619479e+00
  4.846206e+00    3.667665e+00
  4.877957e+00    3.607235e+00
  4.909709e+00    3.665657e+00
  4.941460e+00    3.651792e+00
  4.973211e+00    3.606426e+00
  5.004962e+00    3.555866e+00
  5.036713e+00    3.693437e+00
  5.068464e+00    3.691355e+00
  5.100216e+00    3.693851e+00
  5.131967e+00    3.596218e+00
  5.163718e+00    3.704611e+00
  5.195469e+00    3.640229e+00
  5.227220e+00    3.654768e+00
  5.258971e+00    3.753044e+00
  5.290722e+00    3.597509e+00
  5.322474e+00    3.653036e+00
  5.354225e+00    3.645219e+00
  5.385976e+00    3.645653e+00
  5.417727e+00    3.646224e+00
  5.449478e+00    3.558647e+00
  5.481229e+00    3.628753e+00
  5.512980e+00    3.654469e+00
  5.544732e+00    3.643893e+00
  5.576483e+00    3.580032e+00
  5.608234e+00    3.570413e+00
  5.639985e+00    3.581063e+00
  5.671736e+00    3.620726e+00
  5.703487e+00    3.611618e+00
  5.735238e+00    3.613675e+00
  5.766990e+00    3.620226e+00
  5.798741e+00    3.569554e+00
  5.830492e+00    3.674694e+00
  5.862243e+00    3.584824e+00
  5.893994e+00    3.503087e+00
  5.925745e+00    3.527144e+00
  5.957497e+00    3.602443e+00
  5.989248e+00    3.578105e+00
  6.020999e+00    3.428063e+00
  6.052750e+00    3.530776e+00
  6.084501e+00    3.561744e+00
  6.116252e+00    3.712018e+00
  6.148003e+00    3.638276e+00
  6.179755e+00    3.589931e+00
  6.211506e+00    3.568051e+00
  6.243257e+00    3.469480e+00
  6.275008e+00    3.558654e+00
  6.306759e+00    3.484838e+00
  6.338510e+00    3.568905e+00
  6.370261e+00    3.546743e+00
  6.402013e+00    3.520647e+00
  6.433764e+00    3.566923e+00
  6.465515e+00    3.548130e+00
  6.497266e+00    3.563271e+00
  6.529017e+00    3.504029e+00
  6.560768e+00    3.519966e+00
  6.592519e+00    3.493929e+00
  6.624271e+00    3.580388e+00
  6.656022e+00    3.488113e+00
  6.687773e+00    3.567938e+00
  6.719524e+00    3.606021e+00
  6.751275e+00    3.493731e+00
  6.783026e+00    3.579657e+00
  6.814777e+00    3.553090e+00
  6.846529e+00    3.547118e+00
  6.878280e+00    3.579158e+00
  6.910031e+00    3.467129e+00
  6.941782e+00    3.522004e+00
  6.973533e+00    3.522812e+00
  7.005284e+00    3.589615e+00
  7.037036e+00    3.499683e+00
  7.068787e+00    3.558240e+00
  7.100538e+00    3.493201e+00
  7.132289e+00    3.463524e+00
  7.164040e+00    3.549560e+00
  7.195791e+00    3.526847e+00
  7.227542e+00    3.517540e+00
  7.259294e+00    3.495378e+00
  7.291045e+00    3.514708e+00
  7.322796e+00    3.545966e+00
  7.354547e+00    3.444688e+00
  7.386298e+00    3.490498e+00
  7.418049e+00    3.480882e+00
  7.449800e+00    3.499881e+00
  7.481552e+00    3.478986e+00
  7.513303e+00    3.420733e+00
  7.545054e+00    3.479919e+00
  7.576805e+00    3.438361e+00
  7.608556e+00    3.411812e+00
  7.640307e+00    3.452531e+00
  7.672058e+00    3.435596e+00
  7.703810e+00    3.441172e+00
  7.735561e+00    3.366979e+00
  7.767312e+00    3.396279e+00
  7.799063e+00    3.379672e+00
  7.830814e+00    3.444887e+00
  7.862565e+00    3.399083e+00
  7.894317e+00    3.481482e+00
  7.926068e+00    3.470064e+00
  7.957819e+00    3.411714e+00
  7.989570e+00    3.453593e+00
  8.021321e+00    3.450459e+00
  8.053072e+00    3.398711e+00
  8.084823e+00    3.507271e+00
  8.116575e+00    3.419106e+00
  8.148326e+00    3.429435e+00
  8.180077e+00    3.471217e+00
  8.211828e+00    3.435116e+00
  8.243579e+00    3.454892e+00
  8.275330e+00    3.424844e+00
  8.307081e+00    3.453721e+00
  8.338833e+00    3.385191e+00
  8.370584e+00    3.426342e+00
  8.402335e+00    3.403920e+00
  8.434086e+00    3.460262e+00
  8.465837e+00    3.399297e+00
  8.497588e+00    3.361605e+00
  8.529339e+00    3.332246e+00
  8.561091e+00    3.349590e+00
  8.592842e+00    3.358753e+00
  8.624593e+00    3.384229e+00
  8.656344e+00    3.383699e+00
  8.688095e+00    3.349132e+00
  8.719846e+00    3.311769e+00
  8.751598e+00    3.409680e+00
  8.783349e+00    3.318397e+00
  8.815100e+00    3.295468e+00
  8.846851e+00    3.306274e+00
  8.878602e+00    3.283446e+00
  8.910353e+00    3.323887e+00
  8.942104e+00    3.308443e+00
  8.973856e+00    3.306691e+00
  9.005607e+00    3.314112e+00
  9.037358e+00    3.258772e+00
  9.069109e+00    3.330428e+00
  9.100860e+00    3.286804e+00
  9.132611e+00    3.293143e+00
  9.164362e+00    3.219653e+00
  9.196114e+00    3.270351e+00
  9.227865e+00    3.216179e+00
  9.259616e+00    3.230553e+00
  9.291367e+00    3.242431e+00
  9.323118e+00    3.295670e+00
  9.354869e+00    3.279812e+00
  9.386620e+00    3.228539e+00
  9.418372e+00    3.208325e+00
  9.450123e+00    3.172440e+00
  9.481874e+00    3.191375e+00
  9.513625e+00    3.219773e+00
  9.545376e+00    3.236296e+00
  9.577127e+00    3.232193e+00
  9.608878e+00    3.219380e+00
  9.640630e+00    3.187363e+00
  9.672381e+00    3.189240e+00
  9.704132e+00    3.260079e+00
  9.735883e+00    3.183939e+00
  9.767634e+00    3.176719e+00
  9.799385e+00    3.222615e+00
  9.831137e+00    3.110215e+00
  9.862888e+00    3.143512e+00
  9.894639e+00    3.099488e+00
  9.926390e+00    3.126778e+00
  9.958141e+00    3.096776e+00
  9.989892e+00    3.128754e+00
  1.002164e+01    3.161770e+00
  1.005339e+01    3.133445e+00
  1.008515e+01    3.087481e+00
  1.011690e+01    3.144523e+00
  1.014865e+01    3.146210e+00
  1.018040e+01    3.075297e+00
  1.021215e+01    3.124251e+00
  1.024390e+01    3.085481e+00
  1.027565e+01    3.131567e+00
  1.030740e+01    3.073502e+00
  1.033915e+01    3.020148e+00
  1.037091e+01    2.988080e+00
  1.040266e+01    3.032906e+00
  1.043441e+01    2.983983e+00
  1.046616e+01    3.052463e+00
  1.049791e+01    2.998876e+00
  1.052966e+01    2.971233e+00
  1.056141e+01    3.035104e+00
  1.059316e+01    2.988175e+00
  1.062492e+01    3.000151e+00
  1.065667e+01    2.953697e+00
  1.068842e+01    2.945431e+00
  1.072017e+01    2.998001e+00
  1.075192e+01    2.982556e+00
  1.078367e+01    2.906270e+00
  1.081542e+01    2.916987e+00
  1.084717e+01    2.961997e+00
  1.087892e+01    2.934550e+00
  1.091068e+01    2.935913e+00
  1.094243e+01    2.999882e+00
  1.097418e+01    2.856013e+00
  1.100593e+01    2.892947e+00
  1.103768e+01    2.860165e+00
  1.106943e+01    2.884208e+00
  1.110118e+01    2.849596e+00
  1.113293e+01    2.896714e+00
  1.116468e+01    2.864202e+00
  1.119644e+01    2.880838e+00
  1.122819e+01    2.860460e+00
  1.125994e+01    2.836285e+00
  1.129169e+01    2.862050e+00
  1.132344e+01    2.855438e+00
  1.135519e+01    2.802392e+00
  1.138694e+01    2.821423e+00
  1.141869e+01    2.842748e+00
  1.145045e+01    2.816378e+00
  1.148220e+01    2.779112e+00
  1.151395e+01    2.825866e+00
  1.154570e+01    2.840217e+00
  1.157745e+01    2.814529e+00
  1.160920e+01    2.792208e+00
  1.164095e+01    2.792816e+00
  1.167270e+01    2.746139e+00
  1.170445e+01    2.763943e+00
  1.173621e+01    2.746727e+00
  1.176796e+01    2.709440e+00
  1.179971e+01    2.719102e+00
  1.183146e+01    2.785043e+00
  1.186321e+01    2.746879e+00
  1.189496e+01    2.685115e+00
  1.192671e+01    2.716413e+00
  1.195846e+01    2.734423e+00
  1.199021e+01    2.681634e+00
  1.202197e+01    2.694885e+00
  1.205372e+01    2.704408e+00
  1.208547e+01    2.717507e+00
  1.211722e+01    2.628145e+00
  1.214897e+01    2.683672e+00
  1.218072e+01    2.651835e+00
  1.221247e+01    2.702091e+00
  1.224422e+01    2.681128e+00
  1.227597e+01    2.783107e+00
  1.230773e+01    2.694657e+00
  1.233948e+01    2.657583e+00
  1.237123e+01    2.673946e+00
  1.240298e+01    2.655357e+00
  1.243473e+01    2.656418e+00
  1.246648e+01    2.712503e+00
  1.249823e+01    2.697010e+00
  1.252998e+01    2.732900e+00
  1.256174e+01    2.763034e+00
  1.259349e+01    2.754799e+00
  1.262524e+01    2.783078e+00
  1.265699e+01    2.827515e+00
  1.268874e+01    2.791427e+00
  1.272049e+01    2.848794e+00
  1.275224e+01    2.846622e+00
  1.278399e+01    2.975574e+00
  1.281574e+01    3.050261e+00
  1.284750e+01    3.190841e+00
  1.287925e+01    3.350250e+00
  1.291100e+01    3.711093e+00
  1.294275e+01    4.091873e+00
  1.297450e+01    4.821153e+00
  1.300625e+01    6.053161e+00
  1.303800e+01    7.814676e+00
  1.306975e+01    1.019995e+01
  1.310150e+01    1.283140e+01
  1.313326e+01    1.497853e+01
  1.316501e+01    1.646533e+01
  1.319676e+01    1.560208e+01
  1.322851e+01    1.243239e+01
  1.326026e+01    8.966911e+00
  1.329201e+01    6.761281e+00
  1.332376e+01    5.347400e+00
  1.335551e+01    4.419084e+00
  1.338727e+01    3.837213e+00
  1.341902e+01    3.484862e+00
  1.345077e+01    3.228814e+00
  1.348252e+01    3.073304e+00
  1.351427e+01    2.894726e+00
  1.354602e+01    2.786887e+00
  1.357777e+01    2.716115e+00
  1.360952e+01    2.686277e+00
  1.364127e+01    2.642756e+00
  1.367303e+01    2.546198e+00
  1.370478e+01    2.561977e+00
  1.373653e+01    2.529364e+00
  1.376828e+01    2.500637e+00
  1.380003e+01    2.413874e+00
  1.383178e+01    2.441779e+00
  1.386353e+01    2.429435e+00
  1.389528e+01    2.380549e+00
  1.392703e+01    2.408124e+00
  1.395879e+01    2.369844e+00
  1.399054e+01    2.341093e+00
  1.402229e+01    2.335588e+00
  1.405404e+01    2.342696e+00
  1.408579e+01    2.313908e+00
  1.411754e+01    2.307387e+00
  1.414929e+01    2.313976e+00
  1.418104e+01    2.304267e+00
  1.421279e+01    2.329985e+00
  1.424455e+01    2.308311e+00
  1.427630e+01    2.263453e+00
  1.430805e+01    2.282330e+00
  1.433980e+01    2.245355e+00
  1.437155e+01    2.241088e+00
  1.440330e+01    2.205739e+00
  1.443505e+01    2.219570e+00
  1.446680e+01    2.238601e+00
  1.449856e+01    2.273330e+00
  1.453031e+01    2.215916e+00
  1.456206e+01    2.236016e+00
  1.459381e+01    2.206766e+00
  1.462556e+01    2.248975e+00
  1.465731e+01    2.231029e+00
  1.468906e+01    2.183082e+00
  1.472081e+01    2.163404e+00
  1.475256e+01    2.170796e+00
  1.478432e+01    2.225101e+00
  1.481607e+01    2.219295e+00
  1.484782e+01    2.233343e+00
  1.487957e+01    2.280125e+00
  1.491132e+01    2.235393e+00
  1.494307e+01    2.258447e+00
  1.497482e+01    2.362635e+00
  1.500657e+01    2.469631e+00
  1.503832e+01    2.566954e+00
  1.507008e+01    2.887614e+00
  1.510183e+01    3.225964e+00
  1.513358e+01    3.773623e+00
  1.516533e+01    4.574555e+00
  1.519708e+01    5.281035e+00
  1.522883e+01    5.545073e+00
  1.526058e+01    5.810691e+00
  1.529233e+01    5.439686e+00
  1.532409e+01    4.599659e+00
  1.535584e+01    3.714343e+00
  1.538759e+01    3.139163e+00
  1.541934e+01    2.796880e+00
  1.545109e+01    2.492515e+00
  1.548284e+01    2.347578e+00
  1.551459e+01    2.261904e+00
  1.554634e+01    2.190999e+00
  1.557809e+01    2.140505e+00
  1.560985e+01    2.133933e+00
  1.564160e+01    2.047758e+00
  1.567335e+01    1.985928e+00
  1.570510e+01    2.005444e+00
  1.573685e+01    2.009534e+00
  1.576860e+01    1.964768e+00
  1.580035e+01    1.951021e+00
  1.583210e+01    1.936360e+00
  1.586385e+01    1.927568e+00
  1.589561e+01    1.887092e+00
  1.592736e+01    1.866687e+00
  1.595911e+01    1.882671e+00
  1.599086e+01    1.876883e+00
  1.602261e+01    1.861480e+00
  1.605436e+01    1.869020e+00
  1.608611e+01    1.866822e+00
  1.611786e+01    1.871340e+00
  1.614961e+01    1.812773e+00
  1.618137e+01    1.827787e+00
  1.621312e+01    1.784301e+00
  1.624487e+01    1.835211e+00
  1.627662e+01    1.815936e+00
  1.630837e+01    1.810501e+00
  1.634012e+01    1.793029e+00
  1.637187e+01    1.760281e+00
  1.640362e+01    1.767165e+00
  1.643538e+01    1.729811e+00
  1.646713e+01    1.751880e+00
  1.649888e+01    1.772338e+00
  1.653063e+01    1.730330e+00
  1.656238e+01    1.732864e+00
  1.659413e+01    1.762434e+00
  1.662588e+01    1.739513e+00
  1.665763e+01    1.726515e+00
  1.668938e+01    1.720035e+00
  1.672114e+01    1.711518e+00
  1.675289e+01    1.694096e+00
  1.678464e+01    1.708373e+00
  1.681639e+01    1.678861e+00
  1.684814e+01    1.692954e+00
  1.687989e+01    1.722861e+00
  1.691164e+01    1.694540e+00
  1.694339e+01    1.683904e+00
  1.697514e+01    1.695834e+00
  1.700690e+01    1.644025e+00
  1.703865e+01    1.648609e+00
  1.707040e+01    1.671819e+00
  1.710215e+01    1.658136e+00
  1.713390e+01    1.664016e+00
  1.716565e+01    1.626961e+00
  1.719740e+01    1.654422e+00
  1.722915e+01    1.594596e+00
  1.726091e+01    1.636775e+00
  1.729266e+01    1.608484e+00
  1.732441e+01    1.630859e+00
  1.735616e+01    1.609693e+00
  1.738791e+01    1.624651e+00
  1.741966e+01    1.567949e+00
  1.745141e+01    1.619937e+00
  1.748316e+01    1.633482e+00
  1.751491e+01    1.570513e+00
  1.754667e+01    1.599940e+00
  1.757842e+01    1.558586e+00
  1.761017e+01    1.550056e+00
  1.764192e+01    1.563715e+00
  1.767367e+01    1.580377e+00
  1.770542e+01    1.541134e+00
  1.773717e+01    1.549134e+00
  1.776892e+01    1.547405e+00
  1.780067e+01    1.546833e+00
  1.783243e+01    1.523127e+00
  1.786418e+01    1.516527e+00
  1.789593e+01    1.539085e+00
  1.792768e+01    1.568315e+00
  1.795943e+01    1.507921e+00
  1.799118e+01    1.526366e+00
  1.802293e+01    1.520519e+00
  1.805468e+01    1.522184e+00
  1.808643e+01    1.486379e+00
  1.811819e+01    1.499079e+00
  1.814994e+01    1.490627e+00
  1.818169e+01    1.502906e+00
  1.821344e+01    1.475353e+00
  1.824519e+01    1.453258e+00
  1.827694e+01    1.480869e+00
  1.830869e+01    1.474585e+00
  1.834044e+01    1.476585e+00
  1.837220e+01    1.466387e+00
  1.840395e+01    1.457413e+00
  1.843570e+01    1.459050e+00
  1.846745e+01    1.461080e+00
  1.849920e+01    1.460205e+00
  1.853095e+01    1.444543e+00
  1.856270e+01    1.436585e+00
  1.859445e+01    1.463558e+00
  1.862620e+01    1.459157e+00
  1.865796e+01    1.410589e+00
  1.868971e+01    1.445694e+00
  1.872146e+01    1.426433e+00
  1.875321e+01    1.400265e+00
  1.878496e+01    1.374877e+00
  1.881671e+01    1.385493e+00
  1.884846e+01    1.409700e+00
  1.888021e+01    1.399093e+00
  1.891196e+01    1.386775e+00
  1.894372e+01    1.372176e+00
  1.897547e+01    1.372879e+00
  1.900722e+01    1.405304e+00
  1.903897e+01    1.389149e+00
  1.907072e+01    1.410555e+00
  1.910247e+01    1.367814e+00
  1.913422e+01    1.367139e+00
  1.916597e+01    1.367706e+00
  1.919773e+01    1.384301e+00
  1.922948e+01    1.373311e+00
  1.926123e+01    1.379350e+00
  1.929298e+01    1.367143e+00
  1.932473e+01    1.341792e+00
  1.935648e+01    1.382792e+00
  1.938823e+01    1.379099e+00
  1.941998e+01    1.339068e+00
  1.945173e+01    1.351769e+00
  1.948349e+01    1.338519e+00
  1.951524e+01    1.348577e+00
  1.954699e+01    1.342367e+00
  1.957874e+01    1.340072e+00
  1.961049e+01    1.307857e+00
  1.964224e+01    1.338586e+00
  1.967399e+01    1.310514e+00
  1.970574e+01    1.312989e+00
  1.973749e+01    1.322208e+00
  1.976925e+01    1.304695e+00
  1.980100e+01    1.285524e+00
  1.983275e+01    1.325343e+00
  1.986450e+01    1.300688e+00
  1.989625e+01    1.285118e+00
  1.992800e+01    1.299491e+00
  1.995975e+01    1.282973e+00
  1.999150e+01    1.269942e+00
  2.002325e+01    1.277682e+00
  2.005501e+01    1.268835e+00
  2.008676e+01    1.273654e+00
  2.011851e+01    1.261325e+00
  2.015026e+01    1.259287e+00
  2.018201e+01    1.260297e+00
  2.021376e+01    1.253808e+00
  2.024551e+01    1.275971e+00
  2.027726e+01    1.263269e+00
  2.030902e+01    1.236051e+00
  2.034077e+01    1.255243e+00
  2.037252e+01    1.267535e+00
  2.040427e+01    1.241361e+00
  2.043602e+01    1.241053e+00
  2.046777e+01    1.230106e+00
  2.049952e+01    1.259974e+00
  2.053127e+01    1.230808e+00
  2.056302e+01    1.233505e+00
  2.059478e+01    1.217897e+00
  2.062653e+01    1.256617e+00
  2.065828e+01    1.245340e+00
  2.069003e+01    1.234957e+00
  2.072178e+01    1.195998e+00
  2.075353e+01    1.230910e+00
  2.078528e+01    1.226257e+00
  2.081703e+01    1.218469e+00
  2.084878e+01    1.236738e+00
  2.088054e+01    1.223147e+00
  2.091229e+01    1.237872e+00
  2.094404e+01    1.230365e+00
  2.097579e+01    1.222216e+00
  2.100754e+01    1.240388e+00
  2.103929e+01    1.204143e+00
  2.107104e+01    1.225154e+00
  2.110279e+01    1.230956e+00
  2.113455e+01    1.256593e+00
  2.116630e+01    1.256977e+00
  2.119805e+01    1.233372e+00
  2.122980e+01    1.236498e+00
  2.126155e+01    1.243745e+00
  2.129330e+01    1.248932e+00
  2.132505e+01    1.276626e+00
  2.135680e+01    1.282069e+00
  2.138855e+01    1.292166e+00
  2.142031e+01    1.339656e+00
  2.145206e+01    1.352891e+00
  2.148381e+01    1.393644e+00
  2.151556e+01    1.477165e+00
  2.154731e+01    1.522128e+00
  2.157906e+01    1.616314e+00
  2.161081e+01    1.752332e+00
  2.164256e+01    1.993342e+00
  2.167431e+01    2.322958e+00
  2.170607e+01    2.823745e+00
  2.173782e+01    3.633234e+00
  2.176957e+01    4.651696e+00
  2.180132e+01    5.958387e+00
  2.183307e+01    7.244238e+00
  2.186482e+01    8.518698e+00
  2.189657e+01    8.988319e+00
  2.192832e+01    8.290439e+00
  2.196007e+01    6.530022e+00
  2.199183e+01    4.825311e+00
  2.202358e+01    3.594245e+00
  2.205533e+01    2.813578e+00
  2.208708e+01    2.296007e+00
  2.211883e+01    2.020830e+00
  2.215058e+01    1.770210e+00
  2.218233e+01    1.628918e+00
  2.221408e+01    1.491219e+00
  2.224584e+01    1.409322e+00
  2.227759e+01    1.352567e+00
  2.230934e+01    1.320143e+00
  2.234109e+01    1.245404e+00
  2.237284e+01    1.218592e+00
  2.240459e+01    1.191649e+00
  2.243634e+01    1.198590e+00
  2.246809e+01    1.168848e+00
  2.249984e+01    1.143029e+00
  2.253160e+01    1.110548e+00
  2.256335e+01    1.117717e+00
  2.259510e+01    1.115765e+00
  2.262685e+01    1.111140e+00
  2.265860e+01    1.100882e+00
  2.269035e+01    1.073788e+00
  2.272210e+01    1.058832e+00
  2.275385e+01    1.085778e+00
  2.278560e+01    1.056464e+00
  2.281736e+01    1.062182e+00
  2.284911e+01    1.046174e+00
  2.288086e+01    1.031463e+00
  2.291261e+01    1.036852e+00
  2.294436e+01    1.041243e+00
  2.297611e+01    1.011870e+00
  2.300786e+01    1.018185e+00
  2.303961e+01    1.027377e+00
  2.307137e+01    9.966277e-01
  2.310312e+01    9.895824e-01
  2.313487e+01    1.002527e+00
  2.316662e+01    9.928246e-01
  2.319837e+01    9.975538e-01
  2.323012e+01    9.819506e-01
  2.326187e+01    9.843360e-01
  2.329362e+01    9.792747e-01
  2.332537e+01    9.763274e-01
  2.335713e+01    9.916212e-01
  2.338888e+01    9.708817e-01
  2.342063e+01    9.406711e-01
  2.345238e+01    9.669269e-01
  2.348413e+01    9.809337e-01
  2.351588e+01    9.827229e-01
  2.354763e+01    9.391766e-01
  2.357938e+01    9.500979e-01
  2.361113e+01    9.311643e-01
  2.364289e+01    9.471402e-01
  2.367464e+01    9.511585e-01
  2.370639e+01    9.478946e-01
  2.373814e+01    9.242783e-01
  2.376989e+01    9.111567e-01
  2.380164e+01    9.199689e-01
  2.383339e+01    9.100631e-01
  2.386514e+01    9.315376e-01
  2.389689e+01    9.299729e-01
  2.392865e+01    9.318286e-01
  2.396040e+01    9.082834e-01
  2.399215e+01    9.135922e-01
  2.402390e+01    8.944524e-01
  2.405565e+01    9.053891e-01
  2.408740e+01    8.786062e-01
  2.411915e+01    8.996111e-01
  2.415090e+01    8.707502e-01
  2.418266e+01    8.865102e-01
  2.421441e+01    8.783790e-01
  2.424616e+01    8.789787e-01
  2.427791e+01    8.940145e-01
  2.430966e+01    9.048150e-01
  2.434141e+01    8.911779e-01
  2.437316e+01    8.916618e-01
  2.440491e+01    9.039944e-01
  2.443666e+01    9.047021e-01
  2.446842e+01    9.024515e-01
  2.450017e+01    8.848668e-01
  2.453192e+01    9.009271e-01
  2.456367e+01    9.012837e-01
  2.459542e+01    8.772481e-01
  2.462717e+01    8.805845e-01
  2.465892e+01    9.003797e-01
  2.469067e+01    9.069581e-01
  2.472242e+01    9.054438e-01
  2.475418e+01    8.981546e-01
  2.478593e+01    8.793247e-01
  2.481768e+01    9.018963e-01
  2.484943e+01    8.753640e-01
  2.488118e+01    8.918321e-01
  2.491293e+01    8.800477e-01
  2.494468e+01    8.776691e-01
  2.497643e+01    9.059223e-01
  2.500819e+01    8.908681e-01
  2.503994e+01    9.092813e-01
  2.507169e+01    9.093758e-01
  2.510344e+01    8.994693e-01
  2.513519e+01    9.113389e-01
  2.516694e+01    9.074696e-01
  2.519869e+01    9.334078e-01
  2.523044e+01    9.292225e-01
  2.526219e+01    9.454941e-01
  2.529395e+01    9.567347e-01
  2.532570e+01    9.672015e-01
  2.535745e+01    9.969839e-01
  2.538920e+01    1.002291e+00
  2.542095e+01    9.875012e-01
  2.545270e+01    1.026742e+00
  2.548445e+01    1.036739e+00
  2.551620e+01    1.074732e+00
  2.554795e+01    1.128078e+00
  2.557971e+01    1.153249e+00
  2.561146e+01    1.243013e+00
  2.564321e+01    1.299665e+00
  2.567496e+01    1.431342e+00
  2.570671e+01    1.638662e+00
  2.573846e+01    1.890401e+00
  2.577021e+01    2.274924e+00
  2.580196e+01    2.880973e+00
  2.583371e+01    3.711428e+00
  2.586547e+01    4.770126e+00
  2.589722e+01    5.898911e+00
  2.592897e+01    6.855715e+00
  2.596072e+01    7.176173e+00
  2.599247e+01    6.572804e+00
  2.602422e+01    5.260584e+00
  2.605597e+01    3.950696e+00
  2.608772e+01    2.955134e+00
  2.611948e+01    2.340281e+00
  2.615123e+01    1.960739e+00
  2.618298e+01    1.665307e+00
  2.621473e+01    1.495862e+00
  2.624648e+01    1.334003e+00
  2.627823e+01    1.243441e+00
  2.630998e+01    1.201264e+00
  2.634173e+01    1.108967e+00
  2.637348e+01    1.088414e+00
  2.640524e+01    1.051568e+00
  2.643699e+01    1.034883e+00
  2.646874e+01    1.014788e+00
  2.650049e+01    1.030902e+00
  2.653224e+01    1.004009e+00
  2.656399e+01    9.869928e-01
  2.659574e+01    9.894687e-01
  2.662749e+01    9.704605e-01
  2.665924e+01    9.667284e-01
  2.669100e+01    9.685973e-01
  2.672275e+01    9.753071e-01
  2.675450e+01    9.705063e-01
  2.678625e+01    9.791721e-01
  2.681800e+01    1.002889e+00
  2.684975e+01    9.766514e-01
  2.688150e+01    1.014034e+00
  2.691325e+01    1.022268e+00
  2.694501e+01    1.021979e+00
  2.697676e+01    1.066854e+00
  2.700851e+01    1.097926e+00
  2.704026e+01    1.199687e+00
  2.707201e+01    1.303670e+00
  2.710376e+01    1.483851e+00
  2.713551e+01    1.733025e+00
  2.716726e+01    2.003691e+00
  2.719901e+01    2.181411e+00
  2.723077e+01    2.178986e+00
  2.726252e+01    1.940909e+00
  2.729427e+01    1.686624e+00
  2.732602e+01    1.428047e+00
  2.735777e+01    1.277528e+00
  2.738952e+01    1.169387e+00
  2.742127e+01    1.085975e+00
  2.745302e+01    1.048483e+00
  2.748477e+01    1.038641e+00
  2.751653e+01    9.659777e-01
  2.754828e+01    9.393635e-01
  2.758003e+01    9.372401e-01
  2.761178e+01    9.346127e-01
  2.764353e+01    9.370162e-01
  2.767528e+01    9.137737e-01
  2.770703e+01    8.999162e-01
  2.773878e+01    9.122404e-01
  2.777054e+01    9.046122e-01
  2.780229e+01    8.899714e-01
  2.783404e+01    8.959820e-01
  2.786579e+01    8.752192e-01
  2.789754e+01    8.750147e-01
  2.792929e+01    8.660365e-01
  2.796104e+01    8.652627e-01
  2.799279e+01    8.838256e-01
  2.802454e+01    8.750536e-01
  2.805630e+01    8.677450e-01
  2.808805e+01    8.367575e-01
  2.811980e+01    8.582835e-01
  2.815155e+01    8.624225e-01
  2.818330e+01    8.437877e-01
  2.821505e+01    8.317984e-01
  2.824680e+01    8.436355e-01
  2.827855e+01    8.579121e-01
  2.831030e+01    8.331885e-01
  2.834206e+01    8.338286e-01
  2.837381e+01    8.471503e-01
  2.840556e+01    8.395605e-01
  2.843731e+01    8.230114e-01
  2.846906e+01    8.438299e-01
  2.850081e+01    8.437679e-01
  2.853256e+01    8.607851e-01
  2.856431e+01    8.434736e-01
  2.859606e+01    8.537056e-01
  2.862782e+01    8.192518e-01
  2.865957e+01    8.558502e-01
  2.869132e+01    8.442093e-01
  2.872307e+01    8.492413e-01
  2.875482e+01    8.405488e-01
  2.878657e+01    8.259847e-01
  2.881832e+01    8.161189e-01
  2.885007e+01    8.321092e-01
  2.888183e+01    8.288141e-01
  2.891358e+01    8.149225e-01
  2.894533e+01    8.323545e-01
  2.897708e+01    8.298298e-01
  2.900883e+01    8.370270e-01
  2.904058e+01    8.336790e-01
  2.907233e+01    8.114223e-01
  2.910408e+01    8.257439e-01
  2.913583e+01    8.159435e-01
  2.916759e+01    8.320113e-01
  2.919934e+01    8.292776e-01
  2.923109e+01    8.172963e-01
  2.926284e+01    8.335335e-01
  2.929459e+01    8.220937e-01
  2.932634e+01    7.900832e-01
  2.935809e+01    7.831352e-01
  2.938984e+01    8.361191e-01
  2.942159e+01    7.959752e-01
  2.945335e+01    7.937040e-01
  2.948510e+01    8.013248e-01
  2.951685e+01    8.150878e-01
  2.954860e+01    7.991825e-01
  2.958035e+01    8.069688e-01
  2.961210e+01    7.885498e-01
  2.964385e+01    7.993596e-01
  2.967560e+01    7.918649e-01
  2.970736e+01    8.290309e-01
  2.973911e+01    7.928147e-01
  2.977086e+01    8.005354e-01
  2.980261e+01    8.028766e-01
  2.983436e+01    7.875141e-01
  2.986611e+01    7.824891e-01
  2.989786e+01    7.980777e-01
  2.992961e+01    7.764631e-01
  2.996136e+01    7.979546e-01
  2.999312e+01    8.059623e-01
  3.002487e+01    8.127645e-01
  3.005662e+01    8.098484e-01
  3.008837e+01    7.909396e-01
  3.012012e+01    7.792190e-01
  3.015187e+01    8.066230e-01
  3.018362e+01    7.921137e-01
  3.021537e+01    7.933474e-01
  3.024712e+01    7.966204e-01
  3.027888e+01    7.718706e-01
  3.031063e+01    8.074551e-01
  3.034238e+01    8.103814e-01
  3.037413e+01    7.901843e-01
  3.040588e+01    7.855852e-01
  3.043763e+01    8.055812e-01
  3.046938e+01    7.740473e-01
  3.050113e+01    7.713611e-01
  3.053288e+01    7.741488e-01
  3.056464e+01    8.004169e-01
  3.059639e+01    7.845570e-01
  3.062814e+01    7.977784e-01
  3.065989e+01    7.810974e-01
  3.069164e+01    7.786450e-01
  3.072339e+01    7.676321e-01
  3.075514e+01    7.967234e-01
  3.078689e+01    7.916592e-01
  3.081865e+01    7.664479e-01
  3.085040e+01    7.949417e-01
  3.088215e+01    7.666510e-01
  3.091390e+01    7.913705e-01
  3.094565e+01    7.753081e-01
  3.097740e+01    7.653639e-01
  3.100915e+01    7.818692e-01
  3.104090e+01    7.745202e-01
  3.107265e+01    7.855906e-01
  3.110441e+01    7.927570e-01
  3.113616e+01    8.066059e-01
  3.116791e+01    7.870408e-01
  3.119966e+01    7.920823e-01
  3.123141e+01    8.070636e-01
  3.126316e+01    7.778530e-01
  3.129491e+01    8.099021e-01
  3.132666e+01    7.903807e-01
  3.135841e+01    7.594647e-01
  3.139017e+01    8.183341e-01
  3.142192e+01    8.042182e-01
  3.145367e+01    8.405464e-01
  3.148542e+01    8.210776e-01
  3.151717e+01    8.275925e-01
  3.154892e+01    8.292004e-01
  3.158067e+01    8.803633e-01
  3.161242e+01    9.028535e-01
  3.164418e+01    9.489608e-01
  3.167593e+01    9.689155e-01
  3.170768e+01    1.022892e+00
  3.173943e+01    1.157253e+00
  3.177118e+01    1.285747e+00
  3.180293e+01    1.527917e+00
  3.183468e+01    1.745404e+00
  3.186643e+01    1.958315e+00
  3.189818e+01    2.107692e+00
  3.192994e+01    2.040258e+00
  3.196169e+01    1.814533e+00
  3.199344e+01    1.526755e+00
  3.202519e+01    1.294077e+00
  3.205694e+01    1.174779e+00
  3.208869e+01    1.046644e+00
  3.212044e+01    1.026544e+00
  3.215219e+01    9.087490e-01
  3.218394e+01    8.931238e-01
  3.221570e+01    8.794782e-01
  3.224745e+01    8.579381e-01
  3.227920e+01    8.208089e-01
  3.231095e+01    8.025487e-01
  3.234270e+01    8.131883e-01
  3.237445e+01    8.164117e-01
  3.240620e+01    7.871701e-01
  3.243795e+01    8.048840e-01
  3.246970e+01    7.692114e-01
  3.250146e+01    7.640188e-01
  3.253321e+01    7.802965e-01
  3.254908e+01    8.051506e-01