File: XRD/Reaction conditions/2024-07-27_003_Ru-CGO-ex_Reaction_dwell_000023_data_000057.dat
# == pyFAI calibration ==
# Distance Sample to Detector: 0.4 m
# PONI: 9.750e-02, 1.135e-01 m
# Rotations: -0.000175 0.000000 -0.000000 rad
#
# == Fit2d calibration ==
# Distance Sample-beamCenter: 400.000 mm
# Center: x=1514.000, y=1300.000 pix
# Tilt: 0.010 deg  TiltPlanRot: 0.010 deg
#
# Detector Detector	 Spline= None	 PixelSize= 7.500e-05, 7.500e-05 m
#    Detector has a mask: False
#    Detector has a dark current: False
#    detector has a flat field: False
#
# Wavelength: 6.888e-11 m
# Mask applied: user provided
# Dark current applied: False
# Flat field applied: False
# Polarization factor: 0.99
# Normalization factor: 1.0
# --> /home/myspot/data/2024_07_Rosario/Ru-CGO-ex/2024-07-27_003_Ru-CGO-ex_Reaction_dwell_000023_data_000057.dat
#       q_nm^-1             I
  2.003187e-02    0.000000e+00
  5.178302e-02    7.389066e-02
  8.353417e-02    2.678270e-01
  1.152853e-01    3.214365e-02
  1.470365e-01    6.074774e-03
  1.787876e-01    5.169594e-02
  2.105388e-01    2.899159e-02
  2.422899e-01    3.286164e-02
  2.740411e-01    3.622657e-02
  3.057922e-01    3.050141e-02
  3.375433e-01    4.350932e-02
  3.692945e-01    6.774962e-03
  4.010456e-01    3.544576e-02
  4.327968e-01    4.487621e-02
  4.645479e-01    4.462071e-02
  4.962991e-01    4.303923e-02
  5.280502e-01    3.865776e-02
  5.598014e-01    5.438875e-02
  5.915525e-01    4.643242e-02
  6.233037e-01    2.458111e-02
  6.550548e-01    3.358768e-02
  6.868060e-01    3.977365e-02
  7.185571e-01    4.821913e-02
  7.503083e-01    5.141959e-02
  7.820594e-01    1.122459e-01
  8.138106e-01    2.761475e-01
  8.455617e-01    3.500536e-01
  8.773129e-01    4.733605e-01
  9.090640e-01    6.766942e-01
  9.408152e-01    7.901766e-01
  9.725663e-01    9.398816e-01
  1.004317e+00    1.232624e+00
  1.036069e+00    1.353425e+00
  1.067820e+00    1.434933e+00
  1.099571e+00    1.600981e+00
  1.131322e+00    1.539708e+00
  1.163073e+00    1.507078e+00
  1.194824e+00    1.619225e+00
  1.226575e+00    2.190310e+00
  1.258327e+00    2.381340e+00
  1.290078e+00    2.715080e+00
  1.321829e+00    2.669442e+00
  1.353580e+00    2.782939e+00
  1.385331e+00    2.853874e+00
  1.417082e+00    2.841986e+00
  1.448834e+00    2.894400e+00
  1.480585e+00    3.096547e+00
  1.512336e+00    3.060361e+00
  1.544087e+00    3.325525e+00
  1.575838e+00    3.099573e+00
  1.607589e+00    3.193516e+00
  1.639340e+00    3.014610e+00
  1.671092e+00    3.177547e+00
  1.702843e+00    3.063568e+00
  1.734594e+00    3.005825e+00
  1.766345e+00    3.137002e+00
  1.798096e+00    3.078147e+00
  1.829847e+00    3.106835e+00
  1.861598e+00    3.101263e+00
  1.893350e+00    2.946326e+00
  1.925101e+00    3.273777e+00
  1.956852e+00    3.074639e+00
  1.988603e+00    2.992659e+00
  2.020354e+00    2.894916e+00
  2.052105e+00    3.195145e+00
  2.083856e+00    3.103734e+00
  2.115608e+00    3.152888e+00
  2.147359e+00    3.138880e+00
  2.179110e+00    3.101340e+00
  2.210861e+00    3.108997e+00
  2.242612e+00    3.105805e+00
  2.274363e+00    3.143063e+00
  2.306115e+00    3.180466e+00
  2.337866e+00    3.221947e+00
  2.369617e+00    3.182061e+00
  2.401368e+00    3.176713e+00
  2.433119e+00    3.178865e+00
  2.464870e+00    3.206555e+00
  2.496621e+00    3.241800e+00
  2.528373e+00    3.210272e+00
  2.560124e+00    3.229721e+00
  2.591875e+00    3.149799e+00
  2.623626e+00    3.194772e+00
  2.655377e+00    3.209993e+00
  2.687128e+00    3.270607e+00
  2.718879e+00    3.253427e+00
  2.750631e+00    3.303094e+00
  2.782382e+00    3.246964e+00
  2.814133e+00    3.361035e+00
  2.845884e+00    3.273467e+00
  2.877635e+00    3.322575e+00
  2.909386e+00    3.243737e+00
  2.941137e+00    3.294259e+00
  2.972889e+00    3.314602e+00
  3.004640e+00    3.362346e+00
  3.036391e+00    3.383552e+00
  3.068142e+00    3.371013e+00
  3.099893e+00    3.400492e+00
  3.131644e+00    3.436746e+00
  3.163395e+00    3.286636e+00
  3.195147e+00    3.494278e+00
  3.226898e+00    3.362952e+00
  3.258649e+00    3.377984e+00
  3.290400e+00    3.456467e+00
  3.322151e+00    3.435225e+00
  3.353902e+00    3.344545e+00
  3.385654e+00    3.504303e+00
  3.417405e+00    3.440634e+00
  3.449156e+00    3.508599e+00
  3.480907e+00    3.568657e+00
  3.512658e+00    3.389042e+00
  3.544409e+00    3.469197e+00
  3.576160e+00    3.503341e+00
  3.607912e+00    3.443235e+00
  3.639663e+00    3.401051e+00
  3.671414e+00    3.503348e+00
  3.703165e+00    3.522655e+00
  3.734916e+00    3.474852e+00
  3.766667e+00    3.553274e+00
  3.798418e+00    3.591064e+00
  3.830170e+00    3.436876e+00
  3.861921e+00    3.474794e+00
  3.893672e+00    3.467059e+00
  3.925423e+00    3.565460e+00
  3.957174e+00    3.474897e+00
  3.988925e+00    3.443343e+00
  4.020676e+00    3.556695e+00
  4.052428e+00    3.559323e+00
  4.084179e+00    3.503575e+00
  4.115930e+00    3.553032e+00
  4.147681e+00    3.484926e+00
  4.179432e+00    3.456969e+00
  4.211183e+00    3.572088e+00
  4.242935e+00    3.499446e+00
  4.274686e+00    3.495110e+00
  4.306437e+00    3.591969e+00
  4.338188e+00    3.547111e+00
  4.369939e+00    3.549996e+00
  4.401690e+00    3.629908e+00
  4.433441e+00    3.563355e+00
  4.465193e+00    3.456363e+00
  4.496944e+00    3.659748e+00
  4.528695e+00    3.521436e+00
  4.560446e+00    3.675790e+00
  4.592197e+00    3.614473e+00
  4.623948e+00    3.606323e+00
  4.655699e+00    3.663827e+00
  4.687451e+00    3.571872e+00
  4.719202e+00    3.542641e+00
  4.750953e+00    3.646996e+00
  4.782704e+00    3.587526e+00
  4.814455e+00    3.718461e+00
  4.846206e+00    3.572440e+00
  4.877957e+00    3.723227e+00
  4.909709e+00    3.620703e+00
  4.941460e+00    3.681500e+00
  4.973211e+00    3.725772e+00
  5.004962e+00    3.701662e+00
  5.036713e+00    3.657421e+00
  5.068464e+00    3.685227e+00
  5.100216e+00    3.740819e+00
  5.131967e+00    3.700662e+00
  5.163718e+00    3.623796e+00
  5.195469e+00    3.644684e+00
  5.227220e+00    3.616846e+00
  5.258971e+00    3.701152e+00
  5.290722e+00    3.598127e+00
  5.322474e+00    3.727715e+00
  5.354225e+00    3.705504e+00
  5.385976e+00    3.754693e+00
  5.417727e+00    3.625801e+00
  5.449478e+00    3.712897e+00
  5.481229e+00    3.632243e+00
  5.512980e+00    3.625482e+00
  5.544732e+00    3.586555e+00
  5.576483e+00    3.664044e+00
  5.608234e+00    3.589738e+00
  5.639985e+00    3.623648e+00
  5.671736e+00    3.605155e+00
  5.703487e+00    3.651264e+00
  5.735238e+00    3.547848e+00
  5.766990e+00    3.590261e+00
  5.798741e+00    3.730687e+00
  5.830492e+00    3.630203e+00
  5.862243e+00    3.585421e+00
  5.893994e+00    3.567903e+00
  5.925745e+00    3.473824e+00
  5.957497e+00    3.515662e+00
  5.989248e+00    3.515088e+00
  6.020999e+00    3.583767e+00
  6.052750e+00    3.502352e+00
  6.084501e+00    3.667161e+00
  6.116252e+00    3.667570e+00
  6.148003e+00    3.652438e+00
  6.179755e+00    3.623426e+00
  6.211506e+00    3.577535e+00
  6.243257e+00    3.628840e+00
  6.275008e+00    3.652045e+00
  6.306759e+00    3.571049e+00
  6.338510e+00    3.507346e+00
  6.370261e+00    3.545255e+00
  6.402013e+00    3.580229e+00
  6.433764e+00    3.614040e+00
  6.465515e+00    3.576440e+00
  6.497266e+00    3.538831e+00
  6.529017e+00    3.673961e+00
  6.560768e+00    3.603461e+00
  6.592519e+00    3.540512e+00
  6.624271e+00    3.595580e+00
  6.656022e+00    3.591143e+00
  6.687773e+00    3.512044e+00
  6.719524e+00    3.585509e+00
  6.751275e+00    3.611239e+00
  6.783026e+00    3.537194e+00
  6.814777e+00    3.665155e+00
  6.846529e+00    3.583073e+00
  6.878280e+00    3.589011e+00
  6.910031e+00    3.524442e+00
  6.941782e+00    3.560685e+00
  6.973533e+00    3.629322e+00
  7.005284e+00    3.589152e+00
  7.037036e+00    3.461146e+00
  7.068787e+00    3.569005e+00
  7.100538e+00    3.535889e+00
  7.132289e+00    3.506327e+00
  7.164040e+00    3.595282e+00
  7.195791e+00    3.529722e+00
  7.227542e+00    3.501926e+00
  7.259294e+00    3.476169e+00
  7.291045e+00    3.573005e+00
  7.322796e+00    3.502536e+00
  7.354547e+00    3.557157e+00
  7.386298e+00    3.463262e+00
  7.418049e+00    3.546381e+00
  7.449800e+00    3.392866e+00
  7.481552e+00    3.451690e+00
  7.513303e+00    3.463053e+00
  7.545054e+00    3.490384e+00
  7.576805e+00    3.483093e+00
  7.608556e+00    3.449896e+00
  7.640307e+00    3.456875e+00
  7.672058e+00    3.495426e+00
  7.703810e+00    3.427853e+00
  7.735561e+00    3.492287e+00
  7.767312e+00    3.488407e+00
  7.799063e+00    3.442337e+00
  7.830814e+00    3.461364e+00
  7.862565e+00    3.432855e+00
  7.894317e+00    3.398399e+00
  7.926068e+00    3.490720e+00
  7.957819e+00    3.495265e+00
  7.989570e+00    3.490080e+00
  8.021321e+00    3.413690e+00
  8.053072e+00    3.446798e+00
  8.084823e+00    3.470287e+00
  8.116575e+00    3.462436e+00
  8.148326e+00    3.444987e+00
  8.180077e+00    3.431400e+00
  8.211828e+00    3.501763e+00
  8.243579e+00    3.490105e+00
  8.275330e+00    3.480168e+00
  8.307081e+00    3.372290e+00
  8.338833e+00    3.424896e+00
  8.370584e+00    3.447173e+00
  8.402335e+00    3.417494e+00
  8.434086e+00    3.399308e+00
  8.465837e+00    3.391828e+00
  8.497588e+00    3.466294e+00
  8.529339e+00    3.371214e+00
  8.561091e+00    3.445008e+00
  8.592842e+00    3.355724e+00
  8.624593e+00    3.367050e+00
  8.656344e+00    3.360351e+00
  8.688095e+00    3.309569e+00
  8.719846e+00    3.400990e+00
  8.751598e+00    3.354531e+00
  8.783349e+00    3.282153e+00
  8.815100e+00    3.320203e+00
  8.846851e+00    3.341137e+00
  8.878602e+00    3.313894e+00
  8.910353e+00    3.317595e+00
  8.942104e+00    3.308678e+00
  8.973856e+00    3.300456e+00
  9.005607e+00    3.319451e+00
  9.037358e+00    3.381555e+00
  9.069109e+00    3.266028e+00
  9.100860e+00    3.305933e+00
  9.132611e+00    3.306114e+00
  9.164362e+00    3.303639e+00
  9.196114e+00    3.293632e+00
  9.227865e+00    3.239747e+00
  9.259616e+00    3.257712e+00
  9.291367e+00    3.303929e+00
  9.323118e+00    3.233484e+00
  9.354869e+00    3.263103e+00
  9.386620e+00    3.242977e+00
  9.418372e+00    3.164536e+00
  9.450123e+00    3.224139e+00
  9.481874e+00    3.253443e+00
  9.513625e+00    3.227071e+00
  9.545376e+00    3.288233e+00
  9.577127e+00    3.211983e+00
  9.608878e+00    3.188841e+00
  9.640630e+00    3.181559e+00
  9.672381e+00    3.179317e+00
  9.704132e+00    3.192233e+00
  9.735883e+00    3.163844e+00
  9.767634e+00    3.190878e+00
  9.799385e+00    3.202486e+00
  9.831137e+00    3.188324e+00
  9.862888e+00    3.134523e+00
  9.894639e+00    3.203704e+00
  9.926390e+00    3.216150e+00
  9.958141e+00    3.189568e+00
  9.989892e+00    3.177188e+00
  1.002164e+01    3.186542e+00
  1.005339e+01    3.114935e+00
  1.008515e+01    3.088468e+00
  1.011690e+01    3.082952e+00
  1.014865e+01    3.095413e+00
  1.018040e+01    3.141570e+00
  1.021215e+01    3.164114e+00
  1.024390e+01    3.072380e+00
  1.027565e+01    3.058784e+00
  1.030740e+01    3.061441e+00
  1.033915e+01    3.074529e+00
  1.037091e+01    3.061697e+00
  1.040266e+01    3.081942e+00
  1.043441e+01    3.073592e+00
  1.046616e+01    3.012996e+00
  1.049791e+01    2.989774e+00
  1.052966e+01    3.051422e+00
  1.056141e+01    3.090755e+00
  1.059316e+01    3.028475e+00
  1.062492e+01    3.035970e+00
  1.065667e+01    2.977161e+00
  1.068842e+01    3.021658e+00
  1.072017e+01    2.999237e+00
  1.075192e+01    3.014665e+00
  1.078367e+01    2.952140e+00
  1.081542e+01    2.975300e+00
  1.084717e+01    2.937438e+00
  1.087892e+01    2.908844e+00
  1.091068e+01    2.953834e+00
  1.094243e+01    2.907744e+00
  1.097418e+01    2.940014e+00
  1.100593e+01    2.898148e+00
  1.103768e+01    2.936480e+00
  1.106943e+01    2.939529e+00
  1.110118e+01    2.928181e+00
  1.113293e+01    2.907926e+00
  1.116468e+01    2.943357e+00
  1.119644e+01    2.813590e+00
  1.122819e+01    2.864117e+00
  1.125994e+01    2.861473e+00
  1.129169e+01    2.913536e+00
  1.132344e+01    2.851808e+00
  1.135519e+01    2.838400e+00
  1.138694e+01    2.876907e+00
  1.141869e+01    2.834050e+00
  1.145045e+01    2.858192e+00
  1.148220e+01    2.863791e+00
  1.151395e+01    2.834813e+00
  1.154570e+01    2.766357e+00
  1.157745e+01    2.828582e+00
  1.160920e+01    2.840286e+00
  1.164095e+01    2.778013e+00
  1.167270e+01    2.810505e+00
  1.170445e+01    2.757011e+00
  1.173621e+01    2.806502e+00
  1.176796e+01    2.759310e+00
  1.179971e+01    2.793020e+00
  1.183146e+01    2.837021e+00
  1.186321e+01    2.819726e+00
  1.189496e+01    2.738050e+00
  1.192671e+01    2.746262e+00
  1.195846e+01    2.689132e+00
  1.199021e+01    2.766221e+00
  1.202197e+01    2.702861e+00
  1.205372e+01    2.746649e+00
  1.208547e+01    2.732252e+00
  1.211722e+01    2.728168e+00
  1.214897e+01    2.695170e+00
  1.218072e+01    2.710366e+00
  1.221247e+01    2.714532e+00
  1.224422e+01    2.674194e+00
  1.227597e+01    2.741782e+00
  1.230773e+01    2.659874e+00
  1.233948e+01    2.735656e+00
  1.237123e+01    2.725986e+00
  1.240298e+01    2.715321e+00
  1.243473e+01    2.647366e+00
  1.246648e+01    2.739291e+00
  1.249823e+01    2.692305e+00
  1.252998e+01    2.719928e+00
  1.256174e+01    2.737625e+00
  1.259349e+01    2.731569e+00
  1.262524e+01    2.747619e+00
  1.265699e+01    2.759807e+00
  1.268874e+01    2.860792e+00
  1.272049e+01    2.884185e+00
  1.275224e+01    2.942380e+00
  1.278399e+01    2.997536e+00
  1.281574e+01    3.118082e+00
  1.284750e+01    3.175413e+00
  1.287925e+01    3.336676e+00
  1.291100e+01    3.645969e+00
  1.294275e+01    4.179414e+00
  1.297450e+01    4.771984e+00
  1.300625e+01    5.926402e+00
  1.303800e+01    7.598991e+00
  1.306975e+01    1.013732e+01
  1.310150e+01    1.266927e+01
  1.313326e+01    1.470801e+01
  1.316501e+01    1.627045e+01
  1.319676e+01    1.568052e+01
  1.322851e+01    1.257579e+01
  1.326026e+01    9.115694e+00
  1.329201e+01    6.843452e+00
  1.332376e+01    5.392843e+00
  1.335551e+01    4.497281e+00
  1.338727e+01    3.876517e+00
  1.341902e+01    3.505157e+00
  1.345077e+01    3.257571e+00
  1.348252e+01    3.052403e+00
  1.351427e+01    2.923899e+00
  1.354602e+01    2.824803e+00
  1.357777e+01    2.776232e+00
  1.360952e+01    2.672396e+00
  1.364127e+01    2.687681e+00
  1.367303e+01    2.578340e+00
  1.370478e+01    2.544518e+00
  1.373653e+01    2.550912e+00
  1.376828e+01    2.459076e+00
  1.380003e+01    2.487887e+00
  1.383178e+01    2.465908e+00
  1.386353e+01    2.454481e+00
  1.389528e+01    2.425690e+00
  1.392703e+01    2.410085e+00
  1.395879e+01    2.391344e+00
  1.399054e+01    2.379888e+00
  1.402229e+01    2.345039e+00
  1.405404e+01    2.339674e+00
  1.408579e+01    2.327910e+00
  1.411754e+01    2.334573e+00
  1.414929e+01    2.373439e+00
  1.418104e+01    2.382006e+00
  1.421279e+01    2.329194e+00
  1.424455e+01    2.282166e+00
  1.427630e+01    2.246207e+00
  1.430805e+01    2.254937e+00
  1.433980e+01    2.270513e+00
  1.437155e+01    2.302204e+00
  1.440330e+01    2.213720e+00
  1.443505e+01    2.267567e+00
  1.446680e+01    2.242892e+00
  1.449856e+01    2.226970e+00
  1.453031e+01    2.243587e+00
  1.456206e+01    2.211548e+00
  1.459381e+01    2.189485e+00
  1.462556e+01    2.210676e+00
  1.465731e+01    2.280831e+00
  1.468906e+01    2.214479e+00
  1.472081e+01    2.223639e+00
  1.475256e+01    2.176340e+00
  1.478432e+01    2.199624e+00
  1.481607e+01    2.204388e+00
  1.484782e+01    2.268308e+00
  1.487957e+01    2.179682e+00
  1.491132e+01    2.259740e+00
  1.494307e+01    2.279253e+00
  1.497482e+01    2.333617e+00
  1.500657e+01    2.466315e+00
  1.503832e+01    2.614342e+00
  1.507008e+01    2.843351e+00
  1.510183e+01    3.200775e+00
  1.513358e+01    3.742773e+00
  1.516533e+01    4.513659e+00
  1.519708e+01    5.168111e+00
  1.522883e+01    5.496435e+00
  1.526058e+01    5.779796e+00
  1.529233e+01    5.421615e+00
  1.532409e+01    4.688705e+00
  1.535584e+01    3.834744e+00
  1.538759e+01    3.222976e+00
  1.541934e+01    2.829585e+00
  1.545109e+01    2.532655e+00
  1.548284e+01    2.412321e+00
  1.551459e+01    2.294193e+00
  1.554634e+01    2.229218e+00
  1.557809e+01    2.102786e+00
  1.560985e+01    2.068509e+00
  1.564160e+01    2.088245e+00
  1.567335e+01    2.061168e+00
  1.570510e+01    1.975982e+00
  1.573685e+01    2.002965e+00
  1.576860e+01    1.964287e+00
  1.580035e+01    1.967934e+00
  1.583210e+01    1.925492e+00
  1.586385e+01    1.900293e+00
  1.589561e+01    1.929765e+00
  1.592736e+01    1.924430e+00
  1.595911e+01    1.891399e+00
  1.599086e+01    1.885648e+00
  1.602261e+01    1.842352e+00
  1.605436e+01    1.853573e+00
  1.608611e+01    1.844510e+00
  1.611786e+01    1.805591e+00
  1.614961e+01    1.820670e+00
  1.618137e+01    1.849202e+00
  1.621312e+01    1.791017e+00
  1.624487e+01    1.842013e+00
  1.627662e+01    1.836099e+00
  1.630837e+01    1.807322e+00
  1.634012e+01    1.817940e+00
  1.637187e+01    1.812638e+00
  1.640362e+01    1.783622e+00
  1.643538e+01    1.816614e+00
  1.646713e+01    1.772799e+00
  1.649888e+01    1.782121e+00
  1.653063e+01    1.784759e+00
  1.656238e+01    1.741731e+00
  1.659413e+01    1.748005e+00
  1.662588e+01    1.776069e+00
  1.665763e+01    1.708036e+00
  1.668938e+01    1.725754e+00
  1.672114e+01    1.718422e+00
  1.675289e+01    1.718807e+00
  1.678464e+01    1.702934e+00
  1.681639e+01    1.682106e+00
  1.684814e+01    1.661512e+00
  1.687989e+01    1.676941e+00
  1.691164e+01    1.689339e+00
  1.694339e+01    1.687141e+00
  1.697514e+01    1.687090e+00
  1.700690e+01    1.704438e+00
  1.703865e+01    1.676256e+00
  1.707040e+01    1.684268e+00
  1.710215e+01    1.683011e+00
  1.713390e+01    1.646063e+00
  1.716565e+01    1.648720e+00
  1.719740e+01    1.648184e+00
  1.722915e+01    1.669282e+00
  1.726091e+01    1.638442e+00
  1.729266e+01    1.587177e+00
  1.732441e+01    1.616657e+00
  1.735616e+01    1.622520e+00
  1.738791e+01    1.604587e+00
  1.741966e+01    1.602408e+00
  1.745141e+01    1.629495e+00
  1.748316e+01    1.610490e+00
  1.751491e+01    1.590076e+00
  1.754667e+01    1.620434e+00
  1.757842e+01    1.595339e+00
  1.761017e+01    1.564374e+00
  1.764192e+01    1.581141e+00
  1.767367e+01    1.526430e+00
  1.770542e+01    1.533081e+00
  1.773717e+01    1.534377e+00
  1.776892e+01    1.539633e+00
  1.780067e+01    1.516517e+00
  1.783243e+01    1.530771e+00
  1.786418e+01    1.573027e+00
  1.789593e+01    1.530129e+00
  1.792768e+01    1.534830e+00
  1.795943e+01    1.513878e+00
  1.799118e+01    1.510102e+00
  1.802293e+01    1.511780e+00
  1.805468e+01    1.528259e+00
  1.808643e+01    1.507908e+00
  1.811819e+01    1.504899e+00
  1.814994e+01    1.479024e+00
  1.818169e+01    1.484015e+00
  1.821344e+01    1.487092e+00
  1.824519e+01    1.501647e+00
  1.827694e+01    1.486869e+00
  1.830869e+01    1.452553e+00
  1.834044e+01    1.491559e+00
  1.837220e+01    1.478286e+00
  1.840395e+01    1.484779e+00
  1.843570e+01    1.462542e+00
  1.846745e+01    1.453745e+00
  1.849920e+01    1.453416e+00
  1.853095e+01    1.463685e+00
  1.856270e+01    1.454829e+00
  1.859445e+01    1.411544e+00
  1.862620e+01    1.428683e+00
  1.865796e+01    1.424331e+00
  1.868971e+01    1.394424e+00
  1.872146e+01    1.446687e+00
  1.875321e+01    1.427532e+00
  1.878496e+01    1.392379e+00
  1.881671e+01    1.411121e+00
  1.884846e+01    1.420877e+00
  1.888021e+01    1.419485e+00
  1.891196e+01    1.381282e+00
  1.894372e+01    1.383113e+00
  1.897547e+01    1.351528e+00
  1.900722e+01    1.357576e+00
  1.903897e+01    1.388356e+00
  1.907072e+01    1.384556e+00
  1.910247e+01    1.350961e+00
  1.913422e+01    1.376852e+00
  1.916597e+01    1.352726e+00
  1.919773e+01    1.383798e+00
  1.922948e+01    1.349195e+00
  1.926123e+01    1.371635e+00
  1.929298e+01    1.373337e+00
  1.932473e+01    1.355120e+00
  1.935648e+01    1.324054e+00
  1.938823e+01    1.356346e+00
  1.941998e+01    1.335117e+00
  1.945173e+01    1.352691e+00
  1.948349e+01    1.370160e+00
  1.951524e+01    1.330559e+00
  1.954699e+01    1.369281e+00
  1.957874e+01    1.317956e+00
  1.961049e+01    1.317698e+00
  1.964224e+01    1.308257e+00
  1.967399e+01    1.322073e+00
  1.970574e+01    1.330429e+00
  1.973749e+01    1.285303e+00
  1.976925e+01    1.315618e+00
  1.980100e+01    1.321582e+00
  1.983275e+01    1.321971e+00
  1.986450e+01    1.306728e+00
  1.989625e+01    1.309974e+00
  1.992800e+01    1.289006e+00
  1.995975e+01    1.306070e+00
  1.999150e+01    1.298098e+00
  2.002325e+01    1.280239e+00
  2.005501e+01    1.311272e+00
  2.008676e+01    1.283198e+00
  2.011851e+01    1.271709e+00
  2.015026e+01    1.303023e+00
  2.018201e+01    1.257548e+00
  2.021376e+01    1.276222e+00
  2.024551e+01    1.299763e+00
  2.027726e+01    1.252808e+00
  2.030902e+01    1.252514e+00
  2.034077e+01    1.257865e+00
  2.037252e+01    1.245318e+00
  2.040427e+01    1.264079e+00
  2.043602e+01    1.257826e+00
  2.046777e+01    1.228741e+00
  2.049952e+01    1.246379e+00
  2.053127e+01    1.252664e+00
  2.056302e+01    1.223443e+00
  2.059478e+01    1.220671e+00
  2.062653e+01    1.244866e+00
  2.065828e+01    1.214797e+00
  2.069003e+01    1.249017e+00
  2.072178e+01    1.239045e+00
  2.075353e+01    1.214957e+00
  2.078528e+01    1.225717e+00
  2.081703e+01    1.260203e+00
  2.084878e+01    1.219771e+00
  2.088054e+01    1.265614e+00
  2.091229e+01    1.229578e+00
  2.094404e+01    1.206902e+00
  2.097579e+01    1.214918e+00
  2.100754e+01    1.239911e+00
  2.103929e+01    1.223861e+00
  2.107104e+01    1.242638e+00
  2.110279e+01    1.239116e+00
  2.113455e+01    1.244620e+00
  2.116630e+01    1.213319e+00
  2.119805e+01    1.257030e+00
  2.122980e+01    1.251904e+00
  2.126155e+01    1.240895e+00
  2.129330e+01    1.256953e+00
  2.132505e+01    1.266679e+00
  2.135680e+01    1.287100e+00
  2.138855e+01    1.312890e+00
  2.142031e+01    1.347942e+00
  2.145206e+01    1.331191e+00
  2.148381e+01    1.372689e+00
  2.151556e+01    1.455624e+00
  2.154731e+01    1.506723e+00
  2.157906e+01    1.625939e+00
  2.161081e+01    1.739316e+00
  2.164256e+01    1.952885e+00
  2.167431e+01    2.275358e+00
  2.170607e+01    2.755847e+00
  2.173782e+01    3.472323e+00
  2.176957e+01    4.492451e+00
  2.180132e+01    5.814308e+00
  2.183307e+01    7.163121e+00
  2.186482e+01    8.310457e+00
  2.189657e+01    8.917158e+00
  2.192832e+01    8.360221e+00
  2.196007e+01    6.700006e+00
  2.199183e+01    5.021170e+00
  2.202358e+01    3.666216e+00
  2.205533e+01    2.845018e+00
  2.208708e+01    2.331371e+00
  2.211883e+01    1.999107e+00
  2.215058e+01    1.769027e+00
  2.218233e+01    1.611780e+00
  2.221408e+01    1.509228e+00
  2.224584e+01    1.408151e+00
  2.227759e+01    1.332745e+00
  2.230934e+01    1.309674e+00
  2.234109e+01    1.252739e+00
  2.237284e+01    1.222205e+00
  2.240459e+01    1.195946e+00
  2.243634e+01    1.206560e+00
  2.246809e+01    1.149807e+00
  2.249984e+01    1.155829e+00
  2.253160e+01    1.146329e+00
  2.256335e+01    1.148085e+00
  2.259510e+01    1.112978e+00
  2.262685e+01    1.105551e+00
  2.265860e+01    1.103235e+00
  2.269035e+01    1.093361e+00
  2.272210e+01    1.079572e+00
  2.275385e+01    1.059717e+00
  2.278560e+01    1.072301e+00
  2.281736e+01    1.064173e+00
  2.284911e+01    1.052300e+00
  2.288086e+01    1.049807e+00
  2.291261e+01    1.026018e+00
  2.294436e+01    1.029688e+00
  2.297611e+01    1.037107e+00
  2.300786e+01    1.045379e+00
  2.303961e+01    1.003343e+00
  2.307137e+01    1.002641e+00
  2.310312e+01    1.021498e+00
  2.313487e+01    9.931827e-01
  2.316662e+01    9.961011e-01
  2.319837e+01    1.010122e+00
  2.323012e+01    9.902936e-01
  2.326187e+01    9.869838e-01
  2.329362e+01    9.735622e-01
  2.332537e+01    9.908253e-01
  2.335713e+01    9.810137e-01
  2.338888e+01    9.869971e-01
  2.342063e+01    9.894171e-01
  2.345238e+01    9.556169e-01
  2.348413e+01    9.861946e-01
  2.351588e+01    9.629177e-01
  2.354763e+01    9.559621e-01
  2.357938e+01    9.457601e-01
  2.361113e+01    9.591866e-01
  2.364289e+01    9.480192e-01
  2.367464e+01    9.399508e-01
  2.370639e+01    9.333063e-01
  2.373814e+01    9.443855e-01
  2.376989e+01    9.526223e-01
  2.380164e+01    9.423708e-01
  2.383339e+01    9.104375e-01
  2.386514e+01    9.078341e-01
  2.389689e+01    9.067052e-01
  2.392865e+01    8.932658e-01
  2.396040e+01    8.819572e-01
  2.399215e+01    9.173157e-01
  2.402390e+01    9.104214e-01
  2.405565e+01    9.076685e-01
  2.408740e+01    8.969018e-01
  2.411915e+01    8.742318e-01
  2.415090e+01    8.992128e-01
  2.418266e+01    8.861676e-01
  2.421441e+01    8.646116e-01
  2.424616e+01    8.900018e-01
  2.427791e+01    9.039723e-01
  2.430966e+01    8.838147e-01
  2.434141e+01    8.880353e-01
  2.437316e+01    9.093636e-01
  2.440491e+01    9.051390e-01
  2.443666e+01    8.908560e-01
  2.446842e+01    9.039493e-01
  2.450017e+01    8.698261e-01
  2.453192e+01    9.019403e-01
  2.456367e+01    8.994992e-01
  2.459542e+01    8.801420e-01
  2.462717e+01    8.997048e-01
  2.465892e+01    8.977073e-01
  2.469067e+01    9.091962e-01
  2.472242e+01    9.030793e-01
  2.475418e+01    8.968406e-01
  2.478593e+01    8.932371e-01
  2.481768e+01    8.708353e-01
  2.484943e+01    9.037787e-01
  2.488118e+01    8.904970e-01
  2.491293e+01    8.989620e-01
  2.494468e+01    8.945052e-01
  2.497643e+01    8.892381e-01
  2.500819e+01    9.174259e-01
  2.503994e+01    8.964909e-01
  2.507169e+01    9.148644e-01
  2.510344e+01    9.058875e-01
  2.513519e+01    9.042581e-01
  2.516694e+01    9.210925e-01
  2.519869e+01    9.404918e-01
  2.523044e+01    9.134645e-01
  2.526219e+01    9.408659e-01
  2.529395e+01    9.573045e-01
  2.532570e+01    9.914328e-01
  2.535745e+01    9.841940e-01
  2.538920e+01    9.867932e-01
  2.542095e+01    1.007309e+00
  2.545270e+01    1.015563e+00
  2.548445e+01    1.022883e+00
  2.551620e+01    1.079572e+00
  2.554795e+01    1.101809e+00
  2.557971e+01    1.157037e+00
  2.561146e+01    1.225825e+00
  2.564321e+01    1.303575e+00
  2.567496e+01    1.410804e+00
  2.570671e+01    1.591802e+00
  2.573846e+01    1.811020e+00
  2.577021e+01    2.185457e+00
  2.580196e+01    2.780030e+00
  2.583371e+01    3.585867e+00
  2.586547e+01    4.607095e+00
  2.589722e+01    5.776133e+00
  2.592897e+01    6.738584e+00
  2.596072e+01    7.187032e+00
  2.599247e+01    6.610840e+00
  2.602422e+01    5.319537e+00
  2.605597e+01    4.006473e+00
  2.608772e+01    3.085726e+00
  2.611948e+01    2.411205e+00
  2.615123e+01    1.960160e+00
  2.618298e+01    1.653909e+00
  2.621473e+01    1.480448e+00
  2.624648e+01    1.343118e+00
  2.627823e+01    1.263800e+00
  2.630998e+01    1.180204e+00
  2.634173e+01    1.121274e+00
  2.637348e+01    1.088959e+00
  2.640524e+01    1.051500e+00
  2.643699e+01    1.027009e+00
  2.646874e+01    1.010500e+00
  2.650049e+01    1.011955e+00
  2.653224e+01    9.956959e-01
  2.656399e+01    9.964160e-01
  2.659574e+01    9.921215e-01
  2.662749e+01    9.678934e-01
  2.665924e+01    9.784442e-01
  2.669100e+01    9.633279e-01
  2.672275e+01    9.755346e-01
  2.675450e+01    9.489492e-01
  2.678625e+01    9.800899e-01
  2.681800e+01    9.417011e-01
  2.684975e+01    9.933847e-01
  2.688150e+01    1.011996e+00
  2.691325e+01    1.018952e+00
  2.694501e+01    1.020880e+00
  2.697676e+01    1.061463e+00
  2.700851e+01    1.135097e+00
  2.704026e+01    1.187940e+00
  2.707201e+01    1.288022e+00
  2.710376e+01    1.489849e+00
  2.713551e+01    1.706912e+00
  2.716726e+01    1.946691e+00
  2.719901e+01    2.117177e+00
  2.723077e+01    2.172937e+00
  2.726252e+01    1.959578e+00
  2.729427e+01    1.705976e+00
  2.732602e+01    1.459563e+00
  2.735777e+01    1.277179e+00
  2.738952e+01    1.184246e+00
  2.742127e+01    1.082063e+00
  2.745302e+01    1.043568e+00
  2.748477e+01    1.015885e+00
  2.751653e+01    9.736037e-01
  2.754828e+01    9.424295e-01
  2.758003e+01    9.361650e-01
  2.761178e+01    9.403335e-01
  2.764353e+01    9.256433e-01
  2.767528e+01    9.098741e-01
  2.770703e+01    9.371414e-01
  2.773878e+01    8.842899e-01
  2.777054e+01    8.932359e-01
  2.780229e+01    9.014569e-01
  2.783404e+01    9.004284e-01
  2.786579e+01    8.834965e-01
  2.789754e+01    8.773532e-01
  2.792929e+01    8.758222e-01
  2.796104e+01    8.612668e-01
  2.799279e+01    8.706585e-01
  2.802454e+01    8.740996e-01
  2.805630e+01    8.548679e-01
  2.808805e+01    8.655303e-01
  2.811980e+01    8.680880e-01
  2.815155e+01    8.640260e-01
  2.818330e+01    8.734639e-01
  2.821505e+01    8.496433e-01
  2.824680e+01    8.457658e-01
  2.827855e+01    8.437077e-01
  2.831030e+01    8.712713e-01
  2.834206e+01    8.607112e-01
  2.837381e+01    8.366596e-01
  2.840556e+01    8.239872e-01
  2.843731e+01    8.324111e-01
  2.846906e+01    8.143139e-01
  2.850081e+01    8.587179e-01
  2.853256e+01    8.290800e-01
  2.856431e+01    8.398909e-01
  2.859606e+01    8.415864e-01
  2.862782e+01    8.263842e-01
  2.865957e+01    8.287446e-01
  2.869132e+01    8.245737e-01
  2.872307e+01    8.158348e-01
  2.875482e+01    8.296759e-01
  2.878657e+01    8.217872e-01
  2.881832e+01    8.268875e-01
  2.885007e+01    8.354015e-01
  2.888183e+01    8.128163e-01
  2.891358e+01    8.291222e-01
  2.894533e+01    8.037929e-01
  2.897708e+01    8.152967e-01
  2.900883e+01    8.113806e-01
  2.904058e+01    8.078048e-01
  2.907233e+01    8.186429e-01
  2.910408e+01    8.069607e-01
  2.913583e+01    8.069026e-01
  2.916759e+01    7.996005e-01
  2.919934e+01    7.870840e-01
  2.923109e+01    8.076882e-01
  2.926284e+01    8.129791e-01
  2.929459e+01    7.970237e-01
  2.932634e+01    8.262072e-01
  2.935809e+01    8.265902e-01
  2.938984e+01    7.888185e-01
  2.942159e+01    8.158324e-01
  2.945335e+01    8.085924e-01
  2.948510e+01    8.291264e-01
  2.951685e+01    7.986029e-01
  2.954860e+01    8.313134e-01
  2.958035e+01    7.973946e-01
  2.961210e+01    7.988119e-01
  2.964385e+01    8.061621e-01
  2.967560e+01    7.853323e-01
  2.970736e+01    8.013223e-01
  2.973911e+01    7.920147e-01
  2.977086e+01    7.772527e-01
  2.980261e+01    7.995237e-01
  2.983436e+01    7.740785e-01
  2.986611e+01    7.972816e-01
  2.989786e+01    7.872970e-01
  2.992961e+01    8.065845e-01
  2.996136e+01    7.850258e-01
  2.999312e+01    8.013552e-01
  3.002487e+01    8.373278e-01
  3.005662e+01    8.173034e-01
  3.008837e+01    8.300027e-01
  3.012012e+01    8.038045e-01
  3.015187e+01    7.917666e-01
  3.018362e+01    7.718866e-01
  3.021537e+01    7.939078e-01
  3.024712e+01    7.991493e-01
  3.027888e+01    7.812064e-01
  3.031063e+01    8.013994e-01
  3.034238e+01    7.801876e-01
  3.037413e+01    7.648353e-01
  3.040588e+01    8.030027e-01
  3.043763e+01    7.766156e-01
  3.046938e+01    7.772580e-01
  3.050113e+01    7.768820e-01
  3.053288e+01    7.608011e-01
  3.056464e+01    7.971708e-01
  3.059639e+01    7.865553e-01
  3.062814e+01    7.776796e-01
  3.065989e+01    7.718341e-01
  3.069164e+01    8.048987e-01
  3.072339e+01    7.919796e-01
  3.075514e+01    8.060256e-01
  3.078689e+01    7.880648e-01
  3.081865e+01    7.846258e-01
  3.085040e+01    7.815309e-01
  3.088215e+01    7.836448e-01
  3.091390e+01    7.966759e-01
  3.094565e+01    8.017703e-01
  3.097740e+01    7.441553e-01
  3.100915e+01    7.964974e-01
  3.104090e+01    7.957960e-01
  3.107265e+01    7.840530e-01
  3.110441e+01    7.830135e-01
  3.113616e+01    7.931789e-01
  3.116791e+01    7.870985e-01
  3.119966e+01    8.170828e-01
  3.123141e+01    7.744050e-01
  3.126316e+01    8.133475e-01
  3.129491e+01    7.864075e-01
  3.132666e+01    7.938629e-01
  3.135841e+01    7.916812e-01
  3.139017e+01    8.158466e-01
  3.142192e+01    8.109927e-01
  3.145367e+01    8.191019e-01
  3.148542e+01    8.417469e-01
  3.151717e+01    8.420509e-01
  3.154892e+01    8.527586e-01
  3.158067e+01    8.484204e-01
  3.161242e+01    8.762938e-01
  3.164418e+01    9.177780e-01
  3.167593e+01    9.619302e-01
  3.170768e+01    1.036733e+00
  3.173943e+01    1.100602e+00
  3.177118e+01    1.207716e+00
  3.180293e+01    1.444431e+00
  3.183468e+01    1.702043e+00
  3.186643e+01    1.958075e+00
  3.189818e+01    2.071442e+00
  3.192994e+01    2.041619e+00
  3.196169e+01    1.820090e+00
  3.199344e+01    1.579911e+00
  3.202519e+01    1.332375e+00
  3.205694e+01    1.200321e+00
  3.208869e+01    1.070756e+00
  3.212044e+01    9.967951e-01
  3.215219e+01    9.242780e-01
  3.218394e+01    8.888549e-01
  3.221570e+01    8.308622e-01
  3.224745e+01    8.268596e-01
  3.227920e+01    8.253329e-01
  3.231095e+01    8.051895e-01
  3.234270e+01    7.901692e-01
  3.237445e+01    8.100141e-01
  3.240620e+01    8.041982e-01
  3.243795e+01    8.018875e-01
  3.246970e+01    7.768667e-01
  3.250146e+01    7.890646e-01
  3.253321e+01    7.810757e-01
  3.254908e+01    7.909076e-01