File: XRD/Reaction conditions/2024-07-27_003_Ru-CGO-ex_Reaction_dwell_000023_data_000189.dat
# == pyFAI calibration ==
# Distance Sample to Detector: 0.4 m
# PONI: 9.750e-02, 1.135e-01 m
# Rotations: -0.000175 0.000000 -0.000000 rad
#
# == Fit2d calibration ==
# Distance Sample-beamCenter: 400.000 mm
# Center: x=1514.000, y=1300.000 pix
# Tilt: 0.010 deg  TiltPlanRot: 0.010 deg
#
# Detector Detector	 Spline= None	 PixelSize= 7.500e-05, 7.500e-05 m
#    Detector has a mask: False
#    Detector has a dark current: False
#    detector has a flat field: False
#
# Wavelength: 6.888e-11 m
# Mask applied: user provided
# Dark current applied: False
# Flat field applied: False
# Polarization factor: 0.99
# Normalization factor: 1.0
# --> /home/myspot/data/2024_07_Rosario/Ru-CGO-ex/2024-07-27_003_Ru-CGO-ex_Reaction_dwell_000023_data_000189.dat
#       q_nm^-1             I
  2.003187e-02    0.000000e+00
  5.178302e-02    7.389066e-02
  8.353417e-02    1.406107e-01
  1.152853e-01    1.577930e-02
  1.470365e-01    3.850335e-02
  1.787876e-01    9.212326e-02
  2.105388e-01    2.833915e-02
  2.422899e-01    9.933781e-02
  2.740411e-01    2.872845e-02
  3.057922e-01    2.667446e-02
  3.375433e-01    7.079733e-02
  3.692945e-01    2.176692e-02
  4.010456e-01    5.453219e-02
  4.327968e-01    5.037784e-02
  4.645479e-01    2.142572e-02
  4.962991e-01    4.646476e-02
  5.280502e-01    3.018781e-02
  5.598014e-01    5.963631e-02
  5.915525e-01    4.603111e-02
  6.233037e-01    1.929686e-02
  6.550548e-01    4.590834e-02
  6.868060e-01    3.601817e-02
  7.185571e-01    2.551411e-02
  7.503083e-01    3.059961e-02
  7.820594e-01    1.287884e-01
  8.138106e-01    1.988603e-01
  8.455617e-01    3.853143e-01
  8.773129e-01    4.764998e-01
  9.090640e-01    6.223285e-01
  9.408152e-01    8.059676e-01
  9.725663e-01    9.921606e-01
  1.004317e+00    1.104031e+00
  1.036069e+00    1.355864e+00
  1.067820e+00    1.385103e+00
  1.099571e+00    1.525684e+00
  1.131322e+00    1.627085e+00
  1.163073e+00    1.723449e+00
  1.194824e+00    1.871565e+00
  1.226575e+00    2.220065e+00
  1.258327e+00    2.427041e+00
  1.290078e+00    2.597247e+00
  1.321829e+00    2.594182e+00
  1.353580e+00    2.737925e+00
  1.385331e+00    2.786046e+00
  1.417082e+00    2.729435e+00
  1.448834e+00    2.913113e+00
  1.480585e+00    3.034919e+00
  1.512336e+00    3.124040e+00
  1.544087e+00    3.218302e+00
  1.575838e+00    3.087618e+00
  1.607589e+00    3.119746e+00
  1.639340e+00    3.056143e+00
  1.671092e+00    2.989006e+00
  1.702843e+00    3.154189e+00
  1.734594e+00    3.117596e+00
  1.766345e+00    3.131912e+00
  1.798096e+00    3.163620e+00
  1.829847e+00    3.087702e+00
  1.861598e+00    3.149763e+00
  1.893350e+00    3.084980e+00
  1.925101e+00    3.115872e+00
  1.956852e+00    3.042256e+00
  1.988603e+00    3.117005e+00
  2.020354e+00    2.856853e+00
  2.052105e+00    3.018937e+00
  2.083856e+00    2.961768e+00
  2.115608e+00    3.002403e+00
  2.147359e+00    3.054993e+00
  2.179110e+00    3.074239e+00
  2.210861e+00    3.102839e+00
  2.242612e+00    2.955271e+00
  2.274363e+00    3.053408e+00
  2.306115e+00    3.045374e+00
  2.337866e+00    3.131978e+00
  2.369617e+00    3.100841e+00
  2.401368e+00    3.169302e+00
  2.433119e+00    3.165674e+00
  2.464870e+00    3.084946e+00
  2.496621e+00    3.129026e+00
  2.528373e+00    3.188640e+00
  2.560124e+00    3.261383e+00
  2.591875e+00    3.216780e+00
  2.623626e+00    3.132340e+00
  2.655377e+00    3.095917e+00
  2.687128e+00    3.186982e+00
  2.718879e+00    3.174338e+00
  2.750631e+00    3.244643e+00
  2.782382e+00    3.220291e+00
  2.814133e+00    3.291935e+00
  2.845884e+00    3.195922e+00
  2.877635e+00    3.183934e+00
  2.909386e+00    3.213507e+00
  2.941137e+00    3.278912e+00
  2.972889e+00    3.230041e+00
  3.004640e+00    3.224496e+00
  3.036391e+00    3.263895e+00
  3.068142e+00    3.333905e+00
  3.099893e+00    3.259377e+00
  3.131644e+00    3.381767e+00
  3.163395e+00    3.278696e+00
  3.195147e+00    3.329445e+00
  3.226898e+00    3.455501e+00
  3.258649e+00    3.281473e+00
  3.290400e+00    3.311284e+00
  3.322151e+00    3.302254e+00
  3.353902e+00    3.362172e+00
  3.385654e+00    3.435073e+00
  3.417405e+00    3.360137e+00
  3.449156e+00    3.312542e+00
  3.480907e+00    3.346845e+00
  3.512658e+00    3.318841e+00
  3.544409e+00    3.419309e+00
  3.576160e+00    3.376172e+00
  3.607912e+00    3.506773e+00
  3.639663e+00    3.379171e+00
  3.671414e+00    3.487406e+00
  3.703165e+00    3.523737e+00
  3.734916e+00    3.326475e+00
  3.766667e+00    3.440303e+00
  3.798418e+00    3.391112e+00
  3.830170e+00    3.497462e+00
  3.861921e+00    3.422085e+00
  3.893672e+00    3.426804e+00
  3.925423e+00    3.434051e+00
  3.957174e+00    3.512495e+00
  3.988925e+00    3.399107e+00
  4.020676e+00    3.508548e+00
  4.052428e+00    3.557932e+00
  4.084179e+00    3.519856e+00
  4.115930e+00    3.520842e+00
  4.147681e+00    3.435914e+00
  4.179432e+00    3.563061e+00
  4.211183e+00    3.522747e+00
  4.242935e+00    3.483845e+00
  4.274686e+00    3.495195e+00
  4.306437e+00    3.410753e+00
  4.338188e+00    3.506243e+00
  4.369939e+00    3.510826e+00
  4.401690e+00    3.514166e+00
  4.433441e+00    3.446409e+00
  4.465193e+00    3.431536e+00
  4.496944e+00    3.523723e+00
  4.528695e+00    3.557714e+00
  4.560446e+00    3.442124e+00
  4.592197e+00    3.573884e+00
  4.623948e+00    3.558781e+00
  4.655699e+00    3.572500e+00
  4.687451e+00    3.634130e+00
  4.719202e+00    3.594379e+00
  4.750953e+00    3.612291e+00
  4.782704e+00    3.534548e+00
  4.814455e+00    3.501635e+00
  4.846206e+00    3.596655e+00
  4.877957e+00    3.605439e+00
  4.909709e+00    3.563829e+00
  4.941460e+00    3.577924e+00
  4.973211e+00    3.581770e+00
  5.004962e+00    3.593003e+00
  5.036713e+00    3.669215e+00
  5.068464e+00    3.586717e+00
  5.100216e+00    3.577670e+00
  5.131967e+00    3.562212e+00
  5.163718e+00    3.527760e+00
  5.195469e+00    3.615622e+00
  5.227220e+00    3.584163e+00
  5.258971e+00    3.599346e+00
  5.290722e+00    3.611593e+00
  5.322474e+00    3.578419e+00
  5.354225e+00    3.604269e+00
  5.385976e+00    3.617152e+00
  5.417727e+00    3.568131e+00
  5.449478e+00    3.520258e+00
  5.481229e+00    3.538899e+00
  5.512980e+00    3.523584e+00
  5.544732e+00    3.616915e+00
  5.576483e+00    3.599792e+00
  5.608234e+00    3.552742e+00
  5.639985e+00    3.540043e+00
  5.671736e+00    3.555998e+00
  5.703487e+00    3.573516e+00
  5.735238e+00    3.506488e+00
  5.766990e+00    3.485021e+00
  5.798741e+00    3.560709e+00
  5.830492e+00    3.533021e+00
  5.862243e+00    3.523754e+00
  5.893994e+00    3.533244e+00
  5.925745e+00    3.403801e+00
  5.957497e+00    3.507835e+00
  5.989248e+00    3.421681e+00
  6.020999e+00    3.452459e+00
  6.052750e+00    3.444935e+00
  6.084501e+00    3.519999e+00
  6.116252e+00    3.492567e+00
  6.148003e+00    3.482537e+00
  6.179755e+00    3.501455e+00
  6.211506e+00    3.542371e+00
  6.243257e+00    3.542304e+00
  6.275008e+00    3.531583e+00
  6.306759e+00    3.483814e+00
  6.338510e+00    3.477036e+00
  6.370261e+00    3.541430e+00
  6.402013e+00    3.469796e+00
  6.433764e+00    3.491314e+00
  6.465515e+00    3.505371e+00
  6.497266e+00    3.536021e+00
  6.529017e+00    3.519430e+00
  6.560768e+00    3.523941e+00
  6.592519e+00    3.464674e+00
  6.624271e+00    3.498011e+00
  6.656022e+00    3.464061e+00
  6.687773e+00    3.437158e+00
  6.719524e+00    3.530556e+00
  6.751275e+00    3.557299e+00
  6.783026e+00    3.479227e+00
  6.814777e+00    3.460037e+00
  6.846529e+00    3.420828e+00
  6.878280e+00    3.446198e+00
  6.910031e+00    3.525781e+00
  6.941782e+00    3.452117e+00
  6.973533e+00    3.417380e+00
  7.005284e+00    3.553189e+00
  7.037036e+00    3.565609e+00
  7.068787e+00    3.538646e+00
  7.100538e+00    3.498870e+00
  7.132289e+00    3.529645e+00
  7.164040e+00    3.506179e+00
  7.195791e+00    3.461997e+00
  7.227542e+00    3.489665e+00
  7.259294e+00    3.494561e+00
  7.291045e+00    3.392744e+00
  7.322796e+00    3.386475e+00
  7.354547e+00    3.451860e+00
  7.386298e+00    3.432650e+00
  7.418049e+00    3.421691e+00
  7.449800e+00    3.390479e+00
  7.481552e+00    3.449386e+00
  7.513303e+00    3.392858e+00
  7.545054e+00    3.418573e+00
  7.576805e+00    3.411070e+00
  7.608556e+00    3.391721e+00
  7.640307e+00    3.397840e+00
  7.672058e+00    3.435458e+00
  7.703810e+00    3.426669e+00
  7.735561e+00    3.422033e+00
  7.767312e+00    3.465661e+00
  7.799063e+00    3.399433e+00
  7.830814e+00    3.434206e+00
  7.862565e+00    3.382890e+00
  7.894317e+00    3.437923e+00
  7.926068e+00    3.311146e+00
  7.957819e+00    3.317890e+00
  7.989570e+00    3.403306e+00
  8.021321e+00    3.362578e+00
  8.053072e+00    3.334233e+00
  8.084823e+00    3.387068e+00
  8.116575e+00    3.352433e+00
  8.148326e+00    3.370166e+00
  8.180077e+00    3.422714e+00
  8.211828e+00    3.409390e+00
  8.243579e+00    3.427441e+00
  8.275330e+00    3.350645e+00
  8.307081e+00    3.297205e+00
  8.338833e+00    3.375864e+00
  8.370584e+00    3.301985e+00
  8.402335e+00    3.318259e+00
  8.434086e+00    3.335969e+00
  8.465837e+00    3.324807e+00
  8.497588e+00    3.371607e+00
  8.529339e+00    3.285715e+00
  8.561091e+00    3.231700e+00
  8.592842e+00    3.319353e+00
  8.624593e+00    3.252168e+00
  8.656344e+00    3.301351e+00
  8.688095e+00    3.230152e+00
  8.719846e+00    3.195896e+00
  8.751598e+00    3.255068e+00
  8.783349e+00    3.297193e+00
  8.815100e+00    3.303378e+00
  8.846851e+00    3.259828e+00
  8.878602e+00    3.254446e+00
  8.910353e+00    3.224169e+00
  8.942104e+00    3.294535e+00
  8.973856e+00    3.292989e+00
  9.005607e+00    3.205598e+00
  9.037358e+00    3.223489e+00
  9.069109e+00    3.202687e+00
  9.100860e+00    3.199770e+00
  9.132611e+00    3.183637e+00
  9.164362e+00    3.229487e+00
  9.196114e+00    3.231464e+00
  9.227865e+00    3.193696e+00
  9.259616e+00    3.174011e+00
  9.291367e+00    3.150194e+00
  9.323118e+00    3.187705e+00
  9.354869e+00    3.170886e+00
  9.386620e+00    3.189484e+00
  9.418372e+00    3.121755e+00
  9.450123e+00    3.161423e+00
  9.481874e+00    3.215170e+00
  9.513625e+00    3.166128e+00
  9.545376e+00    3.111141e+00
  9.577127e+00    3.184077e+00
  9.608878e+00    3.212395e+00
  9.640630e+00    3.204270e+00
  9.672381e+00    3.100354e+00
  9.704132e+00    3.193249e+00
  9.735883e+00    3.136055e+00
  9.767634e+00    3.093715e+00
  9.799385e+00    3.120913e+00
  9.831137e+00    3.098694e+00
  9.862888e+00    3.040937e+00
  9.894639e+00    3.077122e+00
  9.926390e+00    3.092559e+00
  9.958141e+00    3.048576e+00
  9.989892e+00    3.072855e+00
  1.002164e+01    3.002695e+00
  1.005339e+01    3.068662e+00
  1.008515e+01    3.083025e+00
  1.011690e+01    3.032729e+00
  1.014865e+01    3.003556e+00
  1.018040e+01    3.029802e+00
  1.021215e+01    3.086117e+00
  1.024390e+01    3.024160e+00
  1.027565e+01    2.929436e+00
  1.030740e+01    2.981620e+00
  1.033915e+01    2.959520e+00
  1.037091e+01    2.992179e+00
  1.040266e+01    3.001354e+00
  1.043441e+01    2.948003e+00
  1.046616e+01    2.959884e+00
  1.049791e+01    2.935602e+00
  1.052966e+01    2.968388e+00
  1.056141e+01    2.943368e+00
  1.059316e+01    2.954308e+00
  1.062492e+01    2.900599e+00
  1.065667e+01    2.971830e+00
  1.068842e+01    2.861103e+00
  1.072017e+01    2.962642e+00
  1.075192e+01    2.975162e+00
  1.078367e+01    2.895170e+00
  1.081542e+01    2.879344e+00
  1.084717e+01    2.900803e+00
  1.087892e+01    2.801407e+00
  1.091068e+01    2.832949e+00
  1.094243e+01    2.895434e+00
  1.097418e+01    2.814025e+00
  1.100593e+01    2.890622e+00
  1.103768e+01    2.858891e+00
  1.106943e+01    2.863328e+00
  1.110118e+01    2.849440e+00
  1.113293e+01    2.861034e+00
  1.116468e+01    2.807363e+00
  1.119644e+01    2.841550e+00
  1.122819e+01    2.803104e+00
  1.125994e+01    2.808285e+00
  1.129169e+01    2.770415e+00
  1.132344e+01    2.867866e+00
  1.135519e+01    2.740236e+00
  1.138694e+01    2.791517e+00
  1.141869e+01    2.799178e+00
  1.145045e+01    2.790346e+00
  1.148220e+01    2.776392e+00
  1.151395e+01    2.740258e+00
  1.154570e+01    2.762748e+00
  1.157745e+01    2.784331e+00
  1.160920e+01    2.725913e+00
  1.164095e+01    2.705034e+00
  1.167270e+01    2.717104e+00
  1.170445e+01    2.677852e+00
  1.173621e+01    2.691241e+00
  1.176796e+01    2.689052e+00
  1.179971e+01    2.701971e+00
  1.183146e+01    2.736737e+00
  1.186321e+01    2.643184e+00
  1.189496e+01    2.725260e+00
  1.192671e+01    2.698380e+00
  1.195846e+01    2.686270e+00
  1.199021e+01    2.707714e+00
  1.202197e+01    2.700127e+00
  1.205372e+01    2.664097e+00
  1.208547e+01    2.646713e+00
  1.211722e+01    2.658331e+00
  1.214897e+01    2.630488e+00
  1.218072e+01    2.679006e+00
  1.221247e+01    2.648362e+00
  1.224422e+01    2.632089e+00
  1.227597e+01    2.664945e+00
  1.230773e+01    2.604818e+00
  1.233948e+01    2.657215e+00
  1.237123e+01    2.677976e+00
  1.240298e+01    2.669449e+00
  1.243473e+01    2.662477e+00
  1.246648e+01    2.695463e+00
  1.249823e+01    2.679965e+00
  1.252998e+01    2.645486e+00
  1.256174e+01    2.638186e+00
  1.259349e+01    2.690029e+00
  1.262524e+01    2.719166e+00
  1.265699e+01    2.744637e+00
  1.268874e+01    2.739212e+00
  1.272049e+01    2.793481e+00
  1.275224e+01    2.860283e+00
  1.278399e+01    2.910240e+00
  1.281574e+01    2.944484e+00
  1.284750e+01    3.140491e+00
  1.287925e+01    3.325969e+00
  1.291100e+01    3.637932e+00
  1.294275e+01    3.977885e+00
  1.297450e+01    4.717318e+00
  1.300625e+01    5.866431e+00
  1.303800e+01    7.602391e+00
  1.306975e+01    1.007730e+01
  1.310150e+01    1.244069e+01
  1.313326e+01    1.452855e+01
  1.316501e+01    1.602326e+01
  1.319676e+01    1.544019e+01
  1.322851e+01    1.228046e+01
  1.326026e+01    9.013558e+00
  1.329201e+01    6.663257e+00
  1.332376e+01    5.208388e+00
  1.335551e+01    4.297062e+00
  1.338727e+01    3.829351e+00
  1.341902e+01    3.443879e+00
  1.345077e+01    3.220186e+00
  1.348252e+01    2.997026e+00
  1.351427e+01    2.843569e+00
  1.354602e+01    2.757762e+00
  1.357777e+01    2.709141e+00
  1.360952e+01    2.605098e+00
  1.364127e+01    2.566853e+00
  1.367303e+01    2.544595e+00
  1.370478e+01    2.496388e+00
  1.373653e+01    2.459867e+00
  1.376828e+01    2.477251e+00
  1.380003e+01    2.450696e+00
  1.383178e+01    2.368339e+00
  1.386353e+01    2.437270e+00
  1.389528e+01    2.389248e+00
  1.392703e+01    2.366378e+00
  1.395879e+01    2.342380e+00
  1.399054e+01    2.363201e+00
  1.402229e+01    2.345584e+00
  1.405404e+01    2.300503e+00
  1.408579e+01    2.303955e+00
  1.411754e+01    2.248094e+00
  1.414929e+01    2.289737e+00
  1.418104e+01    2.307489e+00
  1.421279e+01    2.261797e+00
  1.424455e+01    2.234637e+00
  1.427630e+01    2.215424e+00
  1.430805e+01    2.239488e+00
  1.433980e+01    2.224275e+00
  1.437155e+01    2.265236e+00
  1.440330e+01    2.251997e+00
  1.443505e+01    2.178306e+00
  1.446680e+01    2.184021e+00
  1.449856e+01    2.189013e+00
  1.453031e+01    2.156164e+00
  1.456206e+01    2.162192e+00
  1.459381e+01    2.161147e+00
  1.462556e+01    2.142495e+00
  1.465731e+01    2.186987e+00
  1.468906e+01    2.136891e+00
  1.472081e+01    2.141663e+00
  1.475256e+01    2.174826e+00
  1.478432e+01    2.180780e+00
  1.481607e+01    2.138724e+00
  1.484782e+01    2.169660e+00
  1.487957e+01    2.209960e+00
  1.491132e+01    2.196321e+00
  1.494307e+01    2.252173e+00
  1.497482e+01    2.349614e+00
  1.500657e+01    2.379667e+00
  1.503832e+01    2.526708e+00
  1.507008e+01    2.826051e+00
  1.510183e+01    3.163158e+00
  1.513358e+01    3.712340e+00
  1.516533e+01    4.460667e+00
  1.519708e+01    5.081898e+00
  1.522883e+01    5.424221e+00
  1.526058e+01    5.707939e+00
  1.529233e+01    5.340057e+00
  1.532409e+01    4.596836e+00
  1.535584e+01    3.674879e+00
  1.538759e+01    3.102780e+00
  1.541934e+01    2.698720e+00
  1.545109e+01    2.513239e+00
  1.548284e+01    2.298752e+00
  1.551459e+01    2.192057e+00
  1.554634e+01    2.114075e+00
  1.557809e+01    2.073171e+00
  1.560985e+01    2.062336e+00
  1.564160e+01    1.990958e+00
  1.567335e+01    1.969154e+00
  1.570510e+01    1.933066e+00
  1.573685e+01    1.934725e+00
  1.576860e+01    1.920852e+00
  1.580035e+01    1.886387e+00
  1.583210e+01    1.922350e+00
  1.586385e+01    1.904748e+00
  1.589561e+01    1.888896e+00
  1.592736e+01    1.872521e+00
  1.595911e+01    1.849477e+00
  1.599086e+01    1.847336e+00
  1.602261e+01    1.837809e+00
  1.605436e+01    1.837265e+00
  1.608611e+01    1.809006e+00
  1.611786e+01    1.851263e+00
  1.614961e+01    1.765032e+00
  1.618137e+01    1.799829e+00
  1.621312e+01    1.828860e+00
  1.624487e+01    1.765459e+00
  1.627662e+01    1.771485e+00
  1.630837e+01    1.754416e+00
  1.634012e+01    1.810524e+00
  1.637187e+01    1.752234e+00
  1.640362e+01    1.725127e+00
  1.643538e+01    1.757061e+00
  1.646713e+01    1.737336e+00
  1.649888e+01    1.745345e+00
  1.653063e+01    1.741001e+00
  1.656238e+01    1.714630e+00
  1.659413e+01    1.705690e+00
  1.662588e+01    1.728749e+00
  1.665763e+01    1.713034e+00
  1.668938e+01    1.679824e+00
  1.672114e+01    1.698839e+00
  1.675289e+01    1.714408e+00
  1.678464e+01    1.663385e+00
  1.681639e+01    1.662752e+00
  1.684814e+01    1.690925e+00
  1.687989e+01    1.678106e+00
  1.691164e+01    1.673364e+00
  1.694339e+01    1.657678e+00
  1.697514e+01    1.625771e+00
  1.700690e+01    1.646089e+00
  1.703865e+01    1.639704e+00
  1.707040e+01    1.640813e+00
  1.710215e+01    1.656402e+00
  1.713390e+01    1.596133e+00
  1.716565e+01    1.623512e+00
  1.719740e+01    1.611935e+00
  1.722915e+01    1.560691e+00
  1.726091e+01    1.566851e+00
  1.729266e+01    1.584640e+00
  1.732441e+01    1.590461e+00
  1.735616e+01    1.561512e+00
  1.738791e+01    1.593813e+00
  1.741966e+01    1.544012e+00
  1.745141e+01    1.567000e+00
  1.748316e+01    1.551657e+00
  1.751491e+01    1.560990e+00
  1.754667e+01    1.556176e+00
  1.757842e+01    1.529834e+00
  1.761017e+01    1.529925e+00
  1.764192e+01    1.537116e+00
  1.767367e+01    1.519740e+00
  1.770542e+01    1.559307e+00
  1.773717e+01    1.525296e+00
  1.776892e+01    1.520923e+00
  1.780067e+01    1.480519e+00
  1.783243e+01    1.547325e+00
  1.786418e+01    1.486747e+00
  1.789593e+01    1.493110e+00
  1.792768e+01    1.467669e+00
  1.795943e+01    1.489851e+00
  1.799118e+01    1.482879e+00
  1.802293e+01    1.480169e+00
  1.805468e+01    1.478191e+00
  1.808643e+01    1.470191e+00
  1.811819e+01    1.486508e+00
  1.814994e+01    1.475107e+00
  1.818169e+01    1.479110e+00
  1.821344e+01    1.443906e+00
  1.824519e+01    1.476310e+00
  1.827694e+01    1.444777e+00
  1.830869e+01    1.429537e+00
  1.834044e+01    1.463696e+00
  1.837220e+01    1.454921e+00
  1.840395e+01    1.424894e+00
  1.843570e+01    1.450026e+00
  1.846745e+01    1.463858e+00
  1.849920e+01    1.433094e+00
  1.853095e+01    1.428114e+00
  1.856270e+01    1.393928e+00
  1.859445e+01    1.413390e+00
  1.862620e+01    1.434785e+00
  1.865796e+01    1.397779e+00
  1.868971e+01    1.415848e+00
  1.872146e+01    1.403230e+00
  1.875321e+01    1.392156e+00
  1.878496e+01    1.399135e+00
  1.881671e+01    1.370546e+00
  1.884846e+01    1.412200e+00
  1.888021e+01    1.365414e+00
  1.891196e+01    1.360792e+00
  1.894372e+01    1.369007e+00
  1.897547e+01    1.341720e+00
  1.900722e+01    1.368701e+00
  1.903897e+01    1.382129e+00
  1.907072e+01    1.322873e+00
  1.910247e+01    1.355491e+00
  1.913422e+01    1.288685e+00
  1.916597e+01    1.351986e+00
  1.919773e+01    1.341702e+00
  1.922948e+01    1.338486e+00
  1.926123e+01    1.349333e+00
  1.929298e+01    1.354181e+00
  1.932473e+01    1.321811e+00
  1.935648e+01    1.346039e+00
  1.938823e+01    1.317589e+00
  1.941998e+01    1.341861e+00
  1.945173e+01    1.301099e+00
  1.948349e+01    1.289430e+00
  1.951524e+01    1.304115e+00
  1.954699e+01    1.319781e+00
  1.957874e+01    1.305201e+00
  1.961049e+01    1.299411e+00
  1.964224e+01    1.282000e+00
  1.967399e+01    1.313368e+00
  1.970574e+01    1.323128e+00
  1.973749e+01    1.280763e+00
  1.976925e+01    1.281330e+00
  1.980100e+01    1.280686e+00
  1.983275e+01    1.279084e+00
  1.986450e+01    1.311395e+00
  1.989625e+01    1.279630e+00
  1.992800e+01    1.254797e+00
  1.995975e+01    1.264383e+00
  1.999150e+01    1.255973e+00
  2.002325e+01    1.281226e+00
  2.005501e+01    1.264937e+00
  2.008676e+01    1.244643e+00
  2.011851e+01    1.242562e+00
  2.015026e+01    1.219857e+00
  2.018201e+01    1.249202e+00
  2.021376e+01    1.263618e+00
  2.024551e+01    1.232521e+00
  2.027726e+01    1.235132e+00
  2.030902e+01    1.229112e+00
  2.034077e+01    1.249201e+00
  2.037252e+01    1.244318e+00
  2.040427e+01    1.238034e+00
  2.043602e+01    1.212895e+00
  2.046777e+01    1.218781e+00
  2.049952e+01    1.231316e+00
  2.053127e+01    1.230724e+00
  2.056302e+01    1.211510e+00
  2.059478e+01    1.215063e+00
  2.062653e+01    1.222207e+00
  2.065828e+01    1.235389e+00
  2.069003e+01    1.197239e+00
  2.072178e+01    1.216660e+00
  2.075353e+01    1.205689e+00
  2.078528e+01    1.223460e+00
  2.081703e+01    1.207393e+00
  2.084878e+01    1.212222e+00
  2.088054e+01    1.193643e+00
  2.091229e+01    1.199301e+00
  2.094404e+01    1.220113e+00
  2.097579e+01    1.218258e+00
  2.100754e+01    1.228123e+00
  2.103929e+01    1.191522e+00
  2.107104e+01    1.197385e+00
  2.110279e+01    1.209676e+00
  2.113455e+01    1.212875e+00
  2.116630e+01    1.254282e+00
  2.119805e+01    1.211720e+00
  2.122980e+01    1.229509e+00
  2.126155e+01    1.257969e+00
  2.129330e+01    1.248257e+00
  2.132505e+01    1.284520e+00
  2.135680e+01    1.270409e+00
  2.138855e+01    1.273331e+00
  2.142031e+01    1.303479e+00
  2.145206e+01    1.312784e+00
  2.148381e+01    1.333294e+00
  2.151556e+01    1.413646e+00
  2.154731e+01    1.501769e+00
  2.157906e+01    1.605948e+00
  2.161081e+01    1.731798e+00
  2.164256e+01    1.922009e+00
  2.167431e+01    2.253058e+00
  2.170607e+01    2.725390e+00
  2.173782e+01    3.495190e+00
  2.176957e+01    4.520297e+00
  2.180132e+01    5.743285e+00
  2.183307e+01    7.121730e+00
  2.186482e+01    8.225017e+00
  2.189657e+01    8.736751e+00
  2.192832e+01    8.127048e+00
  2.196007e+01    6.488802e+00
  2.199183e+01    4.822311e+00
  2.202358e+01    3.590103e+00
  2.205533e+01    2.810607e+00
  2.208708e+01    2.291533e+00
  2.211883e+01    1.955787e+00
  2.215058e+01    1.714702e+00
  2.218233e+01    1.580637e+00
  2.221408e+01    1.463573e+00
  2.224584e+01    1.378799e+00
  2.227759e+01    1.315648e+00
  2.230934e+01    1.281858e+00
  2.234109e+01    1.248273e+00
  2.237284e+01    1.208830e+00
  2.240459e+01    1.188437e+00
  2.243634e+01    1.153545e+00
  2.246809e+01    1.144428e+00
  2.249984e+01    1.133463e+00
  2.253160e+01    1.120392e+00
  2.256335e+01    1.111889e+00
  2.259510e+01    1.083452e+00
  2.262685e+01    1.078400e+00
  2.265860e+01    1.083773e+00
  2.269035e+01    1.053678e+00
  2.272210e+01    1.056318e+00
  2.275385e+01    1.053668e+00
  2.278560e+01    1.047075e+00
  2.281736e+01    1.020240e+00
  2.284911e+01    1.056979e+00
  2.288086e+01    1.006623e+00
  2.291261e+01    1.036812e+00
  2.294436e+01    1.020527e+00
  2.297611e+01    9.981513e-01
  2.300786e+01    1.017096e+00
  2.303961e+01    9.998199e-01
  2.307137e+01    9.998440e-01
  2.310312e+01    9.866798e-01
  2.313487e+01    1.005320e+00
  2.316662e+01    9.806649e-01
  2.319837e+01    9.601343e-01
  2.323012e+01    9.743458e-01
  2.326187e+01    9.847978e-01
  2.329362e+01    9.649862e-01
  2.332537e+01    9.603905e-01
  2.335713e+01    9.531325e-01
  2.338888e+01    9.530349e-01
  2.342063e+01    9.364874e-01
  2.345238e+01    9.553186e-01
  2.348413e+01    9.532444e-01
  2.351588e+01    9.577159e-01
  2.354763e+01    9.471371e-01
  2.357938e+01    9.524311e-01
  2.361113e+01    9.439097e-01
  2.364289e+01    9.559681e-01
  2.367464e+01    9.181802e-01
  2.370639e+01    9.174032e-01
  2.373814e+01    9.082933e-01
  2.376989e+01    9.042492e-01
  2.380164e+01    9.025798e-01
  2.383339e+01    9.189993e-01
  2.386514e+01    9.079943e-01
  2.389689e+01    8.844650e-01
  2.392865e+01    9.005905e-01
  2.396040e+01    8.833154e-01
  2.399215e+01    8.736908e-01
  2.402390e+01    8.659925e-01
  2.405565e+01    8.791591e-01
  2.408740e+01    8.841255e-01
  2.411915e+01    8.767522e-01
  2.415090e+01    8.709033e-01
  2.418266e+01    8.704383e-01
  2.421441e+01    8.835083e-01
  2.424616e+01    8.539338e-01
  2.427791e+01    8.831201e-01
  2.430966e+01    8.675176e-01
  2.434141e+01    8.674269e-01
  2.437316e+01    8.893462e-01
  2.440491e+01    8.876611e-01
  2.443666e+01    8.833566e-01
  2.446842e+01    8.857420e-01
  2.450017e+01    8.908346e-01
  2.453192e+01    8.867412e-01
  2.456367e+01    8.767857e-01
  2.459542e+01    8.763776e-01
  2.462717e+01    8.743312e-01
  2.465892e+01    8.716703e-01
  2.469067e+01    8.877103e-01
  2.472242e+01    8.958669e-01
  2.475418e+01    8.582669e-01
  2.478593e+01    8.766444e-01
  2.481768e+01    8.811792e-01
  2.484943e+01    8.873106e-01
  2.488118e+01    8.782118e-01
  2.491293e+01    8.915351e-01
  2.494468e+01    8.669538e-01
  2.497643e+01    8.896649e-01
  2.500819e+01    8.932260e-01
  2.503994e+01    8.843095e-01
  2.507169e+01    8.923395e-01
  2.510344e+01    8.882385e-01
  2.513519e+01    9.163735e-01
  2.516694e+01    9.065979e-01
  2.519869e+01    8.898967e-01
  2.523044e+01    9.197828e-01
  2.526219e+01    9.144886e-01
  2.529395e+01    9.081653e-01
  2.532570e+01    9.606253e-01
  2.535745e+01    9.534834e-01
  2.538920e+01    9.826845e-01
  2.542095e+01    9.797613e-01
  2.545270e+01    1.007404e+00
  2.548445e+01    1.020548e+00
  2.551620e+01    1.056418e+00
  2.554795e+01    1.089471e+00
  2.557971e+01    1.147302e+00
  2.561146e+01    1.215440e+00
  2.564321e+01    1.295992e+00
  2.567496e+01    1.413420e+00
  2.570671e+01    1.596017e+00
  2.573846e+01    1.828598e+00
  2.577021e+01    2.210516e+00
  2.580196e+01    2.767249e+00
  2.583371e+01    3.588096e+00
  2.586547e+01    4.641693e+00
  2.589722e+01    5.664895e+00
  2.592897e+01    6.660860e+00
  2.596072e+01    6.990257e+00
  2.599247e+01    6.416362e+00
  2.602422e+01    5.177656e+00
  2.605597e+01    3.882740e+00
  2.608772e+01    2.951742e+00
  2.611948e+01    2.299636e+00
  2.615123e+01    1.925109e+00
  2.618298e+01    1.653631e+00
  2.621473e+01    1.425816e+00
  2.624648e+01    1.335333e+00
  2.627823e+01    1.220488e+00
  2.630998e+01    1.166142e+00
  2.634173e+01    1.112227e+00
  2.637348e+01    1.064097e+00
  2.640524e+01    1.073825e+00
  2.643699e+01    1.020305e+00
  2.646874e+01    9.968082e-01
  2.650049e+01    1.007203e+00
  2.653224e+01    9.687812e-01
  2.656399e+01    9.632235e-01
  2.659574e+01    9.555482e-01
  2.662749e+01    9.564545e-01
  2.665924e+01    9.582848e-01
  2.669100e+01    9.655404e-01
  2.672275e+01    9.648312e-01
  2.675450e+01    9.609824e-01
  2.678625e+01    9.474363e-01
  2.681800e+01    9.661379e-01
  2.684975e+01    9.752501e-01
  2.688150e+01    9.689783e-01
  2.691325e+01    9.797516e-01
  2.694501e+01    1.021746e+00
  2.697676e+01    1.027325e+00
  2.700851e+01    1.092258e+00
  2.704026e+01    1.167559e+00
  2.707201e+01    1.314643e+00
  2.710376e+01    1.453097e+00
  2.713551e+01    1.723383e+00
  2.716726e+01    1.898964e+00
  2.719901e+01    2.132193e+00
  2.723077e+01    2.123213e+00
  2.726252e+01    1.926980e+00
  2.729427e+01    1.674440e+00
  2.732602e+01    1.413556e+00
  2.735777e+01    1.268074e+00
  2.738952e+01    1.158917e+00
  2.742127e+01    1.063489e+00
  2.745302e+01    1.049410e+00
  2.748477e+01    1.001485e+00
  2.751653e+01    9.545318e-01
  2.754828e+01    9.397529e-01
  2.758003e+01    9.234564e-01
  2.761178e+01    9.064147e-01
  2.764353e+01    9.008644e-01
  2.767528e+01    9.080744e-01
  2.770703e+01    9.112948e-01
  2.773878e+01    8.805532e-01
  2.777054e+01    8.687264e-01
  2.780229e+01    8.658528e-01
  2.783404e+01    8.567504e-01
  2.786579e+01    8.690431e-01
  2.789754e+01    8.362848e-01
  2.792929e+01    8.765655e-01
  2.796104e+01    8.529136e-01
  2.799279e+01    8.867915e-01
  2.802454e+01    8.785258e-01
  2.805630e+01    8.530080e-01
  2.808805e+01    8.483308e-01
  2.811980e+01    8.433421e-01
  2.815155e+01    8.443280e-01
  2.818330e+01    8.341092e-01
  2.821505e+01    8.604971e-01
  2.824680e+01    8.395432e-01
  2.827855e+01    8.175908e-01
  2.831030e+01    8.146223e-01
  2.834206e+01    8.169844e-01
  2.837381e+01    8.329189e-01
  2.840556e+01    8.400709e-01
  2.843731e+01    8.252940e-01
  2.846906e+01    8.262000e-01
  2.850081e+01    8.517488e-01
  2.853256e+01    8.319175e-01
  2.856431e+01    7.954128e-01
  2.859606e+01    8.137115e-01
  2.862782e+01    8.247613e-01
  2.865957e+01    8.258113e-01
  2.869132e+01    8.192526e-01
  2.872307e+01    8.296844e-01
  2.875482e+01    8.100950e-01
  2.878657e+01    7.969620e-01
  2.881832e+01    7.854224e-01
  2.885007e+01    8.237931e-01
  2.888183e+01    8.081258e-01
  2.891358e+01    8.034428e-01
  2.894533e+01    8.093622e-01
  2.897708e+01    8.064465e-01
  2.900883e+01    8.048818e-01
  2.904058e+01    7.935807e-01
  2.907233e+01    8.067490e-01
  2.910408e+01    7.822134e-01
  2.913583e+01    8.232363e-01
  2.916759e+01    7.883297e-01
  2.919934e+01    7.908331e-01
  2.923109e+01    8.128842e-01
  2.926284e+01    7.969322e-01
  2.929459e+01    7.794687e-01
  2.932634e+01    8.011101e-01
  2.935809e+01    7.780295e-01
  2.938984e+01    7.840132e-01
  2.942159e+01    8.083084e-01
  2.945335e+01    8.206366e-01
  2.948510e+01    7.892311e-01
  2.951685e+01    8.034652e-01
  2.954860e+01    7.895925e-01
  2.958035e+01    8.135195e-01
  2.961210e+01    7.762886e-01
  2.964385e+01    7.853656e-01
  2.967560e+01    7.679923e-01
  2.970736e+01    7.842590e-01
  2.973911e+01    7.597035e-01
  2.977086e+01    7.808949e-01
  2.980261e+01    7.507291e-01
  2.983436e+01    7.900003e-01
  2.986611e+01    8.043823e-01
  2.989786e+01    7.830479e-01
  2.992961e+01    7.766418e-01
  2.996136e+01    7.897125e-01
  2.999312e+01    7.847432e-01
  3.002487e+01    8.054767e-01
  3.005662e+01    7.906719e-01
  3.008837e+01    7.911859e-01
  3.012012e+01    7.754492e-01
  3.015187e+01    7.777854e-01
  3.018362e+01    7.790163e-01
  3.021537e+01    7.715177e-01
  3.024712e+01    7.593375e-01
  3.027888e+01    7.816310e-01
  3.031063e+01    7.635251e-01
  3.034238e+01    7.554938e-01
  3.037413e+01    7.653909e-01
  3.040588e+01    7.640123e-01
  3.043763e+01    7.824990e-01
  3.046938e+01    7.693204e-01
  3.050113e+01    7.830095e-01
  3.053288e+01    7.815936e-01
  3.056464e+01    7.689699e-01
  3.059639e+01    7.746546e-01
  3.062814e+01    7.801220e-01
  3.065989e+01    7.720248e-01
  3.069164e+01    7.982768e-01
  3.072339e+01    7.455566e-01
  3.075514e+01    7.931495e-01
  3.078689e+01    7.752585e-01
  3.081865e+01    7.820725e-01
  3.085040e+01    7.610685e-01
  3.088215e+01    7.818810e-01
  3.091390e+01    7.765129e-01
  3.094565e+01    7.617163e-01
  3.097740e+01    7.710267e-01
  3.100915e+01    7.494352e-01
  3.104090e+01    7.752818e-01
  3.107265e+01    7.936394e-01
  3.110441e+01    7.761571e-01
  3.113616e+01    7.833309e-01
  3.116791e+01    7.836167e-01
  3.119966e+01    7.756709e-01
  3.123141e+01    7.746007e-01
  3.126316e+01    7.680467e-01
  3.129491e+01    7.859221e-01
  3.132666e+01    7.711131e-01
  3.135841e+01    7.840458e-01
  3.139017e+01    8.003776e-01
  3.142192e+01    7.949643e-01
  3.145367e+01    8.150714e-01
  3.148542e+01    8.106635e-01
  3.151717e+01    8.495494e-01
  3.154892e+01    8.431253e-01
  3.158067e+01    8.640876e-01
  3.161242e+01    8.762876e-01
  3.164418e+01    8.946732e-01
  3.167593e+01    9.303832e-01
  3.170768e+01    1.003802e+00
  3.173943e+01    1.103122e+00
  3.177118e+01    1.238360e+00
  3.180293e+01    1.439821e+00
  3.183468e+01    1.660934e+00
  3.186643e+01    1.923832e+00
  3.189818e+01    2.030066e+00
  3.192994e+01    1.997038e+00
  3.196169e+01    1.794467e+00
  3.199344e+01    1.551744e+00
  3.202519e+01    1.302604e+00
  3.205694e+01    1.155360e+00
  3.208869e+01    1.034973e+00
  3.212044e+01    9.522352e-01
  3.215219e+01    9.156248e-01
  3.218394e+01    8.925926e-01
  3.221570e+01    8.370047e-01
  3.224745e+01    8.270178e-01
  3.227920e+01    8.233272e-01
  3.231095e+01    7.888208e-01
  3.234270e+01    7.776687e-01
  3.237445e+01    7.814535e-01
  3.240620e+01    7.846497e-01
  3.243795e+01    7.678364e-01
  3.246970e+01    7.650712e-01
  3.250146e+01    7.663343e-01
  3.253321e+01    7.739623e-01
  3.254908e+01    7.601722e-01