File: XRD/Reaction conditions/2024-07-27_003_Ru-CGO-ex_Reaction_dwell_000023_data_000154.dat
# == pyFAI calibration ==
# Distance Sample to Detector: 0.4 m
# PONI: 9.750e-02, 1.135e-01 m
# Rotations: -0.000175 0.000000 -0.000000 rad
#
# == Fit2d calibration ==
# Distance Sample-beamCenter: 400.000 mm
# Center: x=1514.000, y=1300.000 pix
# Tilt: 0.010 deg  TiltPlanRot: 0.010 deg
#
# Detector Detector	 Spline= None	 PixelSize= 7.500e-05, 7.500e-05 m
#    Detector has a mask: False
#    Detector has a dark current: False
#    detector has a flat field: False
#
# Wavelength: 6.888e-11 m
# Mask applied: user provided
# Dark current applied: False
# Flat field applied: False
# Polarization factor: 0.99
# Normalization factor: 1.0
# --> /home/myspot/data/2024_07_Rosario/Ru-CGO-ex/2024-07-27_003_Ru-CGO-ex_Reaction_dwell_000023_data_000154.dat
#       q_nm^-1             I
  2.003187e-02    0.000000e+00
  5.178302e-02    1.424574e-01
  8.353417e-02    1.629182e-01
  1.152853e-01    9.044319e-02
  1.470365e-01    4.454855e-03
  1.787876e-01    3.599435e-02
  2.105388e-01    2.620421e-02
  2.422899e-01    5.760974e-02
  2.740411e-01    4.225254e-02
  3.057922e-01    5.975254e-02
  3.375433e-01    1.589667e-02
  3.692945e-01    5.215575e-02
  4.010456e-01    3.719586e-02
  4.327968e-01    2.992863e-02
  4.645479e-01    5.793870e-02
  4.962991e-01    1.385900e-02
  5.280502e-01    3.977802e-02
  5.598014e-01    4.375296e-02
  5.915525e-01    3.361357e-02
  6.233037e-01    3.838139e-02
  6.550548e-01    3.347423e-02
  6.868060e-01    4.185543e-02
  7.185571e-01    5.667457e-02
  7.503083e-01    7.406948e-02
  7.820594e-01    9.847987e-02
  8.138106e-01    1.774087e-01
  8.455617e-01    3.795610e-01
  8.773129e-01    4.479648e-01
  9.090640e-01    6.429245e-01
  9.408152e-01    7.560342e-01
  9.725663e-01    9.622386e-01
  1.004317e+00    1.148978e+00
  1.036069e+00    1.370056e+00
  1.067820e+00    1.375844e+00
  1.099571e+00    1.575372e+00
  1.131322e+00    1.614853e+00
  1.163073e+00    1.663623e+00
  1.194824e+00    1.847955e+00
  1.226575e+00    2.274447e+00
  1.258327e+00    2.379908e+00
  1.290078e+00    2.623816e+00
  1.321829e+00    2.650624e+00
  1.353580e+00    2.748044e+00
  1.385331e+00    2.662783e+00
  1.417082e+00    2.958418e+00
  1.448834e+00    2.901551e+00
  1.480585e+00    3.027678e+00
  1.512336e+00    3.083689e+00
  1.544087e+00    3.175627e+00
  1.575838e+00    3.077176e+00
  1.607589e+00    3.086313e+00
  1.639340e+00    3.077422e+00
  1.671092e+00    3.206100e+00
  1.702843e+00    3.184429e+00
  1.734594e+00    3.119525e+00
  1.766345e+00    3.050962e+00
  1.798096e+00    3.028428e+00
  1.829847e+00    3.147513e+00
  1.861598e+00    3.067196e+00
  1.893350e+00    3.162729e+00
  1.925101e+00    3.089152e+00
  1.956852e+00    3.066057e+00
  1.988603e+00    3.039907e+00
  2.020354e+00    3.102531e+00
  2.052105e+00    3.023833e+00
  2.083856e+00    3.070127e+00
  2.115608e+00    3.137750e+00
  2.147359e+00    3.053339e+00
  2.179110e+00    3.162614e+00
  2.210861e+00    3.118532e+00
  2.242612e+00    3.116282e+00
  2.274363e+00    3.195855e+00
  2.306115e+00    3.104987e+00
  2.337866e+00    3.198391e+00
  2.369617e+00    3.118248e+00
  2.401368e+00    3.225329e+00
  2.433119e+00    3.111658e+00
  2.464870e+00    3.258705e+00
  2.496621e+00    3.208986e+00
  2.528373e+00    3.248655e+00
  2.560124e+00    3.208152e+00
  2.591875e+00    3.188326e+00
  2.623626e+00    3.192470e+00
  2.655377e+00    3.186944e+00
  2.687128e+00    3.306922e+00
  2.718879e+00    3.234415e+00
  2.750631e+00    3.293649e+00
  2.782382e+00    3.175225e+00
  2.814133e+00    3.402644e+00
  2.845884e+00    3.288505e+00
  2.877635e+00    3.170127e+00
  2.909386e+00    3.288924e+00
  2.941137e+00    3.222032e+00
  2.972889e+00    3.275956e+00
  3.004640e+00    3.444152e+00
  3.036391e+00    3.282986e+00
  3.068142e+00    3.279129e+00
  3.099893e+00    3.406713e+00
  3.131644e+00    3.385381e+00
  3.163395e+00    3.375909e+00
  3.195147e+00    3.412198e+00
  3.226898e+00    3.409063e+00
  3.258649e+00    3.354833e+00
  3.290400e+00    3.334066e+00
  3.322151e+00    3.303089e+00
  3.353902e+00    3.446297e+00
  3.385654e+00    3.473544e+00
  3.417405e+00    3.398259e+00
  3.449156e+00    3.404649e+00
  3.480907e+00    3.376868e+00
  3.512658e+00    3.446421e+00
  3.544409e+00    3.392040e+00
  3.576160e+00    3.385389e+00
  3.607912e+00    3.410680e+00
  3.639663e+00    3.467114e+00
  3.671414e+00    3.408728e+00
  3.703165e+00    3.458708e+00
  3.734916e+00    3.391708e+00
  3.766667e+00    3.540358e+00
  3.798418e+00    3.523591e+00
  3.830170e+00    3.483747e+00
  3.861921e+00    3.509171e+00
  3.893672e+00    3.444763e+00
  3.925423e+00    3.419084e+00
  3.957174e+00    3.544907e+00
  3.988925e+00    3.540291e+00
  4.020676e+00    3.484288e+00
  4.052428e+00    3.504531e+00
  4.084179e+00    3.450261e+00
  4.115930e+00    3.583160e+00
  4.147681e+00    3.594863e+00
  4.179432e+00    3.549544e+00
  4.211183e+00    3.469783e+00
  4.242935e+00    3.616641e+00
  4.274686e+00    3.544462e+00
  4.306437e+00    3.647338e+00
  4.338188e+00    3.526963e+00
  4.369939e+00    3.478484e+00
  4.401690e+00    3.575999e+00
  4.433441e+00    3.561363e+00
  4.465193e+00    3.696289e+00
  4.496944e+00    3.582409e+00
  4.528695e+00    3.598414e+00
  4.560446e+00    3.559256e+00
  4.592197e+00    3.593516e+00
  4.623948e+00    3.553616e+00
  4.655699e+00    3.588252e+00
  4.687451e+00    3.643813e+00
  4.719202e+00    3.622249e+00
  4.750953e+00    3.670012e+00
  4.782704e+00    3.602287e+00
  4.814455e+00    3.666776e+00
  4.846206e+00    3.638686e+00
  4.877957e+00    3.607720e+00
  4.909709e+00    3.694533e+00
  4.941460e+00    3.661516e+00
  4.973211e+00    3.629424e+00
  5.004962e+00    3.606159e+00
  5.036713e+00    3.661504e+00
  5.068464e+00    3.619246e+00
  5.100216e+00    3.623461e+00
  5.131967e+00    3.632028e+00
  5.163718e+00    3.605887e+00
  5.195469e+00    3.703207e+00
  5.227220e+00    3.650223e+00
  5.258971e+00    3.511702e+00
  5.290722e+00    3.669274e+00
  5.322474e+00    3.674924e+00
  5.354225e+00    3.611134e+00
  5.385976e+00    3.756219e+00
  5.417727e+00    3.601380e+00
  5.449478e+00    3.611074e+00
  5.481229e+00    3.623958e+00
  5.512980e+00    3.594070e+00
  5.544732e+00    3.572733e+00
  5.576483e+00    3.590571e+00
  5.608234e+00    3.683327e+00
  5.639985e+00    3.545298e+00
  5.671736e+00    3.644018e+00
  5.703487e+00    3.513661e+00
  5.735238e+00    3.529477e+00
  5.766990e+00    3.611763e+00
  5.798741e+00    3.459626e+00
  5.830492e+00    3.530935e+00
  5.862243e+00    3.555190e+00
  5.893994e+00    3.527325e+00
  5.925745e+00    3.480370e+00
  5.957497e+00    3.521687e+00
  5.989248e+00    3.508852e+00
  6.020999e+00    3.558963e+00
  6.052750e+00    3.502517e+00
  6.084501e+00    3.511746e+00
  6.116252e+00    3.627533e+00
  6.148003e+00    3.611336e+00
  6.179755e+00    3.569191e+00
  6.211506e+00    3.551646e+00
  6.243257e+00    3.608081e+00
  6.275008e+00    3.489105e+00
  6.306759e+00    3.555978e+00
  6.338510e+00    3.566178e+00
  6.370261e+00    3.579451e+00
  6.402013e+00    3.515192e+00
  6.433764e+00    3.481631e+00
  6.465515e+00    3.572134e+00
  6.497266e+00    3.526324e+00
  6.529017e+00    3.562922e+00
  6.560768e+00    3.502613e+00
  6.592519e+00    3.595508e+00
  6.624271e+00    3.590156e+00
  6.656022e+00    3.496601e+00
  6.687773e+00    3.498607e+00
  6.719524e+00    3.525896e+00
  6.751275e+00    3.529205e+00
  6.783026e+00    3.547252e+00
  6.814777e+00    3.546040e+00
  6.846529e+00    3.550714e+00
  6.878280e+00    3.568910e+00
  6.910031e+00    3.434376e+00
  6.941782e+00    3.554470e+00
  6.973533e+00    3.570111e+00
  7.005284e+00    3.513403e+00
  7.037036e+00    3.495691e+00
  7.068787e+00    3.507799e+00
  7.100538e+00    3.547620e+00
  7.132289e+00    3.448737e+00
  7.164040e+00    3.486779e+00
  7.195791e+00    3.528123e+00
  7.227542e+00    3.494194e+00
  7.259294e+00    3.524434e+00
  7.291045e+00    3.534364e+00
  7.322796e+00    3.509307e+00
  7.354547e+00    3.556645e+00
  7.386298e+00    3.460842e+00
  7.418049e+00    3.463641e+00
  7.449800e+00    3.369162e+00
  7.481552e+00    3.515151e+00
  7.513303e+00    3.492955e+00
  7.545054e+00    3.397890e+00
  7.576805e+00    3.450184e+00
  7.608556e+00    3.514594e+00
  7.640307e+00    3.476441e+00
  7.672058e+00    3.378575e+00
  7.703810e+00    3.430577e+00
  7.735561e+00    3.491235e+00
  7.767312e+00    3.363213e+00
  7.799063e+00    3.399678e+00
  7.830814e+00    3.460211e+00
  7.862565e+00    3.380133e+00
  7.894317e+00    3.374795e+00
  7.926068e+00    3.441140e+00
  7.957819e+00    3.304550e+00
  7.989570e+00    3.435095e+00
  8.021321e+00    3.393790e+00
  8.053072e+00    3.351411e+00
  8.084823e+00    3.405840e+00
  8.116575e+00    3.434104e+00
  8.148326e+00    3.523066e+00
  8.180077e+00    3.450675e+00
  8.211828e+00    3.435194e+00
  8.243579e+00    3.437887e+00
  8.275330e+00    3.437648e+00
  8.307081e+00    3.405542e+00
  8.338833e+00    3.362815e+00
  8.370584e+00    3.426791e+00
  8.402335e+00    3.356461e+00
  8.434086e+00    3.365697e+00
  8.465837e+00    3.476426e+00
  8.497588e+00    3.404342e+00
  8.529339e+00    3.372340e+00
  8.561091e+00    3.377470e+00
  8.592842e+00    3.339374e+00
  8.624593e+00    3.357045e+00
  8.656344e+00    3.317106e+00
  8.688095e+00    3.346612e+00
  8.719846e+00    3.317266e+00
  8.751598e+00    3.343987e+00
  8.783349e+00    3.320877e+00
  8.815100e+00    3.332065e+00
  8.846851e+00    3.363178e+00
  8.878602e+00    3.325922e+00
  8.910353e+00    3.319886e+00
  8.942104e+00    3.257916e+00
  8.973856e+00    3.309870e+00
  9.005607e+00    3.267302e+00
  9.037358e+00    3.261275e+00
  9.069109e+00    3.300328e+00
  9.100860e+00    3.260183e+00
  9.132611e+00    3.295718e+00
  9.164362e+00    3.330808e+00
  9.196114e+00    3.277368e+00
  9.227865e+00    3.269869e+00
  9.259616e+00    3.161820e+00
  9.291367e+00    3.209536e+00
  9.323118e+00    3.171577e+00
  9.354869e+00    3.290840e+00
  9.386620e+00    3.200499e+00
  9.418372e+00    3.205510e+00
  9.450123e+00    3.185143e+00
  9.481874e+00    3.245199e+00
  9.513625e+00    3.249030e+00
  9.545376e+00    3.203708e+00
  9.577127e+00    3.271842e+00
  9.608878e+00    3.226638e+00
  9.640630e+00    3.180002e+00
  9.672381e+00    3.179125e+00
  9.704132e+00    3.167768e+00
  9.735883e+00    3.215145e+00
  9.767634e+00    3.144459e+00
  9.799385e+00    3.146784e+00
  9.831137e+00    3.120259e+00
  9.862888e+00    3.104730e+00
  9.894639e+00    3.149651e+00
  9.926390e+00    3.139988e+00
  9.958141e+00    3.091151e+00
  9.989892e+00    3.112408e+00
  1.002164e+01    3.117076e+00
  1.005339e+01    3.103032e+00
  1.008515e+01    3.019691e+00
  1.011690e+01    3.035874e+00
  1.014865e+01    3.106617e+00
  1.018040e+01    3.023354e+00
  1.021215e+01    3.032411e+00
  1.024390e+01    3.017237e+00
  1.027565e+01    3.066987e+00
  1.030740e+01    3.056540e+00
  1.033915e+01    3.022991e+00
  1.037091e+01    3.007269e+00
  1.040266e+01    3.027497e+00
  1.043441e+01    3.052341e+00
  1.046616e+01    3.021231e+00
  1.049791e+01    2.968686e+00
  1.052966e+01    3.050852e+00
  1.056141e+01    2.950305e+00
  1.059316e+01    2.989256e+00
  1.062492e+01    2.942163e+00
  1.065667e+01    3.022473e+00
  1.068842e+01    2.953185e+00
  1.072017e+01    2.954561e+00
  1.075192e+01    2.976617e+00
  1.078367e+01    2.933627e+00
  1.081542e+01    2.913670e+00
  1.084717e+01    2.937247e+00
  1.087892e+01    2.925980e+00
  1.091068e+01    2.894416e+00
  1.094243e+01    2.897030e+00
  1.097418e+01    2.878933e+00
  1.100593e+01    2.932741e+00
  1.103768e+01    2.832675e+00
  1.106943e+01    2.930379e+00
  1.110118e+01    2.880761e+00
  1.113293e+01    2.877713e+00
  1.116468e+01    2.877448e+00
  1.119644e+01    2.858514e+00
  1.122819e+01    2.844647e+00
  1.125994e+01    2.834747e+00
  1.129169e+01    2.850978e+00
  1.132344e+01    2.777346e+00
  1.135519e+01    2.817061e+00
  1.138694e+01    2.778256e+00
  1.141869e+01    2.815876e+00
  1.145045e+01    2.758939e+00
  1.148220e+01    2.844753e+00
  1.151395e+01    2.781271e+00
  1.154570e+01    2.785331e+00
  1.157745e+01    2.750484e+00
  1.160920e+01    2.778943e+00
  1.164095e+01    2.689102e+00
  1.167270e+01    2.677260e+00
  1.170445e+01    2.750881e+00
  1.173621e+01    2.725441e+00
  1.176796e+01    2.735502e+00
  1.179971e+01    2.745315e+00
  1.183146e+01    2.701670e+00
  1.186321e+01    2.727417e+00
  1.189496e+01    2.692961e+00
  1.192671e+01    2.664144e+00
  1.195846e+01    2.706685e+00
  1.199021e+01    2.708863e+00
  1.202197e+01    2.672345e+00
  1.205372e+01    2.645598e+00
  1.208547e+01    2.674811e+00
  1.211722e+01    2.711631e+00
  1.214897e+01    2.705039e+00
  1.218072e+01    2.686367e+00
  1.221247e+01    2.684163e+00
  1.224422e+01    2.691127e+00
  1.227597e+01    2.711612e+00
  1.230773e+01    2.676970e+00
  1.233948e+01    2.687217e+00
  1.237123e+01    2.747588e+00
  1.240298e+01    2.671399e+00
  1.243473e+01    2.714734e+00
  1.246648e+01    2.705912e+00
  1.249823e+01    2.725154e+00
  1.252998e+01    2.695659e+00
  1.256174e+01    2.667728e+00
  1.259349e+01    2.710347e+00
  1.262524e+01    2.754078e+00
  1.265699e+01    2.801632e+00
  1.268874e+01    2.804414e+00
  1.272049e+01    2.866471e+00
  1.275224e+01    2.858046e+00
  1.278399e+01    2.980574e+00
  1.281574e+01    2.974411e+00
  1.284750e+01    3.182079e+00
  1.287925e+01    3.329231e+00
  1.291100e+01    3.680138e+00
  1.294275e+01    4.131514e+00
  1.297450e+01    4.765811e+00
  1.300625e+01    5.802016e+00
  1.303800e+01    7.740914e+00
  1.306975e+01    9.978256e+00
  1.310150e+01    1.257801e+01
  1.313326e+01    1.457796e+01
  1.316501e+01    1.611134e+01
  1.319676e+01    1.561784e+01
  1.322851e+01    1.254802e+01
  1.326026e+01    9.062434e+00
  1.329201e+01    6.736277e+00
  1.332376e+01    5.291673e+00
  1.335551e+01    4.354840e+00
  1.338727e+01    3.867841e+00
  1.341902e+01    3.461863e+00
  1.345077e+01    3.184894e+00
  1.348252e+01    3.071220e+00
  1.351427e+01    2.843739e+00
  1.354602e+01    2.805779e+00
  1.357777e+01    2.720053e+00
  1.360952e+01    2.635403e+00
  1.364127e+01    2.575592e+00
  1.367303e+01    2.554085e+00
  1.370478e+01    2.537267e+00
  1.373653e+01    2.499430e+00
  1.376828e+01    2.498181e+00
  1.380003e+01    2.539720e+00
  1.383178e+01    2.436366e+00
  1.386353e+01    2.382885e+00
  1.389528e+01    2.410008e+00
  1.392703e+01    2.368405e+00
  1.395879e+01    2.339488e+00
  1.399054e+01    2.361661e+00
  1.402229e+01    2.354456e+00
  1.405404e+01    2.362118e+00
  1.408579e+01    2.302650e+00
  1.411754e+01    2.344133e+00
  1.414929e+01    2.309703e+00
  1.418104e+01    2.296753e+00
  1.421279e+01    2.281600e+00
  1.424455e+01    2.322251e+00
  1.427630e+01    2.247273e+00
  1.430805e+01    2.280278e+00
  1.433980e+01    2.252585e+00
  1.437155e+01    2.248651e+00
  1.440330e+01    2.244941e+00
  1.443505e+01    2.239259e+00
  1.446680e+01    2.231253e+00
  1.449856e+01    2.244503e+00
  1.453031e+01    2.205979e+00
  1.456206e+01    2.236602e+00
  1.459381e+01    2.185785e+00
  1.462556e+01    2.211552e+00
  1.465731e+01    2.248059e+00
  1.468906e+01    2.189388e+00
  1.472081e+01    2.181986e+00
  1.475256e+01    2.194760e+00
  1.478432e+01    2.193929e+00
  1.481607e+01    2.220157e+00
  1.484782e+01    2.184283e+00
  1.487957e+01    2.208251e+00
  1.491132e+01    2.218807e+00
  1.494307e+01    2.275432e+00
  1.497482e+01    2.313155e+00
  1.500657e+01    2.430406e+00
  1.503832e+01    2.605288e+00
  1.507008e+01    2.846716e+00
  1.510183e+01    3.173537e+00
  1.513358e+01    3.810758e+00
  1.516533e+01    4.505124e+00
  1.519708e+01    5.132270e+00
  1.522883e+01    5.565214e+00
  1.526058e+01    5.778964e+00
  1.529233e+01    5.479122e+00
  1.532409e+01    4.611466e+00
  1.535584e+01    3.717779e+00
  1.538759e+01    3.130599e+00
  1.541934e+01    2.756290e+00
  1.545109e+01    2.512514e+00
  1.548284e+01    2.363316e+00
  1.551459e+01    2.222747e+00
  1.554634e+01    2.159342e+00
  1.557809e+01    2.129750e+00
  1.560985e+01    2.064607e+00
  1.564160e+01    2.100495e+00
  1.567335e+01    2.024173e+00
  1.570510e+01    1.982838e+00
  1.573685e+01    1.983013e+00
  1.576860e+01    1.942544e+00
  1.580035e+01    1.992916e+00
  1.583210e+01    1.918446e+00
  1.586385e+01    1.898432e+00
  1.589561e+01    1.884328e+00
  1.592736e+01    1.847138e+00
  1.595911e+01    1.861123e+00
  1.599086e+01    1.882400e+00
  1.602261e+01    1.863895e+00
  1.605436e+01    1.835176e+00
  1.608611e+01    1.819595e+00
  1.611786e+01    1.852606e+00
  1.614961e+01    1.854292e+00
  1.618137e+01    1.803228e+00
  1.621312e+01    1.809152e+00
  1.624487e+01    1.801482e+00
  1.627662e+01    1.774570e+00
  1.630837e+01    1.782919e+00
  1.634012e+01    1.782937e+00
  1.637187e+01    1.791373e+00
  1.640362e+01    1.791689e+00
  1.643538e+01    1.756617e+00
  1.646713e+01    1.755428e+00
  1.649888e+01    1.742198e+00
  1.653063e+01    1.750681e+00
  1.656238e+01    1.754760e+00
  1.659413e+01    1.774677e+00
  1.662588e+01    1.752532e+00
  1.665763e+01    1.715956e+00
  1.668938e+01    1.720659e+00
  1.672114e+01    1.723389e+00
  1.675289e+01    1.683671e+00
  1.678464e+01    1.696263e+00
  1.681639e+01    1.696820e+00
  1.684814e+01    1.633022e+00
  1.687989e+01    1.682122e+00
  1.691164e+01    1.666103e+00
  1.694339e+01    1.665467e+00
  1.697514e+01    1.666841e+00
  1.700690e+01    1.650176e+00
  1.703865e+01    1.693275e+00
  1.707040e+01    1.645740e+00
  1.710215e+01    1.626892e+00
  1.713390e+01    1.659548e+00
  1.716565e+01    1.674427e+00
  1.719740e+01    1.607703e+00
  1.722915e+01    1.622649e+00
  1.726091e+01    1.625076e+00
  1.729266e+01    1.625390e+00
  1.732441e+01    1.584084e+00
  1.735616e+01    1.588216e+00
  1.738791e+01    1.619757e+00
  1.741966e+01    1.573166e+00
  1.745141e+01    1.590807e+00
  1.748316e+01    1.599406e+00
  1.751491e+01    1.586038e+00
  1.754667e+01    1.576563e+00
  1.757842e+01    1.583697e+00
  1.761017e+01    1.575082e+00
  1.764192e+01    1.549073e+00
  1.767367e+01    1.546799e+00
  1.770542e+01    1.566554e+00
  1.773717e+01    1.540265e+00
  1.776892e+01    1.519775e+00
  1.780067e+01    1.533144e+00
  1.783243e+01    1.496355e+00
  1.786418e+01    1.511021e+00
  1.789593e+01    1.545668e+00
  1.792768e+01    1.550213e+00
  1.795943e+01    1.535487e+00
  1.799118e+01    1.505684e+00
  1.802293e+01    1.549439e+00
  1.805468e+01    1.501746e+00
  1.808643e+01    1.519709e+00
  1.811819e+01    1.505479e+00
  1.814994e+01    1.519920e+00
  1.818169e+01    1.496973e+00
  1.821344e+01    1.443241e+00
  1.824519e+01    1.483809e+00
  1.827694e+01    1.472386e+00
  1.830869e+01    1.456007e+00
  1.834044e+01    1.478781e+00
  1.837220e+01    1.474251e+00
  1.840395e+01    1.437575e+00
  1.843570e+01    1.453141e+00
  1.846745e+01    1.470932e+00
  1.849920e+01    1.432703e+00
  1.853095e+01    1.441567e+00
  1.856270e+01    1.443239e+00
  1.859445e+01    1.416629e+00
  1.862620e+01    1.408991e+00
  1.865796e+01    1.416803e+00
  1.868971e+01    1.383397e+00
  1.872146e+01    1.422289e+00
  1.875321e+01    1.400732e+00
  1.878496e+01    1.403125e+00
  1.881671e+01    1.423231e+00
  1.884846e+01    1.404658e+00
  1.888021e+01    1.394649e+00
  1.891196e+01    1.380736e+00
  1.894372e+01    1.382191e+00
  1.897547e+01    1.399895e+00
  1.900722e+01    1.390500e+00
  1.903897e+01    1.366932e+00
  1.907072e+01    1.371402e+00
  1.910247e+01    1.375177e+00
  1.913422e+01    1.394507e+00
  1.916597e+01    1.348265e+00
  1.919773e+01    1.389014e+00
  1.922948e+01    1.334105e+00
  1.926123e+01    1.381577e+00
  1.929298e+01    1.337104e+00
  1.932473e+01    1.338901e+00
  1.935648e+01    1.336030e+00
  1.938823e+01    1.337761e+00
  1.941998e+01    1.337499e+00
  1.945173e+01    1.339723e+00
  1.948349e+01    1.332370e+00
  1.951524e+01    1.337422e+00
  1.954699e+01    1.332519e+00
  1.957874e+01    1.331168e+00
  1.961049e+01    1.321236e+00
  1.964224e+01    1.330568e+00
  1.967399e+01    1.310976e+00
  1.970574e+01    1.306574e+00
  1.973749e+01    1.310554e+00
  1.976925e+01    1.283460e+00
  1.980100e+01    1.304088e+00
  1.983275e+01    1.266796e+00
  1.986450e+01    1.301060e+00
  1.989625e+01    1.301601e+00
  1.992800e+01    1.290987e+00
  1.995975e+01    1.283405e+00
  1.999150e+01    1.283373e+00
  2.002325e+01    1.266059e+00
  2.005501e+01    1.274848e+00
  2.008676e+01    1.266736e+00
  2.011851e+01    1.289688e+00
  2.015026e+01    1.307788e+00
  2.018201e+01    1.236467e+00
  2.021376e+01    1.267010e+00
  2.024551e+01    1.268489e+00
  2.027726e+01    1.259128e+00
  2.030902e+01    1.244768e+00
  2.034077e+01    1.261692e+00
  2.037252e+01    1.245031e+00
  2.040427e+01    1.238832e+00
  2.043602e+01    1.246249e+00
  2.046777e+01    1.248912e+00
  2.049952e+01    1.217609e+00
  2.053127e+01    1.234094e+00
  2.056302e+01    1.229799e+00
  2.059478e+01    1.228836e+00
  2.062653e+01    1.219661e+00
  2.065828e+01    1.229661e+00
  2.069003e+01    1.239610e+00
  2.072178e+01    1.205985e+00
  2.075353e+01    1.209584e+00
  2.078528e+01    1.214341e+00
  2.081703e+01    1.204368e+00
  2.084878e+01    1.210428e+00
  2.088054e+01    1.196388e+00
  2.091229e+01    1.225048e+00
  2.094404e+01    1.220809e+00
  2.097579e+01    1.201640e+00
  2.100754e+01    1.218219e+00
  2.103929e+01    1.211320e+00
  2.107104e+01    1.225932e+00
  2.110279e+01    1.208941e+00
  2.113455e+01    1.245964e+00
  2.116630e+01    1.256205e+00
  2.119805e+01    1.222453e+00
  2.122980e+01    1.236172e+00
  2.126155e+01    1.243488e+00
  2.129330e+01    1.267671e+00
  2.132505e+01    1.265056e+00
  2.135680e+01    1.288878e+00
  2.138855e+01    1.316819e+00
  2.142031e+01    1.309854e+00
  2.145206e+01    1.378295e+00
  2.148381e+01    1.388969e+00
  2.151556e+01    1.414573e+00
  2.154731e+01    1.493669e+00
  2.157906e+01    1.585208e+00
  2.161081e+01    1.731005e+00
  2.164256e+01    1.980359e+00
  2.167431e+01    2.248930e+00
  2.170607e+01    2.726508e+00
  2.173782e+01    3.475982e+00
  2.176957e+01    4.532514e+00
  2.180132e+01    5.774943e+00
  2.183307e+01    7.106001e+00
  2.186482e+01    8.307091e+00
  2.189657e+01    8.866974e+00
  2.192832e+01    8.168379e+00
  2.196007e+01    6.549348e+00
  2.199183e+01    4.842677e+00
  2.202358e+01    3.622303e+00
  2.205533e+01    2.845136e+00
  2.208708e+01    2.344752e+00
  2.211883e+01    1.962779e+00
  2.215058e+01    1.771391e+00
  2.218233e+01    1.602339e+00
  2.221408e+01    1.467713e+00
  2.224584e+01    1.394369e+00
  2.227759e+01    1.339798e+00
  2.230934e+01    1.279982e+00
  2.234109e+01    1.265183e+00
  2.237284e+01    1.203497e+00
  2.240459e+01    1.201166e+00
  2.243634e+01    1.183237e+00
  2.246809e+01    1.158844e+00
  2.249984e+01    1.157483e+00
  2.253160e+01    1.140023e+00
  2.256335e+01    1.135700e+00
  2.259510e+01    1.090729e+00
  2.262685e+01    1.076630e+00
  2.265860e+01    1.090776e+00
  2.269035e+01    1.066775e+00
  2.272210e+01    1.075033e+00
  2.275385e+01    1.054714e+00
  2.278560e+01    1.055074e+00
  2.281736e+01    1.042347e+00
  2.284911e+01    1.036121e+00
  2.288086e+01    1.054830e+00
  2.291261e+01    1.015681e+00
  2.294436e+01    1.022842e+00
  2.297611e+01    1.030620e+00
  2.300786e+01    1.012509e+00
  2.303961e+01    1.017151e+00
  2.307137e+01    9.981819e-01
  2.310312e+01    9.908336e-01
  2.313487e+01    1.001740e+00
  2.316662e+01    9.994872e-01
  2.319837e+01    1.015924e+00
  2.323012e+01    9.971035e-01
  2.326187e+01    9.944255e-01
  2.329362e+01    1.001167e+00
  2.332537e+01    9.903417e-01
  2.335713e+01    9.702731e-01
  2.338888e+01    9.616550e-01
  2.342063e+01    9.722067e-01
  2.345238e+01    9.528183e-01
  2.348413e+01    9.555400e-01
  2.351588e+01    9.590025e-01
  2.354763e+01    9.523570e-01
  2.357938e+01    9.672061e-01
  2.361113e+01    9.539371e-01
  2.364289e+01    9.672613e-01
  2.367464e+01    9.434378e-01
  2.370639e+01    9.298625e-01
  2.373814e+01    9.308401e-01
  2.376989e+01    9.328558e-01
  2.380164e+01    9.366114e-01
  2.383339e+01    9.234592e-01
  2.386514e+01    9.092491e-01
  2.389689e+01    9.282075e-01
  2.392865e+01    9.170140e-01
  2.396040e+01    9.018828e-01
  2.399215e+01    8.915129e-01
  2.402390e+01    9.006619e-01
  2.405565e+01    8.748850e-01
  2.408740e+01    8.807125e-01
  2.411915e+01    9.156468e-01
  2.415090e+01    8.742497e-01
  2.418266e+01    9.062530e-01
  2.421441e+01    8.683956e-01
  2.424616e+01    8.709326e-01
  2.427791e+01    8.952052e-01
  2.430966e+01    8.914210e-01
  2.434141e+01    9.009396e-01
  2.437316e+01    8.840920e-01
  2.440491e+01    8.785900e-01
  2.443666e+01    8.808465e-01
  2.446842e+01    8.876330e-01
  2.450017e+01    8.765984e-01
  2.453192e+01    8.915544e-01
  2.456367e+01    9.093893e-01
  2.459542e+01    8.786857e-01
  2.462717e+01    8.853663e-01
  2.465892e+01    8.815804e-01
  2.469067e+01    8.864507e-01
  2.472242e+01    8.728522e-01
  2.475418e+01    8.974401e-01
  2.478593e+01    9.018943e-01
  2.481768e+01    8.815391e-01
  2.484943e+01    8.669058e-01
  2.488118e+01    8.987925e-01
  2.491293e+01    8.869261e-01
  2.494468e+01    9.012311e-01
  2.497643e+01    8.773296e-01
  2.500819e+01    8.881610e-01
  2.503994e+01    9.222087e-01
  2.507169e+01    8.912532e-01
  2.510344e+01    9.140071e-01
  2.513519e+01    9.011371e-01
  2.516694e+01    9.176921e-01
  2.519869e+01    9.230676e-01
  2.523044e+01    9.331154e-01
  2.526219e+01    9.366558e-01
  2.529395e+01    9.436700e-01
  2.532570e+01    9.464255e-01
  2.535745e+01    9.593540e-01
  2.538920e+01    9.861885e-01
  2.542095e+01    9.928943e-01
  2.545270e+01    1.020214e+00
  2.548445e+01    1.028540e+00
  2.551620e+01    1.083436e+00
  2.554795e+01    1.102671e+00
  2.557971e+01    1.152837e+00
  2.561146e+01    1.224393e+00
  2.564321e+01    1.299804e+00
  2.567496e+01    1.416291e+00
  2.570671e+01    1.597692e+00
  2.573846e+01    1.802523e+00
  2.577021e+01    2.197550e+00
  2.580196e+01    2.777087e+00
  2.583371e+01    3.568802e+00
  2.586547e+01    4.632887e+00
  2.589722e+01    5.786452e+00
  2.592897e+01    6.700800e+00
  2.596072e+01    7.065848e+00
  2.599247e+01    6.549506e+00
  2.602422e+01    5.297792e+00
  2.605597e+01    3.932617e+00
  2.608772e+01    2.999353e+00
  2.611948e+01    2.376014e+00
  2.615123e+01    1.970876e+00
  2.618298e+01    1.693964e+00
  2.621473e+01    1.504632e+00
  2.624648e+01    1.347998e+00
  2.627823e+01    1.232544e+00
  2.630998e+01    1.178156e+00
  2.634173e+01    1.107355e+00
  2.637348e+01    1.077784e+00
  2.640524e+01    1.051376e+00
  2.643699e+01    1.051097e+00
  2.646874e+01    1.005416e+00
  2.650049e+01    1.027172e+00
  2.653224e+01    9.952180e-01
  2.656399e+01    9.867646e-01
  2.659574e+01    9.769225e-01
  2.662749e+01    9.642692e-01
  2.665924e+01    9.821989e-01
  2.669100e+01    9.644180e-01
  2.672275e+01    9.546010e-01
  2.675450e+01    9.735611e-01
  2.678625e+01    9.752379e-01
  2.681800e+01    9.608258e-01
  2.684975e+01    9.891157e-01
  2.688150e+01    9.865297e-01
  2.691325e+01    9.962530e-01
  2.694501e+01    1.024706e+00
  2.697676e+01    1.054187e+00
  2.700851e+01    1.106894e+00
  2.704026e+01    1.183470e+00
  2.707201e+01    1.337304e+00
  2.710376e+01    1.476031e+00
  2.713551e+01    1.685937e+00
  2.716726e+01    1.973871e+00
  2.719901e+01    2.116094e+00
  2.723077e+01    2.141440e+00
  2.726252e+01    1.972595e+00
  2.729427e+01    1.721475e+00
  2.732602e+01    1.442875e+00
  2.735777e+01    1.244496e+00
  2.738952e+01    1.180763e+00
  2.742127e+01    1.074286e+00
  2.745302e+01    1.051226e+00
  2.748477e+01    9.840087e-01
  2.751653e+01    9.704261e-01
  2.754828e+01    9.252572e-01
  2.758003e+01    9.234552e-01
  2.761178e+01    9.103197e-01
  2.764353e+01    9.357198e-01
  2.767528e+01    9.054145e-01
  2.770703e+01    8.861073e-01
  2.773878e+01    8.889982e-01
  2.777054e+01    8.687330e-01
  2.780229e+01    9.006616e-01
  2.783404e+01    8.931742e-01
  2.786579e+01    8.704385e-01
  2.789754e+01    8.792478e-01
  2.792929e+01    8.757326e-01
  2.796104e+01    8.474368e-01
  2.799279e+01    8.661562e-01
  2.802454e+01    8.772807e-01
  2.805630e+01    8.654411e-01
  2.808805e+01    8.444406e-01
  2.811980e+01    8.622246e-01
  2.815155e+01    8.739806e-01
  2.818330e+01    8.301628e-01
  2.821505e+01    8.323858e-01
  2.824680e+01    8.380615e-01
  2.827855e+01    8.671504e-01
  2.831030e+01    8.422979e-01
  2.834206e+01    8.589945e-01
  2.837381e+01    8.508720e-01
  2.840556e+01    8.474534e-01
  2.843731e+01    8.381494e-01
  2.846906e+01    8.216465e-01
  2.850081e+01    8.164975e-01
  2.853256e+01    8.438749e-01
  2.856431e+01    8.299019e-01
  2.859606e+01    8.270710e-01
  2.862782e+01    8.297395e-01
  2.865957e+01    8.168135e-01
  2.869132e+01    8.442255e-01
  2.872307e+01    8.171933e-01
  2.875482e+01    8.078215e-01
  2.878657e+01    8.390290e-01
  2.881832e+01    8.216077e-01
  2.885007e+01    8.362087e-01
  2.888183e+01    8.157371e-01
  2.891358e+01    8.300447e-01
  2.894533e+01    8.242966e-01
  2.897708e+01    8.242155e-01
  2.900883e+01    8.150126e-01
  2.904058e+01    8.438581e-01
  2.907233e+01    8.180407e-01
  2.910408e+01    8.336744e-01
  2.913583e+01    8.129773e-01
  2.916759e+01    8.048180e-01
  2.919934e+01    8.213763e-01
  2.923109e+01    8.013493e-01
  2.926284e+01    7.845189e-01
  2.929459e+01    7.813989e-01
  2.932634e+01    7.872570e-01
  2.935809e+01    8.091683e-01
  2.938984e+01    8.238432e-01
  2.942159e+01    8.028143e-01
  2.945335e+01    7.872977e-01
  2.948510e+01    8.028426e-01
  2.951685e+01    7.913035e-01
  2.954860e+01    8.067124e-01
  2.958035e+01    8.192649e-01
  2.961210e+01    7.881097e-01
  2.964385e+01    8.004198e-01
  2.967560e+01    7.826018e-01
  2.970736e+01    8.133953e-01
  2.973911e+01    8.034146e-01
  2.977086e+01    7.780402e-01
  2.980261e+01    7.849790e-01
  2.983436e+01    7.766042e-01
  2.986611e+01    8.041896e-01
  2.989786e+01    7.880853e-01
  2.992961e+01    7.970340e-01
  2.996136e+01    7.915346e-01
  2.999312e+01    7.885674e-01
  3.002487e+01    8.095939e-01
  3.005662e+01    8.386660e-01
  3.008837e+01    7.874923e-01
  3.012012e+01    7.955364e-01
  3.015187e+01    7.895266e-01
  3.018362e+01    7.991816e-01
  3.021537e+01    7.916592e-01
  3.024712e+01    7.870520e-01
  3.027888e+01    7.895558e-01
  3.031063e+01    7.850077e-01
  3.034238e+01    8.009185e-01
  3.037413e+01    7.855033e-01
  3.040588e+01    7.833995e-01
  3.043763e+01    7.800304e-01
  3.046938e+01    7.890166e-01
  3.050113e+01    7.819659e-01
  3.053288e+01    7.907153e-01
  3.056464e+01    7.771875e-01
  3.059639e+01    7.826604e-01
  3.062814e+01    7.661679e-01
  3.065989e+01    7.711580e-01
  3.069164e+01    7.639090e-01
  3.072339e+01    7.771753e-01
  3.075514e+01    7.757419e-01
  3.078689e+01    7.925539e-01
  3.081865e+01    7.780601e-01
  3.085040e+01    8.022048e-01
  3.088215e+01    7.820376e-01
  3.091390e+01    7.850983e-01
  3.094565e+01    7.684966e-01
  3.097740e+01    8.080216e-01
  3.100915e+01    8.031243e-01
  3.104090e+01    7.769250e-01
  3.107265e+01    7.631298e-01
  3.110441e+01    7.945731e-01
  3.113616e+01    7.746321e-01
  3.116791e+01    7.879335e-01
  3.119966e+01    8.068942e-01
  3.123141e+01    7.891245e-01
  3.126316e+01    8.017676e-01
  3.129491e+01    8.121707e-01
  3.132666e+01    7.956617e-01
  3.135841e+01    8.068045e-01
  3.139017e+01    8.145257e-01
  3.142192e+01    7.849996e-01
  3.145367e+01    8.073195e-01
  3.148542e+01    7.939577e-01
  3.151717e+01    8.298874e-01
  3.154892e+01    8.510553e-01
  3.158067e+01    8.331571e-01
  3.161242e+01    8.608962e-01
  3.164418e+01    9.255794e-01
  3.167593e+01    9.666436e-01
  3.170768e+01    1.019968e+00
  3.173943e+01    1.091356e+00
  3.177118e+01    1.253616e+00
  3.180293e+01    1.421449e+00
  3.183468e+01    1.688900e+00
  3.186643e+01    1.938323e+00
  3.189818e+01    2.041178e+00
  3.192994e+01    2.071384e+00
  3.196169e+01    1.793144e+00
  3.199344e+01    1.528576e+00
  3.202519e+01    1.273450e+00
  3.205694e+01    1.167659e+00
  3.208869e+01    1.073370e+00
  3.212044e+01    9.725441e-01
  3.215219e+01    9.176824e-01
  3.218394e+01    8.676518e-01
  3.221570e+01    8.734759e-01
  3.224745e+01    8.365367e-01
  3.227920e+01    8.436438e-01
  3.231095e+01    7.808287e-01
  3.234270e+01    7.960218e-01
  3.237445e+01    8.067929e-01
  3.240620e+01    7.774560e-01
  3.243795e+01    7.726339e-01
  3.246970e+01    7.560003e-01
  3.250146e+01    7.682800e-01
  3.253321e+01    7.977257e-01
  3.254908e+01    7.829193e-01