File: XRD/Reaction conditions/2024-07-27_003_Ru-CGO-ex_Reaction_dwell_000023_data_000016.dat
# == pyFAI calibration ==
# Distance Sample to Detector: 0.4 m
# PONI: 9.750e-02, 1.135e-01 m
# Rotations: -0.000175 0.000000 -0.000000 rad
#
# == Fit2d calibration ==
# Distance Sample-beamCenter: 400.000 mm
# Center: x=1514.000, y=1300.000 pix
# Tilt: 0.010 deg  TiltPlanRot: 0.010 deg
#
# Detector Detector	 Spline= None	 PixelSize= 7.500e-05, 7.500e-05 m
#    Detector has a mask: False
#    Detector has a dark current: False
#    detector has a flat field: False
#
# Wavelength: 6.888e-11 m
# Mask applied: user provided
# Dark current applied: False
# Flat field applied: False
# Polarization factor: 0.99
# Normalization factor: 1.0
# --> /home/myspot/data/2024_07_Rosario/Ru-CGO-ex/2024-07-27_003_Ru-CGO-ex_Reaction_dwell_000023_data_000016.dat
#       q_nm^-1             I
  2.003187e-02    9.939197e-02
  5.178302e-02    2.328101e-01
  8.353417e-02    1.008196e-01
  1.152853e-01    6.863071e-02
  1.470365e-01    4.700136e-02
  1.787876e-01    4.857132e-02
  2.105388e-01    3.728186e-02
  2.422899e-01    5.905874e-02
  2.740411e-01    0.000000e+00
  3.057922e-01    3.276558e-02
  3.375433e-01    5.503816e-02
  3.692945e-01    2.757927e-02
  4.010456e-01    5.518455e-02
  4.327968e-01    5.189931e-02
  4.645479e-01    4.219203e-02
  4.962991e-01    4.695760e-02
  5.280502e-01    4.778413e-02
  5.598014e-01    1.973200e-02
  5.915525e-01    6.240083e-02
  6.233037e-01    3.063020e-02
  6.550548e-01    3.667554e-02
  6.868060e-01    3.028378e-02
  7.185571e-01    5.734302e-02
  7.503083e-01    5.046638e-02
  7.820594e-01    1.094774e-01
  8.138106e-01    2.089158e-01
  8.455617e-01    3.863313e-01
  8.773129e-01    5.310324e-01
  9.090640e-01    6.492147e-01
  9.408152e-01    7.721923e-01
  9.725663e-01    1.057715e+00
  1.004317e+00    1.242640e+00
  1.036069e+00    1.336299e+00
  1.067820e+00    1.489907e+00
  1.099571e+00    1.484420e+00
  1.131322e+00    1.623529e+00
  1.163073e+00    1.603104e+00
  1.194824e+00    1.726015e+00
  1.226575e+00    2.210760e+00
  1.258327e+00    2.373130e+00
  1.290078e+00    2.730610e+00
  1.321829e+00    2.639048e+00
  1.353580e+00    2.738021e+00
  1.385331e+00    2.745579e+00
  1.417082e+00    2.908911e+00
  1.448834e+00    2.851187e+00
  1.480585e+00    3.080055e+00
  1.512336e+00    3.011863e+00
  1.544087e+00    3.254472e+00
  1.575838e+00    3.122056e+00
  1.607589e+00    3.196897e+00
  1.639340e+00    3.122868e+00
  1.671092e+00    3.106380e+00
  1.702843e+00    3.164484e+00
  1.734594e+00    3.169423e+00
  1.766345e+00    3.098305e+00
  1.798096e+00    3.002099e+00
  1.829847e+00    3.040255e+00
  1.861598e+00    3.076433e+00
  1.893350e+00    3.196579e+00
  1.925101e+00    3.071211e+00
  1.956852e+00    2.977875e+00
  1.988603e+00    3.090050e+00
  2.020354e+00    3.068256e+00
  2.052105e+00    3.011873e+00
  2.083856e+00    3.154100e+00
  2.115608e+00    3.010079e+00
  2.147359e+00    3.059679e+00
  2.179110e+00    3.117243e+00
  2.210861e+00    3.088085e+00
  2.242612e+00    3.184175e+00
  2.274363e+00    3.113237e+00
  2.306115e+00    3.048467e+00
  2.337866e+00    3.168598e+00
  2.369617e+00    3.058266e+00
  2.401368e+00    3.010318e+00
  2.433119e+00    3.140451e+00
  2.464870e+00    3.142085e+00
  2.496621e+00    3.165380e+00
  2.528373e+00    3.259351e+00
  2.560124e+00    3.276676e+00
  2.591875e+00    3.307432e+00
  2.623626e+00    3.158221e+00
  2.655377e+00    3.345018e+00
  2.687128e+00    3.322485e+00
  2.718879e+00    3.287965e+00
  2.750631e+00    3.321599e+00
  2.782382e+00    3.254501e+00
  2.814133e+00    3.325079e+00
  2.845884e+00    3.390709e+00
  2.877635e+00    3.268764e+00
  2.909386e+00    3.250912e+00
  2.941137e+00    3.309966e+00
  2.972889e+00    3.165259e+00
  3.004640e+00    3.308335e+00
  3.036391e+00    3.317582e+00
  3.068142e+00    3.438112e+00
  3.099893e+00    3.336089e+00
  3.131644e+00    3.349144e+00
  3.163395e+00    3.301980e+00
  3.195147e+00    3.251005e+00
  3.226898e+00    3.490652e+00
  3.258649e+00    3.388067e+00
  3.290400e+00    3.417923e+00
  3.322151e+00    3.483945e+00
  3.353902e+00    3.409266e+00
  3.385654e+00    3.440030e+00
  3.417405e+00    3.405682e+00
  3.449156e+00    3.471377e+00
  3.480907e+00    3.444701e+00
  3.512658e+00    3.386048e+00
  3.544409e+00    3.467106e+00
  3.576160e+00    3.478682e+00
  3.607912e+00    3.436524e+00
  3.639663e+00    3.424909e+00
  3.671414e+00    3.558270e+00
  3.703165e+00    3.538747e+00
  3.734916e+00    3.439676e+00
  3.766667e+00    3.432414e+00
  3.798418e+00    3.423518e+00
  3.830170e+00    3.439501e+00
  3.861921e+00    3.487308e+00
  3.893672e+00    3.558784e+00
  3.925423e+00    3.492231e+00
  3.957174e+00    3.472990e+00
  3.988925e+00    3.567064e+00
  4.020676e+00    3.522240e+00
  4.052428e+00    3.408446e+00
  4.084179e+00    3.558273e+00
  4.115930e+00    3.591763e+00
  4.147681e+00    3.554260e+00
  4.179432e+00    3.529854e+00
  4.211183e+00    3.535037e+00
  4.242935e+00    3.546292e+00
  4.274686e+00    3.512377e+00
  4.306437e+00    3.543036e+00
  4.338188e+00    3.647469e+00
  4.369939e+00    3.562392e+00
  4.401690e+00    3.536764e+00
  4.433441e+00    3.505121e+00
  4.465193e+00    3.686962e+00
  4.496944e+00    3.610108e+00
  4.528695e+00    3.720558e+00
  4.560446e+00    3.653784e+00
  4.592197e+00    3.510962e+00
  4.623948e+00    3.642859e+00
  4.655699e+00    3.706851e+00
  4.687451e+00    3.672250e+00
  4.719202e+00    3.576420e+00
  4.750953e+00    3.655956e+00
  4.782704e+00    3.584514e+00
  4.814455e+00    3.669257e+00
  4.846206e+00    3.544867e+00
  4.877957e+00    3.641441e+00
  4.909709e+00    3.641596e+00
  4.941460e+00    3.581170e+00
  4.973211e+00    3.606817e+00
  5.004962e+00    3.703206e+00
  5.036713e+00    3.701078e+00
  5.068464e+00    3.569913e+00
  5.100216e+00    3.715928e+00
  5.131967e+00    3.617734e+00
  5.163718e+00    3.674875e+00
  5.195469e+00    3.595076e+00
  5.227220e+00    3.654562e+00
  5.258971e+00    3.632393e+00
  5.290722e+00    3.733440e+00
  5.322474e+00    3.703966e+00
  5.354225e+00    3.680414e+00
  5.385976e+00    3.658265e+00
  5.417727e+00    3.674316e+00
  5.449478e+00    3.581296e+00
  5.481229e+00    3.586277e+00
  5.512980e+00    3.669235e+00
  5.544732e+00    3.681542e+00
  5.576483e+00    3.613129e+00
  5.608234e+00    3.620325e+00
  5.639985e+00    3.572799e+00
  5.671736e+00    3.527782e+00
  5.703487e+00    3.570333e+00
  5.735238e+00    3.565055e+00
  5.766990e+00    3.605385e+00
  5.798741e+00    3.584437e+00
  5.830492e+00    3.617016e+00
  5.862243e+00    3.574828e+00
  5.893994e+00    3.603050e+00
  5.925745e+00    3.496824e+00
  5.957497e+00    3.599725e+00
  5.989248e+00    3.534228e+00
  6.020999e+00    3.546218e+00
  6.052750e+00    3.506520e+00
  6.084501e+00    3.620245e+00
  6.116252e+00    3.535447e+00
  6.148003e+00    3.561125e+00
  6.179755e+00    3.613106e+00
  6.211506e+00    3.486643e+00
  6.243257e+00    3.505323e+00
  6.275008e+00    3.610198e+00
  6.306759e+00    3.577034e+00
  6.338510e+00    3.601954e+00
  6.370261e+00    3.546523e+00
  6.402013e+00    3.586854e+00
  6.433764e+00    3.482393e+00
  6.465515e+00    3.528302e+00
  6.497266e+00    3.591161e+00
  6.529017e+00    3.524182e+00
  6.560768e+00    3.589389e+00
  6.592519e+00    3.629888e+00
  6.624271e+00    3.662589e+00
  6.656022e+00    3.598994e+00
  6.687773e+00    3.524395e+00
  6.719524e+00    3.609553e+00
  6.751275e+00    3.634919e+00
  6.783026e+00    3.576358e+00
  6.814777e+00    3.484473e+00
  6.846529e+00    3.640469e+00
  6.878280e+00    3.654634e+00
  6.910031e+00    3.535954e+00
  6.941782e+00    3.505249e+00
  6.973533e+00    3.473657e+00
  7.005284e+00    3.544332e+00
  7.037036e+00    3.476586e+00
  7.068787e+00    3.555700e+00
  7.100538e+00    3.498026e+00
  7.132289e+00    3.512643e+00
  7.164040e+00    3.481836e+00
  7.195791e+00    3.527849e+00
  7.227542e+00    3.496968e+00
  7.259294e+00    3.538980e+00
  7.291045e+00    3.477997e+00
  7.322796e+00    3.431921e+00
  7.354547e+00    3.545391e+00
  7.386298e+00    3.551270e+00
  7.418049e+00    3.587229e+00
  7.449800e+00    3.539405e+00
  7.481552e+00    3.500215e+00
  7.513303e+00    3.512127e+00
  7.545054e+00    3.518538e+00
  7.576805e+00    3.404265e+00
  7.608556e+00    3.435951e+00
  7.640307e+00    3.506617e+00
  7.672058e+00    3.565486e+00
  7.703810e+00    3.475785e+00
  7.735561e+00    3.486544e+00
  7.767312e+00    3.468758e+00
  7.799063e+00    3.391916e+00
  7.830814e+00    3.468730e+00
  7.862565e+00    3.384500e+00
  7.894317e+00    3.516839e+00
  7.926068e+00    3.432475e+00
  7.957819e+00    3.393163e+00
  7.989570e+00    3.447994e+00
  8.021321e+00    3.430170e+00
  8.053072e+00    3.366778e+00
  8.084823e+00    3.438097e+00
  8.116575e+00    3.517906e+00
  8.148326e+00    3.471622e+00
  8.180077e+00    3.391297e+00
  8.211828e+00    3.524027e+00
  8.243579e+00    3.407799e+00
  8.275330e+00    3.429285e+00
  8.307081e+00    3.388666e+00
  8.338833e+00    3.375202e+00
  8.370584e+00    3.399419e+00
  8.402335e+00    3.404310e+00
  8.434086e+00    3.397971e+00
  8.465837e+00    3.351422e+00
  8.497588e+00    3.326850e+00
  8.529339e+00    3.323656e+00
  8.561091e+00    3.392783e+00
  8.592842e+00    3.355070e+00
  8.624593e+00    3.324299e+00
  8.656344e+00    3.369086e+00
  8.688095e+00    3.352397e+00
  8.719846e+00    3.342714e+00
  8.751598e+00    3.275625e+00
  8.783349e+00    3.343905e+00
  8.815100e+00    3.280150e+00
  8.846851e+00    3.350512e+00
  8.878602e+00    3.364657e+00
  8.910353e+00    3.292143e+00
  8.942104e+00    3.256463e+00
  8.973856e+00    3.353000e+00
  9.005607e+00    3.298552e+00
  9.037358e+00    3.323877e+00
  9.069109e+00    3.281382e+00
  9.100860e+00    3.293567e+00
  9.132611e+00    3.214506e+00
  9.164362e+00    3.253608e+00
  9.196114e+00    3.246714e+00
  9.227865e+00    3.183086e+00
  9.259616e+00    3.188520e+00
  9.291367e+00    3.223701e+00
  9.323118e+00    3.267646e+00
  9.354869e+00    3.181891e+00
  9.386620e+00    3.250796e+00
  9.418372e+00    3.252063e+00
  9.450123e+00    3.191918e+00
  9.481874e+00    3.217367e+00
  9.513625e+00    3.207675e+00
  9.545376e+00    3.215831e+00
  9.577127e+00    3.232568e+00
  9.608878e+00    3.227793e+00
  9.640630e+00    3.203902e+00
  9.672381e+00    3.192665e+00
  9.704132e+00    3.239229e+00
  9.735883e+00    3.238820e+00
  9.767634e+00    3.161599e+00
  9.799385e+00    3.149903e+00
  9.831137e+00    3.161380e+00
  9.862888e+00    3.082299e+00
  9.894639e+00    3.163329e+00
  9.926390e+00    3.130116e+00
  9.958141e+00    3.114629e+00
  9.989892e+00    3.094644e+00
  1.002164e+01    3.083333e+00
  1.005339e+01    3.072889e+00
  1.008515e+01    3.014359e+00
  1.011690e+01    3.043926e+00
  1.014865e+01    3.118121e+00
  1.018040e+01    3.119922e+00
  1.021215e+01    3.091428e+00
  1.024390e+01    3.105689e+00
  1.027565e+01    3.067231e+00
  1.030740e+01    3.025374e+00
  1.033915e+01    3.102483e+00
  1.037091e+01    3.034181e+00
  1.040266e+01    3.046595e+00
  1.043441e+01    3.006451e+00
  1.046616e+01    3.001825e+00
  1.049791e+01    2.990780e+00
  1.052966e+01    2.999312e+00
  1.056141e+01    2.938642e+00
  1.059316e+01    3.015320e+00
  1.062492e+01    2.956276e+00
  1.065667e+01    2.944571e+00
  1.068842e+01    3.014431e+00
  1.072017e+01    2.956325e+00
  1.075192e+01    2.941394e+00
  1.078367e+01    2.960447e+00
  1.081542e+01    2.988983e+00
  1.084717e+01    2.947239e+00
  1.087892e+01    2.911183e+00
  1.091068e+01    2.957343e+00
  1.094243e+01    2.887170e+00
  1.097418e+01    2.916954e+00
  1.100593e+01    2.893879e+00
  1.103768e+01    2.907673e+00
  1.106943e+01    2.846720e+00
  1.110118e+01    2.892909e+00
  1.113293e+01    2.898950e+00
  1.116468e+01    2.850703e+00
  1.119644e+01    2.838664e+00
  1.122819e+01    2.864573e+00
  1.125994e+01    2.840022e+00
  1.129169e+01    2.834276e+00
  1.132344e+01    2.862091e+00
  1.135519e+01    2.844147e+00
  1.138694e+01    2.759854e+00
  1.141869e+01    2.791645e+00
  1.145045e+01    2.821313e+00
  1.148220e+01    2.819414e+00
  1.151395e+01    2.785156e+00
  1.154570e+01    2.783265e+00
  1.157745e+01    2.804819e+00
  1.160920e+01    2.743225e+00
  1.164095e+01    2.761894e+00
  1.167270e+01    2.745704e+00
  1.170445e+01    2.780925e+00
  1.173621e+01    2.750978e+00
  1.176796e+01    2.733204e+00
  1.179971e+01    2.765181e+00
  1.183146e+01    2.753901e+00
  1.186321e+01    2.751703e+00
  1.189496e+01    2.753963e+00
  1.192671e+01    2.742729e+00
  1.195846e+01    2.758353e+00
  1.199021e+01    2.694693e+00
  1.202197e+01    2.702810e+00
  1.205372e+01    2.702454e+00
  1.208547e+01    2.718903e+00
  1.211722e+01    2.707823e+00
  1.214897e+01    2.668331e+00
  1.218072e+01    2.682448e+00
  1.221247e+01    2.698040e+00
  1.224422e+01    2.692874e+00
  1.227597e+01    2.685803e+00
  1.230773e+01    2.714317e+00
  1.233948e+01    2.718891e+00
  1.237123e+01    2.718454e+00
  1.240298e+01    2.711041e+00
  1.243473e+01    2.703925e+00
  1.246648e+01    2.727047e+00
  1.249823e+01    2.716094e+00
  1.252998e+01    2.776741e+00
  1.256174e+01    2.757774e+00
  1.259349e+01    2.753024e+00
  1.262524e+01    2.755026e+00
  1.265699e+01    2.829203e+00
  1.268874e+01    2.854274e+00
  1.272049e+01    2.833260e+00
  1.275224e+01    2.862208e+00
  1.278399e+01    2.996696e+00
  1.281574e+01    3.016385e+00
  1.284750e+01    3.199108e+00
  1.287925e+01    3.352818e+00
  1.291100e+01    3.655263e+00
  1.294275e+01    4.049610e+00
  1.297450e+01    4.757025e+00
  1.300625e+01    5.966170e+00
  1.303800e+01    7.639546e+00
  1.306975e+01    1.026215e+01
  1.310150e+01    1.271951e+01
  1.313326e+01    1.483037e+01
  1.316501e+01    1.618041e+01
  1.319676e+01    1.570883e+01
  1.322851e+01    1.251652e+01
  1.326026e+01    9.165652e+00
  1.329201e+01    6.802515e+00
  1.332376e+01    5.400763e+00
  1.335551e+01    4.464075e+00
  1.338727e+01    3.861574e+00
  1.341902e+01    3.478782e+00
  1.345077e+01    3.274371e+00
  1.348252e+01    3.031760e+00
  1.351427e+01    2.941313e+00
  1.354602e+01    2.817677e+00
  1.357777e+01    2.733669e+00
  1.360952e+01    2.685412e+00
  1.364127e+01    2.616059e+00
  1.367303e+01    2.573461e+00
  1.370478e+01    2.547153e+00
  1.373653e+01    2.526945e+00
  1.376828e+01    2.438005e+00
  1.380003e+01    2.492505e+00
  1.383178e+01    2.475944e+00
  1.386353e+01    2.449622e+00
  1.389528e+01    2.399749e+00
  1.392703e+01    2.377197e+00
  1.395879e+01    2.390506e+00
  1.399054e+01    2.397768e+00
  1.402229e+01    2.367925e+00
  1.405404e+01    2.338310e+00
  1.408579e+01    2.346221e+00
  1.411754e+01    2.317530e+00
  1.414929e+01    2.330788e+00
  1.418104e+01    2.276180e+00
  1.421279e+01    2.302447e+00
  1.424455e+01    2.339142e+00
  1.427630e+01    2.282269e+00
  1.430805e+01    2.243454e+00
  1.433980e+01    2.263946e+00
  1.437155e+01    2.270988e+00
  1.440330e+01    2.236215e+00
  1.443505e+01    2.231748e+00
  1.446680e+01    2.239228e+00
  1.449856e+01    2.183256e+00
  1.453031e+01    2.199579e+00
  1.456206e+01    2.239303e+00
  1.459381e+01    2.187757e+00
  1.462556e+01    2.200354e+00
  1.465731e+01    2.186406e+00
  1.468906e+01    2.177509e+00
  1.472081e+01    2.202877e+00
  1.475256e+01    2.186207e+00
  1.478432e+01    2.207954e+00
  1.481607e+01    2.207392e+00
  1.484782e+01    2.203824e+00
  1.487957e+01    2.200805e+00
  1.491132e+01    2.248817e+00
  1.494307e+01    2.267957e+00
  1.497482e+01    2.331919e+00
  1.500657e+01    2.451181e+00
  1.503832e+01    2.576091e+00
  1.507008e+01    2.822644e+00
  1.510183e+01    3.251437e+00
  1.513358e+01    3.840362e+00
  1.516533e+01    4.557241e+00
  1.519708e+01    5.143454e+00
  1.522883e+01    5.591945e+00
  1.526058e+01    5.786229e+00
  1.529233e+01    5.487625e+00
  1.532409e+01    4.695936e+00
  1.535584e+01    3.775510e+00
  1.538759e+01    3.136410e+00
  1.541934e+01    2.771480e+00
  1.545109e+01    2.534960e+00
  1.548284e+01    2.340269e+00
  1.551459e+01    2.236684e+00
  1.554634e+01    2.179730e+00
  1.557809e+01    2.142370e+00
  1.560985e+01    2.071416e+00
  1.564160e+01    2.033135e+00
  1.567335e+01    2.027609e+00
  1.570510e+01    2.029234e+00
  1.573685e+01    1.962570e+00
  1.576860e+01    2.008250e+00
  1.580035e+01    1.956625e+00
  1.583210e+01    1.946526e+00
  1.586385e+01    1.922082e+00
  1.589561e+01    1.961818e+00
  1.592736e+01    1.908959e+00
  1.595911e+01    1.869032e+00
  1.599086e+01    1.873833e+00
  1.602261e+01    1.849009e+00
  1.605436e+01    1.868151e+00
  1.608611e+01    1.853525e+00
  1.611786e+01    1.842079e+00
  1.614961e+01    1.823162e+00
  1.618137e+01    1.849185e+00
  1.621312e+01    1.804454e+00
  1.624487e+01    1.825609e+00
  1.627662e+01    1.805270e+00
  1.630837e+01    1.767208e+00
  1.634012e+01    1.828903e+00
  1.637187e+01    1.809096e+00
  1.640362e+01    1.773222e+00
  1.643538e+01    1.769197e+00
  1.646713e+01    1.786182e+00
  1.649888e+01    1.761362e+00
  1.653063e+01    1.737252e+00
  1.656238e+01    1.738228e+00
  1.659413e+01    1.725243e+00
  1.662588e+01    1.746801e+00
  1.665763e+01    1.739115e+00
  1.668938e+01    1.712062e+00
  1.672114e+01    1.712390e+00
  1.675289e+01    1.736378e+00
  1.678464e+01    1.722433e+00
  1.681639e+01    1.663282e+00
  1.684814e+01    1.742821e+00
  1.687989e+01    1.707297e+00
  1.691164e+01    1.675794e+00
  1.694339e+01    1.711088e+00
  1.697514e+01    1.657154e+00
  1.700690e+01    1.660314e+00
  1.703865e+01    1.688297e+00
  1.707040e+01    1.671080e+00
  1.710215e+01    1.638961e+00
  1.713390e+01    1.632786e+00
  1.716565e+01    1.677355e+00
  1.719740e+01    1.660329e+00
  1.722915e+01    1.652853e+00
  1.726091e+01    1.608778e+00
  1.729266e+01    1.656232e+00
  1.732441e+01    1.648551e+00
  1.735616e+01    1.604623e+00
  1.738791e+01    1.618997e+00
  1.741966e+01    1.569200e+00
  1.745141e+01    1.620645e+00
  1.748316e+01    1.582235e+00
  1.751491e+01    1.581075e+00
  1.754667e+01    1.591982e+00
  1.757842e+01    1.580109e+00
  1.761017e+01    1.598792e+00
  1.764192e+01    1.552677e+00
  1.767367e+01    1.569379e+00
  1.770542e+01    1.551529e+00
  1.773717e+01    1.550360e+00
  1.776892e+01    1.578743e+00
  1.780067e+01    1.553228e+00
  1.783243e+01    1.549126e+00
  1.786418e+01    1.519494e+00
  1.789593e+01    1.548518e+00
  1.792768e+01    1.551296e+00
  1.795943e+01    1.517410e+00
  1.799118e+01    1.546716e+00
  1.802293e+01    1.509691e+00
  1.805468e+01    1.539011e+00
  1.808643e+01    1.510953e+00
  1.811819e+01    1.490934e+00
  1.814994e+01    1.479786e+00
  1.818169e+01    1.488420e+00
  1.821344e+01    1.484096e+00
  1.824519e+01    1.501137e+00
  1.827694e+01    1.458113e+00
  1.830869e+01    1.454696e+00
  1.834044e+01    1.449558e+00
  1.837220e+01    1.448682e+00
  1.840395e+01    1.444554e+00
  1.843570e+01    1.474819e+00
  1.846745e+01    1.431627e+00
  1.849920e+01    1.440858e+00
  1.853095e+01    1.436951e+00
  1.856270e+01    1.458243e+00
  1.859445e+01    1.424204e+00
  1.862620e+01    1.425896e+00
  1.865796e+01    1.429358e+00
  1.868971e+01    1.418666e+00
  1.872146e+01    1.417850e+00
  1.875321e+01    1.407558e+00
  1.878496e+01    1.433942e+00
  1.881671e+01    1.416253e+00
  1.884846e+01    1.393151e+00
  1.888021e+01    1.378522e+00
  1.891196e+01    1.354696e+00
  1.894372e+01    1.361720e+00
  1.897547e+01    1.361844e+00
  1.900722e+01    1.389915e+00
  1.903897e+01    1.406893e+00
  1.907072e+01    1.359640e+00
  1.910247e+01    1.363632e+00
  1.913422e+01    1.362360e+00
  1.916597e+01    1.344194e+00
  1.919773e+01    1.346192e+00
  1.922948e+01    1.365638e+00
  1.926123e+01    1.358940e+00
  1.929298e+01    1.339449e+00
  1.932473e+01    1.354379e+00
  1.935648e+01    1.337237e+00
  1.938823e+01    1.340577e+00
  1.941998e+01    1.350232e+00
  1.945173e+01    1.352696e+00
  1.948349e+01    1.342494e+00
  1.951524e+01    1.355325e+00
  1.954699e+01    1.327508e+00
  1.957874e+01    1.295432e+00
  1.961049e+01    1.359647e+00
  1.964224e+01    1.330065e+00
  1.967399e+01    1.316663e+00
  1.970574e+01    1.347940e+00
  1.973749e+01    1.325650e+00
  1.976925e+01    1.291774e+00
  1.980100e+01    1.307249e+00
  1.983275e+01    1.313437e+00
  1.986450e+01    1.295888e+00
  1.989625e+01    1.273641e+00
  1.992800e+01    1.278315e+00
  1.995975e+01    1.290254e+00
  1.999150e+01    1.281227e+00
  2.002325e+01    1.265916e+00
  2.005501e+01    1.304687e+00
  2.008676e+01    1.281948e+00
  2.011851e+01    1.262971e+00
  2.015026e+01    1.270546e+00
  2.018201e+01    1.255043e+00
  2.021376e+01    1.264395e+00
  2.024551e+01    1.268868e+00
  2.027726e+01    1.268418e+00
  2.030902e+01    1.246904e+00
  2.034077e+01    1.239310e+00
  2.037252e+01    1.261764e+00
  2.040427e+01    1.267763e+00
  2.043602e+01    1.222133e+00
  2.046777e+01    1.240181e+00
  2.049952e+01    1.231614e+00
  2.053127e+01    1.229544e+00
  2.056302e+01    1.260730e+00
  2.059478e+01    1.251347e+00
  2.062653e+01    1.214271e+00
  2.065828e+01    1.240947e+00
  2.069003e+01    1.220227e+00
  2.072178e+01    1.228755e+00
  2.075353e+01    1.216977e+00
  2.078528e+01    1.220085e+00
  2.081703e+01    1.257900e+00
  2.084878e+01    1.227962e+00
  2.088054e+01    1.211761e+00
  2.091229e+01    1.247312e+00
  2.094404e+01    1.210309e+00
  2.097579e+01    1.241975e+00
  2.100754e+01    1.212416e+00
  2.103929e+01    1.212847e+00
  2.107104e+01    1.237598e+00
  2.110279e+01    1.249069e+00
  2.113455e+01    1.224261e+00
  2.116630e+01    1.229001e+00
  2.119805e+01    1.244630e+00
  2.122980e+01    1.252013e+00
  2.126155e+01    1.254581e+00
  2.129330e+01    1.260404e+00
  2.132505e+01    1.266856e+00
  2.135680e+01    1.280275e+00
  2.138855e+01    1.291887e+00
  2.142031e+01    1.320876e+00
  2.145206e+01    1.357914e+00
  2.148381e+01    1.396234e+00
  2.151556e+01    1.434145e+00
  2.154731e+01    1.502985e+00
  2.157906e+01    1.618563e+00
  2.161081e+01    1.761180e+00
  2.164256e+01    1.951275e+00
  2.167431e+01    2.294652e+00
  2.170607e+01    2.758440e+00
  2.173782e+01    3.518742e+00
  2.176957e+01    4.557072e+00
  2.180132e+01    5.850551e+00
  2.183307e+01    7.092999e+00
  2.186482e+01    8.307983e+00
  2.189657e+01    8.873881e+00
  2.192832e+01    8.283922e+00
  2.196007e+01    6.664771e+00
  2.199183e+01    4.916510e+00
  2.202358e+01    3.626245e+00
  2.205533e+01    2.872406e+00
  2.208708e+01    2.358494e+00
  2.211883e+01    2.024352e+00
  2.215058e+01    1.765406e+00
  2.218233e+01    1.592526e+00
  2.221408e+01    1.498441e+00
  2.224584e+01    1.421227e+00
  2.227759e+01    1.339741e+00
  2.230934e+01    1.272616e+00
  2.234109e+01    1.272878e+00
  2.237284e+01    1.241329e+00
  2.240459e+01    1.222380e+00
  2.243634e+01    1.181076e+00
  2.246809e+01    1.158281e+00
  2.249984e+01    1.129333e+00
  2.253160e+01    1.130018e+00
  2.256335e+01    1.127276e+00
  2.259510e+01    1.106108e+00
  2.262685e+01    1.075193e+00
  2.265860e+01    1.076240e+00
  2.269035e+01    1.079165e+00
  2.272210e+01    1.084431e+00
  2.275385e+01    1.088488e+00
  2.278560e+01    1.032593e+00
  2.281736e+01    1.051854e+00
  2.284911e+01    1.042860e+00
  2.288086e+01    1.069845e+00
  2.291261e+01    1.027929e+00
  2.294436e+01    1.045298e+00
  2.297611e+01    1.009687e+00
  2.300786e+01    1.029857e+00
  2.303961e+01    1.015642e+00
  2.307137e+01    1.042881e+00
  2.310312e+01    1.010869e+00
  2.313487e+01    1.013323e+00
  2.316662e+01    1.006405e+00
  2.319837e+01    1.000722e+00
  2.323012e+01    9.922115e-01
  2.326187e+01    9.861100e-01
  2.329362e+01    9.979591e-01
  2.332537e+01    9.818621e-01
  2.335713e+01    9.972907e-01
  2.338888e+01    9.795320e-01
  2.342063e+01    9.636942e-01
  2.345238e+01    9.710681e-01
  2.348413e+01    9.619119e-01
  2.351588e+01    9.424080e-01
  2.354763e+01    9.597528e-01
  2.357938e+01    9.662234e-01
  2.361113e+01    9.606637e-01
  2.364289e+01    9.754178e-01
  2.367464e+01    9.567487e-01
  2.370639e+01    9.389315e-01
  2.373814e+01    9.343394e-01
  2.376989e+01    9.202652e-01
  2.380164e+01    9.079267e-01
  2.383339e+01    9.076629e-01
  2.386514e+01    9.101261e-01
  2.389689e+01    9.323786e-01
  2.392865e+01    9.256519e-01
  2.396040e+01    9.060465e-01
  2.399215e+01    8.949068e-01
  2.402390e+01    8.975434e-01
  2.405565e+01    8.879610e-01
  2.408740e+01    8.926324e-01
  2.411915e+01    8.869879e-01
  2.415090e+01    8.769500e-01
  2.418266e+01    8.991412e-01
  2.421441e+01    8.863800e-01
  2.424616e+01    8.519937e-01
  2.427791e+01    9.100915e-01
  2.430966e+01    8.979741e-01
  2.434141e+01    8.872293e-01
  2.437316e+01    9.037633e-01
  2.440491e+01    8.908599e-01
  2.443666e+01    8.912709e-01
  2.446842e+01    8.747645e-01
  2.450017e+01    9.145128e-01
  2.453192e+01    9.105549e-01
  2.456367e+01    8.814659e-01
  2.459542e+01    8.945981e-01
  2.462717e+01    8.829638e-01
  2.465892e+01    8.959713e-01
  2.469067e+01    8.931428e-01
  2.472242e+01    8.947659e-01
  2.475418e+01    9.048288e-01
  2.478593e+01    8.859362e-01
  2.481768e+01    8.833011e-01
  2.484943e+01    8.970487e-01
  2.488118e+01    8.916484e-01
  2.491293e+01    8.948783e-01
  2.494468e+01    8.762544e-01
  2.497643e+01    8.966548e-01
  2.500819e+01    9.126834e-01
  2.503994e+01    8.725116e-01
  2.507169e+01    8.872701e-01
  2.510344e+01    9.162961e-01
  2.513519e+01    8.918109e-01
  2.516694e+01    9.379167e-01
  2.519869e+01    9.093253e-01
  2.523044e+01    9.370680e-01
  2.526219e+01    9.558122e-01
  2.529395e+01    9.451889e-01
  2.532570e+01    9.523612e-01
  2.535745e+01    9.634718e-01
  2.538920e+01    9.891616e-01
  2.542095e+01    9.907603e-01
  2.545270e+01    1.011606e+00
  2.548445e+01    1.034975e+00
  2.551620e+01    1.063768e+00
  2.554795e+01    1.125209e+00
  2.557971e+01    1.161071e+00
  2.561146e+01    1.222663e+00
  2.564321e+01    1.313989e+00
  2.567496e+01    1.416821e+00
  2.570671e+01    1.586550e+00
  2.573846e+01    1.855258e+00
  2.577021e+01    2.228146e+00
  2.580196e+01    2.796302e+00
  2.583371e+01    3.607777e+00
  2.586547e+01    4.632784e+00
  2.589722e+01    5.775083e+00
  2.592897e+01    6.714717e+00
  2.596072e+01    7.126132e+00
  2.599247e+01    6.689725e+00
  2.602422e+01    5.364884e+00
  2.605597e+01    4.019176e+00
  2.608772e+01    3.048221e+00
  2.611948e+01    2.385212e+00
  2.615123e+01    1.927997e+00
  2.618298e+01    1.686716e+00
  2.621473e+01    1.485690e+00
  2.624648e+01    1.342079e+00
  2.627823e+01    1.252547e+00
  2.630998e+01    1.179711e+00
  2.634173e+01    1.107922e+00
  2.637348e+01    1.085157e+00
  2.640524e+01    1.048189e+00
  2.643699e+01    1.045359e+00
  2.646874e+01    1.021277e+00
  2.650049e+01    1.024642e+00
  2.653224e+01    9.785291e-01
  2.656399e+01    9.837056e-01
  2.659574e+01    9.797731e-01
  2.662749e+01    1.000215e+00
  2.665924e+01    9.711636e-01
  2.669100e+01    9.559277e-01
  2.672275e+01    9.627879e-01
  2.675450e+01    9.583088e-01
  2.678625e+01    9.765216e-01
  2.681800e+01    9.888099e-01
  2.684975e+01    9.774905e-01
  2.688150e+01    1.000180e+00
  2.691325e+01    1.002985e+00
  2.694501e+01    1.027792e+00
  2.697676e+01    1.051167e+00
  2.700851e+01    1.097875e+00
  2.704026e+01    1.194720e+00
  2.707201e+01    1.329528e+00
  2.710376e+01    1.488469e+00
  2.713551e+01    1.712371e+00
  2.716726e+01    2.000077e+00
  2.719901e+01    2.132242e+00
  2.723077e+01    2.195936e+00
  2.726252e+01    1.948297e+00
  2.729427e+01    1.700068e+00
  2.732602e+01    1.462478e+00
  2.735777e+01    1.290202e+00
  2.738952e+01    1.195934e+00
  2.742127e+01    1.084089e+00
  2.745302e+01    1.028101e+00
  2.748477e+01    9.815838e-01
  2.751653e+01    9.728549e-01
  2.754828e+01    9.820449e-01
  2.758003e+01    9.488546e-01
  2.761178e+01    9.312718e-01
  2.764353e+01    9.320436e-01
  2.767528e+01    8.978573e-01
  2.770703e+01    9.276750e-01
  2.773878e+01    8.779095e-01
  2.777054e+01    8.835411e-01
  2.780229e+01    9.077482e-01
  2.783404e+01    8.947680e-01
  2.786579e+01    8.996536e-01
  2.789754e+01    8.764106e-01
  2.792929e+01    8.806722e-01
  2.796104e+01    8.669744e-01
  2.799279e+01    8.683268e-01
  2.802454e+01    8.658504e-01
  2.805630e+01    8.516560e-01
  2.808805e+01    8.642743e-01
  2.811980e+01    8.639538e-01
  2.815155e+01    8.580691e-01
  2.818330e+01    8.158293e-01
  2.821505e+01    8.553487e-01
  2.824680e+01    8.520805e-01
  2.827855e+01    8.698808e-01
  2.831030e+01    8.629106e-01
  2.834206e+01    8.489826e-01
  2.837381e+01    8.201258e-01
  2.840556e+01    8.138011e-01
  2.843731e+01    8.373433e-01
  2.846906e+01    8.452497e-01
  2.850081e+01    8.415114e-01
  2.853256e+01    8.439705e-01
  2.856431e+01    8.233770e-01
  2.859606e+01    8.120403e-01
  2.862782e+01    8.390822e-01
  2.865957e+01    8.324317e-01
  2.869132e+01    8.014717e-01
  2.872307e+01    8.714389e-01
  2.875482e+01    8.505885e-01
  2.878657e+01    8.185573e-01
  2.881832e+01    8.235750e-01
  2.885007e+01    8.073598e-01
  2.888183e+01    8.200941e-01
  2.891358e+01    8.135889e-01
  2.894533e+01    8.204197e-01
  2.897708e+01    8.150258e-01
  2.900883e+01    8.060961e-01
  2.904058e+01    8.099630e-01
  2.907233e+01    8.135643e-01
  2.910408e+01    8.127777e-01
  2.913583e+01    8.163511e-01
  2.916759e+01    8.391098e-01
  2.919934e+01    8.059081e-01
  2.923109e+01    8.013360e-01
  2.926284e+01    8.055569e-01
  2.929459e+01    8.149201e-01
  2.932634e+01    8.205808e-01
  2.935809e+01    7.958300e-01
  2.938984e+01    7.997014e-01
  2.942159e+01    8.047193e-01
  2.945335e+01    7.983122e-01
  2.948510e+01    8.086680e-01
  2.951685e+01    8.069471e-01
  2.954860e+01    7.947392e-01
  2.958035e+01    7.918019e-01
  2.961210e+01    7.966905e-01
  2.964385e+01    7.826197e-01
  2.967560e+01    8.051202e-01
  2.970736e+01    7.866716e-01
  2.973911e+01    8.227171e-01
  2.977086e+01    7.970436e-01
  2.980261e+01    7.970982e-01
  2.983436e+01    7.762705e-01
  2.986611e+01    7.820215e-01
  2.989786e+01    7.962627e-01
  2.992961e+01    7.867404e-01
  2.996136e+01    8.078530e-01
  2.999312e+01    7.917979e-01
  3.002487e+01    8.093825e-01
  3.005662e+01    8.038484e-01
  3.008837e+01    7.837155e-01
  3.012012e+01    8.115480e-01
  3.015187e+01    7.845985e-01
  3.018362e+01    8.151863e-01
  3.021537e+01    7.741609e-01
  3.024712e+01    8.002084e-01
  3.027888e+01    7.731690e-01
  3.031063e+01    7.907209e-01
  3.034238e+01    7.958671e-01
  3.037413e+01    7.865893e-01
  3.040588e+01    7.746161e-01
  3.043763e+01    7.794921e-01
  3.046938e+01    7.844607e-01
  3.050113e+01    7.839988e-01
  3.053288e+01    7.794983e-01
  3.056464e+01    7.634320e-01
  3.059639e+01    7.867771e-01
  3.062814e+01    7.759929e-01
  3.065989e+01    7.706453e-01
  3.069164e+01    7.644153e-01
  3.072339e+01    7.955943e-01
  3.075514e+01    7.796847e-01
  3.078689e+01    7.871299e-01
  3.081865e+01    7.920367e-01
  3.085040e+01    7.974840e-01
  3.088215e+01    7.942070e-01
  3.091390e+01    7.678236e-01
  3.094565e+01    7.752082e-01
  3.097740e+01    7.658875e-01
  3.100915e+01    7.851819e-01
  3.104090e+01    8.025296e-01
  3.107265e+01    7.810591e-01
  3.110441e+01    7.746480e-01
  3.113616e+01    7.863209e-01
  3.116791e+01    8.040650e-01
  3.119966e+01    8.061340e-01
  3.123141e+01    8.021351e-01
  3.126316e+01    7.949440e-01
  3.129491e+01    7.893435e-01
  3.132666e+01    7.861671e-01
  3.135841e+01    8.283365e-01
  3.139017e+01    8.170187e-01
  3.142192e+01    8.019194e-01
  3.145367e+01    8.050926e-01
  3.148542e+01    8.277979e-01
  3.151717e+01    8.367565e-01
  3.154892e+01    8.449310e-01
  3.158067e+01    8.529238e-01
  3.161242e+01    8.992324e-01
  3.164418e+01    9.052881e-01
  3.167593e+01    9.670753e-01
  3.170768e+01    1.012447e+00
  3.173943e+01    1.113153e+00
  3.177118e+01    1.253396e+00
  3.180293e+01    1.440357e+00
  3.183468e+01    1.721431e+00
  3.186643e+01    1.954817e+00
  3.189818e+01    2.094257e+00
  3.192994e+01    2.066619e+00
  3.196169e+01    1.813382e+00
  3.199344e+01    1.574780e+00
  3.202519e+01    1.338933e+00
  3.205694e+01    1.196372e+00
  3.208869e+01    1.062510e+00
  3.212044e+01    9.682795e-01
  3.215219e+01    9.070368e-01
  3.218394e+01    8.871893e-01
  3.221570e+01    8.592595e-01
  3.224745e+01    8.603698e-01
  3.227920e+01    8.189389e-01
  3.231095e+01    8.227640e-01
  3.234270e+01    8.226365e-01
  3.237445e+01    8.012119e-01
  3.240620e+01    7.890121e-01
  3.243795e+01    7.937316e-01
  3.246970e+01    7.943099e-01
  3.250146e+01    7.522694e-01
  3.253321e+01    7.830840e-01
  3.254908e+01    7.750623e-01