File: XRD/Reaction conditions/2024-07-27_003_Ru-CGO-ex_Reaction_dwell_000023_data_000117.dat
# == pyFAI calibration ==
# Distance Sample to Detector: 0.4 m
# PONI: 9.750e-02, 1.135e-01 m
# Rotations: -0.000175 0.000000 -0.000000 rad
#
# == Fit2d calibration ==
# Distance Sample-beamCenter: 400.000 mm
# Center: x=1514.000, y=1300.000 pix
# Tilt: 0.010 deg  TiltPlanRot: 0.010 deg
#
# Detector Detector	 Spline= None	 PixelSize= 7.500e-05, 7.500e-05 m
#    Detector has a mask: False
#    Detector has a dark current: False
#    detector has a flat field: False
#
# Wavelength: 6.888e-11 m
# Mask applied: user provided
# Dark current applied: False
# Flat field applied: False
# Polarization factor: 0.99
# Normalization factor: 1.0
# --> /home/myspot/data/2024_07_Rosario/Ru-CGO-ex/2024-07-27_003_Ru-CGO-ex_Reaction_dwell_000023_data_000117.dat
#       q_nm^-1             I
  2.003187e-02    7.711996e-02
  5.178302e-02    0.000000e+00
  8.353417e-02    9.050719e-02
  1.152853e-01    3.643651e-02
  1.470365e-01    3.889065e-02
  1.787876e-01    0.000000e+00
  2.105388e-01    1.646379e-02
  2.422899e-01    4.163101e-03
  2.740411e-01    2.504383e-02
  3.057922e-01    1.288459e-02
  3.375433e-01    3.140004e-02
  3.692945e-01    2.016806e-02
  4.010456e-01    5.832633e-02
  4.327968e-01    4.741457e-02
  4.645479e-01    4.576691e-02
  4.962991e-01    3.056147e-02
  5.280502e-01    5.060605e-02
  5.598014e-01    6.790481e-02
  5.915525e-01    5.037494e-02
  6.233037e-01    4.866088e-02
  6.550548e-01    2.242447e-02
  6.868060e-01    2.962286e-02
  7.185571e-01    4.009570e-02
  7.503083e-01    4.590345e-02
  7.820594e-01    1.138886e-01
  8.138106e-01    2.031097e-01
  8.455617e-01    3.636462e-01
  8.773129e-01    5.386730e-01
  9.090640e-01    6.130421e-01
  9.408152e-01    8.908073e-01
  9.725663e-01    1.043638e+00
  1.004317e+00    1.095495e+00
  1.036069e+00    1.293727e+00
  1.067820e+00    1.419957e+00
  1.099571e+00    1.603294e+00
  1.131322e+00    1.674676e+00
  1.163073e+00    1.567995e+00
  1.194824e+00    1.707607e+00
  1.226575e+00    2.303988e+00
  1.258327e+00    2.491582e+00
  1.290078e+00    2.734730e+00
  1.321829e+00    2.630521e+00
  1.353580e+00    2.773215e+00
  1.385331e+00    2.904562e+00
  1.417082e+00    2.823599e+00
  1.448834e+00    3.019534e+00
  1.480585e+00    3.033741e+00
  1.512336e+00    3.061849e+00
  1.544087e+00    3.109433e+00
  1.575838e+00    3.041767e+00
  1.607589e+00    3.260245e+00
  1.639340e+00    2.979396e+00
  1.671092e+00    3.113045e+00
  1.702843e+00    3.168147e+00
  1.734594e+00    3.096775e+00
  1.766345e+00    3.100494e+00
  1.798096e+00    3.070505e+00
  1.829847e+00    3.055487e+00
  1.861598e+00    3.109564e+00
  1.893350e+00    3.067209e+00
  1.925101e+00    3.085908e+00
  1.956852e+00    3.094645e+00
  1.988603e+00    3.098933e+00
  2.020354e+00    2.990692e+00
  2.052105e+00    2.993796e+00
  2.083856e+00    3.106879e+00
  2.115608e+00    3.073379e+00
  2.147359e+00    2.988165e+00
  2.179110e+00    3.164291e+00
  2.210861e+00    3.034701e+00
  2.242612e+00    3.224888e+00
  2.274363e+00    3.109727e+00
  2.306115e+00    3.134731e+00
  2.337866e+00    3.074444e+00
  2.369617e+00    3.089530e+00
  2.401368e+00    3.097503e+00
  2.433119e+00    3.064531e+00
  2.464870e+00    3.144973e+00
  2.496621e+00    3.182399e+00
  2.528373e+00    3.099610e+00
  2.560124e+00    3.169085e+00
  2.591875e+00    3.224772e+00
  2.623626e+00    3.154408e+00
  2.655377e+00    3.343653e+00
  2.687128e+00    3.227092e+00
  2.718879e+00    3.326596e+00
  2.750631e+00    3.285172e+00
  2.782382e+00    3.243987e+00
  2.814133e+00    3.322920e+00
  2.845884e+00    3.228289e+00
  2.877635e+00    3.345574e+00
  2.909386e+00    3.293942e+00
  2.941137e+00    3.322820e+00
  2.972889e+00    3.353106e+00
  3.004640e+00    3.442013e+00
  3.036391e+00    3.242993e+00
  3.068142e+00    3.375559e+00
  3.099893e+00    3.394244e+00
  3.131644e+00    3.361732e+00
  3.163395e+00    3.235511e+00
  3.195147e+00    3.320024e+00
  3.226898e+00    3.375087e+00
  3.258649e+00    3.395843e+00
  3.290400e+00    3.357844e+00
  3.322151e+00    3.400545e+00
  3.353902e+00    3.519572e+00
  3.385654e+00    3.478299e+00
  3.417405e+00    3.565351e+00
  3.449156e+00    3.448498e+00
  3.480907e+00    3.503205e+00
  3.512658e+00    3.477413e+00
  3.544409e+00    3.522464e+00
  3.576160e+00    3.422968e+00
  3.607912e+00    3.517860e+00
  3.639663e+00    3.479641e+00
  3.671414e+00    3.406315e+00
  3.703165e+00    3.397753e+00
  3.734916e+00    3.465452e+00
  3.766667e+00    3.529286e+00
  3.798418e+00    3.341142e+00
  3.830170e+00    3.506023e+00
  3.861921e+00    3.400712e+00
  3.893672e+00    3.532281e+00
  3.925423e+00    3.508196e+00
  3.957174e+00    3.477884e+00
  3.988925e+00    3.511100e+00
  4.020676e+00    3.521284e+00
  4.052428e+00    3.686670e+00
  4.084179e+00    3.598623e+00
  4.115930e+00    3.568509e+00
  4.147681e+00    3.513237e+00
  4.179432e+00    3.590417e+00
  4.211183e+00    3.571414e+00
  4.242935e+00    3.561914e+00
  4.274686e+00    3.514135e+00
  4.306437e+00    3.528132e+00
  4.338188e+00    3.627457e+00
  4.369939e+00    3.589813e+00
  4.401690e+00    3.512315e+00
  4.433441e+00    3.608258e+00
  4.465193e+00    3.682645e+00
  4.496944e+00    3.582887e+00
  4.528695e+00    3.530770e+00
  4.560446e+00    3.557713e+00
  4.592197e+00    3.646410e+00
  4.623948e+00    3.668142e+00
  4.655699e+00    3.667800e+00
  4.687451e+00    3.594777e+00
  4.719202e+00    3.522979e+00
  4.750953e+00    3.601362e+00
  4.782704e+00    3.657535e+00
  4.814455e+00    3.608900e+00
  4.846206e+00    3.628537e+00
  4.877957e+00    3.686895e+00
  4.909709e+00    3.578627e+00
  4.941460e+00    3.684470e+00
  4.973211e+00    3.715637e+00
  5.004962e+00    3.713484e+00
  5.036713e+00    3.677053e+00
  5.068464e+00    3.676259e+00
  5.100216e+00    3.597014e+00
  5.131967e+00    3.684605e+00
  5.163718e+00    3.663777e+00
  5.195469e+00    3.700830e+00
  5.227220e+00    3.668800e+00
  5.258971e+00    3.624227e+00
  5.290722e+00    3.681531e+00
  5.322474e+00    3.721120e+00
  5.354225e+00    3.649295e+00
  5.385976e+00    3.660077e+00
  5.417727e+00    3.647652e+00
  5.449478e+00    3.568696e+00
  5.481229e+00    3.587303e+00
  5.512980e+00    3.468266e+00
  5.544732e+00    3.591760e+00
  5.576483e+00    3.616049e+00
  5.608234e+00    3.599710e+00
  5.639985e+00    3.576152e+00
  5.671736e+00    3.615224e+00
  5.703487e+00    3.591819e+00
  5.735238e+00    3.639287e+00
  5.766990e+00    3.529618e+00
  5.798741e+00    3.642379e+00
  5.830492e+00    3.616026e+00
  5.862243e+00    3.504561e+00
  5.893994e+00    3.628992e+00
  5.925745e+00    3.600227e+00
  5.957497e+00    3.559338e+00
  5.989248e+00    3.560283e+00
  6.020999e+00    3.532323e+00
  6.052750e+00    3.603561e+00
  6.084501e+00    3.563495e+00
  6.116252e+00    3.593476e+00
  6.148003e+00    3.600706e+00
  6.179755e+00    3.558702e+00
  6.211506e+00    3.528134e+00
  6.243257e+00    3.636940e+00
  6.275008e+00    3.566215e+00
  6.306759e+00    3.510085e+00
  6.338510e+00    3.486511e+00
  6.370261e+00    3.529557e+00
  6.402013e+00    3.513929e+00
  6.433764e+00    3.638654e+00
  6.465515e+00    3.605227e+00
  6.497266e+00    3.585536e+00
  6.529017e+00    3.611362e+00
  6.560768e+00    3.540285e+00
  6.592519e+00    3.494796e+00
  6.624271e+00    3.607961e+00
  6.656022e+00    3.508138e+00
  6.687773e+00    3.513933e+00
  6.719524e+00    3.615492e+00
  6.751275e+00    3.539614e+00
  6.783026e+00    3.540082e+00
  6.814777e+00    3.497795e+00
  6.846529e+00    3.528349e+00
  6.878280e+00    3.553715e+00
  6.910031e+00    3.502948e+00
  6.941782e+00    3.496372e+00
  6.973533e+00    3.604145e+00
  7.005284e+00    3.549378e+00
  7.037036e+00    3.590251e+00
  7.068787e+00    3.517370e+00
  7.100538e+00    3.453103e+00
  7.132289e+00    3.530330e+00
  7.164040e+00    3.545011e+00
  7.195791e+00    3.516990e+00
  7.227542e+00    3.540776e+00
  7.259294e+00    3.560123e+00
  7.291045e+00    3.467174e+00
  7.322796e+00    3.467753e+00
  7.354547e+00    3.459336e+00
  7.386298e+00    3.476876e+00
  7.418049e+00    3.496285e+00
  7.449800e+00    3.508845e+00
  7.481552e+00    3.515056e+00
  7.513303e+00    3.497699e+00
  7.545054e+00    3.424643e+00
  7.576805e+00    3.466498e+00
  7.608556e+00    3.499072e+00
  7.640307e+00    3.462491e+00
  7.672058e+00    3.471373e+00
  7.703810e+00    3.491951e+00
  7.735561e+00    3.422118e+00
  7.767312e+00    3.457098e+00
  7.799063e+00    3.465881e+00
  7.830814e+00    3.489519e+00
  7.862565e+00    3.490787e+00
  7.894317e+00    3.537431e+00
  7.926068e+00    3.468159e+00
  7.957819e+00    3.470268e+00
  7.989570e+00    3.389482e+00
  8.021321e+00    3.424351e+00
  8.053072e+00    3.455022e+00
  8.084823e+00    3.406377e+00
  8.116575e+00    3.476126e+00
  8.148326e+00    3.475647e+00
  8.180077e+00    3.458977e+00
  8.211828e+00    3.433215e+00
  8.243579e+00    3.559102e+00
  8.275330e+00    3.439976e+00
  8.307081e+00    3.406069e+00
  8.338833e+00    3.448490e+00
  8.370584e+00    3.356893e+00
  8.402335e+00    3.346095e+00
  8.434086e+00    3.332050e+00
  8.465837e+00    3.450769e+00
  8.497588e+00    3.357303e+00
  8.529339e+00    3.405483e+00
  8.561091e+00    3.362122e+00
  8.592842e+00    3.361173e+00
  8.624593e+00    3.275082e+00
  8.656344e+00    3.337137e+00
  8.688095e+00    3.327084e+00
  8.719846e+00    3.319790e+00
  8.751598e+00    3.326946e+00
  8.783349e+00    3.292682e+00
  8.815100e+00    3.297756e+00
  8.846851e+00    3.409239e+00
  8.878602e+00    3.298269e+00
  8.910353e+00    3.337159e+00
  8.942104e+00    3.277020e+00
  8.973856e+00    3.334491e+00
  9.005607e+00    3.241991e+00
  9.037358e+00    3.227643e+00
  9.069109e+00    3.280822e+00
  9.100860e+00    3.298894e+00
  9.132611e+00    3.211426e+00
  9.164362e+00    3.293206e+00
  9.196114e+00    3.280491e+00
  9.227865e+00    3.315107e+00
  9.259616e+00    3.246624e+00
  9.291367e+00    3.265451e+00
  9.323118e+00    3.255426e+00
  9.354869e+00    3.212373e+00
  9.386620e+00    3.231344e+00
  9.418372e+00    3.202043e+00
  9.450123e+00    3.292732e+00
  9.481874e+00    3.227218e+00
  9.513625e+00    3.197086e+00
  9.545376e+00    3.169088e+00
  9.577127e+00    3.215168e+00
  9.608878e+00    3.244465e+00
  9.640630e+00    3.200440e+00
  9.672381e+00    3.230961e+00
  9.704132e+00    3.187305e+00
  9.735883e+00    3.150786e+00
  9.767634e+00    3.215223e+00
  9.799385e+00    3.255564e+00
  9.831137e+00    3.149004e+00
  9.862888e+00    3.181138e+00
  9.894639e+00    3.133744e+00
  9.926390e+00    3.117132e+00
  9.958141e+00    3.120631e+00
  9.989892e+00    3.156193e+00
  1.002164e+01    3.142483e+00
  1.005339e+01    3.048865e+00
  1.008515e+01    3.106186e+00
  1.011690e+01    3.106645e+00
  1.014865e+01    3.013606e+00
  1.018040e+01    3.063833e+00
  1.021215e+01    3.030258e+00
  1.024390e+01    3.045527e+00
  1.027565e+01    3.029837e+00
  1.030740e+01    3.052585e+00
  1.033915e+01    3.091865e+00
  1.037091e+01    3.102962e+00
  1.040266e+01    3.036780e+00
  1.043441e+01    3.070854e+00
  1.046616e+01    3.017623e+00
  1.049791e+01    3.027810e+00
  1.052966e+01    3.071898e+00
  1.056141e+01    3.013374e+00
  1.059316e+01    2.992560e+00
  1.062492e+01    2.997538e+00
  1.065667e+01    3.009288e+00
  1.068842e+01    2.980765e+00
  1.072017e+01    2.960971e+00
  1.075192e+01    2.959875e+00
  1.078367e+01    2.980604e+00
  1.081542e+01    2.967708e+00
  1.084717e+01    2.919619e+00
  1.087892e+01    2.944567e+00
  1.091068e+01    2.927727e+00
  1.094243e+01    2.905724e+00
  1.097418e+01    2.913538e+00
  1.100593e+01    2.910370e+00
  1.103768e+01    2.888648e+00
  1.106943e+01    2.913683e+00
  1.110118e+01    2.850123e+00
  1.113293e+01    2.884409e+00
  1.116468e+01    2.840681e+00
  1.119644e+01    2.928441e+00
  1.122819e+01    2.857413e+00
  1.125994e+01    2.777272e+00
  1.129169e+01    2.880760e+00
  1.132344e+01    2.796495e+00
  1.135519e+01    2.838786e+00
  1.138694e+01    2.869915e+00
  1.141869e+01    2.787472e+00
  1.145045e+01    2.781178e+00
  1.148220e+01    2.788821e+00
  1.151395e+01    2.777197e+00
  1.154570e+01    2.791435e+00
  1.157745e+01    2.783420e+00
  1.160920e+01    2.769544e+00
  1.164095e+01    2.710640e+00
  1.167270e+01    2.792704e+00
  1.170445e+01    2.821360e+00
  1.173621e+01    2.755877e+00
  1.176796e+01    2.721952e+00
  1.179971e+01    2.746094e+00
  1.183146e+01    2.739666e+00
  1.186321e+01    2.771003e+00
  1.189496e+01    2.725290e+00
  1.192671e+01    2.744845e+00
  1.195846e+01    2.707566e+00
  1.199021e+01    2.731197e+00
  1.202197e+01    2.712125e+00
  1.205372e+01    2.699376e+00
  1.208547e+01    2.700823e+00
  1.211722e+01    2.681726e+00
  1.214897e+01    2.677486e+00
  1.218072e+01    2.657573e+00
  1.221247e+01    2.701447e+00
  1.224422e+01    2.712312e+00
  1.227597e+01    2.684684e+00
  1.230773e+01    2.647563e+00
  1.233948e+01    2.691369e+00
  1.237123e+01    2.697287e+00
  1.240298e+01    2.657022e+00
  1.243473e+01    2.661284e+00
  1.246648e+01    2.740824e+00
  1.249823e+01    2.702339e+00
  1.252998e+01    2.735368e+00
  1.256174e+01    2.705122e+00
  1.259349e+01    2.749028e+00
  1.262524e+01    2.801271e+00
  1.265699e+01    2.748515e+00
  1.268874e+01    2.786505e+00
  1.272049e+01    2.895533e+00
  1.275224e+01    2.881721e+00
  1.278399e+01    3.005228e+00
  1.281574e+01    3.024366e+00
  1.284750e+01    3.225555e+00
  1.287925e+01    3.374409e+00
  1.291100e+01    3.607033e+00
  1.294275e+01    4.074123e+00
  1.297450e+01    4.814481e+00
  1.300625e+01    5.975751e+00
  1.303800e+01    7.736925e+00
  1.306975e+01    1.017637e+01
  1.310150e+01    1.267262e+01
  1.313326e+01    1.486614e+01
  1.316501e+01    1.634160e+01
  1.319676e+01    1.571365e+01
  1.322851e+01    1.249330e+01
  1.326026e+01    9.125859e+00
  1.329201e+01    6.843762e+00
  1.332376e+01    5.301983e+00
  1.335551e+01    4.430422e+00
  1.338727e+01    3.929869e+00
  1.341902e+01    3.529992e+00
  1.345077e+01    3.155005e+00
  1.348252e+01    3.071640e+00
  1.351427e+01    2.915438e+00
  1.354602e+01    2.847415e+00
  1.357777e+01    2.715393e+00
  1.360952e+01    2.684196e+00
  1.364127e+01    2.667703e+00
  1.367303e+01    2.581489e+00
  1.370478e+01    2.574407e+00
  1.373653e+01    2.541276e+00
  1.376828e+01    2.547326e+00
  1.380003e+01    2.507728e+00
  1.383178e+01    2.433555e+00
  1.386353e+01    2.461800e+00
  1.389528e+01    2.388165e+00
  1.392703e+01    2.400989e+00
  1.395879e+01    2.430893e+00
  1.399054e+01    2.359511e+00
  1.402229e+01    2.364982e+00
  1.405404e+01    2.364825e+00
  1.408579e+01    2.327156e+00
  1.411754e+01    2.307462e+00
  1.414929e+01    2.344549e+00
  1.418104e+01    2.312867e+00
  1.421279e+01    2.316045e+00
  1.424455e+01    2.285372e+00
  1.427630e+01    2.269610e+00
  1.430805e+01    2.280539e+00
  1.433980e+01    2.274135e+00
  1.437155e+01    2.245300e+00
  1.440330e+01    2.277272e+00
  1.443505e+01    2.240494e+00
  1.446680e+01    2.206867e+00
  1.449856e+01    2.233543e+00
  1.453031e+01    2.264978e+00
  1.456206e+01    2.220783e+00
  1.459381e+01    2.204046e+00
  1.462556e+01    2.196540e+00
  1.465731e+01    2.197611e+00
  1.468906e+01    2.196009e+00
  1.472081e+01    2.169951e+00
  1.475256e+01    2.199757e+00
  1.478432e+01    2.182753e+00
  1.481607e+01    2.189097e+00
  1.484782e+01    2.194473e+00
  1.487957e+01    2.233739e+00
  1.491132e+01    2.263383e+00
  1.494307e+01    2.264975e+00
  1.497482e+01    2.393179e+00
  1.500657e+01    2.428798e+00
  1.503832e+01    2.579275e+00
  1.507008e+01    2.833917e+00
  1.510183e+01    3.151000e+00
  1.513358e+01    3.777368e+00
  1.516533e+01    4.537415e+00
  1.519708e+01    5.194372e+00
  1.522883e+01    5.675618e+00
  1.526058e+01    5.833158e+00
  1.529233e+01    5.393455e+00
  1.532409e+01    4.650314e+00
  1.535584e+01    3.710446e+00
  1.538759e+01    3.166923e+00
  1.541934e+01    2.774181e+00
  1.545109e+01    2.496953e+00
  1.548284e+01    2.341954e+00
  1.551459e+01    2.234778e+00
  1.554634e+01    2.185721e+00
  1.557809e+01    2.095012e+00
  1.560985e+01    2.085987e+00
  1.564160e+01    2.060817e+00
  1.567335e+01    2.000756e+00
  1.570510e+01    1.999580e+00
  1.573685e+01    1.961788e+00
  1.576860e+01    1.955906e+00
  1.580035e+01    1.930110e+00
  1.583210e+01    1.917219e+00
  1.586385e+01    1.905301e+00
  1.589561e+01    1.943938e+00
  1.592736e+01    1.899056e+00
  1.595911e+01    1.875160e+00
  1.599086e+01    1.886373e+00
  1.602261e+01    1.877617e+00
  1.605436e+01    1.888896e+00
  1.608611e+01    1.859066e+00
  1.611786e+01    1.830206e+00
  1.614961e+01    1.853807e+00
  1.618137e+01    1.806292e+00
  1.621312e+01    1.789366e+00
  1.624487e+01    1.789976e+00
  1.627662e+01    1.849820e+00
  1.630837e+01    1.829513e+00
  1.634012e+01    1.778298e+00
  1.637187e+01    1.794377e+00
  1.640362e+01    1.787983e+00
  1.643538e+01    1.771108e+00
  1.646713e+01    1.778543e+00
  1.649888e+01    1.820197e+00
  1.653063e+01    1.754390e+00
  1.656238e+01    1.722962e+00
  1.659413e+01    1.746418e+00
  1.662588e+01    1.722076e+00
  1.665763e+01    1.748337e+00
  1.668938e+01    1.713647e+00
  1.672114e+01    1.690486e+00
  1.675289e+01    1.698503e+00
  1.678464e+01    1.703498e+00
  1.681639e+01    1.700894e+00
  1.684814e+01    1.680667e+00
  1.687989e+01    1.695247e+00
  1.691164e+01    1.716863e+00
  1.694339e+01    1.670624e+00
  1.697514e+01    1.692814e+00
  1.700690e+01    1.656093e+00
  1.703865e+01    1.648479e+00
  1.707040e+01    1.643255e+00
  1.710215e+01    1.640877e+00
  1.713390e+01    1.677847e+00
  1.716565e+01    1.640911e+00
  1.719740e+01    1.651428e+00
  1.722915e+01    1.656294e+00
  1.726091e+01    1.605929e+00
  1.729266e+01    1.627831e+00
  1.732441e+01    1.610706e+00
  1.735616e+01    1.612042e+00
  1.738791e+01    1.594780e+00
  1.741966e+01    1.596044e+00
  1.745141e+01    1.590933e+00
  1.748316e+01    1.573505e+00
  1.751491e+01    1.603308e+00
  1.754667e+01    1.604881e+00
  1.757842e+01    1.545775e+00
  1.761017e+01    1.537105e+00
  1.764192e+01    1.570737e+00
  1.767367e+01    1.537255e+00
  1.770542e+01    1.536796e+00
  1.773717e+01    1.516340e+00
  1.776892e+01    1.535408e+00
  1.780067e+01    1.538966e+00
  1.783243e+01    1.532930e+00
  1.786418e+01    1.542466e+00
  1.789593e+01    1.518526e+00
  1.792768e+01    1.509935e+00
  1.795943e+01    1.533243e+00
  1.799118e+01    1.546100e+00
  1.802293e+01    1.498538e+00
  1.805468e+01    1.496684e+00
  1.808643e+01    1.519451e+00
  1.811819e+01    1.491549e+00
  1.814994e+01    1.496066e+00
  1.818169e+01    1.470814e+00
  1.821344e+01    1.498290e+00
  1.824519e+01    1.478109e+00
  1.827694e+01    1.494167e+00
  1.830869e+01    1.478595e+00
  1.834044e+01    1.501772e+00
  1.837220e+01    1.488852e+00
  1.840395e+01    1.458579e+00
  1.843570e+01    1.461023e+00
  1.846745e+01    1.461323e+00
  1.849920e+01    1.454734e+00
  1.853095e+01    1.461206e+00
  1.856270e+01    1.454393e+00
  1.859445e+01    1.441778e+00
  1.862620e+01    1.428618e+00
  1.865796e+01    1.432473e+00
  1.868971e+01    1.430785e+00
  1.872146e+01    1.438174e+00
  1.875321e+01    1.442820e+00
  1.878496e+01    1.422958e+00
  1.881671e+01    1.416844e+00
  1.884846e+01    1.385643e+00
  1.888021e+01    1.392962e+00
  1.891196e+01    1.357758e+00
  1.894372e+01    1.389783e+00
  1.897547e+01    1.386216e+00
  1.900722e+01    1.356039e+00
  1.903897e+01    1.397349e+00
  1.907072e+01    1.385994e+00
  1.910247e+01    1.397638e+00
  1.913422e+01    1.341754e+00
  1.916597e+01    1.357403e+00
  1.919773e+01    1.348498e+00
  1.922948e+01    1.378379e+00
  1.926123e+01    1.377115e+00
  1.929298e+01    1.371751e+00
  1.932473e+01    1.357530e+00
  1.935648e+01    1.306206e+00
  1.938823e+01    1.336721e+00
  1.941998e+01    1.326061e+00
  1.945173e+01    1.355404e+00
  1.948349e+01    1.342195e+00
  1.951524e+01    1.321069e+00
  1.954699e+01    1.325145e+00
  1.957874e+01    1.332555e+00
  1.961049e+01    1.341865e+00
  1.964224e+01    1.331607e+00
  1.967399e+01    1.325173e+00
  1.970574e+01    1.328988e+00
  1.973749e+01    1.318980e+00
  1.976925e+01    1.309952e+00
  1.980100e+01    1.312902e+00
  1.983275e+01    1.295636e+00
  1.986450e+01    1.318785e+00
  1.989625e+01    1.302751e+00
  1.992800e+01    1.332696e+00
  1.995975e+01    1.264052e+00
  1.999150e+01    1.324587e+00
  2.002325e+01    1.278667e+00
  2.005501e+01    1.274324e+00
  2.008676e+01    1.308025e+00
  2.011851e+01    1.263213e+00
  2.015026e+01    1.279627e+00
  2.018201e+01    1.270088e+00
  2.021376e+01    1.237262e+00
  2.024551e+01    1.254704e+00
  2.027726e+01    1.264957e+00
  2.030902e+01    1.281244e+00
  2.034077e+01    1.227957e+00
  2.037252e+01    1.238536e+00
  2.040427e+01    1.246348e+00
  2.043602e+01    1.244599e+00
  2.046777e+01    1.264677e+00
  2.049952e+01    1.196769e+00
  2.053127e+01    1.240535e+00
  2.056302e+01    1.265754e+00
  2.059478e+01    1.235772e+00
  2.062653e+01    1.242108e+00
  2.065828e+01    1.244464e+00
  2.069003e+01    1.239931e+00
  2.072178e+01    1.226131e+00
  2.075353e+01    1.223137e+00
  2.078528e+01    1.243009e+00
  2.081703e+01    1.233444e+00
  2.084878e+01    1.229382e+00
  2.088054e+01    1.213203e+00
  2.091229e+01    1.233318e+00
  2.094404e+01    1.237233e+00
  2.097579e+01    1.222672e+00
  2.100754e+01    1.219943e+00
  2.103929e+01    1.219753e+00
  2.107104e+01    1.216377e+00
  2.110279e+01    1.205361e+00
  2.113455e+01    1.245362e+00
  2.116630e+01    1.221701e+00
  2.119805e+01    1.240946e+00
  2.122980e+01    1.240302e+00
  2.126155e+01    1.229362e+00
  2.129330e+01    1.274579e+00
  2.132505e+01    1.254977e+00
  2.135680e+01    1.276464e+00
  2.138855e+01    1.339895e+00
  2.142031e+01    1.318020e+00
  2.145206e+01    1.349339e+00
  2.148381e+01    1.395008e+00
  2.151556e+01    1.461897e+00
  2.154731e+01    1.529878e+00
  2.157906e+01    1.600588e+00
  2.161081e+01    1.756273e+00
  2.164256e+01    1.968514e+00
  2.167431e+01    2.321835e+00
  2.170607e+01    2.786604e+00
  2.173782e+01    3.533454e+00
  2.176957e+01    4.572682e+00
  2.180132e+01    5.939625e+00
  2.183307e+01    7.294974e+00
  2.186482e+01    8.467390e+00
  2.189657e+01    8.896753e+00
  2.192832e+01    8.308302e+00
  2.196007e+01    6.582693e+00
  2.199183e+01    4.827455e+00
  2.202358e+01    3.581840e+00
  2.205533e+01    2.812334e+00
  2.208708e+01    2.356517e+00
  2.211883e+01    2.014348e+00
  2.215058e+01    1.783393e+00
  2.218233e+01    1.610898e+00
  2.221408e+01    1.492797e+00
  2.224584e+01    1.386897e+00
  2.227759e+01    1.345614e+00
  2.230934e+01    1.314257e+00
  2.234109e+01    1.272650e+00
  2.237284e+01    1.212544e+00
  2.240459e+01    1.190471e+00
  2.243634e+01    1.183305e+00
  2.246809e+01    1.157810e+00
  2.249984e+01    1.161994e+00
  2.253160e+01    1.162104e+00
  2.256335e+01    1.142215e+00
  2.259510e+01    1.086570e+00
  2.262685e+01    1.072647e+00
  2.265860e+01    1.109801e+00
  2.269035e+01    1.088466e+00
  2.272210e+01    1.081095e+00
  2.275385e+01    1.060085e+00
  2.278560e+01    1.062007e+00
  2.281736e+01    1.075680e+00
  2.284911e+01    1.047130e+00
  2.288086e+01    1.045448e+00
  2.291261e+01    1.019948e+00
  2.294436e+01    1.027786e+00
  2.297611e+01    1.008096e+00
  2.300786e+01    1.006036e+00
  2.303961e+01    1.013803e+00
  2.307137e+01    1.022685e+00
  2.310312e+01    1.005348e+00
  2.313487e+01    1.001166e+00
  2.316662e+01    9.741406e-01
  2.319837e+01    1.005949e+00
  2.323012e+01    1.019921e+00
  2.326187e+01    9.963600e-01
  2.329362e+01    9.834958e-01
  2.332537e+01    9.818341e-01
  2.335713e+01    9.880319e-01
  2.338888e+01    9.666063e-01
  2.342063e+01    9.702180e-01
  2.345238e+01    9.672549e-01
  2.348413e+01    9.456398e-01
  2.351588e+01    9.577352e-01
  2.354763e+01    9.484709e-01
  2.357938e+01    9.742165e-01
  2.361113e+01    9.634358e-01
  2.364289e+01    9.534760e-01
  2.367464e+01    9.283180e-01
  2.370639e+01    9.544615e-01
  2.373814e+01    9.429015e-01
  2.376989e+01    9.314063e-01
  2.380164e+01    9.110820e-01
  2.383339e+01    9.269449e-01
  2.386514e+01    9.208699e-01
  2.389689e+01    9.112724e-01
  2.392865e+01    9.134154e-01
  2.396040e+01    9.023329e-01
  2.399215e+01    8.972762e-01
  2.402390e+01    8.796937e-01
  2.405565e+01    8.929514e-01
  2.408740e+01    8.989367e-01
  2.411915e+01    9.000261e-01
  2.415090e+01    8.973621e-01
  2.418266e+01    8.677580e-01
  2.421441e+01    8.771018e-01
  2.424616e+01    8.988191e-01
  2.427791e+01    9.060077e-01
  2.430966e+01    8.789396e-01
  2.434141e+01    9.030274e-01
  2.437316e+01    9.089087e-01
  2.440491e+01    9.053034e-01
  2.443666e+01    9.063638e-01
  2.446842e+01    9.045286e-01
  2.450017e+01    8.800572e-01
  2.453192e+01    9.011466e-01
  2.456367e+01    8.956522e-01
  2.459542e+01    9.112205e-01
  2.462717e+01    8.924412e-01
  2.465892e+01    9.010283e-01
  2.469067e+01    8.889440e-01
  2.472242e+01    9.040062e-01
  2.475418e+01    8.926395e-01
  2.478593e+01    8.925583e-01
  2.481768e+01    9.019446e-01
  2.484943e+01    8.812596e-01
  2.488118e+01    9.100477e-01
  2.491293e+01    9.032884e-01
  2.494468e+01    9.053053e-01
  2.497643e+01    8.986017e-01
  2.500819e+01    8.799891e-01
  2.503994e+01    9.132882e-01
  2.507169e+01    9.084474e-01
  2.510344e+01    9.084651e-01
  2.513519e+01    9.114805e-01
  2.516694e+01    9.213946e-01
  2.519869e+01    9.263574e-01
  2.523044e+01    9.382675e-01
  2.526219e+01    9.492382e-01
  2.529395e+01    9.492971e-01
  2.532570e+01    9.468082e-01
  2.535745e+01    9.728112e-01
  2.538920e+01    9.872684e-01
  2.542095e+01    9.999645e-01
  2.545270e+01    1.035718e+00
  2.548445e+01    1.047754e+00
  2.551620e+01    1.067640e+00
  2.554795e+01    1.115849e+00
  2.557971e+01    1.167155e+00
  2.561146e+01    1.212788e+00
  2.564321e+01    1.283064e+00
  2.567496e+01    1.414398e+00
  2.570671e+01    1.603110e+00
  2.573846e+01    1.864091e+00
  2.577021e+01    2.266216e+00
  2.580196e+01    2.839753e+00
  2.583371e+01    3.651608e+00
  2.586547e+01    4.710434e+00
  2.589722e+01    5.815628e+00
  2.592897e+01    6.839856e+00
  2.596072e+01    7.141463e+00
  2.599247e+01    6.491680e+00
  2.602422e+01    5.224104e+00
  2.605597e+01    3.928728e+00
  2.608772e+01    2.988301e+00
  2.611948e+01    2.342572e+00
  2.615123e+01    1.947792e+00
  2.618298e+01    1.679087e+00
  2.621473e+01    1.463397e+00
  2.624648e+01    1.338051e+00
  2.627823e+01    1.269003e+00
  2.630998e+01    1.180657e+00
  2.634173e+01    1.126857e+00
  2.637348e+01    1.078743e+00
  2.640524e+01    1.054245e+00
  2.643699e+01    1.007369e+00
  2.646874e+01    1.011879e+00
  2.650049e+01    1.020426e+00
  2.653224e+01    9.965107e-01
  2.656399e+01    9.806807e-01
  2.659574e+01    9.785756e-01
  2.662749e+01    9.738556e-01
  2.665924e+01    9.605733e-01
  2.669100e+01    9.631060e-01
  2.672275e+01    9.695697e-01
  2.675450e+01    9.467298e-01
  2.678625e+01    9.684370e-01
  2.681800e+01    9.809290e-01
  2.684975e+01    9.750479e-01
  2.688150e+01    9.938618e-01
  2.691325e+01    1.019245e+00
  2.694501e+01    1.010541e+00
  2.697676e+01    1.075584e+00
  2.700851e+01    1.117592e+00
  2.704026e+01    1.194092e+00
  2.707201e+01    1.296128e+00
  2.710376e+01    1.507317e+00
  2.713551e+01    1.766629e+00
  2.716726e+01    1.989824e+00
  2.719901e+01    2.111890e+00
  2.723077e+01    2.154970e+00
  2.726252e+01    1.923531e+00
  2.729427e+01    1.672646e+00
  2.732602e+01    1.450384e+00
  2.735777e+01    1.284410e+00
  2.738952e+01    1.169508e+00
  2.742127e+01    1.072932e+00
  2.745302e+01    1.051044e+00
  2.748477e+01    1.022835e+00
  2.751653e+01    9.612462e-01
  2.754828e+01    9.484624e-01
  2.758003e+01    9.492523e-01
  2.761178e+01    9.190486e-01
  2.764353e+01    9.354897e-01
  2.767528e+01    9.301859e-01
  2.770703e+01    8.787302e-01
  2.773878e+01    8.915349e-01
  2.777054e+01    8.974709e-01
  2.780229e+01    8.912309e-01
  2.783404e+01    8.798634e-01
  2.786579e+01    8.908433e-01
  2.789754e+01    8.801380e-01
  2.792929e+01    8.769007e-01
  2.796104e+01    8.867158e-01
  2.799279e+01    8.724703e-01
  2.802454e+01    8.893695e-01
  2.805630e+01    8.455796e-01
  2.808805e+01    8.570399e-01
  2.811980e+01    8.816601e-01
  2.815155e+01    8.473861e-01
  2.818330e+01    8.752964e-01
  2.821505e+01    8.687879e-01
  2.824680e+01    8.516703e-01
  2.827855e+01    8.553101e-01
  2.831030e+01    8.517503e-01
  2.834206e+01    8.535902e-01
  2.837381e+01    8.536695e-01
  2.840556e+01    8.335630e-01
  2.843731e+01    8.316860e-01
  2.846906e+01    8.465342e-01
  2.850081e+01    8.374394e-01
  2.853256e+01    8.200514e-01
  2.856431e+01    8.243372e-01
  2.859606e+01    8.171808e-01
  2.862782e+01    8.473370e-01
  2.865957e+01    8.549566e-01
  2.869132e+01    8.662154e-01
  2.872307e+01    8.274870e-01
  2.875482e+01    8.006866e-01
  2.878657e+01    8.425153e-01
  2.881832e+01    8.043735e-01
  2.885007e+01    8.166603e-01
  2.888183e+01    8.388391e-01
  2.891358e+01    8.093107e-01
  2.894533e+01    8.358281e-01
  2.897708e+01    8.332850e-01
  2.900883e+01    8.234105e-01
  2.904058e+01    8.034246e-01
  2.907233e+01    8.033206e-01
  2.910408e+01    8.163132e-01
  2.913583e+01    8.210943e-01
  2.916759e+01    8.072178e-01
  2.919934e+01    8.074047e-01
  2.923109e+01    8.085091e-01
  2.926284e+01    7.892411e-01
  2.929459e+01    8.007044e-01
  2.932634e+01    8.116600e-01
  2.935809e+01    8.315097e-01
  2.938984e+01    8.035324e-01
  2.942159e+01    8.037075e-01
  2.945335e+01    8.044165e-01
  2.948510e+01    8.141200e-01
  2.951685e+01    8.199077e-01
  2.954860e+01    7.878574e-01
  2.958035e+01    7.949984e-01
  2.961210e+01    8.010263e-01
  2.964385e+01    8.446473e-01
  2.967560e+01    7.987298e-01
  2.970736e+01    7.983399e-01
  2.973911e+01    8.041214e-01
  2.977086e+01    7.890481e-01
  2.980261e+01    7.707796e-01
  2.983436e+01    7.856669e-01
  2.986611e+01    8.100672e-01
  2.989786e+01    8.104191e-01
  2.992961e+01    8.058716e-01
  2.996136e+01    7.863646e-01
  2.999312e+01    8.107103e-01
  3.002487e+01    7.756816e-01
  3.005662e+01    8.326114e-01
  3.008837e+01    7.943167e-01
  3.012012e+01    8.021566e-01
  3.015187e+01    7.817511e-01
  3.018362e+01    7.895767e-01
  3.021537e+01    7.779838e-01
  3.024712e+01    7.971638e-01
  3.027888e+01    7.841954e-01
  3.031063e+01    7.964891e-01
  3.034238e+01    7.984508e-01
  3.037413e+01    7.638968e-01
  3.040588e+01    7.894815e-01
  3.043763e+01    7.829897e-01
  3.046938e+01    7.910275e-01
  3.050113e+01    7.760008e-01
  3.053288e+01    7.989460e-01
  3.056464e+01    7.765740e-01
  3.059639e+01    7.703907e-01
  3.062814e+01    7.811761e-01
  3.065989e+01    7.927499e-01
  3.069164e+01    7.890806e-01
  3.072339e+01    8.053896e-01
  3.075514e+01    7.883760e-01
  3.078689e+01    7.821985e-01
  3.081865e+01    7.937118e-01
  3.085040e+01    8.011670e-01
  3.088215e+01    7.685582e-01
  3.091390e+01    7.752776e-01
  3.094565e+01    7.772366e-01
  3.097740e+01    7.631444e-01
  3.100915e+01    7.937061e-01
  3.104090e+01    8.134565e-01
  3.107265e+01    8.061306e-01
  3.110441e+01    8.065468e-01
  3.113616e+01    7.887886e-01
  3.116791e+01    7.907243e-01
  3.119966e+01    8.097237e-01
  3.123141e+01    8.008274e-01
  3.126316e+01    7.979180e-01
  3.129491e+01    8.073129e-01
  3.132666e+01    8.083965e-01
  3.135841e+01    8.056573e-01
  3.139017e+01    8.086278e-01
  3.142192e+01    8.220040e-01
  3.145367e+01    8.030837e-01
  3.148542e+01    8.174090e-01
  3.151717e+01    8.560193e-01
  3.154892e+01    8.377631e-01
  3.158067e+01    8.519135e-01
  3.161242e+01    9.181474e-01
  3.164418e+01    9.075383e-01
  3.167593e+01    9.844241e-01
  3.170768e+01    9.946789e-01
  3.173943e+01    1.125985e+00
  3.177118e+01    1.248770e+00
  3.180293e+01    1.470114e+00
  3.183468e+01    1.722783e+00
  3.186643e+01    1.939038e+00
  3.189818e+01    2.101008e+00
  3.192994e+01    2.019431e+00
  3.196169e+01    1.798359e+00
  3.199344e+01    1.558025e+00
  3.202519e+01    1.298594e+00
  3.205694e+01    1.145045e+00
  3.208869e+01    1.033087e+00
  3.212044e+01    9.590353e-01
  3.215219e+01    9.230134e-01
  3.218394e+01    8.740080e-01
  3.221570e+01    8.581255e-01
  3.224745e+01    8.450732e-01
  3.227920e+01    8.235913e-01
  3.231095e+01    8.015947e-01
  3.234270e+01    7.828868e-01
  3.237445e+01    7.577903e-01
  3.240620e+01    8.126915e-01
  3.243795e+01    7.939149e-01
  3.246970e+01    7.925218e-01
  3.250146e+01    7.701430e-01
  3.253321e+01    7.662331e-01
  3.254908e+01    7.641236e-01