File: XRD/Reaction conditions/2024-07-27_003_Ru-CGO-ex_Reaction_dwell_000023_data_000181.dat
# == pyFAI calibration ==
# Distance Sample to Detector: 0.4 m
# PONI: 9.750e-02, 1.135e-01 m
# Rotations: -0.000175 0.000000 -0.000000 rad
#
# == Fit2d calibration ==
# Distance Sample-beamCenter: 400.000 mm
# Center: x=1514.000, y=1300.000 pix
# Tilt: 0.010 deg  TiltPlanRot: 0.010 deg
#
# Detector Detector	 Spline= None	 PixelSize= 7.500e-05, 7.500e-05 m
#    Detector has a mask: False
#    Detector has a dark current: False
#    detector has a flat field: False
#
# Wavelength: 6.888e-11 m
# Mask applied: user provided
# Dark current applied: False
# Flat field applied: False
# Polarization factor: 0.99
# Normalization factor: 1.0
# --> /home/myspot/data/2024_07_Rosario/Ru-CGO-ex/2024-07-27_003_Ru-CGO-ex_Reaction_dwell_000023_data_000181.dat
#       q_nm^-1             I
  2.003187e-02    0.000000e+00
  5.178302e-02    1.237100e-01
  8.353417e-02    1.849074e-01
  1.152853e-01    6.977080e-02
  1.470365e-01    4.617680e-02
  1.787876e-01    1.211463e-02
  2.105388e-01    1.525594e-02
  2.422899e-01    4.517051e-02
  2.740411e-01    5.590272e-02
  3.057922e-01    5.902468e-02
  3.375433e-01    3.061689e-02
  3.692945e-01    2.921354e-02
  4.010456e-01    7.712968e-02
  4.327968e-01    6.621011e-02
  4.645479e-01    5.231291e-02
  4.962991e-01    3.247860e-02
  5.280502e-01    5.249199e-02
  5.598014e-01    3.669359e-02
  5.915525e-01    3.989075e-02
  6.233037e-01    4.824463e-02
  6.550548e-01    5.627207e-02
  6.868060e-01    4.649093e-02
  7.185571e-01    3.930598e-02
  7.503083e-01    4.317350e-02
  7.820594e-01    1.218749e-01
  8.138106e-01    2.987256e-01
  8.455617e-01    3.520909e-01
  8.773129e-01    4.539446e-01
  9.090640e-01    6.859047e-01
  9.408152e-01    7.532073e-01
  9.725663e-01    9.848723e-01
  1.004317e+00    1.137412e+00
  1.036069e+00    1.392964e+00
  1.067820e+00    1.452654e+00
  1.099571e+00    1.490196e+00
  1.131322e+00    1.493938e+00
  1.163073e+00    1.651013e+00
  1.194824e+00    1.840165e+00
  1.226575e+00    2.324103e+00
  1.258327e+00    2.358873e+00
  1.290078e+00    2.446980e+00
  1.321829e+00    2.763887e+00
  1.353580e+00    2.763796e+00
  1.385331e+00    2.819633e+00
  1.417082e+00    2.789067e+00
  1.448834e+00    2.936162e+00
  1.480585e+00    3.132195e+00
  1.512336e+00    3.202822e+00
  1.544087e+00    3.040631e+00
  1.575838e+00    3.159345e+00
  1.607589e+00    3.207458e+00
  1.639340e+00    3.036708e+00
  1.671092e+00    3.091674e+00
  1.702843e+00    3.004022e+00
  1.734594e+00    3.066463e+00
  1.766345e+00    3.129565e+00
  1.798096e+00    3.049286e+00
  1.829847e+00    3.033679e+00
  1.861598e+00    2.909261e+00
  1.893350e+00    3.030560e+00
  1.925101e+00    3.052207e+00
  1.956852e+00    2.982906e+00
  1.988603e+00    3.024950e+00
  2.020354e+00    3.010035e+00
  2.052105e+00    3.098940e+00
  2.083856e+00    3.114126e+00
  2.115608e+00    3.005008e+00
  2.147359e+00    3.030980e+00
  2.179110e+00    3.187711e+00
  2.210861e+00    3.102497e+00
  2.242612e+00    2.989597e+00
  2.274363e+00    3.110310e+00
  2.306115e+00    3.068776e+00
  2.337866e+00    3.154006e+00
  2.369617e+00    3.232368e+00
  2.401368e+00    3.141420e+00
  2.433119e+00    3.114468e+00
  2.464870e+00    2.972279e+00
  2.496621e+00    3.153221e+00
  2.528373e+00    3.079971e+00
  2.560124e+00    3.211928e+00
  2.591875e+00    3.263491e+00
  2.623626e+00    3.212876e+00
  2.655377e+00    3.205212e+00
  2.687128e+00    3.304912e+00
  2.718879e+00    3.232271e+00
  2.750631e+00    3.272219e+00
  2.782382e+00    3.220315e+00
  2.814133e+00    3.287583e+00
  2.845884e+00    3.273656e+00
  2.877635e+00    3.254931e+00
  2.909386e+00    3.208195e+00
  2.941137e+00    3.245425e+00
  2.972889e+00    3.321152e+00
  3.004640e+00    3.372947e+00
  3.036391e+00    3.254730e+00
  3.068142e+00    3.280828e+00
  3.099893e+00    3.344951e+00
  3.131644e+00    3.299095e+00
  3.163395e+00    3.334079e+00
  3.195147e+00    3.328322e+00
  3.226898e+00    3.339599e+00
  3.258649e+00    3.257620e+00
  3.290400e+00    3.331674e+00
  3.322151e+00    3.249224e+00
  3.353902e+00    3.359989e+00
  3.385654e+00    3.413729e+00
  3.417405e+00    3.450283e+00
  3.449156e+00    3.419075e+00
  3.480907e+00    3.320994e+00
  3.512658e+00    3.376443e+00
  3.544409e+00    3.415653e+00
  3.576160e+00    3.328542e+00
  3.607912e+00    3.338202e+00
  3.639663e+00    3.407218e+00
  3.671414e+00    3.520265e+00
  3.703165e+00    3.490512e+00
  3.734916e+00    3.395223e+00
  3.766667e+00    3.425001e+00
  3.798418e+00    3.407980e+00
  3.830170e+00    3.516028e+00
  3.861921e+00    3.445794e+00
  3.893672e+00    3.537250e+00
  3.925423e+00    3.629369e+00
  3.957174e+00    3.453793e+00
  3.988925e+00    3.482493e+00
  4.020676e+00    3.386485e+00
  4.052428e+00    3.417188e+00
  4.084179e+00    3.439400e+00
  4.115930e+00    3.484193e+00
  4.147681e+00    3.510674e+00
  4.179432e+00    3.559202e+00
  4.211183e+00    3.500146e+00
  4.242935e+00    3.496789e+00
  4.274686e+00    3.560680e+00
  4.306437e+00    3.549257e+00
  4.338188e+00    3.496026e+00
  4.369939e+00    3.403749e+00
  4.401690e+00    3.603050e+00
  4.433441e+00    3.483016e+00
  4.465193e+00    3.545017e+00
  4.496944e+00    3.582638e+00
  4.528695e+00    3.597795e+00
  4.560446e+00    3.585162e+00
  4.592197e+00    3.524518e+00
  4.623948e+00    3.557323e+00
  4.655699e+00    3.552342e+00
  4.687451e+00    3.598874e+00
  4.719202e+00    3.601043e+00
  4.750953e+00    3.553849e+00
  4.782704e+00    3.528810e+00
  4.814455e+00    3.577835e+00
  4.846206e+00    3.644768e+00
  4.877957e+00    3.572599e+00
  4.909709e+00    3.593995e+00
  4.941460e+00    3.612773e+00
  4.973211e+00    3.641202e+00
  5.004962e+00    3.747324e+00
  5.036713e+00    3.547237e+00
  5.068464e+00    3.550634e+00
  5.100216e+00    3.681313e+00
  5.131967e+00    3.651750e+00
  5.163718e+00    3.565702e+00
  5.195469e+00    3.674830e+00
  5.227220e+00    3.621709e+00
  5.258971e+00    3.609643e+00
  5.290722e+00    3.539168e+00
  5.322474e+00    3.620710e+00
  5.354225e+00    3.694132e+00
  5.385976e+00    3.661584e+00
  5.417727e+00    3.637393e+00
  5.449478e+00    3.543424e+00
  5.481229e+00    3.560352e+00
  5.512980e+00    3.532963e+00
  5.544732e+00    3.498440e+00
  5.576483e+00    3.575378e+00
  5.608234e+00    3.504150e+00
  5.639985e+00    3.530247e+00
  5.671736e+00    3.506383e+00
  5.703487e+00    3.511595e+00
  5.735238e+00    3.607417e+00
  5.766990e+00    3.549101e+00
  5.798741e+00    3.493599e+00
  5.830492e+00    3.489395e+00
  5.862243e+00    3.462810e+00
  5.893994e+00    3.536004e+00
  5.925745e+00    3.530243e+00
  5.957497e+00    3.416127e+00
  5.989248e+00    3.422545e+00
  6.020999e+00    3.509766e+00
  6.052750e+00    3.542846e+00
  6.084501e+00    3.565172e+00
  6.116252e+00    3.554775e+00
  6.148003e+00    3.466897e+00
  6.179755e+00    3.589090e+00
  6.211506e+00    3.525134e+00
  6.243257e+00    3.538021e+00
  6.275008e+00    3.436823e+00
  6.306759e+00    3.432797e+00
  6.338510e+00    3.563509e+00
  6.370261e+00    3.601590e+00
  6.402013e+00    3.588830e+00
  6.433764e+00    3.504175e+00
  6.465515e+00    3.532752e+00
  6.497266e+00    3.483231e+00
  6.529017e+00    3.530357e+00
  6.560768e+00    3.563503e+00
  6.592519e+00    3.534070e+00
  6.624271e+00    3.481324e+00
  6.656022e+00    3.582216e+00
  6.687773e+00    3.553050e+00
  6.719524e+00    3.539926e+00
  6.751275e+00    3.465023e+00
  6.783026e+00    3.517023e+00
  6.814777e+00    3.525789e+00
  6.846529e+00    3.548257e+00
  6.878280e+00    3.552518e+00
  6.910031e+00    3.501132e+00
  6.941782e+00    3.521573e+00
  6.973533e+00    3.478368e+00
  7.005284e+00    3.442620e+00
  7.037036e+00    3.511316e+00
  7.068787e+00    3.522130e+00
  7.100538e+00    3.454455e+00
  7.132289e+00    3.475709e+00
  7.164040e+00    3.452873e+00
  7.195791e+00    3.465416e+00
  7.227542e+00    3.531739e+00
  7.259294e+00    3.464257e+00
  7.291045e+00    3.476933e+00
  7.322796e+00    3.499355e+00
  7.354547e+00    3.395993e+00
  7.386298e+00    3.462971e+00
  7.418049e+00    3.378276e+00
  7.449800e+00    3.467343e+00
  7.481552e+00    3.419755e+00
  7.513303e+00    3.417536e+00
  7.545054e+00    3.488230e+00
  7.576805e+00    3.382579e+00
  7.608556e+00    3.457680e+00
  7.640307e+00    3.426517e+00
  7.672058e+00    3.486027e+00
  7.703810e+00    3.419312e+00
  7.735561e+00    3.358535e+00
  7.767312e+00    3.329062e+00
  7.799063e+00    3.457176e+00
  7.830814e+00    3.353945e+00
  7.862565e+00    3.360922e+00
  7.894317e+00    3.428014e+00
  7.926068e+00    3.394374e+00
  7.957819e+00    3.335215e+00
  7.989570e+00    3.334095e+00
  8.021321e+00    3.398205e+00
  8.053072e+00    3.317977e+00
  8.084823e+00    3.365906e+00
  8.116575e+00    3.334589e+00
  8.148326e+00    3.396655e+00
  8.180077e+00    3.413973e+00
  8.211828e+00    3.369391e+00
  8.243579e+00    3.473985e+00
  8.275330e+00    3.373372e+00
  8.307081e+00    3.340763e+00
  8.338833e+00    3.319753e+00
  8.370584e+00    3.365193e+00
  8.402335e+00    3.382622e+00
  8.434086e+00    3.305635e+00
  8.465837e+00    3.380239e+00
  8.497588e+00    3.334033e+00
  8.529339e+00    3.309013e+00
  8.561091e+00    3.320221e+00
  8.592842e+00    3.339593e+00
  8.624593e+00    3.308210e+00
  8.656344e+00    3.301263e+00
  8.688095e+00    3.246614e+00
  8.719846e+00    3.270311e+00
  8.751598e+00    3.275304e+00
  8.783349e+00    3.226916e+00
  8.815100e+00    3.309702e+00
  8.846851e+00    3.221520e+00
  8.878602e+00    3.255863e+00
  8.910353e+00    3.304297e+00
  8.942104e+00    3.198772e+00
  8.973856e+00    3.221990e+00
  9.005607e+00    3.206025e+00
  9.037358e+00    3.172951e+00
  9.069109e+00    3.218623e+00
  9.100860e+00    3.255418e+00
  9.132611e+00    3.244984e+00
  9.164362e+00    3.214272e+00
  9.196114e+00    3.186724e+00
  9.227865e+00    3.175370e+00
  9.259616e+00    3.178814e+00
  9.291367e+00    3.209466e+00
  9.323118e+00    3.165270e+00
  9.354869e+00    3.203471e+00
  9.386620e+00    3.256771e+00
  9.418372e+00    3.174292e+00
  9.450123e+00    3.229580e+00
  9.481874e+00    3.163981e+00
  9.513625e+00    3.102667e+00
  9.545376e+00    3.198189e+00
  9.577127e+00    3.144759e+00
  9.608878e+00    3.218878e+00
  9.640630e+00    3.098514e+00
  9.672381e+00    3.154776e+00
  9.704132e+00    3.090544e+00
  9.735883e+00    3.097403e+00
  9.767634e+00    3.121645e+00
  9.799385e+00    3.134428e+00
  9.831137e+00    3.181040e+00
  9.862888e+00    3.106571e+00
  9.894639e+00    3.169849e+00
  9.926390e+00    3.074243e+00
  9.958141e+00    3.078423e+00
  9.989892e+00    3.122512e+00
  1.002164e+01    3.041561e+00
  1.005339e+01    3.098441e+00
  1.008515e+01    3.077925e+00
  1.011690e+01    3.023939e+00
  1.014865e+01    3.049906e+00
  1.018040e+01    3.005494e+00
  1.021215e+01    3.047873e+00
  1.024390e+01    3.027863e+00
  1.027565e+01    3.071254e+00
  1.030740e+01    2.987846e+00
  1.033915e+01    2.976810e+00
  1.037091e+01    3.023195e+00
  1.040266e+01    3.005679e+00
  1.043441e+01    2.965976e+00
  1.046616e+01    2.971936e+00
  1.049791e+01    3.002164e+00
  1.052966e+01    2.907067e+00
  1.056141e+01    2.990663e+00
  1.059316e+01    2.987889e+00
  1.062492e+01    2.959052e+00
  1.065667e+01    2.948235e+00
  1.068842e+01    2.902772e+00
  1.072017e+01    2.903720e+00
  1.075192e+01    2.858057e+00
  1.078367e+01    2.922349e+00
  1.081542e+01    2.842199e+00
  1.084717e+01    2.934126e+00
  1.087892e+01    2.891970e+00
  1.091068e+01    2.903988e+00
  1.094243e+01    2.864538e+00
  1.097418e+01    2.854384e+00
  1.100593e+01    2.855269e+00
  1.103768e+01    2.862579e+00
  1.106943e+01    2.864120e+00
  1.110118e+01    2.900352e+00
  1.113293e+01    2.780347e+00
  1.116468e+01    2.816828e+00
  1.119644e+01    2.830342e+00
  1.122819e+01    2.807873e+00
  1.125994e+01    2.774013e+00
  1.129169e+01    2.839569e+00
  1.132344e+01    2.798491e+00
  1.135519e+01    2.824359e+00
  1.138694e+01    2.791785e+00
  1.141869e+01    2.834332e+00
  1.145045e+01    2.715500e+00
  1.148220e+01    2.749306e+00
  1.151395e+01    2.747616e+00
  1.154570e+01    2.745581e+00
  1.157745e+01    2.737747e+00
  1.160920e+01    2.780609e+00
  1.164095e+01    2.740440e+00
  1.167270e+01    2.747372e+00
  1.170445e+01    2.717317e+00
  1.173621e+01    2.695100e+00
  1.176796e+01    2.661207e+00
  1.179971e+01    2.714444e+00
  1.183146e+01    2.732241e+00
  1.186321e+01    2.701890e+00
  1.189496e+01    2.664340e+00
  1.192671e+01    2.678580e+00
  1.195846e+01    2.650020e+00
  1.199021e+01    2.654634e+00
  1.202197e+01    2.668705e+00
  1.205372e+01    2.667927e+00
  1.208547e+01    2.630155e+00
  1.211722e+01    2.645566e+00
  1.214897e+01    2.638224e+00
  1.218072e+01    2.665453e+00
  1.221247e+01    2.605903e+00
  1.224422e+01    2.659469e+00
  1.227597e+01    2.668201e+00
  1.230773e+01    2.689259e+00
  1.233948e+01    2.636636e+00
  1.237123e+01    2.689063e+00
  1.240298e+01    2.713161e+00
  1.243473e+01    2.715642e+00
  1.246648e+01    2.635351e+00
  1.249823e+01    2.684556e+00
  1.252998e+01    2.711520e+00
  1.256174e+01    2.643079e+00
  1.259349e+01    2.662140e+00
  1.262524e+01    2.725907e+00
  1.265699e+01    2.794725e+00
  1.268874e+01    2.787520e+00
  1.272049e+01    2.823927e+00
  1.275224e+01    2.852240e+00
  1.278399e+01    2.877086e+00
  1.281574e+01    3.009238e+00
  1.284750e+01    3.151302e+00
  1.287925e+01    3.327576e+00
  1.291100e+01    3.608477e+00
  1.294275e+01    4.036186e+00
  1.297450e+01    4.728877e+00
  1.300625e+01    5.838376e+00
  1.303800e+01    7.555667e+00
  1.306975e+01    1.002248e+01
  1.310150e+01    1.248622e+01
  1.313326e+01    1.456600e+01
  1.316501e+01    1.609133e+01
  1.319676e+01    1.535973e+01
  1.322851e+01    1.228177e+01
  1.326026e+01    8.968204e+00
  1.329201e+01    6.667880e+00
  1.332376e+01    5.245516e+00
  1.335551e+01    4.344081e+00
  1.338727e+01    3.803169e+00
  1.341902e+01    3.389545e+00
  1.345077e+01    3.144070e+00
  1.348252e+01    2.988811e+00
  1.351427e+01    2.859480e+00
  1.354602e+01    2.787029e+00
  1.357777e+01    2.727410e+00
  1.360952e+01    2.604614e+00
  1.364127e+01    2.608339e+00
  1.367303e+01    2.537514e+00
  1.370478e+01    2.572860e+00
  1.373653e+01    2.534063e+00
  1.376828e+01    2.501822e+00
  1.380003e+01    2.442066e+00
  1.383178e+01    2.472294e+00
  1.386353e+01    2.397704e+00
  1.389528e+01    2.359589e+00
  1.392703e+01    2.399496e+00
  1.395879e+01    2.337215e+00
  1.399054e+01    2.349286e+00
  1.402229e+01    2.339313e+00
  1.405404e+01    2.321509e+00
  1.408579e+01    2.305414e+00
  1.411754e+01    2.285902e+00
  1.414929e+01    2.260166e+00
  1.418104e+01    2.299571e+00
  1.421279e+01    2.292188e+00
  1.424455e+01    2.219975e+00
  1.427630e+01    2.285236e+00
  1.430805e+01    2.248771e+00
  1.433980e+01    2.203315e+00
  1.437155e+01    2.227550e+00
  1.440330e+01    2.175670e+00
  1.443505e+01    2.182470e+00
  1.446680e+01    2.181179e+00
  1.449856e+01    2.175523e+00
  1.453031e+01    2.199365e+00
  1.456206e+01    2.207889e+00
  1.459381e+01    2.226595e+00
  1.462556e+01    2.187985e+00
  1.465731e+01    2.191325e+00
  1.468906e+01    2.179534e+00
  1.472081e+01    2.165604e+00
  1.475256e+01    2.114650e+00
  1.478432e+01    2.166312e+00
  1.481607e+01    2.193598e+00
  1.484782e+01    2.139298e+00
  1.487957e+01    2.242909e+00
  1.491132e+01    2.213292e+00
  1.494307e+01    2.243949e+00
  1.497482e+01    2.354392e+00
  1.500657e+01    2.400635e+00
  1.503832e+01    2.547664e+00
  1.507008e+01    2.792271e+00
  1.510183e+01    3.206521e+00
  1.513358e+01    3.769659e+00
  1.516533e+01    4.485127e+00
  1.519708e+01    5.112669e+00
  1.522883e+01    5.463953e+00
  1.526058e+01    5.741551e+00
  1.529233e+01    5.416804e+00
  1.532409e+01    4.630318e+00
  1.535584e+01    3.713320e+00
  1.538759e+01    3.121806e+00
  1.541934e+01    2.795820e+00
  1.545109e+01    2.513468e+00
  1.548284e+01    2.318860e+00
  1.551459e+01    2.213877e+00
  1.554634e+01    2.180577e+00
  1.557809e+01    2.110022e+00
  1.560985e+01    2.051606e+00
  1.564160e+01    2.025396e+00
  1.567335e+01    2.008075e+00
  1.570510e+01    1.968262e+00
  1.573685e+01    1.924017e+00
  1.576860e+01    1.944135e+00
  1.580035e+01    1.875417e+00
  1.583210e+01    1.853561e+00
  1.586385e+01    1.894007e+00
  1.589561e+01    1.886585e+00
  1.592736e+01    1.834909e+00
  1.595911e+01    1.779157e+00
  1.599086e+01    1.867780e+00
  1.602261e+01    1.836071e+00
  1.605436e+01    1.833402e+00
  1.608611e+01    1.820119e+00
  1.611786e+01    1.831573e+00
  1.614961e+01    1.829867e+00
  1.618137e+01    1.805053e+00
  1.621312e+01    1.813013e+00
  1.624487e+01    1.772658e+00
  1.627662e+01    1.792806e+00
  1.630837e+01    1.768757e+00
  1.634012e+01    1.726074e+00
  1.637187e+01    1.775194e+00
  1.640362e+01    1.755839e+00
  1.643538e+01    1.752880e+00
  1.646713e+01    1.735209e+00
  1.649888e+01    1.747237e+00
  1.653063e+01    1.743425e+00
  1.656238e+01    1.745062e+00
  1.659413e+01    1.716143e+00
  1.662588e+01    1.701590e+00
  1.665763e+01    1.694456e+00
  1.668938e+01    1.704155e+00
  1.672114e+01    1.685532e+00
  1.675289e+01    1.738182e+00
  1.678464e+01    1.700548e+00
  1.681639e+01    1.662227e+00
  1.684814e+01    1.666221e+00
  1.687989e+01    1.652110e+00
  1.691164e+01    1.667145e+00
  1.694339e+01    1.687812e+00
  1.697514e+01    1.657020e+00
  1.700690e+01    1.656140e+00
  1.703865e+01    1.632672e+00
  1.707040e+01    1.650203e+00
  1.710215e+01    1.628268e+00
  1.713390e+01    1.647609e+00
  1.716565e+01    1.644564e+00
  1.719740e+01    1.614459e+00
  1.722915e+01    1.613044e+00
  1.726091e+01    1.617128e+00
  1.729266e+01    1.599901e+00
  1.732441e+01    1.605283e+00
  1.735616e+01    1.576097e+00
  1.738791e+01    1.572891e+00
  1.741966e+01    1.553856e+00
  1.745141e+01    1.596939e+00
  1.748316e+01    1.598654e+00
  1.751491e+01    1.563276e+00
  1.754667e+01    1.574095e+00
  1.757842e+01    1.573891e+00
  1.761017e+01    1.543765e+00
  1.764192e+01    1.541780e+00
  1.767367e+01    1.519308e+00
  1.770542e+01    1.537854e+00
  1.773717e+01    1.549829e+00
  1.776892e+01    1.530838e+00
  1.780067e+01    1.534658e+00
  1.783243e+01    1.536456e+00
  1.786418e+01    1.513163e+00
  1.789593e+01    1.485755e+00
  1.792768e+01    1.483826e+00
  1.795943e+01    1.474027e+00
  1.799118e+01    1.485542e+00
  1.802293e+01    1.497084e+00
  1.805468e+01    1.459621e+00
  1.808643e+01    1.478576e+00
  1.811819e+01    1.465371e+00
  1.814994e+01    1.481478e+00
  1.818169e+01    1.469402e+00
  1.821344e+01    1.472358e+00
  1.824519e+01    1.484318e+00
  1.827694e+01    1.461680e+00
  1.830869e+01    1.442926e+00
  1.834044e+01    1.425467e+00
  1.837220e+01    1.429842e+00
  1.840395e+01    1.443586e+00
  1.843570e+01    1.437177e+00
  1.846745e+01    1.392516e+00
  1.849920e+01    1.414740e+00
  1.853095e+01    1.438036e+00
  1.856270e+01    1.441773e+00
  1.859445e+01    1.428977e+00
  1.862620e+01    1.421161e+00
  1.865796e+01    1.412636e+00
  1.868971e+01    1.392039e+00
  1.872146e+01    1.424863e+00
  1.875321e+01    1.415268e+00
  1.878496e+01    1.387796e+00
  1.881671e+01    1.399863e+00
  1.884846e+01    1.370860e+00
  1.888021e+01    1.388420e+00
  1.891196e+01    1.392100e+00
  1.894372e+01    1.377490e+00
  1.897547e+01    1.371163e+00
  1.900722e+01    1.356297e+00
  1.903897e+01    1.349631e+00
  1.907072e+01    1.340827e+00
  1.910247e+01    1.372347e+00
  1.913422e+01    1.327144e+00
  1.916597e+01    1.365300e+00
  1.919773e+01    1.343105e+00
  1.922948e+01    1.332516e+00
  1.926123e+01    1.362484e+00
  1.929298e+01    1.337623e+00
  1.932473e+01    1.361170e+00
  1.935648e+01    1.352654e+00
  1.938823e+01    1.357197e+00
  1.941998e+01    1.325210e+00
  1.945173e+01    1.330637e+00
  1.948349e+01    1.302540e+00
  1.951524e+01    1.338280e+00
  1.954699e+01    1.323641e+00
  1.957874e+01    1.319184e+00
  1.961049e+01    1.344630e+00
  1.964224e+01    1.310452e+00
  1.967399e+01    1.299652e+00
  1.970574e+01    1.286788e+00
  1.973749e+01    1.306289e+00
  1.976925e+01    1.283838e+00
  1.980100e+01    1.287735e+00
  1.983275e+01    1.247416e+00
  1.986450e+01    1.278312e+00
  1.989625e+01    1.289886e+00
  1.992800e+01    1.281675e+00
  1.995975e+01    1.278087e+00
  1.999150e+01    1.301785e+00
  2.002325e+01    1.254407e+00
  2.005501e+01    1.255597e+00
  2.008676e+01    1.266758e+00
  2.011851e+01    1.253945e+00
  2.015026e+01    1.243570e+00
  2.018201e+01    1.259640e+00
  2.021376e+01    1.236480e+00
  2.024551e+01    1.254936e+00
  2.027726e+01    1.251454e+00
  2.030902e+01    1.248118e+00
  2.034077e+01    1.218219e+00
  2.037252e+01    1.270277e+00
  2.040427e+01    1.250646e+00
  2.043602e+01    1.218717e+00
  2.046777e+01    1.242760e+00
  2.049952e+01    1.228380e+00
  2.053127e+01    1.227324e+00
  2.056302e+01    1.202297e+00
  2.059478e+01    1.215298e+00
  2.062653e+01    1.234063e+00
  2.065828e+01    1.209522e+00
  2.069003e+01    1.215370e+00
  2.072178e+01    1.208633e+00
  2.075353e+01    1.218295e+00
  2.078528e+01    1.211202e+00
  2.081703e+01    1.246476e+00
  2.084878e+01    1.209025e+00
  2.088054e+01    1.179669e+00
  2.091229e+01    1.218954e+00
  2.094404e+01    1.196938e+00
  2.097579e+01    1.203044e+00
  2.100754e+01    1.201963e+00
  2.103929e+01    1.222927e+00
  2.107104e+01    1.227596e+00
  2.110279e+01    1.224972e+00
  2.113455e+01    1.217396e+00
  2.116630e+01    1.214847e+00
  2.119805e+01    1.199054e+00
  2.122980e+01    1.213230e+00
  2.126155e+01    1.226642e+00
  2.129330e+01    1.235600e+00
  2.132505e+01    1.263218e+00
  2.135680e+01    1.264804e+00
  2.138855e+01    1.253704e+00
  2.142031e+01    1.305864e+00
  2.145206e+01    1.303811e+00
  2.148381e+01    1.367333e+00
  2.151556e+01    1.398329e+00
  2.154731e+01    1.522484e+00
  2.157906e+01    1.579695e+00
  2.161081e+01    1.755056e+00
  2.164256e+01    1.940829e+00
  2.167431e+01    2.277539e+00
  2.170607e+01    2.780742e+00
  2.173782e+01    3.450449e+00
  2.176957e+01    4.511791e+00
  2.180132e+01    5.761930e+00
  2.183307e+01    7.080559e+00
  2.186482e+01    8.252049e+00
  2.189657e+01    8.763222e+00
  2.192832e+01    8.151197e+00
  2.196007e+01    6.453246e+00
  2.199183e+01    4.795358e+00
  2.202358e+01    3.538688e+00
  2.205533e+01    2.786967e+00
  2.208708e+01    2.292782e+00
  2.211883e+01    1.952421e+00
  2.215058e+01    1.727260e+00
  2.218233e+01    1.557698e+00
  2.221408e+01    1.488712e+00
  2.224584e+01    1.384231e+00
  2.227759e+01    1.338346e+00
  2.230934e+01    1.264775e+00
  2.234109e+01    1.244003e+00
  2.237284e+01    1.214656e+00
  2.240459e+01    1.185600e+00
  2.243634e+01    1.182442e+00
  2.246809e+01    1.163890e+00
  2.249984e+01    1.132996e+00
  2.253160e+01    1.114914e+00
  2.256335e+01    1.094403e+00
  2.259510e+01    1.083977e+00
  2.262685e+01    1.080768e+00
  2.265860e+01    1.086846e+00
  2.269035e+01    1.067502e+00
  2.272210e+01    1.064122e+00
  2.275385e+01    1.072867e+00
  2.278560e+01    1.014126e+00
  2.281736e+01    1.036422e+00
  2.284911e+01    1.012412e+00
  2.288086e+01    1.008243e+00
  2.291261e+01    1.010413e+00
  2.294436e+01    1.005165e+00
  2.297611e+01    1.021642e+00
  2.300786e+01    1.021970e+00
  2.303961e+01    1.012145e+00
  2.307137e+01    9.979745e-01
  2.310312e+01    1.004086e+00
  2.313487e+01    1.009469e+00
  2.316662e+01    9.547755e-01
  2.319837e+01    9.779075e-01
  2.323012e+01    9.602063e-01
  2.326187e+01    9.720732e-01
  2.329362e+01    9.668002e-01
  2.332537e+01    9.656545e-01
  2.335713e+01    9.442749e-01
  2.338888e+01    9.571321e-01
  2.342063e+01    9.482332e-01
  2.345238e+01    9.604034e-01
  2.348413e+01    9.660161e-01
  2.351588e+01    9.438054e-01
  2.354763e+01    9.416328e-01
  2.357938e+01    9.432898e-01
  2.361113e+01    9.471153e-01
  2.364289e+01    9.422616e-01
  2.367464e+01    9.396663e-01
  2.370639e+01    9.263567e-01
  2.373814e+01    9.361677e-01
  2.376989e+01    9.315560e-01
  2.380164e+01    9.011050e-01
  2.383339e+01    9.067260e-01
  2.386514e+01    9.092975e-01
  2.389689e+01    8.737082e-01
  2.392865e+01    9.063098e-01
  2.396040e+01    8.859217e-01
  2.399215e+01    8.809379e-01
  2.402390e+01    8.798515e-01
  2.405565e+01    8.701560e-01
  2.408740e+01    8.928419e-01
  2.411915e+01    8.601786e-01
  2.415090e+01    8.527073e-01
  2.418266e+01    8.807112e-01
  2.421441e+01    8.600622e-01
  2.424616e+01    8.562278e-01
  2.427791e+01    8.456963e-01
  2.430966e+01    8.682783e-01
  2.434141e+01    8.736427e-01
  2.437316e+01    8.990387e-01
  2.440491e+01    8.839505e-01
  2.443666e+01    8.880212e-01
  2.446842e+01    8.747010e-01
  2.450017e+01    8.763304e-01
  2.453192e+01    8.749806e-01
  2.456367e+01    8.782167e-01
  2.459542e+01    8.898734e-01
  2.462717e+01    8.909896e-01
  2.465892e+01    8.651075e-01
  2.469067e+01    8.770255e-01
  2.472242e+01    9.042269e-01
  2.475418e+01    8.796909e-01
  2.478593e+01    8.890227e-01
  2.481768e+01    8.849510e-01
  2.484943e+01    8.705384e-01
  2.488118e+01    8.785155e-01
  2.491293e+01    8.852811e-01
  2.494468e+01    8.748896e-01
  2.497643e+01    8.858149e-01
  2.500819e+01    8.962369e-01
  2.503994e+01    8.735105e-01
  2.507169e+01    8.995368e-01
  2.510344e+01    8.931016e-01
  2.513519e+01    9.035453e-01
  2.516694e+01    8.911545e-01
  2.519869e+01    8.956957e-01
  2.523044e+01    9.040803e-01
  2.526219e+01    9.198887e-01
  2.529395e+01    9.461545e-01
  2.532570e+01    9.392517e-01
  2.535745e+01    9.586899e-01
  2.538920e+01    9.745693e-01
  2.542095e+01    1.007138e+00
  2.545270e+01    9.967153e-01
  2.548445e+01    1.042316e+00
  2.551620e+01    1.055446e+00
  2.554795e+01    1.105991e+00
  2.557971e+01    1.151097e+00
  2.561146e+01    1.217605e+00
  2.564321e+01    1.277690e+00
  2.567496e+01    1.400240e+00
  2.570671e+01    1.574891e+00
  2.573846e+01    1.825368e+00
  2.577021e+01    2.205427e+00
  2.580196e+01    2.762312e+00
  2.583371e+01    3.585453e+00
  2.586547e+01    4.592699e+00
  2.589722e+01    5.726700e+00
  2.592897e+01    6.595134e+00
  2.596072e+01    7.024075e+00
  2.599247e+01    6.395401e+00
  2.602422e+01    5.158232e+00
  2.605597e+01    3.913623e+00
  2.608772e+01    2.974162e+00
  2.611948e+01    2.317661e+00
  2.615123e+01    1.898067e+00
  2.618298e+01    1.623366e+00
  2.621473e+01    1.454523e+00
  2.624648e+01    1.328053e+00
  2.627823e+01    1.227099e+00
  2.630998e+01    1.146446e+00
  2.634173e+01    1.127469e+00
  2.637348e+01    1.066754e+00
  2.640524e+01    1.006713e+00
  2.643699e+01    1.018410e+00
  2.646874e+01    9.871116e-01
  2.650049e+01    9.978642e-01
  2.653224e+01    9.830489e-01
  2.656399e+01    9.751543e-01
  2.659574e+01    9.768973e-01
  2.662749e+01    9.578835e-01
  2.665924e+01    9.629666e-01
  2.669100e+01    9.410782e-01
  2.672275e+01    9.520044e-01
  2.675450e+01    9.398280e-01
  2.678625e+01    9.709002e-01
  2.681800e+01    9.827057e-01
  2.684975e+01    9.620256e-01
  2.688150e+01    9.800432e-01
  2.691325e+01    9.936308e-01
  2.694501e+01    1.028418e+00
  2.697676e+01    1.046852e+00
  2.700851e+01    1.110505e+00
  2.704026e+01    1.197662e+00
  2.707201e+01    1.295771e+00
  2.710376e+01    1.456208e+00
  2.713551e+01    1.696838e+00
  2.716726e+01    1.925578e+00
  2.719901e+01    2.128990e+00
  2.723077e+01    2.104220e+00
  2.726252e+01    1.913841e+00
  2.729427e+01    1.674755e+00
  2.732602e+01    1.467299e+00
  2.735777e+01    1.271862e+00
  2.738952e+01    1.162335e+00
  2.742127e+01    1.080314e+00
  2.745302e+01    9.978502e-01
  2.748477e+01    9.729462e-01
  2.751653e+01    9.718446e-01
  2.754828e+01    9.384366e-01
  2.758003e+01    9.100965e-01
  2.761178e+01    9.162660e-01
  2.764353e+01    8.945990e-01
  2.767528e+01    9.065442e-01
  2.770703e+01    8.884367e-01
  2.773878e+01    8.811218e-01
  2.777054e+01    8.663538e-01
  2.780229e+01    8.764501e-01
  2.783404e+01    8.657888e-01
  2.786579e+01    8.529375e-01
  2.789754e+01    8.709239e-01
  2.792929e+01    8.654220e-01
  2.796104e+01    8.685269e-01
  2.799279e+01    8.449124e-01
  2.802454e+01    8.452471e-01
  2.805630e+01    8.608472e-01
  2.808805e+01    8.527055e-01
  2.811980e+01    8.546496e-01
  2.815155e+01    8.523944e-01
  2.818330e+01    8.547211e-01
  2.821505e+01    8.362008e-01
  2.824680e+01    8.405707e-01
  2.827855e+01    8.540568e-01
  2.831030e+01    8.342216e-01
  2.834206e+01    8.322090e-01
  2.837381e+01    8.357388e-01
  2.840556e+01    8.409576e-01
  2.843731e+01    8.334565e-01
  2.846906e+01    8.306816e-01
  2.850081e+01    8.443015e-01
  2.853256e+01    8.154234e-01
  2.856431e+01    8.074911e-01
  2.859606e+01    8.395708e-01
  2.862782e+01    8.425797e-01
  2.865957e+01    8.291627e-01
  2.869132e+01    8.207668e-01
  2.872307e+01    8.159591e-01
  2.875482e+01    8.460438e-01
  2.878657e+01    8.126118e-01
  2.881832e+01    8.134880e-01
  2.885007e+01    7.923170e-01
  2.888183e+01    8.042320e-01
  2.891358e+01    7.977929e-01
  2.894533e+01    8.033473e-01
  2.897708e+01    8.244016e-01
  2.900883e+01    7.990537e-01
  2.904058e+01    8.141757e-01
  2.907233e+01    8.005611e-01
  2.910408e+01    7.864423e-01
  2.913583e+01    8.083495e-01
  2.916759e+01    7.873047e-01
  2.919934e+01    8.110335e-01
  2.923109e+01    7.833737e-01
  2.926284e+01    7.901945e-01
  2.929459e+01    7.951278e-01
  2.932634e+01    7.948499e-01
  2.935809e+01    7.968996e-01
  2.938984e+01    7.808243e-01
  2.942159e+01    8.045447e-01
  2.945335e+01    7.983502e-01
  2.948510e+01    8.019812e-01
  2.951685e+01    7.569702e-01
  2.954860e+01    7.818861e-01
  2.958035e+01    7.821683e-01
  2.961210e+01    7.976696e-01
  2.964385e+01    7.933643e-01
  2.967560e+01    8.046831e-01
  2.970736e+01    7.992260e-01
  2.973911e+01    7.983255e-01
  2.977086e+01    7.866515e-01
  2.980261e+01    7.772989e-01
  2.983436e+01    7.631951e-01
  2.986611e+01    7.653065e-01
  2.989786e+01    7.865300e-01
  2.992961e+01    7.940904e-01
  2.996136e+01    7.789458e-01
  2.999312e+01    7.963190e-01
  3.002487e+01    7.987379e-01
  3.005662e+01    8.139762e-01
  3.008837e+01    7.990257e-01
  3.012012e+01    8.018282e-01
  3.015187e+01    7.702723e-01
  3.018362e+01    7.633542e-01
  3.021537e+01    7.896522e-01
  3.024712e+01    7.998312e-01
  3.027888e+01    8.019469e-01
  3.031063e+01    7.683125e-01
  3.034238e+01    7.810965e-01
  3.037413e+01    7.701225e-01
  3.040588e+01    7.546624e-01
  3.043763e+01    7.831819e-01
  3.046938e+01    7.815194e-01
  3.050113e+01    7.533489e-01
  3.053288e+01    7.734087e-01
  3.056464e+01    7.614689e-01
  3.059639e+01    7.897639e-01
  3.062814e+01    7.873674e-01
  3.065989e+01    7.851184e-01
  3.069164e+01    7.865210e-01
  3.072339e+01    7.704542e-01
  3.075514e+01    7.811117e-01
  3.078689e+01    7.738820e-01
  3.081865e+01    7.765957e-01
  3.085040e+01    7.646893e-01
  3.088215e+01    8.059806e-01
  3.091390e+01    7.766134e-01
  3.094565e+01    7.777572e-01
  3.097740e+01    7.790666e-01
  3.100915e+01    7.969670e-01
  3.104090e+01    7.750308e-01
  3.107265e+01    7.770076e-01
  3.110441e+01    7.814102e-01
  3.113616e+01    7.972385e-01
  3.116791e+01    7.820372e-01
  3.119966e+01    7.813333e-01
  3.123141e+01    7.966793e-01
  3.126316e+01    7.868539e-01
  3.129491e+01    7.965709e-01
  3.132666e+01    7.892652e-01
  3.135841e+01    7.984459e-01
  3.139017e+01    8.024369e-01
  3.142192e+01    8.044984e-01
  3.145367e+01    7.894557e-01
  3.148542e+01    8.130373e-01
  3.151717e+01    7.913059e-01
  3.154892e+01    8.448286e-01
  3.158067e+01    8.492517e-01
  3.161242e+01    8.933238e-01
  3.164418e+01    9.119374e-01
  3.167593e+01    9.399044e-01
  3.170768e+01    1.033459e+00
  3.173943e+01    1.103900e+00
  3.177118e+01    1.208490e+00
  3.180293e+01    1.426759e+00
  3.183468e+01    1.669855e+00
  3.186643e+01    1.932249e+00
  3.189818e+01    2.030120e+00
  3.192994e+01    1.978281e+00
  3.196169e+01    1.835285e+00
  3.199344e+01    1.532543e+00
  3.202519e+01    1.327103e+00
  3.205694e+01    1.137919e+00
  3.208869e+01    9.925566e-01
  3.212044e+01    9.502591e-01
  3.215219e+01    9.063440e-01
  3.218394e+01    8.940368e-01
  3.221570e+01    8.340582e-01
  3.224745e+01    8.155127e-01
  3.227920e+01    8.300626e-01
  3.231095e+01    7.966219e-01
  3.234270e+01    7.822341e-01
  3.237445e+01    7.793558e-01
  3.240620e+01    7.854475e-01
  3.243795e+01    7.755344e-01
  3.246970e+01    7.586978e-01
  3.250146e+01    7.669164e-01
  3.253321e+01    7.812032e-01
  3.254908e+01    7.730102e-01