File: XRD/Reaction conditions/2024-07-27_003_Ru-CGO-ex_Reaction_dwell_000023_data_000105.dat
# == pyFAI calibration ==
# Distance Sample to Detector: 0.4 m
# PONI: 9.750e-02, 1.135e-01 m
# Rotations: -0.000175 0.000000 -0.000000 rad
#
# == Fit2d calibration ==
# Distance Sample-beamCenter: 400.000 mm
# Center: x=1514.000, y=1300.000 pix
# Tilt: 0.010 deg  TiltPlanRot: 0.010 deg
#
# Detector Detector	 Spline= None	 PixelSize= 7.500e-05, 7.500e-05 m
#    Detector has a mask: False
#    Detector has a dark current: False
#    detector has a flat field: False
#
# Wavelength: 6.888e-11 m
# Mask applied: user provided
# Dark current applied: False
# Flat field applied: False
# Polarization factor: 0.99
# Normalization factor: 1.0
# --> /home/myspot/data/2024_07_Rosario/Ru-CGO-ex/2024-07-27_003_Ru-CGO-ex_Reaction_dwell_000023_data_000105.dat
#       q_nm^-1             I
  2.003187e-02    2.226973e-02
  5.178302e-02    8.769654e-02
  8.353417e-02    1.279637e-01
  1.152853e-01    5.547349e-02
  1.470365e-01    3.665998e-03
  1.787876e-01    3.895421e-02
  2.105388e-01    1.407218e-02
  2.422899e-01    2.210628e-02
  2.740411e-01    4.037010e-03
  3.057922e-01    4.934780e-02
  3.375433e-01    5.483211e-02
  3.692945e-01    9.504748e-02
  4.010456e-01    6.612618e-02
  4.327968e-01    3.603531e-02
  4.645479e-01    5.199990e-02
  4.962991e-01    4.123636e-02
  5.280502e-01    6.280950e-02
  5.598014e-01    2.853131e-02
  5.915525e-01    6.070777e-02
  6.233037e-01    5.958580e-02
  6.550548e-01    3.358040e-02
  6.868060e-01    3.920851e-02
  7.185571e-01    4.768826e-02
  7.503083e-01    3.570095e-02
  7.820594e-01    1.246597e-01
  8.138106e-01    2.356351e-01
  8.455617e-01    3.117923e-01
  8.773129e-01    4.896031e-01
  9.090640e-01    6.535230e-01
  9.408152e-01    8.628799e-01
  9.725663e-01    9.860620e-01
  1.004317e+00    1.192878e+00
  1.036069e+00    1.340051e+00
  1.067820e+00    1.459714e+00
  1.099571e+00    1.514323e+00
  1.131322e+00    1.578902e+00
  1.163073e+00    1.642174e+00
  1.194824e+00    1.930927e+00
  1.226575e+00    2.172607e+00
  1.258327e+00    2.549049e+00
  1.290078e+00    2.744623e+00
  1.321829e+00    2.851760e+00
  1.353580e+00    2.778066e+00
  1.385331e+00    2.931723e+00
  1.417082e+00    2.912795e+00
  1.448834e+00    2.898097e+00
  1.480585e+00    3.082438e+00
  1.512336e+00    3.112093e+00
  1.544087e+00    3.268260e+00
  1.575838e+00    3.186423e+00
  1.607589e+00    3.101533e+00
  1.639340e+00    3.072188e+00
  1.671092e+00    3.150370e+00
  1.702843e+00    3.124803e+00
  1.734594e+00    3.098658e+00
  1.766345e+00    2.851453e+00
  1.798096e+00    3.024948e+00
  1.829847e+00    3.133412e+00
  1.861598e+00    3.160523e+00
  1.893350e+00    2.989552e+00
  1.925101e+00    3.124376e+00
  1.956852e+00    3.138598e+00
  1.988603e+00    3.056267e+00
  2.020354e+00    3.362225e+00
  2.052105e+00    3.036000e+00
  2.083856e+00    3.140943e+00
  2.115608e+00    3.063822e+00
  2.147359e+00    3.073250e+00
  2.179110e+00    3.121886e+00
  2.210861e+00    3.149289e+00
  2.242612e+00    3.172899e+00
  2.274363e+00    3.136250e+00
  2.306115e+00    3.100143e+00
  2.337866e+00    3.071265e+00
  2.369617e+00    3.110979e+00
  2.401368e+00    3.066578e+00
  2.433119e+00    3.141984e+00
  2.464870e+00    3.109887e+00
  2.496621e+00    3.212620e+00
  2.528373e+00    3.231001e+00
  2.560124e+00    3.128039e+00
  2.591875e+00    3.192529e+00
  2.623626e+00    3.211266e+00
  2.655377e+00    3.360854e+00
  2.687128e+00    3.173762e+00
  2.718879e+00    3.219578e+00
  2.750631e+00    3.291942e+00
  2.782382e+00    3.271704e+00
  2.814133e+00    3.351709e+00
  2.845884e+00    3.357594e+00
  2.877635e+00    3.399043e+00
  2.909386e+00    3.237671e+00
  2.941137e+00    3.400106e+00
  2.972889e+00    3.343284e+00
  3.004640e+00    3.362616e+00
  3.036391e+00    3.391756e+00
  3.068142e+00    3.294167e+00
  3.099893e+00    3.410247e+00
  3.131644e+00    3.321727e+00
  3.163395e+00    3.487929e+00
  3.195147e+00    3.348302e+00
  3.226898e+00    3.353610e+00
  3.258649e+00    3.419470e+00
  3.290400e+00    3.377127e+00
  3.322151e+00    3.525688e+00
  3.353902e+00    3.448947e+00
  3.385654e+00    3.477513e+00
  3.417405e+00    3.446866e+00
  3.449156e+00    3.489986e+00
  3.480907e+00    3.509026e+00
  3.512658e+00    3.508609e+00
  3.544409e+00    3.579243e+00
  3.576160e+00    3.540406e+00
  3.607912e+00    3.587891e+00
  3.639663e+00    3.452783e+00
  3.671414e+00    3.566824e+00
  3.703165e+00    3.514045e+00
  3.734916e+00    3.518353e+00
  3.766667e+00    3.544568e+00
  3.798418e+00    3.479186e+00
  3.830170e+00    3.422851e+00
  3.861921e+00    3.491256e+00
  3.893672e+00    3.507181e+00
  3.925423e+00    3.564020e+00
  3.957174e+00    3.460377e+00
  3.988925e+00    3.584109e+00
  4.020676e+00    3.508956e+00
  4.052428e+00    3.517740e+00
  4.084179e+00    3.570055e+00
  4.115930e+00    3.512332e+00
  4.147681e+00    3.548276e+00
  4.179432e+00    3.603822e+00
  4.211183e+00    3.530233e+00
  4.242935e+00    3.542274e+00
  4.274686e+00    3.594291e+00
  4.306437e+00    3.605239e+00
  4.338188e+00    3.579765e+00
  4.369939e+00    3.572358e+00
  4.401690e+00    3.565181e+00
  4.433441e+00    3.521943e+00
  4.465193e+00    3.648698e+00
  4.496944e+00    3.607161e+00
  4.528695e+00    3.666673e+00
  4.560446e+00    3.679414e+00
  4.592197e+00    3.552697e+00
  4.623948e+00    3.611523e+00
  4.655699e+00    3.539637e+00
  4.687451e+00    3.645450e+00
  4.719202e+00    3.697778e+00
  4.750953e+00    3.671960e+00
  4.782704e+00    3.570002e+00
  4.814455e+00    3.580287e+00
  4.846206e+00    3.736432e+00
  4.877957e+00    3.630220e+00
  4.909709e+00    3.633591e+00
  4.941460e+00    3.658643e+00
  4.973211e+00    3.575790e+00
  5.004962e+00    3.631155e+00
  5.036713e+00    3.698382e+00
  5.068464e+00    3.634047e+00
  5.100216e+00    3.645981e+00
  5.131967e+00    3.749698e+00
  5.163718e+00    3.691773e+00
  5.195469e+00    3.662905e+00
  5.227220e+00    3.665718e+00
  5.258971e+00    3.670944e+00
  5.290722e+00    3.689528e+00
  5.322474e+00    3.660370e+00
  5.354225e+00    3.619467e+00
  5.385976e+00    3.637114e+00
  5.417727e+00    3.695725e+00
  5.449478e+00    3.576735e+00
  5.481229e+00    3.549704e+00
  5.512980e+00    3.639134e+00
  5.544732e+00    3.547712e+00
  5.576483e+00    3.528134e+00
  5.608234e+00    3.742567e+00
  5.639985e+00    3.664266e+00
  5.671736e+00    3.543239e+00
  5.703487e+00    3.547913e+00
  5.735238e+00    3.552863e+00
  5.766990e+00    3.556875e+00
  5.798741e+00    3.618471e+00
  5.830492e+00    3.522530e+00
  5.862243e+00    3.498568e+00
  5.893994e+00    3.500795e+00
  5.925745e+00    3.575156e+00
  5.957497e+00    3.618411e+00
  5.989248e+00    3.581404e+00
  6.020999e+00    3.472185e+00
  6.052750e+00    3.554171e+00
  6.084501e+00    3.674080e+00
  6.116252e+00    3.668583e+00
  6.148003e+00    3.540840e+00
  6.179755e+00    3.633329e+00
  6.211506e+00    3.627649e+00
  6.243257e+00    3.572065e+00
  6.275008e+00    3.575161e+00
  6.306759e+00    3.631480e+00
  6.338510e+00    3.543987e+00
  6.370261e+00    3.550505e+00
  6.402013e+00    3.565331e+00
  6.433764e+00    3.453328e+00
  6.465515e+00    3.619559e+00
  6.497266e+00    3.479926e+00
  6.529017e+00    3.463276e+00
  6.560768e+00    3.601946e+00
  6.592519e+00    3.494224e+00
  6.624271e+00    3.517610e+00
  6.656022e+00    3.540834e+00
  6.687773e+00    3.604742e+00
  6.719524e+00    3.538497e+00
  6.751275e+00    3.496640e+00
  6.783026e+00    3.544045e+00
  6.814777e+00    3.539310e+00
  6.846529e+00    3.572291e+00
  6.878280e+00    3.517350e+00
  6.910031e+00    3.575337e+00
  6.941782e+00    3.454256e+00
  6.973533e+00    3.631434e+00
  7.005284e+00    3.523604e+00
  7.037036e+00    3.437223e+00
  7.068787e+00    3.605513e+00
  7.100538e+00    3.529655e+00
  7.132289e+00    3.513400e+00
  7.164040e+00    3.558515e+00
  7.195791e+00    3.512999e+00
  7.227542e+00    3.540486e+00
  7.259294e+00    3.544393e+00
  7.291045e+00    3.540806e+00
  7.322796e+00    3.563275e+00
  7.354547e+00    3.485480e+00
  7.386298e+00    3.521035e+00
  7.418049e+00    3.496775e+00
  7.449800e+00    3.547343e+00
  7.481552e+00    3.467798e+00
  7.513303e+00    3.448234e+00
  7.545054e+00    3.486345e+00
  7.576805e+00    3.507069e+00
  7.608556e+00    3.504342e+00
  7.640307e+00    3.489696e+00
  7.672058e+00    3.434981e+00
  7.703810e+00    3.412391e+00
  7.735561e+00    3.519115e+00
  7.767312e+00    3.429253e+00
  7.799063e+00    3.500674e+00
  7.830814e+00    3.468328e+00
  7.862565e+00    3.447689e+00
  7.894317e+00    3.393996e+00
  7.926068e+00    3.460189e+00
  7.957819e+00    3.468794e+00
  7.989570e+00    3.453772e+00
  8.021321e+00    3.375277e+00
  8.053072e+00    3.365098e+00
  8.084823e+00    3.394070e+00
  8.116575e+00    3.448367e+00
  8.148326e+00    3.460644e+00
  8.180077e+00    3.511863e+00
  8.211828e+00    3.537146e+00
  8.243579e+00    3.464319e+00
  8.275330e+00    3.366848e+00
  8.307081e+00    3.389574e+00
  8.338833e+00    3.368787e+00
  8.370584e+00    3.355540e+00
  8.402335e+00    3.391100e+00
  8.434086e+00    3.325019e+00
  8.465837e+00    3.392646e+00
  8.497588e+00    3.374394e+00
  8.529339e+00    3.338477e+00
  8.561091e+00    3.409052e+00
  8.592842e+00    3.417349e+00
  8.624593e+00    3.267095e+00
  8.656344e+00    3.252406e+00
  8.688095e+00    3.354462e+00
  8.719846e+00    3.323815e+00
  8.751598e+00    3.324152e+00
  8.783349e+00    3.370350e+00
  8.815100e+00    3.289492e+00
  8.846851e+00    3.312543e+00
  8.878602e+00    3.299490e+00
  8.910353e+00    3.315530e+00
  8.942104e+00    3.246730e+00
  8.973856e+00    3.273311e+00
  9.005607e+00    3.334254e+00
  9.037358e+00    3.271918e+00
  9.069109e+00    3.326247e+00
  9.100860e+00    3.284988e+00
  9.132611e+00    3.266612e+00
  9.164362e+00    3.220146e+00
  9.196114e+00    3.249875e+00
  9.227865e+00    3.329186e+00
  9.259616e+00    3.218185e+00
  9.291367e+00    3.211331e+00
  9.323118e+00    3.211894e+00
  9.354869e+00    3.216222e+00
  9.386620e+00    3.210793e+00
  9.418372e+00    3.225158e+00
  9.450123e+00    3.180073e+00
  9.481874e+00    3.235898e+00
  9.513625e+00    3.200189e+00
  9.545376e+00    3.209504e+00
  9.577127e+00    3.153340e+00
  9.608878e+00    3.191487e+00
  9.640630e+00    3.209627e+00
  9.672381e+00    3.138385e+00
  9.704132e+00    3.202368e+00
  9.735883e+00    3.199224e+00
  9.767634e+00    3.181991e+00
  9.799385e+00    3.130820e+00
  9.831137e+00    3.166783e+00
  9.862888e+00    3.101604e+00
  9.894639e+00    3.091992e+00
  9.926390e+00    3.111425e+00
  9.958141e+00    3.189271e+00
  9.989892e+00    3.187535e+00
  1.002164e+01    3.113257e+00
  1.005339e+01    3.121649e+00
  1.008515e+01    3.159652e+00
  1.011690e+01    3.058005e+00
  1.014865e+01    3.093041e+00
  1.018040e+01    3.111427e+00
  1.021215e+01    3.102450e+00
  1.024390e+01    3.052490e+00
  1.027565e+01    3.121696e+00
  1.030740e+01    3.101272e+00
  1.033915e+01    3.098201e+00
  1.037091e+01    3.012374e+00
  1.040266e+01    3.055347e+00
  1.043441e+01    3.040881e+00
  1.046616e+01    2.998516e+00
  1.049791e+01    3.061608e+00
  1.052966e+01    3.015552e+00
  1.056141e+01    2.978057e+00
  1.059316e+01    2.968719e+00
  1.062492e+01    2.955585e+00
  1.065667e+01    2.981528e+00
  1.068842e+01    2.997988e+00
  1.072017e+01    2.953429e+00
  1.075192e+01    2.924126e+00
  1.078367e+01    2.992611e+00
  1.081542e+01    2.969155e+00
  1.084717e+01    2.931743e+00
  1.087892e+01    2.997145e+00
  1.091068e+01    2.957984e+00
  1.094243e+01    2.873088e+00
  1.097418e+01    2.857325e+00
  1.100593e+01    2.889803e+00
  1.103768e+01    2.868248e+00
  1.106943e+01    2.908372e+00
  1.110118e+01    2.878873e+00
  1.113293e+01    2.876553e+00
  1.116468e+01    2.843690e+00
  1.119644e+01    2.860195e+00
  1.122819e+01    2.867474e+00
  1.125994e+01    2.909639e+00
  1.129169e+01    2.771204e+00
  1.132344e+01    2.847994e+00
  1.135519e+01    2.851972e+00
  1.138694e+01    2.842939e+00
  1.141869e+01    2.849002e+00
  1.145045e+01    2.835489e+00
  1.148220e+01    2.844129e+00
  1.151395e+01    2.780715e+00
  1.154570e+01    2.781193e+00
  1.157745e+01    2.796207e+00
  1.160920e+01    2.787505e+00
  1.164095e+01    2.800692e+00
  1.167270e+01    2.780039e+00
  1.170445e+01    2.754868e+00
  1.173621e+01    2.747780e+00
  1.176796e+01    2.775519e+00
  1.179971e+01    2.746929e+00
  1.183146e+01    2.711738e+00
  1.186321e+01    2.778214e+00
  1.189496e+01    2.691287e+00
  1.192671e+01    2.741185e+00
  1.195846e+01    2.729715e+00
  1.199021e+01    2.688955e+00
  1.202197e+01    2.693965e+00
  1.205372e+01    2.704253e+00
  1.208547e+01    2.722788e+00
  1.211722e+01    2.680393e+00
  1.214897e+01    2.714107e+00
  1.218072e+01    2.737096e+00
  1.221247e+01    2.659601e+00
  1.224422e+01    2.707341e+00
  1.227597e+01    2.703217e+00
  1.230773e+01    2.699363e+00
  1.233948e+01    2.697583e+00
  1.237123e+01    2.676016e+00
  1.240298e+01    2.659404e+00
  1.243473e+01    2.699084e+00
  1.246648e+01    2.714156e+00
  1.249823e+01    2.712314e+00
  1.252998e+01    2.713067e+00
  1.256174e+01    2.729959e+00
  1.259349e+01    2.737737e+00
  1.262524e+01    2.762084e+00
  1.265699e+01    2.776900e+00
  1.268874e+01    2.840845e+00
  1.272049e+01    2.883588e+00
  1.275224e+01    2.901365e+00
  1.278399e+01    3.006202e+00
  1.281574e+01    3.015094e+00
  1.284750e+01    3.215030e+00
  1.287925e+01    3.396263e+00
  1.291100e+01    3.639835e+00
  1.294275e+01    4.093521e+00
  1.297450e+01    4.802143e+00
  1.300625e+01    5.906411e+00
  1.303800e+01    7.821524e+00
  1.306975e+01    1.038111e+01
  1.310150e+01    1.285496e+01
  1.313326e+01    1.497873e+01
  1.316501e+01    1.636713e+01
  1.319676e+01    1.566696e+01
  1.322851e+01    1.244396e+01
  1.326026e+01    9.014060e+00
  1.329201e+01    6.694844e+00
  1.332376e+01    5.341359e+00
  1.335551e+01    4.405197e+00
  1.338727e+01    3.857859e+00
  1.341902e+01    3.505312e+00
  1.345077e+01    3.202351e+00
  1.348252e+01    3.065325e+00
  1.351427e+01    2.955557e+00
  1.354602e+01    2.813703e+00
  1.357777e+01    2.728635e+00
  1.360952e+01    2.700358e+00
  1.364127e+01    2.651032e+00
  1.367303e+01    2.622228e+00
  1.370478e+01    2.553241e+00
  1.373653e+01    2.456417e+00
  1.376828e+01    2.454150e+00
  1.380003e+01    2.473388e+00
  1.383178e+01    2.434787e+00
  1.386353e+01    2.454976e+00
  1.389528e+01    2.380475e+00
  1.392703e+01    2.386266e+00
  1.395879e+01    2.392407e+00
  1.399054e+01    2.352755e+00
  1.402229e+01    2.318949e+00
  1.405404e+01    2.355369e+00
  1.408579e+01    2.297268e+00
  1.411754e+01    2.346030e+00
  1.414929e+01    2.314815e+00
  1.418104e+01    2.332167e+00
  1.421279e+01    2.288140e+00
  1.424455e+01    2.248730e+00
  1.427630e+01    2.285064e+00
  1.430805e+01    2.271785e+00
  1.433980e+01    2.271292e+00
  1.437155e+01    2.248659e+00
  1.440330e+01    2.243456e+00
  1.443505e+01    2.248241e+00
  1.446680e+01    2.221814e+00
  1.449856e+01    2.219238e+00
  1.453031e+01    2.222850e+00
  1.456206e+01    2.201172e+00
  1.459381e+01    2.237419e+00
  1.462556e+01    2.251805e+00
  1.465731e+01    2.233371e+00
  1.468906e+01    2.210991e+00
  1.472081e+01    2.204448e+00
  1.475256e+01    2.158787e+00
  1.478432e+01    2.226305e+00
  1.481607e+01    2.198826e+00
  1.484782e+01    2.215671e+00
  1.487957e+01    2.175359e+00
  1.491132e+01    2.307513e+00
  1.494307e+01    2.303676e+00
  1.497482e+01    2.349458e+00
  1.500657e+01    2.409370e+00
  1.503832e+01    2.621338e+00
  1.507008e+01    2.783871e+00
  1.510183e+01    3.192718e+00
  1.513358e+01    3.862351e+00
  1.516533e+01    4.571354e+00
  1.519708e+01    5.156102e+00
  1.522883e+01    5.597182e+00
  1.526058e+01    5.852962e+00
  1.529233e+01    5.471844e+00
  1.532409e+01    4.646359e+00
  1.535584e+01    3.789972e+00
  1.538759e+01    3.139956e+00
  1.541934e+01    2.744945e+00
  1.545109e+01    2.504241e+00
  1.548284e+01    2.351849e+00
  1.551459e+01    2.251166e+00
  1.554634e+01    2.181271e+00
  1.557809e+01    2.116260e+00
  1.560985e+01    2.089679e+00
  1.564160e+01    2.055458e+00
  1.567335e+01    2.024091e+00
  1.570510e+01    2.021414e+00
  1.573685e+01    1.967636e+00
  1.576860e+01    1.989106e+00
  1.580035e+01    1.927452e+00
  1.583210e+01    1.952272e+00
  1.586385e+01    1.910282e+00
  1.589561e+01    1.934291e+00
  1.592736e+01    1.875569e+00
  1.595911e+01    1.913310e+00
  1.599086e+01    1.884414e+00
  1.602261e+01    1.870801e+00
  1.605436e+01    1.876999e+00
  1.608611e+01    1.855865e+00
  1.611786e+01    1.858860e+00
  1.614961e+01    1.876978e+00
  1.618137e+01    1.818989e+00
  1.621312e+01    1.795939e+00
  1.624487e+01    1.772210e+00
  1.627662e+01    1.811209e+00
  1.630837e+01    1.791720e+00
  1.634012e+01    1.808663e+00
  1.637187e+01    1.866673e+00
  1.640362e+01    1.804780e+00
  1.643538e+01    1.781170e+00
  1.646713e+01    1.754950e+00
  1.649888e+01    1.767670e+00
  1.653063e+01    1.755542e+00
  1.656238e+01    1.730525e+00
  1.659413e+01    1.769101e+00
  1.662588e+01    1.718251e+00
  1.665763e+01    1.729197e+00
  1.668938e+01    1.761573e+00
  1.672114e+01    1.715541e+00
  1.675289e+01    1.741246e+00
  1.678464e+01    1.727668e+00
  1.681639e+01    1.700572e+00
  1.684814e+01    1.684070e+00
  1.687989e+01    1.689721e+00
  1.691164e+01    1.691875e+00
  1.694339e+01    1.696903e+00
  1.697514e+01    1.650678e+00
  1.700690e+01    1.631086e+00
  1.703865e+01    1.673827e+00
  1.707040e+01    1.633205e+00
  1.710215e+01    1.646250e+00
  1.713390e+01    1.637711e+00
  1.716565e+01    1.624850e+00
  1.719740e+01    1.612992e+00
  1.722915e+01    1.624612e+00
  1.726091e+01    1.620094e+00
  1.729266e+01    1.636475e+00
  1.732441e+01    1.621559e+00
  1.735616e+01    1.585657e+00
  1.738791e+01    1.607472e+00
  1.741966e+01    1.614265e+00
  1.745141e+01    1.600700e+00
  1.748316e+01    1.613175e+00
  1.751491e+01    1.605655e+00
  1.754667e+01    1.587458e+00
  1.757842e+01    1.572644e+00
  1.761017e+01    1.603024e+00
  1.764192e+01    1.595431e+00
  1.767367e+01    1.579199e+00
  1.770542e+01    1.547537e+00
  1.773717e+01    1.563925e+00
  1.776892e+01    1.549475e+00
  1.780067e+01    1.525523e+00
  1.783243e+01    1.528950e+00
  1.786418e+01    1.529879e+00
  1.789593e+01    1.538054e+00
  1.792768e+01    1.525534e+00
  1.795943e+01    1.505308e+00
  1.799118e+01    1.512503e+00
  1.802293e+01    1.490119e+00
  1.805468e+01    1.537188e+00
  1.808643e+01    1.490951e+00
  1.811819e+01    1.490749e+00
  1.814994e+01    1.483113e+00
  1.818169e+01    1.499465e+00
  1.821344e+01    1.463145e+00
  1.824519e+01    1.460915e+00
  1.827694e+01    1.490185e+00
  1.830869e+01    1.503202e+00
  1.834044e+01    1.468638e+00
  1.837220e+01    1.473204e+00
  1.840395e+01    1.469684e+00
  1.843570e+01    1.434731e+00
  1.846745e+01    1.433598e+00
  1.849920e+01    1.418090e+00
  1.853095e+01    1.447508e+00
  1.856270e+01    1.459651e+00
  1.859445e+01    1.452159e+00
  1.862620e+01    1.454235e+00
  1.865796e+01    1.439601e+00
  1.868971e+01    1.430061e+00
  1.872146e+01    1.423015e+00
  1.875321e+01    1.400974e+00
  1.878496e+01    1.419282e+00
  1.881671e+01    1.417246e+00
  1.884846e+01    1.399506e+00
  1.888021e+01    1.424994e+00
  1.891196e+01    1.362456e+00
  1.894372e+01    1.369923e+00
  1.897547e+01    1.393113e+00
  1.900722e+01    1.366134e+00
  1.903897e+01    1.374653e+00
  1.907072e+01    1.379793e+00
  1.910247e+01    1.376679e+00
  1.913422e+01    1.384053e+00
  1.916597e+01    1.364153e+00
  1.919773e+01    1.365591e+00
  1.922948e+01    1.379622e+00
  1.926123e+01    1.351808e+00
  1.929298e+01    1.353552e+00
  1.932473e+01    1.351423e+00
  1.935648e+01    1.340791e+00
  1.938823e+01    1.340620e+00
  1.941998e+01    1.343299e+00
  1.945173e+01    1.346377e+00
  1.948349e+01    1.352441e+00
  1.951524e+01    1.346830e+00
  1.954699e+01    1.315737e+00
  1.957874e+01    1.337861e+00
  1.961049e+01    1.312025e+00
  1.964224e+01    1.330474e+00
  1.967399e+01    1.283574e+00
  1.970574e+01    1.308318e+00
  1.973749e+01    1.315158e+00
  1.976925e+01    1.286370e+00
  1.980100e+01    1.299698e+00
  1.983275e+01    1.292696e+00
  1.986450e+01    1.293244e+00
  1.989625e+01    1.309346e+00
  1.992800e+01    1.285601e+00
  1.995975e+01    1.294970e+00
  1.999150e+01    1.298523e+00
  2.002325e+01    1.285986e+00
  2.005501e+01    1.312111e+00
  2.008676e+01    1.271284e+00
  2.011851e+01    1.275184e+00
  2.015026e+01    1.250274e+00
  2.018201e+01    1.290356e+00
  2.021376e+01    1.258355e+00
  2.024551e+01    1.246259e+00
  2.027726e+01    1.263580e+00
  2.030902e+01    1.238003e+00
  2.034077e+01    1.243687e+00
  2.037252e+01    1.261501e+00
  2.040427e+01    1.277162e+00
  2.043602e+01    1.240705e+00
  2.046777e+01    1.249245e+00
  2.049952e+01    1.268288e+00
  2.053127e+01    1.266346e+00
  2.056302e+01    1.228719e+00
  2.059478e+01    1.224883e+00
  2.062653e+01    1.273912e+00
  2.065828e+01    1.242721e+00
  2.069003e+01    1.235478e+00
  2.072178e+01    1.221287e+00
  2.075353e+01    1.237038e+00
  2.078528e+01    1.227864e+00
  2.081703e+01    1.209958e+00
  2.084878e+01    1.230120e+00
  2.088054e+01    1.218876e+00
  2.091229e+01    1.228272e+00
  2.094404e+01    1.236408e+00
  2.097579e+01    1.219986e+00
  2.100754e+01    1.217628e+00
  2.103929e+01    1.263375e+00
  2.107104e+01    1.226185e+00
  2.110279e+01    1.237814e+00
  2.113455e+01    1.208388e+00
  2.116630e+01    1.216641e+00
  2.119805e+01    1.265296e+00
  2.122980e+01    1.253978e+00
  2.126155e+01    1.263752e+00
  2.129330e+01    1.262816e+00
  2.132505e+01    1.295560e+00
  2.135680e+01    1.260733e+00
  2.138855e+01    1.305898e+00
  2.142031e+01    1.305881e+00
  2.145206e+01    1.345883e+00
  2.148381e+01    1.379341e+00
  2.151556e+01    1.457780e+00
  2.154731e+01    1.535225e+00
  2.157906e+01    1.615219e+00
  2.161081e+01    1.805633e+00
  2.164256e+01    1.966760e+00
  2.167431e+01    2.351803e+00
  2.170607e+01    2.788558e+00
  2.173782e+01    3.608583e+00
  2.176957e+01    4.662367e+00
  2.180132e+01    5.921006e+00
  2.183307e+01    7.238231e+00
  2.186482e+01    8.415327e+00
  2.189657e+01    8.884003e+00
  2.192832e+01    8.151711e+00
  2.196007e+01    6.516958e+00
  2.199183e+01    4.789180e+00
  2.202358e+01    3.572695e+00
  2.205533e+01    2.804246e+00
  2.208708e+01    2.305422e+00
  2.211883e+01    1.980560e+00
  2.215058e+01    1.767099e+00
  2.218233e+01    1.587956e+00
  2.221408e+01    1.497004e+00
  2.224584e+01    1.397333e+00
  2.227759e+01    1.363320e+00
  2.230934e+01    1.305104e+00
  2.234109e+01    1.270409e+00
  2.237284e+01    1.247020e+00
  2.240459e+01    1.210513e+00
  2.243634e+01    1.196829e+00
  2.246809e+01    1.150550e+00
  2.249984e+01    1.150818e+00
  2.253160e+01    1.145613e+00
  2.256335e+01    1.138286e+00
  2.259510e+01    1.109378e+00
  2.262685e+01    1.088372e+00
  2.265860e+01    1.060740e+00
  2.269035e+01    1.094325e+00
  2.272210e+01    1.077777e+00
  2.275385e+01    1.072794e+00
  2.278560e+01    1.054097e+00
  2.281736e+01    1.037574e+00
  2.284911e+01    1.055028e+00
  2.288086e+01    1.056242e+00
  2.291261e+01    1.052979e+00
  2.294436e+01    1.018986e+00
  2.297611e+01    1.028446e+00
  2.300786e+01    1.026165e+00
  2.303961e+01    1.038450e+00
  2.307137e+01    1.031443e+00
  2.310312e+01    9.952848e-01
  2.313487e+01    1.009986e+00
  2.316662e+01    1.002274e+00
  2.319837e+01    9.793016e-01
  2.323012e+01    9.865783e-01
  2.326187e+01    9.988255e-01
  2.329362e+01    9.657455e-01
  2.332537e+01    9.717383e-01
  2.335713e+01    9.779540e-01
  2.338888e+01    9.772433e-01
  2.342063e+01    9.866862e-01
  2.345238e+01    9.562263e-01
  2.348413e+01    9.439205e-01
  2.351588e+01    9.555858e-01
  2.354763e+01    9.480995e-01
  2.357938e+01    9.619203e-01
  2.361113e+01    9.436753e-01
  2.364289e+01    9.670869e-01
  2.367464e+01    9.738675e-01
  2.370639e+01    9.308649e-01
  2.373814e+01    9.348326e-01
  2.376989e+01    9.483378e-01
  2.380164e+01    9.346718e-01
  2.383339e+01    9.173251e-01
  2.386514e+01    9.346802e-01
  2.389689e+01    9.189714e-01
  2.392865e+01    9.432012e-01
  2.396040e+01    8.966185e-01
  2.399215e+01    8.843711e-01
  2.402390e+01    8.900097e-01
  2.405565e+01    8.891639e-01
  2.408740e+01    8.785997e-01
  2.411915e+01    8.870075e-01
  2.415090e+01    9.004458e-01
  2.418266e+01    8.941261e-01
  2.421441e+01    8.912999e-01
  2.424616e+01    8.667464e-01
  2.427791e+01    8.964956e-01
  2.430966e+01    8.849936e-01
  2.434141e+01    8.983717e-01
  2.437316e+01    9.074508e-01
  2.440491e+01    9.027975e-01
  2.443666e+01    8.815421e-01
  2.446842e+01    8.977008e-01
  2.450017e+01    9.195928e-01
  2.453192e+01    8.913848e-01
  2.456367e+01    9.090427e-01
  2.459542e+01    8.977551e-01
  2.462717e+01    9.027225e-01
  2.465892e+01    9.071546e-01
  2.469067e+01    8.939701e-01
  2.472242e+01    8.793317e-01
  2.475418e+01    9.048198e-01
  2.478593e+01    8.820395e-01
  2.481768e+01    8.981751e-01
  2.484943e+01    8.979707e-01
  2.488118e+01    9.184036e-01
  2.491293e+01    8.812498e-01
  2.494468e+01    9.010957e-01
  2.497643e+01    8.940104e-01
  2.500819e+01    8.955665e-01
  2.503994e+01    9.085913e-01
  2.507169e+01    9.013832e-01
  2.510344e+01    9.033580e-01
  2.513519e+01    8.851291e-01
  2.516694e+01    9.371742e-01
  2.519869e+01    9.183245e-01
  2.523044e+01    9.311907e-01
  2.526219e+01    9.509162e-01
  2.529395e+01    9.635851e-01
  2.532570e+01    9.628041e-01
  2.535745e+01    9.782879e-01
  2.538920e+01    1.015149e+00
  2.542095e+01    9.829227e-01
  2.545270e+01    1.022619e+00
  2.548445e+01    1.059433e+00
  2.551620e+01    1.082898e+00
  2.554795e+01    1.114877e+00
  2.557971e+01    1.145715e+00
  2.561146e+01    1.237541e+00
  2.564321e+01    1.294089e+00
  2.567496e+01    1.436393e+00
  2.570671e+01    1.637482e+00
  2.573846e+01    1.853826e+00
  2.577021e+01    2.244119e+00
  2.580196e+01    2.861964e+00
  2.583371e+01    3.702507e+00
  2.586547e+01    4.757503e+00
  2.589722e+01    5.911177e+00
  2.592897e+01    6.863253e+00
  2.596072e+01    7.115669e+00
  2.599247e+01    6.459934e+00
  2.602422e+01    5.198438e+00
  2.605597e+01    3.894324e+00
  2.608772e+01    2.950205e+00
  2.611948e+01    2.334661e+00
  2.615123e+01    1.924216e+00
  2.618298e+01    1.647859e+00
  2.621473e+01    1.497914e+00
  2.624648e+01    1.340922e+00
  2.627823e+01    1.231573e+00
  2.630998e+01    1.175320e+00
  2.634173e+01    1.117837e+00
  2.637348e+01    1.088000e+00
  2.640524e+01    1.081418e+00
  2.643699e+01    1.036215e+00
  2.646874e+01    1.037872e+00
  2.650049e+01    1.014550e+00
  2.653224e+01    9.878926e-01
  2.656399e+01    1.012320e+00
  2.659574e+01    1.004168e+00
  2.662749e+01    9.658232e-01
  2.665924e+01    9.449380e-01
  2.669100e+01    9.758719e-01
  2.672275e+01    9.918455e-01
  2.675450e+01    9.932456e-01
  2.678625e+01    9.711096e-01
  2.681800e+01    9.896958e-01
  2.684975e+01    1.007514e+00
  2.688150e+01    9.753335e-01
  2.691325e+01    1.008528e+00
  2.694501e+01    1.024352e+00
  2.697676e+01    1.053654e+00
  2.700851e+01    1.138338e+00
  2.704026e+01    1.203720e+00
  2.707201e+01    1.322133e+00
  2.710376e+01    1.548972e+00
  2.713551e+01    1.733227e+00
  2.716726e+01    1.990660e+00
  2.719901e+01    2.140415e+00
  2.723077e+01    2.142365e+00
  2.726252e+01    1.948764e+00
  2.729427e+01    1.672118e+00
  2.732602e+01    1.438280e+00
  2.735777e+01    1.266413e+00
  2.738952e+01    1.167459e+00
  2.742127e+01    1.093083e+00
  2.745302e+01    1.028698e+00
  2.748477e+01    9.908388e-01
  2.751653e+01    9.694126e-01
  2.754828e+01    9.432698e-01
  2.758003e+01    9.508129e-01
  2.761178e+01    9.315623e-01
  2.764353e+01    9.266894e-01
  2.767528e+01    9.197133e-01
  2.770703e+01    9.089386e-01
  2.773878e+01    9.159036e-01
  2.777054e+01    9.099316e-01
  2.780229e+01    8.875394e-01
  2.783404e+01    8.872477e-01
  2.786579e+01    9.096941e-01
  2.789754e+01    8.717550e-01
  2.792929e+01    8.897220e-01
  2.796104e+01    8.706381e-01
  2.799279e+01    8.453711e-01
  2.802454e+01    8.644490e-01
  2.805630e+01    8.563374e-01
  2.808805e+01    8.641128e-01
  2.811980e+01    8.402383e-01
  2.815155e+01    8.658925e-01
  2.818330e+01    8.622295e-01
  2.821505e+01    8.557876e-01
  2.824680e+01    8.382118e-01
  2.827855e+01    8.400520e-01
  2.831030e+01    8.751184e-01
  2.834206e+01    8.381401e-01
  2.837381e+01    8.541090e-01
  2.840556e+01    8.426073e-01
  2.843731e+01    8.574708e-01
  2.846906e+01    8.266543e-01
  2.850081e+01    8.259658e-01
  2.853256e+01    8.504554e-01
  2.856431e+01    8.450153e-01
  2.859606e+01    8.253532e-01
  2.862782e+01    8.346567e-01
  2.865957e+01    8.334587e-01
  2.869132e+01    8.152391e-01
  2.872307e+01    8.629188e-01
  2.875482e+01    8.359733e-01
  2.878657e+01    8.413506e-01
  2.881832e+01    8.455740e-01
  2.885007e+01    8.502899e-01
  2.888183e+01    8.189395e-01
  2.891358e+01    8.183724e-01
  2.894533e+01    8.335853e-01
  2.897708e+01    8.157909e-01
  2.900883e+01    8.244656e-01
  2.904058e+01    7.987381e-01
  2.907233e+01    7.948741e-01
  2.910408e+01    8.180293e-01
  2.913583e+01    8.128510e-01
  2.916759e+01    8.243796e-01
  2.919934e+01    8.038481e-01
  2.923109e+01    8.163861e-01
  2.926284e+01    8.252104e-01
  2.929459e+01    8.323346e-01
  2.932634e+01    8.105946e-01
  2.935809e+01    8.012044e-01
  2.938984e+01    7.954999e-01
  2.942159e+01    8.015840e-01
  2.945335e+01    7.973546e-01
  2.948510e+01    8.072393e-01
  2.951685e+01    8.098345e-01
  2.954860e+01    8.196535e-01
  2.958035e+01    7.938303e-01
  2.961210e+01    8.066170e-01
  2.964385e+01    8.011131e-01
  2.967560e+01    7.976217e-01
  2.970736e+01    8.195893e-01
  2.973911e+01    8.050205e-01
  2.977086e+01    8.084919e-01
  2.980261e+01    7.705204e-01
  2.983436e+01    7.798335e-01
  2.986611e+01    8.023361e-01
  2.989786e+01    8.038020e-01
  2.992961e+01    8.171221e-01
  2.996136e+01    8.043249e-01
  2.999312e+01    7.930178e-01
  3.002487e+01    7.892043e-01
  3.005662e+01    7.894641e-01
  3.008837e+01    7.973108e-01
  3.012012e+01    8.052061e-01
  3.015187e+01    7.903479e-01
  3.018362e+01    7.886448e-01
  3.021537e+01    7.849212e-01
  3.024712e+01    7.790323e-01
  3.027888e+01    7.943302e-01
  3.031063e+01    7.988889e-01
  3.034238e+01    7.892614e-01
  3.037413e+01    7.908291e-01
  3.040588e+01    7.918710e-01
  3.043763e+01    7.898201e-01
  3.046938e+01    7.877736e-01
  3.050113e+01    7.749273e-01
  3.053288e+01    7.899789e-01
  3.056464e+01    7.669287e-01
  3.059639e+01    7.881255e-01
  3.062814e+01    7.885329e-01
  3.065989e+01    7.955481e-01
  3.069164e+01    8.025821e-01
  3.072339e+01    7.874479e-01
  3.075514e+01    7.695152e-01
  3.078689e+01    7.751698e-01
  3.081865e+01    7.830570e-01
  3.085040e+01    8.050283e-01
  3.088215e+01    7.932827e-01
  3.091390e+01    7.789774e-01
  3.094565e+01    8.120587e-01
  3.097740e+01    7.903224e-01
  3.100915e+01    7.751927e-01
  3.104090e+01    7.916075e-01
  3.107265e+01    7.774106e-01
  3.110441e+01    7.800111e-01
  3.113616e+01    7.664816e-01
  3.116791e+01    7.974056e-01
  3.119966e+01    7.967913e-01
  3.123141e+01    8.027819e-01
  3.126316e+01    8.229350e-01
  3.129491e+01    8.074320e-01
  3.132666e+01    7.840634e-01
  3.135841e+01    8.011906e-01
  3.139017e+01    8.045232e-01
  3.142192e+01    8.202760e-01
  3.145367e+01    8.365390e-01
  3.148542e+01    8.195087e-01
  3.151717e+01    8.846672e-01
  3.154892e+01    8.423433e-01
  3.158067e+01    8.852247e-01
  3.161242e+01    8.819975e-01
  3.164418e+01    9.350734e-01
  3.167593e+01    9.661576e-01
  3.170768e+01    1.025168e+00
  3.173943e+01    1.118653e+00
  3.177118e+01    1.269524e+00
  3.180293e+01    1.477947e+00
  3.183468e+01    1.746434e+00
  3.186643e+01    1.970939e+00
  3.189818e+01    2.086492e+00
  3.192994e+01    2.029298e+00
  3.196169e+01    1.799057e+00
  3.199344e+01    1.538901e+00
  3.202519e+01    1.285309e+00
  3.205694e+01    1.148919e+00
  3.208869e+01    1.029044e+00
  3.212044e+01    9.682623e-01
  3.215219e+01    9.199653e-01
  3.218394e+01    8.785309e-01
  3.221570e+01    8.494682e-01
  3.224745e+01    8.575719e-01
  3.227920e+01    8.319068e-01
  3.231095e+01    7.837249e-01
  3.234270e+01    7.881233e-01
  3.237445e+01    8.258629e-01
  3.240620e+01    7.900732e-01
  3.243795e+01    7.712593e-01
  3.246970e+01    7.646923e-01
  3.250146e+01    7.811584e-01
  3.253321e+01    7.777998e-01
  3.254908e+01    7.879252e-01