File: XRD/Reaction conditions/2024-07-27_003_Ru-CGO-ex_Reaction_dwell_000023_data_000011.dat
# == pyFAI calibration ==
# Distance Sample to Detector: 0.4 m
# PONI: 9.750e-02, 1.135e-01 m
# Rotations: -0.000175 0.000000 -0.000000 rad
#
# == Fit2d calibration ==
# Distance Sample-beamCenter: 400.000 mm
# Center: x=1514.000, y=1300.000 pix
# Tilt: 0.010 deg  TiltPlanRot: 0.010 deg
#
# Detector Detector	 Spline= None	 PixelSize= 7.500e-05, 7.500e-05 m
#    Detector has a mask: False
#    Detector has a dark current: False
#    detector has a flat field: False
#
# Wavelength: 6.888e-11 m
# Mask applied: user provided
# Dark current applied: False
# Flat field applied: False
# Polarization factor: 0.99
# Normalization factor: 1.0
# --> /home/myspot/data/2024_07_Rosario/Ru-CGO-ex/2024-07-27_003_Ru-CGO-ex_Reaction_dwell_000023_data_000011.dat
#       q_nm^-1             I
  2.003187e-02    0.000000e+00
  5.178302e-02    1.708793e-01
  8.353417e-02    1.396557e-01
  1.152853e-01    6.673942e-02
  1.470365e-01    1.268739e-02
  1.787876e-01    1.935003e-02
  2.105388e-01    4.017726e-02
  2.422899e-01    2.027947e-02
  2.740411e-01    7.281887e-02
  3.057922e-01    4.811478e-02
  3.375433e-01    4.115694e-02
  3.692945e-01    3.650277e-02
  4.010456e-01    6.771681e-02
  4.327968e-01    7.794187e-02
  4.645479e-01    4.052060e-02
  4.962991e-01    2.203618e-02
  5.280502e-01    4.061196e-02
  5.598014e-01    3.841455e-02
  5.915525e-01    5.187604e-02
  6.233037e-01    6.574393e-02
  6.550548e-01    5.636949e-02
  6.868060e-01    6.427637e-02
  7.185571e-01    2.181261e-02
  7.503083e-01    8.860093e-02
  7.820594e-01    9.000228e-02
  8.138106e-01    2.257789e-01
  8.455617e-01    3.476414e-01
  8.773129e-01    4.964031e-01
  9.090640e-01    6.254499e-01
  9.408152e-01    8.317789e-01
  9.725663e-01    1.086110e+00
  1.004317e+00    1.156489e+00
  1.036069e+00    1.469840e+00
  1.067820e+00    1.563361e+00
  1.099571e+00    1.439953e+00
  1.131322e+00    1.620274e+00
  1.163073e+00    1.530646e+00
  1.194824e+00    1.816899e+00
  1.226575e+00    2.174073e+00
  1.258327e+00    2.566407e+00
  1.290078e+00    2.603872e+00
  1.321829e+00    2.591437e+00
  1.353580e+00    2.679946e+00
  1.385331e+00    2.848269e+00
  1.417082e+00    2.925342e+00
  1.448834e+00    2.925359e+00
  1.480585e+00    2.971668e+00
  1.512336e+00    2.990576e+00
  1.544087e+00    3.174450e+00
  1.575838e+00    3.292803e+00
  1.607589e+00    3.092870e+00
  1.639340e+00    3.217932e+00
  1.671092e+00    3.082628e+00
  1.702843e+00    3.060289e+00
  1.734594e+00    3.038851e+00
  1.766345e+00    3.235468e+00
  1.798096e+00    3.062443e+00
  1.829847e+00    3.172724e+00
  1.861598e+00    3.081671e+00
  1.893350e+00    2.975510e+00
  1.925101e+00    3.012089e+00
  1.956852e+00    3.156521e+00
  1.988603e+00    3.049150e+00
  2.020354e+00    3.052739e+00
  2.052105e+00    3.105283e+00
  2.083856e+00    3.045719e+00
  2.115608e+00    2.968032e+00
  2.147359e+00    3.148209e+00
  2.179110e+00    3.033486e+00
  2.210861e+00    3.173983e+00
  2.242612e+00    3.207718e+00
  2.274363e+00    3.057117e+00
  2.306115e+00    3.204101e+00
  2.337866e+00    3.125929e+00
  2.369617e+00    3.164179e+00
  2.401368e+00    3.152583e+00
  2.433119e+00    3.267130e+00
  2.464870e+00    3.158574e+00
  2.496621e+00    3.192691e+00
  2.528373e+00    3.305349e+00
  2.560124e+00    3.087887e+00
  2.591875e+00    3.284873e+00
  2.623626e+00    3.401603e+00
  2.655377e+00    3.191170e+00
  2.687128e+00    3.188139e+00
  2.718879e+00    3.206483e+00
  2.750631e+00    3.344995e+00
  2.782382e+00    3.389780e+00
  2.814133e+00    3.225341e+00
  2.845884e+00    3.387073e+00
  2.877635e+00    3.320076e+00
  2.909386e+00    3.337361e+00
  2.941137e+00    3.435848e+00
  2.972889e+00    3.405428e+00
  3.004640e+00    3.352576e+00
  3.036391e+00    3.410960e+00
  3.068142e+00    3.326962e+00
  3.099893e+00    3.200264e+00
  3.131644e+00    3.334672e+00
  3.163395e+00    3.430227e+00
  3.195147e+00    3.460901e+00
  3.226898e+00    3.449368e+00
  3.258649e+00    3.419152e+00
  3.290400e+00    3.360361e+00
  3.322151e+00    3.414947e+00
  3.353902e+00    3.533668e+00
  3.385654e+00    3.429453e+00
  3.417405e+00    3.479532e+00
  3.449156e+00    3.488674e+00
  3.480907e+00    3.506461e+00
  3.512658e+00    3.453223e+00
  3.544409e+00    3.462222e+00
  3.576160e+00    3.370524e+00
  3.607912e+00    3.445895e+00
  3.639663e+00    3.518317e+00
  3.671414e+00    3.473395e+00
  3.703165e+00    3.470357e+00
  3.734916e+00    3.494125e+00
  3.766667e+00    3.525681e+00
  3.798418e+00    3.598060e+00
  3.830170e+00    3.534214e+00
  3.861921e+00    3.503258e+00
  3.893672e+00    3.511966e+00
  3.925423e+00    3.469294e+00
  3.957174e+00    3.585562e+00
  3.988925e+00    3.574189e+00
  4.020676e+00    3.546134e+00
  4.052428e+00    3.455293e+00
  4.084179e+00    3.454185e+00
  4.115930e+00    3.575111e+00
  4.147681e+00    3.559354e+00
  4.179432e+00    3.587104e+00
  4.211183e+00    3.520269e+00
  4.242935e+00    3.633646e+00
  4.274686e+00    3.517936e+00
  4.306437e+00    3.539086e+00
  4.338188e+00    3.530092e+00
  4.369939e+00    3.652451e+00
  4.401690e+00    3.561757e+00
  4.433441e+00    3.548314e+00
  4.465193e+00    3.581915e+00
  4.496944e+00    3.694378e+00
  4.528695e+00    3.596427e+00
  4.560446e+00    3.589155e+00
  4.592197e+00    3.685720e+00
  4.623948e+00    3.649720e+00
  4.655699e+00    3.635774e+00
  4.687451e+00    3.647724e+00
  4.719202e+00    3.623558e+00
  4.750953e+00    3.634272e+00
  4.782704e+00    3.681905e+00
  4.814455e+00    3.734320e+00
  4.846206e+00    3.695392e+00
  4.877957e+00    3.655292e+00
  4.909709e+00    3.686813e+00
  4.941460e+00    3.651401e+00
  4.973211e+00    3.672299e+00
  5.004962e+00    3.694024e+00
  5.036713e+00    3.710791e+00
  5.068464e+00    3.661152e+00
  5.100216e+00    3.648069e+00
  5.131967e+00    3.706356e+00
  5.163718e+00    3.682939e+00
  5.195469e+00    3.787384e+00
  5.227220e+00    3.579745e+00
  5.258971e+00    3.644643e+00
  5.290722e+00    3.673781e+00
  5.322474e+00    3.586471e+00
  5.354225e+00    3.669529e+00
  5.385976e+00    3.723137e+00
  5.417727e+00    3.652479e+00
  5.449478e+00    3.612637e+00
  5.481229e+00    3.706984e+00
  5.512980e+00    3.628343e+00
  5.544732e+00    3.672681e+00
  5.576483e+00    3.566132e+00
  5.608234e+00    3.682616e+00
  5.639985e+00    3.591816e+00
  5.671736e+00    3.641369e+00
  5.703487e+00    3.635074e+00
  5.735238e+00    3.555411e+00
  5.766990e+00    3.552639e+00
  5.798741e+00    3.609398e+00
  5.830492e+00    3.574118e+00
  5.862243e+00    3.566025e+00
  5.893994e+00    3.568270e+00
  5.925745e+00    3.574006e+00
  5.957497e+00    3.567502e+00
  5.989248e+00    3.632745e+00
  6.020999e+00    3.543954e+00
  6.052750e+00    3.592337e+00
  6.084501e+00    3.622457e+00
  6.116252e+00    3.649351e+00
  6.148003e+00    3.615494e+00
  6.179755e+00    3.704210e+00
  6.211506e+00    3.601821e+00
  6.243257e+00    3.604254e+00
  6.275008e+00    3.560617e+00
  6.306759e+00    3.605439e+00
  6.338510e+00    3.602313e+00
  6.370261e+00    3.580229e+00
  6.402013e+00    3.507703e+00
  6.433764e+00    3.530443e+00
  6.465515e+00    3.610065e+00
  6.497266e+00    3.616925e+00
  6.529017e+00    3.616665e+00
  6.560768e+00    3.549460e+00
  6.592519e+00    3.511745e+00
  6.624271e+00    3.547831e+00
  6.656022e+00    3.585408e+00
  6.687773e+00    3.600258e+00
  6.719524e+00    3.611424e+00
  6.751275e+00    3.613918e+00
  6.783026e+00    3.512348e+00
  6.814777e+00    3.521451e+00
  6.846529e+00    3.547092e+00
  6.878280e+00    3.587614e+00
  6.910031e+00    3.457443e+00
  6.941782e+00    3.509846e+00
  6.973533e+00    3.589053e+00
  7.005284e+00    3.548673e+00
  7.037036e+00    3.563243e+00
  7.068787e+00    3.543404e+00
  7.100538e+00    3.606023e+00
  7.132289e+00    3.615487e+00
  7.164040e+00    3.572505e+00
  7.195791e+00    3.557694e+00
  7.227542e+00    3.557363e+00
  7.259294e+00    3.555673e+00
  7.291045e+00    3.523276e+00
  7.322796e+00    3.538518e+00
  7.354547e+00    3.538037e+00
  7.386298e+00    3.514063e+00
  7.418049e+00    3.505954e+00
  7.449800e+00    3.565090e+00
  7.481552e+00    3.532555e+00
  7.513303e+00    3.545820e+00
  7.545054e+00    3.501248e+00
  7.576805e+00    3.507846e+00
  7.608556e+00    3.455685e+00
  7.640307e+00    3.500798e+00
  7.672058e+00    3.519217e+00
  7.703810e+00    3.511147e+00
  7.735561e+00    3.503530e+00
  7.767312e+00    3.526317e+00
  7.799063e+00    3.384629e+00
  7.830814e+00    3.420196e+00
  7.862565e+00    3.452384e+00
  7.894317e+00    3.436503e+00
  7.926068e+00    3.460584e+00
  7.957819e+00    3.472090e+00
  7.989570e+00    3.400368e+00
  8.021321e+00    3.425649e+00
  8.053072e+00    3.424497e+00
  8.084823e+00    3.492583e+00
  8.116575e+00    3.395820e+00
  8.148326e+00    3.455008e+00
  8.180077e+00    3.447861e+00
  8.211828e+00    3.490483e+00
  8.243579e+00    3.447165e+00
  8.275330e+00    3.423838e+00
  8.307081e+00    3.409920e+00
  8.338833e+00    3.399632e+00
  8.370584e+00    3.443081e+00
  8.402335e+00    3.459339e+00
  8.434086e+00    3.402149e+00
  8.465837e+00    3.316890e+00
  8.497588e+00    3.400345e+00
  8.529339e+00    3.329817e+00
  8.561091e+00    3.426320e+00
  8.592842e+00    3.363464e+00
  8.624593e+00    3.401661e+00
  8.656344e+00    3.368954e+00
  8.688095e+00    3.350226e+00
  8.719846e+00    3.348524e+00
  8.751598e+00    3.381585e+00
  8.783349e+00    3.344597e+00
  8.815100e+00    3.378180e+00
  8.846851e+00    3.334342e+00
  8.878602e+00    3.335666e+00
  8.910353e+00    3.293292e+00
  8.942104e+00    3.297889e+00
  8.973856e+00    3.353228e+00
  9.005607e+00    3.237281e+00
  9.037358e+00    3.299210e+00
  9.069109e+00    3.263485e+00
  9.100860e+00    3.257738e+00
  9.132611e+00    3.246120e+00
  9.164362e+00    3.263028e+00
  9.196114e+00    3.290800e+00
  9.227865e+00    3.265355e+00
  9.259616e+00    3.249354e+00
  9.291367e+00    3.226104e+00
  9.323118e+00    3.285935e+00
  9.354869e+00    3.269637e+00
  9.386620e+00    3.190133e+00
  9.418372e+00    3.215053e+00
  9.450123e+00    3.212447e+00
  9.481874e+00    3.182003e+00
  9.513625e+00    3.262487e+00
  9.545376e+00    3.221883e+00
  9.577127e+00    3.244137e+00
  9.608878e+00    3.285785e+00
  9.640630e+00    3.202393e+00
  9.672381e+00    3.201470e+00
  9.704132e+00    3.150191e+00
  9.735883e+00    3.219301e+00
  9.767634e+00    3.162264e+00
  9.799385e+00    3.204748e+00
  9.831137e+00    3.179069e+00
  9.862888e+00    3.129227e+00
  9.894639e+00    3.197994e+00
  9.926390e+00    3.148766e+00
  9.958141e+00    3.097226e+00
  9.989892e+00    3.118809e+00
  1.002164e+01    3.105367e+00
  1.005339e+01    3.143166e+00
  1.008515e+01    3.138494e+00
  1.011690e+01    3.098472e+00
  1.014865e+01    3.095701e+00
  1.018040e+01    3.048711e+00
  1.021215e+01    3.042603e+00
  1.024390e+01    3.094887e+00
  1.027565e+01    3.062975e+00
  1.030740e+01    3.030639e+00
  1.033915e+01    3.037610e+00
  1.037091e+01    3.046531e+00
  1.040266e+01    3.083573e+00
  1.043441e+01    3.050241e+00
  1.046616e+01    2.999184e+00
  1.049791e+01    2.977371e+00
  1.052966e+01    2.979160e+00
  1.056141e+01    3.047344e+00
  1.059316e+01    3.006570e+00
  1.062492e+01    3.008512e+00
  1.065667e+01    2.973093e+00
  1.068842e+01    2.978898e+00
  1.072017e+01    2.943383e+00
  1.075192e+01    2.971192e+00
  1.078367e+01    2.952526e+00
  1.081542e+01    2.950414e+00
  1.084717e+01    2.963425e+00
  1.087892e+01    2.926673e+00
  1.091068e+01    2.943088e+00
  1.094243e+01    2.960877e+00
  1.097418e+01    2.967243e+00
  1.100593e+01    2.900271e+00
  1.103768e+01    2.923893e+00
  1.106943e+01    2.940602e+00
  1.110118e+01    2.839120e+00
  1.113293e+01    2.868538e+00
  1.116468e+01    2.893629e+00
  1.119644e+01    2.854640e+00
  1.122819e+01    2.885576e+00
  1.125994e+01    2.879807e+00
  1.129169e+01    2.867321e+00
  1.132344e+01    2.818444e+00
  1.135519e+01    2.869492e+00
  1.138694e+01    2.872149e+00
  1.141869e+01    2.884872e+00
  1.145045e+01    2.801609e+00
  1.148220e+01    2.833983e+00
  1.151395e+01    2.802083e+00
  1.154570e+01    2.825458e+00
  1.157745e+01    2.789693e+00
  1.160920e+01    2.817938e+00
  1.164095e+01    2.752516e+00
  1.167270e+01    2.749428e+00
  1.170445e+01    2.780302e+00
  1.173621e+01    2.763977e+00
  1.176796e+01    2.802377e+00
  1.179971e+01    2.733735e+00
  1.183146e+01    2.765325e+00
  1.186321e+01    2.736767e+00
  1.189496e+01    2.746932e+00
  1.192671e+01    2.793486e+00
  1.195846e+01    2.735528e+00
  1.199021e+01    2.767449e+00
  1.202197e+01    2.630742e+00
  1.205372e+01    2.702257e+00
  1.208547e+01    2.744583e+00
  1.211722e+01    2.746340e+00
  1.214897e+01    2.716725e+00
  1.218072e+01    2.691996e+00
  1.221247e+01    2.724538e+00
  1.224422e+01    2.707996e+00
  1.227597e+01    2.723549e+00
  1.230773e+01    2.718161e+00
  1.233948e+01    2.684837e+00
  1.237123e+01    2.708755e+00
  1.240298e+01    2.688710e+00
  1.243473e+01    2.685052e+00
  1.246648e+01    2.638977e+00
  1.249823e+01    2.765815e+00
  1.252998e+01    2.759584e+00
  1.256174e+01    2.756039e+00
  1.259349e+01    2.702154e+00
  1.262524e+01    2.729870e+00
  1.265699e+01    2.740487e+00
  1.268874e+01    2.837228e+00
  1.272049e+01    2.852982e+00
  1.275224e+01    2.930999e+00
  1.278399e+01    2.992126e+00
  1.281574e+01    3.044802e+00
  1.284750e+01    3.186774e+00
  1.287925e+01    3.395582e+00
  1.291100e+01    3.658732e+00
  1.294275e+01    4.106893e+00
  1.297450e+01    4.761866e+00
  1.300625e+01    5.816098e+00
  1.303800e+01    7.626070e+00
  1.306975e+01    1.008667e+01
  1.310150e+01    1.265867e+01
  1.313326e+01    1.472098e+01
  1.316501e+01    1.627834e+01
  1.319676e+01    1.563229e+01
  1.322851e+01    1.262295e+01
  1.326026e+01    9.161290e+00
  1.329201e+01    6.713280e+00
  1.332376e+01    5.318612e+00
  1.335551e+01    4.471330e+00
  1.338727e+01    3.852864e+00
  1.341902e+01    3.523299e+00
  1.345077e+01    3.247197e+00
  1.348252e+01    3.041482e+00
  1.351427e+01    2.892977e+00
  1.354602e+01    2.846389e+00
  1.357777e+01    2.742661e+00
  1.360952e+01    2.699966e+00
  1.364127e+01    2.622826e+00
  1.367303e+01    2.604903e+00
  1.370478e+01    2.568708e+00
  1.373653e+01    2.520453e+00
  1.376828e+01    2.495289e+00
  1.380003e+01    2.494422e+00
  1.383178e+01    2.452420e+00
  1.386353e+01    2.458205e+00
  1.389528e+01    2.450619e+00
  1.392703e+01    2.400463e+00
  1.395879e+01    2.385498e+00
  1.399054e+01    2.389789e+00
  1.402229e+01    2.379536e+00
  1.405404e+01    2.365153e+00
  1.408579e+01    2.321868e+00
  1.411754e+01    2.350032e+00
  1.414929e+01    2.309710e+00
  1.418104e+01    2.320191e+00
  1.421279e+01    2.275226e+00
  1.424455e+01    2.295763e+00
  1.427630e+01    2.318303e+00
  1.430805e+01    2.278239e+00
  1.433980e+01    2.303195e+00
  1.437155e+01    2.281347e+00
  1.440330e+01    2.266508e+00
  1.443505e+01    2.234709e+00
  1.446680e+01    2.307747e+00
  1.449856e+01    2.283203e+00
  1.453031e+01    2.275280e+00
  1.456206e+01    2.211359e+00
  1.459381e+01    2.279801e+00
  1.462556e+01    2.206349e+00
  1.465731e+01    2.216359e+00
  1.468906e+01    2.237336e+00
  1.472081e+01    2.186065e+00
  1.475256e+01    2.211846e+00
  1.478432e+01    2.162765e+00
  1.481607e+01    2.188397e+00
  1.484782e+01    2.196296e+00
  1.487957e+01    2.213193e+00
  1.491132e+01    2.285965e+00
  1.494307e+01    2.281657e+00
  1.497482e+01    2.359142e+00
  1.500657e+01    2.414802e+00
  1.503832e+01    2.622878e+00
  1.507008e+01    2.843347e+00
  1.510183e+01    3.154133e+00
  1.513358e+01    3.799312e+00
  1.516533e+01    4.472529e+00
  1.519708e+01    5.147803e+00
  1.522883e+01    5.657401e+00
  1.526058e+01    5.770752e+00
  1.529233e+01    5.452814e+00
  1.532409e+01    4.718028e+00
  1.535584e+01    3.815634e+00
  1.538759e+01    3.174385e+00
  1.541934e+01    2.765313e+00
  1.545109e+01    2.548055e+00
  1.548284e+01    2.389506e+00
  1.551459e+01    2.285967e+00
  1.554634e+01    2.199703e+00
  1.557809e+01    2.098970e+00
  1.560985e+01    2.095688e+00
  1.564160e+01    2.069643e+00
  1.567335e+01    1.987603e+00
  1.570510e+01    1.993914e+00
  1.573685e+01    2.000997e+00
  1.576860e+01    1.936447e+00
  1.580035e+01    1.967231e+00
  1.583210e+01    1.887236e+00
  1.586385e+01    1.925520e+00
  1.589561e+01    1.903742e+00
  1.592736e+01    1.876956e+00
  1.595911e+01    1.904368e+00
  1.599086e+01    1.863837e+00
  1.602261e+01    1.856798e+00
  1.605436e+01    1.880907e+00
  1.608611e+01    1.835369e+00
  1.611786e+01    1.834926e+00
  1.614961e+01    1.870815e+00
  1.618137e+01    1.868313e+00
  1.621312e+01    1.869346e+00
  1.624487e+01    1.811910e+00
  1.627662e+01    1.836236e+00
  1.630837e+01    1.818952e+00
  1.634012e+01    1.807640e+00
  1.637187e+01    1.790210e+00
  1.640362e+01    1.761411e+00
  1.643538e+01    1.782387e+00
  1.646713e+01    1.779095e+00
  1.649888e+01    1.790420e+00
  1.653063e+01    1.778585e+00
  1.656238e+01    1.733776e+00
  1.659413e+01    1.722330e+00
  1.662588e+01    1.733233e+00
  1.665763e+01    1.752093e+00
  1.668938e+01    1.739533e+00
  1.672114e+01    1.696677e+00
  1.675289e+01    1.724180e+00
  1.678464e+01    1.717508e+00
  1.681639e+01    1.753206e+00
  1.684814e+01    1.697524e+00
  1.687989e+01    1.721309e+00
  1.691164e+01    1.725224e+00
  1.694339e+01    1.709971e+00
  1.697514e+01    1.682629e+00
  1.700690e+01    1.684156e+00
  1.703865e+01    1.678601e+00
  1.707040e+01    1.669753e+00
  1.710215e+01    1.675252e+00
  1.713390e+01    1.640290e+00
  1.716565e+01    1.653468e+00
  1.719740e+01    1.623679e+00
  1.722915e+01    1.649100e+00
  1.726091e+01    1.616875e+00
  1.729266e+01    1.616879e+00
  1.732441e+01    1.672100e+00
  1.735616e+01    1.610053e+00
  1.738791e+01    1.584555e+00
  1.741966e+01    1.595330e+00
  1.745141e+01    1.615804e+00
  1.748316e+01    1.614351e+00
  1.751491e+01    1.570835e+00
  1.754667e+01    1.543658e+00
  1.757842e+01    1.567349e+00
  1.761017e+01    1.569245e+00
  1.764192e+01    1.567233e+00
  1.767367e+01    1.588180e+00
  1.770542e+01    1.564405e+00
  1.773717e+01    1.556316e+00
  1.776892e+01    1.505012e+00
  1.780067e+01    1.564318e+00
  1.783243e+01    1.523691e+00
  1.786418e+01    1.555826e+00
  1.789593e+01    1.545039e+00
  1.792768e+01    1.504768e+00
  1.795943e+01    1.509592e+00
  1.799118e+01    1.534702e+00
  1.802293e+01    1.539333e+00
  1.805468e+01    1.512058e+00
  1.808643e+01    1.538606e+00
  1.811819e+01    1.484872e+00
  1.814994e+01    1.493404e+00
  1.818169e+01    1.483394e+00
  1.821344e+01    1.469781e+00
  1.824519e+01    1.481833e+00
  1.827694e+01    1.488486e+00
  1.830869e+01    1.466430e+00
  1.834044e+01    1.462255e+00
  1.837220e+01    1.474628e+00
  1.840395e+01    1.442607e+00
  1.843570e+01    1.493418e+00
  1.846745e+01    1.468046e+00
  1.849920e+01    1.458606e+00
  1.853095e+01    1.441472e+00
  1.856270e+01    1.444659e+00
  1.859445e+01    1.424442e+00
  1.862620e+01    1.440260e+00
  1.865796e+01    1.434658e+00
  1.868971e+01    1.437314e+00
  1.872146e+01    1.421925e+00
  1.875321e+01    1.429135e+00
  1.878496e+01    1.410441e+00
  1.881671e+01    1.416473e+00
  1.884846e+01    1.401685e+00
  1.888021e+01    1.408900e+00
  1.891196e+01    1.396133e+00
  1.894372e+01    1.361573e+00
  1.897547e+01    1.394987e+00
  1.900722e+01    1.391793e+00
  1.903897e+01    1.392501e+00
  1.907072e+01    1.347340e+00
  1.910247e+01    1.381876e+00
  1.913422e+01    1.390115e+00
  1.916597e+01    1.402243e+00
  1.919773e+01    1.387033e+00
  1.922948e+01    1.354717e+00
  1.926123e+01    1.359296e+00
  1.929298e+01    1.375082e+00
  1.932473e+01    1.381759e+00
  1.935648e+01    1.360735e+00
  1.938823e+01    1.338868e+00
  1.941998e+01    1.336227e+00
  1.945173e+01    1.327114e+00
  1.948349e+01    1.348653e+00
  1.951524e+01    1.333730e+00
  1.954699e+01    1.351503e+00
  1.957874e+01    1.371758e+00
  1.961049e+01    1.329817e+00
  1.964224e+01    1.326110e+00
  1.967399e+01    1.330124e+00
  1.970574e+01    1.306797e+00
  1.973749e+01    1.296068e+00
  1.976925e+01    1.284227e+00
  1.980100e+01    1.297542e+00
  1.983275e+01    1.294537e+00
  1.986450e+01    1.319457e+00
  1.989625e+01    1.321160e+00
  1.992800e+01    1.286935e+00
  1.995975e+01    1.308282e+00
  1.999150e+01    1.316384e+00
  2.002325e+01    1.276996e+00
  2.005501e+01    1.278939e+00
  2.008676e+01    1.282554e+00
  2.011851e+01    1.298058e+00
  2.015026e+01    1.287878e+00
  2.018201e+01    1.270841e+00
  2.021376e+01    1.245360e+00
  2.024551e+01    1.243045e+00
  2.027726e+01    1.236729e+00
  2.030902e+01    1.272300e+00
  2.034077e+01    1.253044e+00
  2.037252e+01    1.272278e+00
  2.040427e+01    1.250315e+00
  2.043602e+01    1.236399e+00
  2.046777e+01    1.244887e+00
  2.049952e+01    1.236997e+00
  2.053127e+01    1.249129e+00
  2.056302e+01    1.265044e+00
  2.059478e+01    1.259608e+00
  2.062653e+01    1.239221e+00
  2.065828e+01    1.262522e+00
  2.069003e+01    1.230441e+00
  2.072178e+01    1.232011e+00
  2.075353e+01    1.219644e+00
  2.078528e+01    1.224485e+00
  2.081703e+01    1.251582e+00
  2.084878e+01    1.225495e+00
  2.088054e+01    1.223685e+00
  2.091229e+01    1.229218e+00
  2.094404e+01    1.236204e+00
  2.097579e+01    1.228581e+00
  2.100754e+01    1.225859e+00
  2.103929e+01    1.247536e+00
  2.107104e+01    1.253656e+00
  2.110279e+01    1.242462e+00
  2.113455e+01    1.232454e+00
  2.116630e+01    1.213067e+00
  2.119805e+01    1.250087e+00
  2.122980e+01    1.236502e+00
  2.126155e+01    1.236932e+00
  2.129330e+01    1.298888e+00
  2.132505e+01    1.276537e+00
  2.135680e+01    1.288253e+00
  2.138855e+01    1.329088e+00
  2.142031e+01    1.344624e+00
  2.145206e+01    1.381540e+00
  2.148381e+01    1.417523e+00
  2.151556e+01    1.474973e+00
  2.154731e+01    1.543014e+00
  2.157906e+01    1.606922e+00
  2.161081e+01    1.782840e+00
  2.164256e+01    1.994370e+00
  2.167431e+01    2.288800e+00
  2.170607e+01    2.741091e+00
  2.173782e+01    3.504841e+00
  2.176957e+01    4.573980e+00
  2.180132e+01    5.834476e+00
  2.183307e+01    7.135181e+00
  2.186482e+01    8.315234e+00
  2.189657e+01    8.913623e+00
  2.192832e+01    8.295404e+00
  2.196007e+01    6.564862e+00
  2.199183e+01    4.883093e+00
  2.202358e+01    3.614774e+00
  2.205533e+01    2.817524e+00
  2.208708e+01    2.342570e+00
  2.211883e+01    1.984192e+00
  2.215058e+01    1.760060e+00
  2.218233e+01    1.601405e+00
  2.221408e+01    1.509629e+00
  2.224584e+01    1.441845e+00
  2.227759e+01    1.356039e+00
  2.230934e+01    1.324509e+00
  2.234109e+01    1.255138e+00
  2.237284e+01    1.222233e+00
  2.240459e+01    1.211163e+00
  2.243634e+01    1.155888e+00
  2.246809e+01    1.154330e+00
  2.249984e+01    1.139880e+00
  2.253160e+01    1.151860e+00
  2.256335e+01    1.144529e+00
  2.259510e+01    1.105750e+00
  2.262685e+01    1.111515e+00
  2.265860e+01    1.099409e+00
  2.269035e+01    1.096532e+00
  2.272210e+01    1.067696e+00
  2.275385e+01    1.072096e+00
  2.278560e+01    1.066736e+00
  2.281736e+01    1.055933e+00
  2.284911e+01    1.040737e+00
  2.288086e+01    1.033474e+00
  2.291261e+01    1.016537e+00
  2.294436e+01    1.027820e+00
  2.297611e+01    1.040686e+00
  2.300786e+01    1.027850e+00
  2.303961e+01    1.037086e+00
  2.307137e+01    9.986016e-01
  2.310312e+01    1.020499e+00
  2.313487e+01    1.006037e+00
  2.316662e+01    9.958039e-01
  2.319837e+01    9.966890e-01
  2.323012e+01    9.889453e-01
  2.326187e+01    1.010076e+00
  2.329362e+01    9.704456e-01
  2.332537e+01    9.915945e-01
  2.335713e+01    9.680079e-01
  2.338888e+01    9.914604e-01
  2.342063e+01    9.921387e-01
  2.345238e+01    9.815094e-01
  2.348413e+01    9.736404e-01
  2.351588e+01    9.754604e-01
  2.354763e+01    9.586166e-01
  2.357938e+01    9.354149e-01
  2.361113e+01    9.724079e-01
  2.364289e+01    9.509120e-01
  2.367464e+01    9.526436e-01
  2.370639e+01    9.593417e-01
  2.373814e+01    9.206575e-01
  2.376989e+01    9.450052e-01
  2.380164e+01    9.230769e-01
  2.383339e+01    9.271129e-01
  2.386514e+01    9.014321e-01
  2.389689e+01    9.094369e-01
  2.392865e+01    8.934174e-01
  2.396040e+01    9.272497e-01
  2.399215e+01    8.643870e-01
  2.402390e+01    9.045309e-01
  2.405565e+01    8.984665e-01
  2.408740e+01    8.927501e-01
  2.411915e+01    8.936840e-01
  2.415090e+01    8.752884e-01
  2.418266e+01    8.781849e-01
  2.421441e+01    8.905337e-01
  2.424616e+01    8.989922e-01
  2.427791e+01    8.947883e-01
  2.430966e+01    8.880849e-01
  2.434141e+01    9.174991e-01
  2.437316e+01    8.887718e-01
  2.440491e+01    9.127237e-01
  2.443666e+01    8.901113e-01
  2.446842e+01    8.895231e-01
  2.450017e+01    9.173551e-01
  2.453192e+01    9.055161e-01
  2.456367e+01    8.996794e-01
  2.459542e+01    9.058025e-01
  2.462717e+01    8.809646e-01
  2.465892e+01    8.919969e-01
  2.469067e+01    8.890599e-01
  2.472242e+01    9.065824e-01
  2.475418e+01    9.003233e-01
  2.478593e+01    8.909236e-01
  2.481768e+01    8.982049e-01
  2.484943e+01    8.743577e-01
  2.488118e+01    9.036056e-01
  2.491293e+01    8.942670e-01
  2.494468e+01    8.927971e-01
  2.497643e+01    8.974896e-01
  2.500819e+01    8.970289e-01
  2.503994e+01    9.055388e-01
  2.507169e+01    9.072865e-01
  2.510344e+01    9.087177e-01
  2.513519e+01    8.921633e-01
  2.516694e+01    9.285538e-01
  2.519869e+01    9.253114e-01
  2.523044e+01    9.369627e-01
  2.526219e+01    9.692445e-01
  2.529395e+01    9.597860e-01
  2.532570e+01    9.775332e-01
  2.535745e+01    9.857957e-01
  2.538920e+01    9.820654e-01
  2.542095e+01    1.006534e+00
  2.545270e+01    1.031616e+00
  2.548445e+01    1.073779e+00
  2.551620e+01    1.087776e+00
  2.554795e+01    1.118398e+00
  2.557971e+01    1.136718e+00
  2.561146e+01    1.217264e+00
  2.564321e+01    1.315812e+00
  2.567496e+01    1.414316e+00
  2.570671e+01    1.582478e+00
  2.573846e+01    1.835726e+00
  2.577021e+01    2.180086e+00
  2.580196e+01    2.785628e+00
  2.583371e+01    3.602367e+00
  2.586547e+01    4.626012e+00
  2.589722e+01    5.755136e+00
  2.592897e+01    6.676627e+00
  2.596072e+01    7.095023e+00
  2.599247e+01    6.501785e+00
  2.602422e+01    5.378623e+00
  2.605597e+01    3.991757e+00
  2.608772e+01    2.996796e+00
  2.611948e+01    2.381203e+00
  2.615123e+01    1.950274e+00
  2.618298e+01    1.687116e+00
  2.621473e+01    1.489264e+00
  2.624648e+01    1.355179e+00
  2.627823e+01    1.234214e+00
  2.630998e+01    1.187769e+00
  2.634173e+01    1.141522e+00
  2.637348e+01    1.103877e+00
  2.640524e+01    1.058898e+00
  2.643699e+01    1.036099e+00
  2.646874e+01    1.026066e+00
  2.650049e+01    1.010735e+00
  2.653224e+01    9.917067e-01
  2.656399e+01    9.899396e-01
  2.659574e+01    9.847689e-01
  2.662749e+01    1.001246e+00
  2.665924e+01    9.948614e-01
  2.669100e+01    9.686897e-01
  2.672275e+01    9.888038e-01
  2.675450e+01    9.890770e-01
  2.678625e+01    9.678905e-01
  2.681800e+01    9.913019e-01
  2.684975e+01    9.721030e-01
  2.688150e+01    9.909518e-01
  2.691325e+01    1.008234e+00
  2.694501e+01    1.044053e+00
  2.697676e+01    1.065052e+00
  2.700851e+01    1.119847e+00
  2.704026e+01    1.170493e+00
  2.707201e+01    1.295147e+00
  2.710376e+01    1.480510e+00
  2.713551e+01    1.707822e+00
  2.716726e+01    1.956056e+00
  2.719901e+01    2.123293e+00
  2.723077e+01    2.126165e+00
  2.726252e+01    1.975059e+00
  2.729427e+01    1.694071e+00
  2.732602e+01    1.460758e+00
  2.735777e+01    1.320765e+00
  2.738952e+01    1.185926e+00
  2.742127e+01    1.097574e+00
  2.745302e+01    1.029885e+00
  2.748477e+01    1.005480e+00
  2.751653e+01    9.745960e-01
  2.754828e+01    9.513430e-01
  2.758003e+01    9.476140e-01
  2.761178e+01    9.302936e-01
  2.764353e+01    9.237785e-01
  2.767528e+01    9.094840e-01
  2.770703e+01    9.100127e-01
  2.773878e+01    9.047850e-01
  2.777054e+01    9.053776e-01
  2.780229e+01    8.760370e-01
  2.783404e+01    9.019608e-01
  2.786579e+01    8.672097e-01
  2.789754e+01    8.925943e-01
  2.792929e+01    9.037780e-01
  2.796104e+01    8.841314e-01
  2.799279e+01    8.937726e-01
  2.802454e+01    8.795913e-01
  2.805630e+01    8.376639e-01
  2.808805e+01    8.536360e-01
  2.811980e+01    8.519650e-01
  2.815155e+01    8.671275e-01
  2.818330e+01    8.491131e-01
  2.821505e+01    8.663084e-01
  2.824680e+01    8.466769e-01
  2.827855e+01    8.533424e-01
  2.831030e+01    8.479530e-01
  2.834206e+01    8.453571e-01
  2.837381e+01    8.369602e-01
  2.840556e+01    8.321922e-01
  2.843731e+01    8.345250e-01
  2.846906e+01    8.478132e-01
  2.850081e+01    8.377899e-01
  2.853256e+01    8.071709e-01
  2.856431e+01    8.222191e-01
  2.859606e+01    8.450700e-01
  2.862782e+01    8.342973e-01
  2.865957e+01    8.343745e-01
  2.869132e+01    8.116066e-01
  2.872307e+01    8.392987e-01
  2.875482e+01    8.331782e-01
  2.878657e+01    8.195038e-01
  2.881832e+01    8.382012e-01
  2.885007e+01    8.339065e-01
  2.888183e+01    8.294814e-01
  2.891358e+01    8.332305e-01
  2.894533e+01    7.873926e-01
  2.897708e+01    8.217350e-01
  2.900883e+01    8.045020e-01
  2.904058e+01    8.220521e-01
  2.907233e+01    8.102884e-01
  2.910408e+01    7.942559e-01
  2.913583e+01    7.971685e-01
  2.916759e+01    8.053459e-01
  2.919934e+01    8.066071e-01
  2.923109e+01    8.121793e-01
  2.926284e+01    8.162798e-01
  2.929459e+01    8.047248e-01
  2.932634e+01    8.150392e-01
  2.935809e+01    8.260081e-01
  2.938984e+01    7.903011e-01
  2.942159e+01    8.330618e-01
  2.945335e+01    8.182299e-01
  2.948510e+01    8.178647e-01
  2.951685e+01    8.035666e-01
  2.954860e+01    8.081343e-01
  2.958035e+01    8.040248e-01
  2.961210e+01    8.017144e-01
  2.964385e+01    7.947378e-01
  2.967560e+01    8.311529e-01
  2.970736e+01    8.057646e-01
  2.973911e+01    7.991410e-01
  2.977086e+01    7.990375e-01
  2.980261e+01    8.089164e-01
  2.983436e+01    8.094900e-01
  2.986611e+01    7.929105e-01
  2.989786e+01    8.101004e-01
  2.992961e+01    7.945447e-01
  2.996136e+01    8.077312e-01
  2.999312e+01    8.049855e-01
  3.002487e+01    8.263313e-01
  3.005662e+01    8.229020e-01
  3.008837e+01    8.235114e-01
  3.012012e+01    7.928023e-01
  3.015187e+01    7.746027e-01
  3.018362e+01    7.857513e-01
  3.021537e+01    8.031636e-01
  3.024712e+01    7.905700e-01
  3.027888e+01    7.941431e-01
  3.031063e+01    7.640008e-01
  3.034238e+01    7.879040e-01
  3.037413e+01    7.743437e-01
  3.040588e+01    7.756059e-01
  3.043763e+01    7.799932e-01
  3.046938e+01    7.940577e-01
  3.050113e+01    7.677212e-01
  3.053288e+01    7.914545e-01
  3.056464e+01    7.893972e-01
  3.059639e+01    7.947144e-01
  3.062814e+01    7.951522e-01
  3.065989e+01    7.777912e-01
  3.069164e+01    8.026075e-01
  3.072339e+01    7.901528e-01
  3.075514e+01    7.602608e-01
  3.078689e+01    7.865677e-01
  3.081865e+01    7.820223e-01
  3.085040e+01    7.783383e-01
  3.088215e+01    7.747869e-01
  3.091390e+01    7.896630e-01
  3.094565e+01    7.968059e-01
  3.097740e+01    8.053883e-01
  3.100915e+01    7.998344e-01
  3.104090e+01    7.887661e-01
  3.107265e+01    7.856878e-01
  3.110441e+01    7.902476e-01
  3.113616e+01    7.823786e-01
  3.116791e+01    7.729666e-01
  3.119966e+01    8.005949e-01
  3.123141e+01    7.868306e-01
  3.126316e+01    7.994495e-01
  3.129491e+01    8.049381e-01
  3.132666e+01    7.995906e-01
  3.135841e+01    8.204793e-01
  3.139017e+01    7.985798e-01
  3.142192e+01    8.084903e-01
  3.145367e+01    8.102517e-01
  3.148542e+01    8.349364e-01
  3.151717e+01    8.333614e-01
  3.154892e+01    8.338978e-01
  3.158067e+01    8.846546e-01
  3.161242e+01    8.891143e-01
  3.164418e+01    9.190573e-01
  3.167593e+01    9.590870e-01
  3.170768e+01    1.013451e+00
  3.173943e+01    1.107576e+00
  3.177118e+01    1.251442e+00
  3.180293e+01    1.454343e+00
  3.183468e+01    1.700857e+00
  3.186643e+01    1.912378e+00
  3.189818e+01    2.069589e+00
  3.192994e+01    2.055011e+00
  3.196169e+01    1.829434e+00
  3.199344e+01    1.567028e+00
  3.202519e+01    1.333784e+00
  3.205694e+01    1.169469e+00
  3.208869e+01    1.038575e+00
  3.212044e+01    9.726860e-01
  3.215219e+01    9.254368e-01
  3.218394e+01    8.862952e-01
  3.221570e+01    8.695554e-01
  3.224745e+01    8.233284e-01
  3.227920e+01    8.416723e-01
  3.231095e+01    8.176738e-01
  3.234270e+01    7.951711e-01
  3.237445e+01    7.816047e-01
  3.240620e+01    7.911935e-01
  3.243795e+01    7.795840e-01
  3.246970e+01    7.823399e-01
  3.250146e+01    7.670981e-01
  3.253321e+01    7.725322e-01
  3.254908e+01    7.606825e-01