File: XRD/Reaction conditions/2024-07-27_003_Ru-CGO-ex_Reaction_dwell_000023_data_000022.dat
# == pyFAI calibration ==
# Distance Sample to Detector: 0.4 m
# PONI: 9.750e-02, 1.135e-01 m
# Rotations: -0.000175 0.000000 -0.000000 rad
#
# == Fit2d calibration ==
# Distance Sample-beamCenter: 400.000 mm
# Center: x=1514.000, y=1300.000 pix
# Tilt: 0.010 deg  TiltPlanRot: 0.010 deg
#
# Detector Detector	 Spline= None	 PixelSize= 7.500e-05, 7.500e-05 m
#    Detector has a mask: False
#    Detector has a dark current: False
#    detector has a flat field: False
#
# Wavelength: 6.888e-11 m
# Mask applied: user provided
# Dark current applied: False
# Flat field applied: False
# Polarization factor: 0.99
# Normalization factor: 1.0
# --> /home/myspot/data/2024_07_Rosario/Ru-CGO-ex/2024-07-27_003_Ru-CGO-ex_Reaction_dwell_000023_data_000022.dat
#       q_nm^-1             I
  2.003187e-02    0.000000e+00
  5.178302e-02    2.671064e-02
  8.353417e-02    3.071519e-01
  1.152853e-01    1.183164e-01
  1.470365e-01    1.243855e-02
  1.787876e-01    6.414687e-02
  2.105388e-01    0.000000e+00
  2.422899e-01    5.658351e-02
  2.740411e-01    3.812195e-02
  3.057922e-01    5.912287e-02
  3.375433e-01    3.791149e-02
  3.692945e-01    6.011173e-02
  4.010456e-01    4.322661e-02
  4.327968e-01    4.361260e-02
  4.645479e-01    3.412738e-02
  4.962991e-01    2.788900e-02
  5.280502e-01    2.508775e-02
  5.598014e-01    2.515658e-02
  5.915525e-01    4.043334e-02
  6.233037e-01    6.100184e-02
  6.550548e-01    2.394610e-02
  6.868060e-01    4.719073e-02
  7.185571e-01    2.813996e-02
  7.503083e-01    2.772441e-02
  7.820594e-01    1.190319e-01
  8.138106e-01    1.960118e-01
  8.455617e-01    3.429944e-01
  8.773129e-01    5.106783e-01
  9.090640e-01    6.474465e-01
  9.408152e-01    7.587038e-01
  9.725663e-01    1.014143e+00
  1.004317e+00    1.221030e+00
  1.036069e+00    1.391447e+00
  1.067820e+00    1.508609e+00
  1.099571e+00    1.509002e+00
  1.131322e+00    1.530836e+00
  1.163073e+00    1.657464e+00
  1.194824e+00    1.822968e+00
  1.226575e+00    2.302373e+00
  1.258327e+00    2.535882e+00
  1.290078e+00    2.621413e+00
  1.321829e+00    2.742708e+00
  1.353580e+00    2.847471e+00
  1.385331e+00    2.778765e+00
  1.417082e+00    2.941066e+00
  1.448834e+00    2.871619e+00
  1.480585e+00    3.157469e+00
  1.512336e+00    3.119061e+00
  1.544087e+00    3.145868e+00
  1.575838e+00    3.261440e+00
  1.607589e+00    3.175697e+00
  1.639340e+00    3.014592e+00
  1.671092e+00    3.112890e+00
  1.702843e+00    3.136178e+00
  1.734594e+00    3.220586e+00
  1.766345e+00    3.167114e+00
  1.798096e+00    3.150846e+00
  1.829847e+00    2.965979e+00
  1.861598e+00    3.125316e+00
  1.893350e+00    3.034989e+00
  1.925101e+00    3.027214e+00
  1.956852e+00    3.096058e+00
  1.988603e+00    2.979399e+00
  2.020354e+00    3.127903e+00
  2.052105e+00    3.184041e+00
  2.083856e+00    3.242929e+00
  2.115608e+00    3.151664e+00
  2.147359e+00    3.092164e+00
  2.179110e+00    3.271539e+00
  2.210861e+00    3.089340e+00
  2.242612e+00    3.253327e+00
  2.274363e+00    3.167377e+00
  2.306115e+00    3.026052e+00
  2.337866e+00    3.107272e+00
  2.369617e+00    3.181757e+00
  2.401368e+00    3.108324e+00
  2.433119e+00    3.188280e+00
  2.464870e+00    3.156126e+00
  2.496621e+00    3.283464e+00
  2.528373e+00    3.349281e+00
  2.560124e+00    3.245903e+00
  2.591875e+00    3.265975e+00
  2.623626e+00    3.213168e+00
  2.655377e+00    3.266280e+00
  2.687128e+00    3.209193e+00
  2.718879e+00    3.266216e+00
  2.750631e+00    3.279191e+00
  2.782382e+00    3.215832e+00
  2.814133e+00    3.292727e+00
  2.845884e+00    3.275102e+00
  2.877635e+00    3.337928e+00
  2.909386e+00    3.357528e+00
  2.941137e+00    3.473698e+00
  2.972889e+00    3.398085e+00
  3.004640e+00    3.373669e+00
  3.036391e+00    3.439476e+00
  3.068142e+00    3.458748e+00
  3.099893e+00    3.403517e+00
  3.131644e+00    3.329361e+00
  3.163395e+00    3.275366e+00
  3.195147e+00    3.376173e+00
  3.226898e+00    3.396238e+00
  3.258649e+00    3.441725e+00
  3.290400e+00    3.502331e+00
  3.322151e+00    3.400340e+00
  3.353902e+00    3.479404e+00
  3.385654e+00    3.433681e+00
  3.417405e+00    3.460613e+00
  3.449156e+00    3.487709e+00
  3.480907e+00    3.387079e+00
  3.512658e+00    3.476977e+00
  3.544409e+00    3.434905e+00
  3.576160e+00    3.477395e+00
  3.607912e+00    3.541539e+00
  3.639663e+00    3.478255e+00
  3.671414e+00    3.560521e+00
  3.703165e+00    3.481077e+00
  3.734916e+00    3.564717e+00
  3.766667e+00    3.480964e+00
  3.798418e+00    3.468756e+00
  3.830170e+00    3.518448e+00
  3.861921e+00    3.446273e+00
  3.893672e+00    3.465229e+00
  3.925423e+00    3.526919e+00
  3.957174e+00    3.516939e+00
  3.988925e+00    3.564544e+00
  4.020676e+00    3.574535e+00
  4.052428e+00    3.521561e+00
  4.084179e+00    3.559183e+00
  4.115930e+00    3.623863e+00
  4.147681e+00    3.497918e+00
  4.179432e+00    3.468351e+00
  4.211183e+00    3.586823e+00
  4.242935e+00    3.577057e+00
  4.274686e+00    3.607205e+00
  4.306437e+00    3.543671e+00
  4.338188e+00    3.554216e+00
  4.369939e+00    3.668839e+00
  4.401690e+00    3.578563e+00
  4.433441e+00    3.597589e+00
  4.465193e+00    3.578296e+00
  4.496944e+00    3.568965e+00
  4.528695e+00    3.535441e+00
  4.560446e+00    3.658357e+00
  4.592197e+00    3.582603e+00
  4.623948e+00    3.593011e+00
  4.655699e+00    3.651703e+00
  4.687451e+00    3.591520e+00
  4.719202e+00    3.622296e+00
  4.750953e+00    3.615700e+00
  4.782704e+00    3.651581e+00
  4.814455e+00    3.632993e+00
  4.846206e+00    3.671303e+00
  4.877957e+00    3.608666e+00
  4.909709e+00    3.716223e+00
  4.941460e+00    3.673549e+00
  4.973211e+00    3.767732e+00
  5.004962e+00    3.629238e+00
  5.036713e+00    3.711453e+00
  5.068464e+00    3.733160e+00
  5.100216e+00    3.682697e+00
  5.131967e+00    3.638783e+00
  5.163718e+00    3.631375e+00
  5.195469e+00    3.581885e+00
  5.227220e+00    3.640635e+00
  5.258971e+00    3.737246e+00
  5.290722e+00    3.698449e+00
  5.322474e+00    3.730876e+00
  5.354225e+00    3.704695e+00
  5.385976e+00    3.723847e+00
  5.417727e+00    3.636543e+00
  5.449478e+00    3.614132e+00
  5.481229e+00    3.590782e+00
  5.512980e+00    3.673431e+00
  5.544732e+00    3.560158e+00
  5.576483e+00    3.596191e+00
  5.608234e+00    3.634607e+00
  5.639985e+00    3.592962e+00
  5.671736e+00    3.655449e+00
  5.703487e+00    3.697709e+00
  5.735238e+00    3.573017e+00
  5.766990e+00    3.576127e+00
  5.798741e+00    3.571559e+00
  5.830492e+00    3.544886e+00
  5.862243e+00    3.678922e+00
  5.893994e+00    3.589962e+00
  5.925745e+00    3.535257e+00
  5.957497e+00    3.619842e+00
  5.989248e+00    3.605861e+00
  6.020999e+00    3.529074e+00
  6.052750e+00    3.608218e+00
  6.084501e+00    3.565399e+00
  6.116252e+00    3.590464e+00
  6.148003e+00    3.565670e+00
  6.179755e+00    3.572078e+00
  6.211506e+00    3.660489e+00
  6.243257e+00    3.583136e+00
  6.275008e+00    3.664821e+00
  6.306759e+00    3.525636e+00
  6.338510e+00    3.629243e+00
  6.370261e+00    3.632552e+00
  6.402013e+00    3.572710e+00
  6.433764e+00    3.558919e+00
  6.465515e+00    3.627166e+00
  6.497266e+00    3.555559e+00
  6.529017e+00    3.521290e+00
  6.560768e+00    3.515700e+00
  6.592519e+00    3.669523e+00
  6.624271e+00    3.576569e+00
  6.656022e+00    3.597128e+00
  6.687773e+00    3.563318e+00
  6.719524e+00    3.588301e+00
  6.751275e+00    3.643366e+00
  6.783026e+00    3.532888e+00
  6.814777e+00    3.605893e+00
  6.846529e+00    3.606845e+00
  6.878280e+00    3.650779e+00
  6.910031e+00    3.536088e+00
  6.941782e+00    3.559674e+00
  6.973533e+00    3.511108e+00
  7.005284e+00    3.594929e+00
  7.037036e+00    3.543175e+00
  7.068787e+00    3.546839e+00
  7.100538e+00    3.504479e+00
  7.132289e+00    3.575540e+00
  7.164040e+00    3.511757e+00
  7.195791e+00    3.509910e+00
  7.227542e+00    3.587730e+00
  7.259294e+00    3.572299e+00
  7.291045e+00    3.477528e+00
  7.322796e+00    3.509030e+00
  7.354547e+00    3.451998e+00
  7.386298e+00    3.559748e+00
  7.418049e+00    3.462735e+00
  7.449800e+00    3.454577e+00
  7.481552e+00    3.539967e+00
  7.513303e+00    3.529612e+00
  7.545054e+00    3.495875e+00
  7.576805e+00    3.452732e+00
  7.608556e+00    3.429161e+00
  7.640307e+00    3.443293e+00
  7.672058e+00    3.496912e+00
  7.703810e+00    3.599818e+00
  7.735561e+00    3.504887e+00
  7.767312e+00    3.444415e+00
  7.799063e+00    3.491651e+00
  7.830814e+00    3.471675e+00
  7.862565e+00    3.362199e+00
  7.894317e+00    3.395211e+00
  7.926068e+00    3.385774e+00
  7.957819e+00    3.484921e+00
  7.989570e+00    3.406796e+00
  8.021321e+00    3.376551e+00
  8.053072e+00    3.399787e+00
  8.084823e+00    3.436880e+00
  8.116575e+00    3.431755e+00
  8.148326e+00    3.515634e+00
  8.180077e+00    3.477719e+00
  8.211828e+00    3.414282e+00
  8.243579e+00    3.465069e+00
  8.275330e+00    3.349464e+00
  8.307081e+00    3.369355e+00
  8.338833e+00    3.406787e+00
  8.370584e+00    3.463712e+00
  8.402335e+00    3.520955e+00
  8.434086e+00    3.327407e+00
  8.465837e+00    3.370100e+00
  8.497588e+00    3.357949e+00
  8.529339e+00    3.387731e+00
  8.561091e+00    3.342313e+00
  8.592842e+00    3.390378e+00
  8.624593e+00    3.367534e+00
  8.656344e+00    3.383735e+00
  8.688095e+00    3.363516e+00
  8.719846e+00    3.459199e+00
  8.751598e+00    3.384758e+00
  8.783349e+00    3.324963e+00
  8.815100e+00    3.350990e+00
  8.846851e+00    3.293476e+00
  8.878602e+00    3.238450e+00
  8.910353e+00    3.364792e+00
  8.942104e+00    3.321786e+00
  8.973856e+00    3.312975e+00
  9.005607e+00    3.299105e+00
  9.037358e+00    3.262256e+00
  9.069109e+00    3.255151e+00
  9.100860e+00    3.293899e+00
  9.132611e+00    3.327614e+00
  9.164362e+00    3.297041e+00
  9.196114e+00    3.297520e+00
  9.227865e+00    3.179081e+00
  9.259616e+00    3.279810e+00
  9.291367e+00    3.242508e+00
  9.323118e+00    3.225106e+00
  9.354869e+00    3.265193e+00
  9.386620e+00    3.194974e+00
  9.418372e+00    3.259294e+00
  9.450123e+00    3.256924e+00
  9.481874e+00    3.280057e+00
  9.513625e+00    3.255917e+00
  9.545376e+00    3.260485e+00
  9.577127e+00    3.214405e+00
  9.608878e+00    3.178112e+00
  9.640630e+00    3.245869e+00
  9.672381e+00    3.173850e+00
  9.704132e+00    3.212327e+00
  9.735883e+00    3.206949e+00
  9.767634e+00    3.139163e+00
  9.799385e+00    3.137234e+00
  9.831137e+00    3.167102e+00
  9.862888e+00    3.226483e+00
  9.894639e+00    3.178742e+00
  9.926390e+00    3.198977e+00
  9.958141e+00    3.153398e+00
  9.989892e+00    3.167140e+00
  1.002164e+01    3.181522e+00
  1.005339e+01    3.156847e+00
  1.008515e+01    3.074995e+00
  1.011690e+01    3.076703e+00
  1.014865e+01    3.071125e+00
  1.018040e+01    3.059183e+00
  1.021215e+01    3.119855e+00
  1.024390e+01    3.047906e+00
  1.027565e+01    3.066597e+00
  1.030740e+01    3.073376e+00
  1.033915e+01    3.019641e+00
  1.037091e+01    3.068898e+00
  1.040266e+01    3.110091e+00
  1.043441e+01    3.105808e+00
  1.046616e+01    3.020994e+00
  1.049791e+01    3.048575e+00
  1.052966e+01    3.013196e+00
  1.056141e+01    3.026423e+00
  1.059316e+01    3.004752e+00
  1.062492e+01    2.999778e+00
  1.065667e+01    3.051620e+00
  1.068842e+01    2.942141e+00
  1.072017e+01    2.886789e+00
  1.075192e+01    2.963376e+00
  1.078367e+01    2.960632e+00
  1.081542e+01    2.959521e+00
  1.084717e+01    2.902508e+00
  1.087892e+01    2.962747e+00
  1.091068e+01    2.934693e+00
  1.094243e+01    2.957136e+00
  1.097418e+01    2.943158e+00
  1.100593e+01    2.963745e+00
  1.103768e+01    2.892678e+00
  1.106943e+01    2.912145e+00
  1.110118e+01    2.874334e+00
  1.113293e+01    2.860307e+00
  1.116468e+01    2.877481e+00
  1.119644e+01    2.853230e+00
  1.122819e+01    2.826111e+00
  1.125994e+01    2.850372e+00
  1.129169e+01    2.909059e+00
  1.132344e+01    2.794125e+00
  1.135519e+01    2.864828e+00
  1.138694e+01    2.833922e+00
  1.141869e+01    2.792673e+00
  1.145045e+01    2.838622e+00
  1.148220e+01    2.810176e+00
  1.151395e+01    2.809190e+00
  1.154570e+01    2.823507e+00
  1.157745e+01    2.787574e+00
  1.160920e+01    2.833848e+00
  1.164095e+01    2.811337e+00
  1.167270e+01    2.818950e+00
  1.170445e+01    2.793326e+00
  1.173621e+01    2.748701e+00
  1.176796e+01    2.791276e+00
  1.179971e+01    2.754896e+00
  1.183146e+01    2.762089e+00
  1.186321e+01    2.770509e+00
  1.189496e+01    2.807505e+00
  1.192671e+01    2.728381e+00
  1.195846e+01    2.679707e+00
  1.199021e+01    2.741683e+00
  1.202197e+01    2.699837e+00
  1.205372e+01    2.731138e+00
  1.208547e+01    2.762857e+00
  1.211722e+01    2.645779e+00
  1.214897e+01    2.746316e+00
  1.218072e+01    2.747910e+00
  1.221247e+01    2.659786e+00
  1.224422e+01    2.697275e+00
  1.227597e+01    2.734141e+00
  1.230773e+01    2.711308e+00
  1.233948e+01    2.739688e+00
  1.237123e+01    2.703679e+00
  1.240298e+01    2.734965e+00
  1.243473e+01    2.689390e+00
  1.246648e+01    2.704659e+00
  1.249823e+01    2.679284e+00
  1.252998e+01    2.730714e+00
  1.256174e+01    2.713707e+00
  1.259349e+01    2.721454e+00
  1.262524e+01    2.762171e+00
  1.265699e+01    2.794205e+00
  1.268874e+01    2.837420e+00
  1.272049e+01    2.879346e+00
  1.275224e+01    2.938983e+00
  1.278399e+01    3.005254e+00
  1.281574e+01    3.052297e+00
  1.284750e+01    3.220176e+00
  1.287925e+01    3.411070e+00
  1.291100e+01    3.716567e+00
  1.294275e+01    4.109802e+00
  1.297450e+01    4.866162e+00
  1.300625e+01    6.007986e+00
  1.303800e+01    7.864898e+00
  1.306975e+01    1.029103e+01
  1.310150e+01    1.290223e+01
  1.313326e+01    1.508016e+01
  1.316501e+01    1.648582e+01
  1.319676e+01    1.573962e+01
  1.322851e+01    1.253695e+01
  1.326026e+01    9.118002e+00
  1.329201e+01    6.705891e+00
  1.332376e+01    5.296946e+00
  1.335551e+01    4.429023e+00
  1.338727e+01    3.824784e+00
  1.341902e+01    3.485243e+00
  1.345077e+01    3.225446e+00
  1.348252e+01    3.054463e+00
  1.351427e+01    2.919537e+00
  1.354602e+01    2.836380e+00
  1.357777e+01    2.770824e+00
  1.360952e+01    2.730708e+00
  1.364127e+01    2.645056e+00
  1.367303e+01    2.603899e+00
  1.370478e+01    2.577734e+00
  1.373653e+01    2.581700e+00
  1.376828e+01    2.526544e+00
  1.380003e+01    2.496475e+00
  1.383178e+01    2.438588e+00
  1.386353e+01    2.418546e+00
  1.389528e+01    2.424579e+00
  1.392703e+01    2.444225e+00
  1.395879e+01    2.363268e+00
  1.399054e+01    2.402798e+00
  1.402229e+01    2.365878e+00
  1.405404e+01    2.333574e+00
  1.408579e+01    2.377114e+00
  1.411754e+01    2.359714e+00
  1.414929e+01    2.327959e+00
  1.418104e+01    2.291810e+00
  1.421279e+01    2.307204e+00
  1.424455e+01    2.318310e+00
  1.427630e+01    2.298154e+00
  1.430805e+01    2.222304e+00
  1.433980e+01    2.323692e+00
  1.437155e+01    2.258249e+00
  1.440330e+01    2.281597e+00
  1.443505e+01    2.239182e+00
  1.446680e+01    2.236811e+00
  1.449856e+01    2.263512e+00
  1.453031e+01    2.251257e+00
  1.456206e+01    2.198378e+00
  1.459381e+01    2.197005e+00
  1.462556e+01    2.194747e+00
  1.465731e+01    2.233435e+00
  1.468906e+01    2.216215e+00
  1.472081e+01    2.195455e+00
  1.475256e+01    2.220494e+00
  1.478432e+01    2.214382e+00
  1.481607e+01    2.223606e+00
  1.484782e+01    2.239347e+00
  1.487957e+01    2.237516e+00
  1.491132e+01    2.297407e+00
  1.494307e+01    2.296134e+00
  1.497482e+01    2.322507e+00
  1.500657e+01    2.506211e+00
  1.503832e+01    2.639077e+00
  1.507008e+01    2.803592e+00
  1.510183e+01    3.267232e+00
  1.513358e+01    3.927617e+00
  1.516533e+01    4.619191e+00
  1.519708e+01    5.278005e+00
  1.522883e+01    5.664333e+00
  1.526058e+01    5.860244e+00
  1.529233e+01    5.452224e+00
  1.532409e+01    4.710265e+00
  1.535584e+01    3.748799e+00
  1.538759e+01    3.108052e+00
  1.541934e+01    2.769967e+00
  1.545109e+01    2.479289e+00
  1.548284e+01    2.331325e+00
  1.551459e+01    2.307580e+00
  1.554634e+01    2.225393e+00
  1.557809e+01    2.171814e+00
  1.560985e+01    2.082905e+00
  1.564160e+01    2.049722e+00
  1.567335e+01    2.038062e+00
  1.570510e+01    2.029855e+00
  1.573685e+01    1.944831e+00
  1.576860e+01    1.988150e+00
  1.580035e+01    1.933511e+00
  1.583210e+01    1.944351e+00
  1.586385e+01    1.927330e+00
  1.589561e+01    1.922316e+00
  1.592736e+01    1.911393e+00
  1.595911e+01    1.900488e+00
  1.599086e+01    1.899001e+00
  1.602261e+01    1.851544e+00
  1.605436e+01    1.877942e+00
  1.608611e+01    1.902660e+00
  1.611786e+01    1.818171e+00
  1.614961e+01    1.818677e+00
  1.618137e+01    1.817106e+00
  1.621312e+01    1.816822e+00
  1.624487e+01    1.866640e+00
  1.627662e+01    1.799010e+00
  1.630837e+01    1.781087e+00
  1.634012e+01    1.776955e+00
  1.637187e+01    1.806479e+00
  1.640362e+01    1.778644e+00
  1.643538e+01    1.762526e+00
  1.646713e+01    1.753230e+00
  1.649888e+01    1.770036e+00
  1.653063e+01    1.756391e+00
  1.656238e+01    1.740923e+00
  1.659413e+01    1.729820e+00
  1.662588e+01    1.728889e+00
  1.665763e+01    1.741429e+00
  1.668938e+01    1.745915e+00
  1.672114e+01    1.710276e+00
  1.675289e+01    1.678816e+00
  1.678464e+01    1.732575e+00
  1.681639e+01    1.714571e+00
  1.684814e+01    1.679689e+00
  1.687989e+01    1.668312e+00
  1.691164e+01    1.666062e+00
  1.694339e+01    1.719989e+00
  1.697514e+01    1.712453e+00
  1.700690e+01    1.677455e+00
  1.703865e+01    1.665160e+00
  1.707040e+01    1.638380e+00
  1.710215e+01    1.661115e+00
  1.713390e+01    1.670686e+00
  1.716565e+01    1.655983e+00
  1.719740e+01    1.637341e+00
  1.722915e+01    1.658765e+00
  1.726091e+01    1.642383e+00
  1.729266e+01    1.626806e+00
  1.732441e+01    1.625658e+00
  1.735616e+01    1.632901e+00
  1.738791e+01    1.610767e+00
  1.741966e+01    1.608503e+00
  1.745141e+01    1.585864e+00
  1.748316e+01    1.600282e+00
  1.751491e+01    1.584991e+00
  1.754667e+01    1.601901e+00
  1.757842e+01    1.590840e+00
  1.761017e+01    1.588987e+00
  1.764192e+01    1.581189e+00
  1.767367e+01    1.563914e+00
  1.770542e+01    1.541241e+00
  1.773717e+01    1.535769e+00
  1.776892e+01    1.566447e+00
  1.780067e+01    1.566677e+00
  1.783243e+01    1.544981e+00
  1.786418e+01    1.551185e+00
  1.789593e+01    1.531775e+00
  1.792768e+01    1.522535e+00
  1.795943e+01    1.530687e+00
  1.799118e+01    1.537935e+00
  1.802293e+01    1.497301e+00
  1.805468e+01    1.524993e+00
  1.808643e+01    1.507273e+00
  1.811819e+01    1.486155e+00
  1.814994e+01    1.495015e+00
  1.818169e+01    1.504357e+00
  1.821344e+01    1.488909e+00
  1.824519e+01    1.457486e+00
  1.827694e+01    1.476186e+00
  1.830869e+01    1.466002e+00
  1.834044e+01    1.497601e+00
  1.837220e+01    1.471949e+00
  1.840395e+01    1.453747e+00
  1.843570e+01    1.435853e+00
  1.846745e+01    1.458879e+00
  1.849920e+01    1.462879e+00
  1.853095e+01    1.473210e+00
  1.856270e+01    1.437643e+00
  1.859445e+01    1.460744e+00
  1.862620e+01    1.429057e+00
  1.865796e+01    1.424116e+00
  1.868971e+01    1.422082e+00
  1.872146e+01    1.431606e+00
  1.875321e+01    1.403573e+00
  1.878496e+01    1.403979e+00
  1.881671e+01    1.413850e+00
  1.884846e+01    1.407328e+00
  1.888021e+01    1.376931e+00
  1.891196e+01    1.383793e+00
  1.894372e+01    1.430145e+00
  1.897547e+01    1.393052e+00
  1.900722e+01    1.414176e+00
  1.903897e+01    1.396743e+00
  1.907072e+01    1.416270e+00
  1.910247e+01    1.385268e+00
  1.913422e+01    1.390974e+00
  1.916597e+01    1.393927e+00
  1.919773e+01    1.368414e+00
  1.922948e+01    1.343977e+00
  1.926123e+01    1.357627e+00
  1.929298e+01    1.334633e+00
  1.932473e+01    1.377412e+00
  1.935648e+01    1.381800e+00
  1.938823e+01    1.357159e+00
  1.941998e+01    1.360996e+00
  1.945173e+01    1.352523e+00
  1.948349e+01    1.346698e+00
  1.951524e+01    1.334099e+00
  1.954699e+01    1.321762e+00
  1.957874e+01    1.324391e+00
  1.961049e+01    1.326126e+00
  1.964224e+01    1.326288e+00
  1.967399e+01    1.317914e+00
  1.970574e+01    1.291164e+00
  1.973749e+01    1.324665e+00
  1.976925e+01    1.309809e+00
  1.980100e+01    1.314619e+00
  1.983275e+01    1.278518e+00
  1.986450e+01    1.263185e+00
  1.989625e+01    1.301636e+00
  1.992800e+01    1.279467e+00
  1.995975e+01    1.254589e+00
  1.999150e+01    1.289046e+00
  2.002325e+01    1.291057e+00
  2.005501e+01    1.286311e+00
  2.008676e+01    1.266342e+00
  2.011851e+01    1.267372e+00
  2.015026e+01    1.272619e+00
  2.018201e+01    1.295829e+00
  2.021376e+01    1.264494e+00
  2.024551e+01    1.294091e+00
  2.027726e+01    1.271491e+00
  2.030902e+01    1.274943e+00
  2.034077e+01    1.248750e+00
  2.037252e+01    1.256194e+00
  2.040427e+01    1.242393e+00
  2.043602e+01    1.281768e+00
  2.046777e+01    1.245701e+00
  2.049952e+01    1.236458e+00
  2.053127e+01    1.228151e+00
  2.056302e+01    1.228462e+00
  2.059478e+01    1.237325e+00
  2.062653e+01    1.223593e+00
  2.065828e+01    1.242042e+00
  2.069003e+01    1.208501e+00
  2.072178e+01    1.255846e+00
  2.075353e+01    1.246502e+00
  2.078528e+01    1.218849e+00
  2.081703e+01    1.239260e+00
  2.084878e+01    1.249214e+00
  2.088054e+01    1.234243e+00
  2.091229e+01    1.239989e+00
  2.094404e+01    1.212572e+00
  2.097579e+01    1.229026e+00
  2.100754e+01    1.246413e+00
  2.103929e+01    1.215141e+00
  2.107104e+01    1.258731e+00
  2.110279e+01    1.257677e+00
  2.113455e+01    1.215786e+00
  2.116630e+01    1.243021e+00
  2.119805e+01    1.242945e+00
  2.122980e+01    1.243362e+00
  2.126155e+01    1.217247e+00
  2.129330e+01    1.263036e+00
  2.132505e+01    1.277015e+00
  2.135680e+01    1.298248e+00
  2.138855e+01    1.321648e+00
  2.142031e+01    1.352765e+00
  2.145206e+01    1.327959e+00
  2.148381e+01    1.391671e+00
  2.151556e+01    1.478384e+00
  2.154731e+01    1.537541e+00
  2.157906e+01    1.603088e+00
  2.161081e+01    1.769281e+00
  2.164256e+01    1.978915e+00
  2.167431e+01    2.327789e+00
  2.170607e+01    2.862231e+00
  2.173782e+01    3.614857e+00
  2.176957e+01    4.714764e+00
  2.180132e+01    5.963011e+00
  2.183307e+01    7.345513e+00
  2.186482e+01    8.485304e+00
  2.189657e+01    9.063946e+00
  2.192832e+01    8.249241e+00
  2.196007e+01    6.536830e+00
  2.199183e+01    4.748737e+00
  2.202358e+01    3.547624e+00
  2.205533e+01    2.835684e+00
  2.208708e+01    2.317913e+00
  2.211883e+01    1.983170e+00
  2.215058e+01    1.740730e+00
  2.218233e+01    1.618962e+00
  2.221408e+01    1.478434e+00
  2.224584e+01    1.404556e+00
  2.227759e+01    1.317366e+00
  2.230934e+01    1.315653e+00
  2.234109e+01    1.266881e+00
  2.237284e+01    1.232379e+00
  2.240459e+01    1.210308e+00
  2.243634e+01    1.183311e+00
  2.246809e+01    1.178517e+00
  2.249984e+01    1.168020e+00
  2.253160e+01    1.134075e+00
  2.256335e+01    1.111449e+00
  2.259510e+01    1.120745e+00
  2.262685e+01    1.115639e+00
  2.265860e+01    1.084483e+00
  2.269035e+01    1.097860e+00
  2.272210e+01    1.084960e+00
  2.275385e+01    1.082641e+00
  2.278560e+01    1.108333e+00
  2.281736e+01    1.067332e+00
  2.284911e+01    1.055109e+00
  2.288086e+01    1.059840e+00
  2.291261e+01    1.051315e+00
  2.294436e+01    1.029094e+00
  2.297611e+01    1.009126e+00
  2.300786e+01    1.043957e+00
  2.303961e+01    1.032780e+00
  2.307137e+01    1.025903e+00
  2.310312e+01    1.004226e+00
  2.313487e+01    1.013467e+00
  2.316662e+01    1.015247e+00
  2.319837e+01    1.004345e+00
  2.323012e+01    1.004095e+00
  2.326187e+01    9.833829e-01
  2.329362e+01    9.879470e-01
  2.332537e+01    9.723859e-01
  2.335713e+01    9.788899e-01
  2.338888e+01    9.814366e-01
  2.342063e+01    9.765829e-01
  2.345238e+01    9.796806e-01
  2.348413e+01    9.753500e-01
  2.351588e+01    9.477237e-01
  2.354763e+01    9.705302e-01
  2.357938e+01    9.722832e-01
  2.361113e+01    9.637949e-01
  2.364289e+01    9.656268e-01
  2.367464e+01    9.287930e-01
  2.370639e+01    9.466776e-01
  2.373814e+01    9.353328e-01
  2.376989e+01    9.256485e-01
  2.380164e+01    9.282126e-01
  2.383339e+01    9.290169e-01
  2.386514e+01    9.101259e-01
  2.389689e+01    9.295927e-01
  2.392865e+01    8.930290e-01
  2.396040e+01    9.260310e-01
  2.399215e+01    9.070864e-01
  2.402390e+01    8.881137e-01
  2.405565e+01    9.233943e-01
  2.408740e+01    9.023087e-01
  2.411915e+01    8.750360e-01
  2.415090e+01    8.862392e-01
  2.418266e+01    8.896787e-01
  2.421441e+01    8.906133e-01
  2.424616e+01    8.962969e-01
  2.427791e+01    8.887326e-01
  2.430966e+01    9.100601e-01
  2.434141e+01    9.150658e-01
  2.437316e+01    8.998348e-01
  2.440491e+01    8.941062e-01
  2.443666e+01    8.915286e-01
  2.446842e+01    8.825314e-01
  2.450017e+01    8.968938e-01
  2.453192e+01    8.896940e-01
  2.456367e+01    8.769309e-01
  2.459542e+01    8.828957e-01
  2.462717e+01    8.975664e-01
  2.465892e+01    8.932714e-01
  2.469067e+01    8.892611e-01
  2.472242e+01    9.042215e-01
  2.475418e+01    9.014814e-01
  2.478593e+01    8.842912e-01
  2.481768e+01    8.912222e-01
  2.484943e+01    8.814115e-01
  2.488118e+01    8.676515e-01
  2.491293e+01    8.856222e-01
  2.494468e+01    9.043058e-01
  2.497643e+01    9.070488e-01
  2.500819e+01    8.955474e-01
  2.503994e+01    9.052613e-01
  2.507169e+01    8.888888e-01
  2.510344e+01    8.961552e-01
  2.513519e+01    9.344731e-01
  2.516694e+01    9.107798e-01
  2.519869e+01    9.420893e-01
  2.523044e+01    9.490731e-01
  2.526219e+01    9.386187e-01
  2.529395e+01    9.514603e-01
  2.532570e+01    9.792836e-01
  2.535745e+01    1.013523e+00
  2.538920e+01    9.734648e-01
  2.542095e+01    1.004611e+00
  2.545270e+01    1.021580e+00
  2.548445e+01    1.047876e+00
  2.551620e+01    1.084490e+00
  2.554795e+01    1.126455e+00
  2.557971e+01    1.170803e+00
  2.561146e+01    1.261170e+00
  2.564321e+01    1.317122e+00
  2.567496e+01    1.447331e+00
  2.570671e+01    1.604424e+00
  2.573846e+01    1.891070e+00
  2.577021e+01    2.283951e+00
  2.580196e+01    2.888766e+00
  2.583371e+01    3.721531e+00
  2.586547e+01    4.830464e+00
  2.589722e+01    6.048112e+00
  2.592897e+01    6.902098e+00
  2.596072e+01    7.116578e+00
  2.599247e+01    6.519779e+00
  2.602422e+01    5.203299e+00
  2.605597e+01    3.939954e+00
  2.608772e+01    2.946714e+00
  2.611948e+01    2.345096e+00
  2.615123e+01    1.953438e+00
  2.618298e+01    1.656932e+00
  2.621473e+01    1.472080e+00
  2.624648e+01    1.366187e+00
  2.627823e+01    1.231656e+00
  2.630998e+01    1.175033e+00
  2.634173e+01    1.111298e+00
  2.637348e+01    1.085645e+00
  2.640524e+01    1.070274e+00
  2.643699e+01    1.017461e+00
  2.646874e+01    1.019784e+00
  2.650049e+01    1.025219e+00
  2.653224e+01    1.022151e+00
  2.656399e+01    1.002547e+00
  2.659574e+01    9.879954e-01
  2.662749e+01    1.005459e+00
  2.665924e+01    9.983406e-01
  2.669100e+01    9.611511e-01
  2.672275e+01    9.678900e-01
  2.675450e+01    9.772654e-01
  2.678625e+01    9.916448e-01
  2.681800e+01    9.670196e-01
  2.684975e+01    1.008827e+00
  2.688150e+01    1.018362e+00
  2.691325e+01    1.022063e+00
  2.694501e+01    1.075711e+00
  2.697676e+01    1.061212e+00
  2.700851e+01    1.109802e+00
  2.704026e+01    1.225712e+00
  2.707201e+01    1.315027e+00
  2.710376e+01    1.530768e+00
  2.713551e+01    1.756804e+00
  2.716726e+01    2.015557e+00
  2.719901e+01    2.164537e+00
  2.723077e+01    2.182192e+00
  2.726252e+01    1.948931e+00
  2.729427e+01    1.662704e+00
  2.732602e+01    1.432088e+00
  2.735777e+01    1.278792e+00
  2.738952e+01    1.177444e+00
  2.742127e+01    1.096517e+00
  2.745302e+01    1.037179e+00
  2.748477e+01    1.004971e+00
  2.751653e+01    9.769413e-01
  2.754828e+01    9.391508e-01
  2.758003e+01    9.421977e-01
  2.761178e+01    9.116482e-01
  2.764353e+01    9.222566e-01
  2.767528e+01    9.138742e-01
  2.770703e+01    8.972352e-01
  2.773878e+01    8.892241e-01
  2.777054e+01    8.746652e-01
  2.780229e+01    8.730495e-01
  2.783404e+01    8.760015e-01
  2.786579e+01    8.696685e-01
  2.789754e+01    8.932692e-01
  2.792929e+01    9.072652e-01
  2.796104e+01    8.582322e-01
  2.799279e+01    8.861764e-01
  2.802454e+01    8.911929e-01
  2.805630e+01    8.844524e-01
  2.808805e+01    8.766841e-01
  2.811980e+01    8.713924e-01
  2.815155e+01    8.568124e-01
  2.818330e+01    8.687279e-01
  2.821505e+01    8.628371e-01
  2.824680e+01    8.868988e-01
  2.827855e+01    8.685623e-01
  2.831030e+01    8.584171e-01
  2.834206e+01    8.612446e-01
  2.837381e+01    8.424994e-01
  2.840556e+01    8.644277e-01
  2.843731e+01    8.425577e-01
  2.846906e+01    8.642083e-01
  2.850081e+01    8.398418e-01
  2.853256e+01    8.292875e-01
  2.856431e+01    8.383294e-01
  2.859606e+01    8.193849e-01
  2.862782e+01    8.419028e-01
  2.865957e+01    8.386312e-01
  2.869132e+01    8.403456e-01
  2.872307e+01    8.232794e-01
  2.875482e+01    8.366840e-01
  2.878657e+01    8.311065e-01
  2.881832e+01    8.352861e-01
  2.885007e+01    8.170427e-01
  2.888183e+01    8.050367e-01
  2.891358e+01    8.317911e-01
  2.894533e+01    8.116006e-01
  2.897708e+01    8.238440e-01
  2.900883e+01    8.337203e-01
  2.904058e+01    7.951638e-01
  2.907233e+01    8.203235e-01
  2.910408e+01    8.055689e-01
  2.913583e+01    8.167913e-01
  2.916759e+01    8.113032e-01
  2.919934e+01    8.436882e-01
  2.923109e+01    8.291691e-01
  2.926284e+01    8.184349e-01
  2.929459e+01    8.276331e-01
  2.932634e+01    8.131618e-01
  2.935809e+01    7.832580e-01
  2.938984e+01    7.960251e-01
  2.942159e+01    7.831131e-01
  2.945335e+01    8.043465e-01
  2.948510e+01    8.365473e-01
  2.951685e+01    8.048711e-01
  2.954860e+01    8.255430e-01
  2.958035e+01    8.153757e-01
  2.961210e+01    8.121694e-01
  2.964385e+01    8.103559e-01
  2.967560e+01    8.147819e-01
  2.970736e+01    8.010646e-01
  2.973911e+01    7.955380e-01
  2.977086e+01    8.105767e-01
  2.980261e+01    7.969936e-01
  2.983436e+01    8.190283e-01
  2.986611e+01    8.076028e-01
  2.989786e+01    8.000051e-01
  2.992961e+01    8.041669e-01
  2.996136e+01    8.116164e-01
  2.999312e+01    8.244946e-01
  3.002487e+01    8.162964e-01
  3.005662e+01    8.140489e-01
  3.008837e+01    8.128196e-01
  3.012012e+01    8.033004e-01
  3.015187e+01    7.849999e-01
  3.018362e+01    7.738415e-01
  3.021537e+01    7.687901e-01
  3.024712e+01    7.706382e-01
  3.027888e+01    7.709914e-01
  3.031063e+01    7.972293e-01
  3.034238e+01    7.827398e-01
  3.037413e+01    7.984134e-01
  3.040588e+01    7.818614e-01
  3.043763e+01    7.826377e-01
  3.046938e+01    7.936774e-01
  3.050113e+01    8.058443e-01
  3.053288e+01    7.807922e-01
  3.056464e+01    7.948326e-01
  3.059639e+01    7.881500e-01
  3.062814e+01    7.749217e-01
  3.065989e+01    7.898530e-01
  3.069164e+01    7.941515e-01
  3.072339e+01    8.016222e-01
  3.075514e+01    7.841699e-01
  3.078689e+01    7.946401e-01
  3.081865e+01    8.000908e-01
  3.085040e+01    7.786160e-01
  3.088215e+01    7.906008e-01
  3.091390e+01    8.121032e-01
  3.094565e+01    7.980646e-01
  3.097740e+01    7.816840e-01
  3.100915e+01    7.975420e-01
  3.104090e+01    7.942616e-01
  3.107265e+01    8.037431e-01
  3.110441e+01    8.210516e-01
  3.113616e+01    8.033183e-01
  3.116791e+01    7.845046e-01
  3.119966e+01    7.987485e-01
  3.123141e+01    8.080931e-01
  3.126316e+01    8.155820e-01
  3.129491e+01    8.229407e-01
  3.132666e+01    7.963140e-01
  3.135841e+01    8.300693e-01
  3.139017e+01    8.173555e-01
  3.142192e+01    8.101434e-01
  3.145367e+01    8.118169e-01
  3.148542e+01    8.586424e-01
  3.151717e+01    8.342885e-01
  3.154892e+01    8.318081e-01
  3.158067e+01    8.585349e-01
  3.161242e+01    8.767552e-01
  3.164418e+01    9.216130e-01
  3.167593e+01    9.490643e-01
  3.170768e+01    1.030432e+00
  3.173943e+01    1.148274e+00
  3.177118e+01    1.261490e+00
  3.180293e+01    1.504901e+00
  3.183468e+01    1.760321e+00
  3.186643e+01    1.968271e+00
  3.189818e+01    2.080785e+00
  3.192994e+01    2.029138e+00
  3.196169e+01    1.830256e+00
  3.199344e+01    1.551176e+00
  3.202519e+01    1.336626e+00
  3.205694e+01    1.144390e+00
  3.208869e+01    1.018257e+00
  3.212044e+01    9.844275e-01
  3.215219e+01    9.315864e-01
  3.218394e+01    8.706749e-01
  3.221570e+01    8.542088e-01
  3.224745e+01    8.409228e-01
  3.227920e+01    8.185103e-01
  3.231095e+01    8.252128e-01
  3.234270e+01    7.962852e-01
  3.237445e+01    8.280699e-01
  3.240620e+01    7.883515e-01
  3.243795e+01    7.812492e-01
  3.246970e+01    7.758130e-01
  3.250146e+01    7.895128e-01
  3.253321e+01    7.629750e-01
  3.254908e+01    7.666503e-01