File: XRD/Reaction conditions/2024-07-27_003_Ru-CGO-ex_Reaction_dwell_000023_data_000142.dat
# == pyFAI calibration ==
# Distance Sample to Detector: 0.4 m
# PONI: 9.750e-02, 1.135e-01 m
# Rotations: -0.000175 0.000000 -0.000000 rad
#
# == Fit2d calibration ==
# Distance Sample-beamCenter: 400.000 mm
# Center: x=1514.000, y=1300.000 pix
# Tilt: 0.010 deg  TiltPlanRot: 0.010 deg
#
# Detector Detector	 Spline= None	 PixelSize= 7.500e-05, 7.500e-05 m
#    Detector has a mask: False
#    Detector has a dark current: False
#    detector has a flat field: False
#
# Wavelength: 6.888e-11 m
# Mask applied: user provided
# Dark current applied: False
# Flat field applied: False
# Polarization factor: 0.99
# Normalization factor: 1.0
# --> /home/myspot/data/2024_07_Rosario/Ru-CGO-ex/2024-07-27_003_Ru-CGO-ex_Reaction_dwell_000023_data_000142.dat
#       q_nm^-1             I
  2.003187e-02    7.712225e-02
  5.178302e-02    5.342412e-02
  8.353417e-02    1.893199e-01
  1.152853e-01    6.444775e-02
  1.470365e-01    0.000000e+00
  1.787876e-01    8.791097e-03
  2.105388e-01    1.079090e-02
  2.422899e-01    2.203577e-02
  2.740411e-01    4.293775e-02
  3.057922e-01    2.806096e-02
  3.375433e-01    3.959274e-02
  3.692945e-01    7.483111e-02
  4.010456e-01    5.305332e-02
  4.327968e-01    2.755866e-02
  4.645479e-01    4.343291e-02
  4.962991e-01    3.052109e-02
  5.280502e-01    2.205968e-02
  5.598014e-01    4.224500e-02
  5.915525e-01    4.283308e-02
  6.233037e-01    5.808935e-02
  6.550548e-01    5.919120e-02
  6.868060e-01    1.883921e-02
  7.185571e-01    4.124681e-02
  7.503083e-01    5.737646e-02
  7.820594e-01    1.237570e-01
  8.138106e-01    2.374821e-01
  8.455617e-01    3.488936e-01
  8.773129e-01    5.502499e-01
  9.090640e-01    6.467851e-01
  9.408152e-01    7.744560e-01
  9.725663e-01    1.039781e+00
  1.004317e+00    1.242373e+00
  1.036069e+00    1.411680e+00
  1.067820e+00    1.411378e+00
  1.099571e+00    1.483793e+00
  1.131322e+00    1.694725e+00
  1.163073e+00    1.665579e+00
  1.194824e+00    1.871703e+00
  1.226575e+00    2.338732e+00
  1.258327e+00    2.343172e+00
  1.290078e+00    2.663153e+00
  1.321829e+00    2.719552e+00
  1.353580e+00    2.927185e+00
  1.385331e+00    2.875709e+00
  1.417082e+00    2.813253e+00
  1.448834e+00    2.937630e+00
  1.480585e+00    3.005296e+00
  1.512336e+00    3.141486e+00
  1.544087e+00    3.209943e+00
  1.575838e+00    3.299216e+00
  1.607589e+00    3.131624e+00
  1.639340e+00    3.163359e+00
  1.671092e+00    3.103645e+00
  1.702843e+00    2.963266e+00
  1.734594e+00    3.152506e+00
  1.766345e+00    3.137551e+00
  1.798096e+00    3.202545e+00
  1.829847e+00    2.996274e+00
  1.861598e+00    2.947785e+00
  1.893350e+00    3.031373e+00
  1.925101e+00    2.931628e+00
  1.956852e+00    2.997144e+00
  1.988603e+00    3.069099e+00
  2.020354e+00    3.040966e+00
  2.052105e+00    3.064538e+00
  2.083856e+00    3.100663e+00
  2.115608e+00    3.045911e+00
  2.147359e+00    3.003870e+00
  2.179110e+00    3.104860e+00
  2.210861e+00    3.116872e+00
  2.242612e+00    3.121681e+00
  2.274363e+00    3.112082e+00
  2.306115e+00    3.133789e+00
  2.337866e+00    3.140182e+00
  2.369617e+00    3.129888e+00
  2.401368e+00    3.112506e+00
  2.433119e+00    3.095485e+00
  2.464870e+00    3.204096e+00
  2.496621e+00    3.192593e+00
  2.528373e+00    3.164716e+00
  2.560124e+00    3.161983e+00
  2.591875e+00    3.184713e+00
  2.623626e+00    3.245142e+00
  2.655377e+00    3.346440e+00
  2.687128e+00    3.288459e+00
  2.718879e+00    3.215994e+00
  2.750631e+00    3.148440e+00
  2.782382e+00    3.237090e+00
  2.814133e+00    3.286850e+00
  2.845884e+00    3.457469e+00
  2.877635e+00    3.309037e+00
  2.909386e+00    3.358176e+00
  2.941137e+00    3.365282e+00
  2.972889e+00    3.316470e+00
  3.004640e+00    3.350250e+00
  3.036391e+00    3.500507e+00
  3.068142e+00    3.350113e+00
  3.099893e+00    3.295656e+00
  3.131644e+00    3.316689e+00
  3.163395e+00    3.438617e+00
  3.195147e+00    3.407562e+00
  3.226898e+00    3.406105e+00
  3.258649e+00    3.301823e+00
  3.290400e+00    3.437234e+00
  3.322151e+00    3.285423e+00
  3.353902e+00    3.422487e+00
  3.385654e+00    3.373270e+00
  3.417405e+00    3.354992e+00
  3.449156e+00    3.478049e+00
  3.480907e+00    3.363614e+00
  3.512658e+00    3.460881e+00
  3.544409e+00    3.521956e+00
  3.576160e+00    3.438673e+00
  3.607912e+00    3.509869e+00
  3.639663e+00    3.458059e+00
  3.671414e+00    3.409010e+00
  3.703165e+00    3.435403e+00
  3.734916e+00    3.422895e+00
  3.766667e+00    3.542009e+00
  3.798418e+00    3.562537e+00
  3.830170e+00    3.539809e+00
  3.861921e+00    3.630522e+00
  3.893672e+00    3.549368e+00
  3.925423e+00    3.548740e+00
  3.957174e+00    3.486786e+00
  3.988925e+00    3.547273e+00
  4.020676e+00    3.502084e+00
  4.052428e+00    3.462770e+00
  4.084179e+00    3.617542e+00
  4.115930e+00    3.594554e+00
  4.147681e+00    3.531299e+00
  4.179432e+00    3.560100e+00
  4.211183e+00    3.469653e+00
  4.242935e+00    3.722542e+00
  4.274686e+00    3.626155e+00
  4.306437e+00    3.606836e+00
  4.338188e+00    3.563810e+00
  4.369939e+00    3.537790e+00
  4.401690e+00    3.629467e+00
  4.433441e+00    3.560240e+00
  4.465193e+00    3.612392e+00
  4.496944e+00    3.552023e+00
  4.528695e+00    3.591516e+00
  4.560446e+00    3.618828e+00
  4.592197e+00    3.610698e+00
  4.623948e+00    3.631171e+00
  4.655699e+00    3.653436e+00
  4.687451e+00    3.661244e+00
  4.719202e+00    3.631702e+00
  4.750953e+00    3.681970e+00
  4.782704e+00    3.609048e+00
  4.814455e+00    3.688593e+00
  4.846206e+00    3.647553e+00
  4.877957e+00    3.717016e+00
  4.909709e+00    3.549241e+00
  4.941460e+00    3.730214e+00
  4.973211e+00    3.587993e+00
  5.004962e+00    3.658689e+00
  5.036713e+00    3.616521e+00
  5.068464e+00    3.656610e+00
  5.100216e+00    3.625816e+00
  5.131967e+00    3.624538e+00
  5.163718e+00    3.609461e+00
  5.195469e+00    3.673940e+00
  5.227220e+00    3.576176e+00
  5.258971e+00    3.684263e+00
  5.290722e+00    3.651683e+00
  5.322474e+00    3.662240e+00
  5.354225e+00    3.665833e+00
  5.385976e+00    3.630598e+00
  5.417727e+00    3.667467e+00
  5.449478e+00    3.575562e+00
  5.481229e+00    3.572173e+00
  5.512980e+00    3.645704e+00
  5.544732e+00    3.678533e+00
  5.576483e+00    3.565584e+00
  5.608234e+00    3.639585e+00
  5.639985e+00    3.675053e+00
  5.671736e+00    3.594947e+00
  5.703487e+00    3.691316e+00
  5.735238e+00    3.593772e+00
  5.766990e+00    3.577941e+00
  5.798741e+00    3.561538e+00
  5.830492e+00    3.505148e+00
  5.862243e+00    3.493129e+00
  5.893994e+00    3.527073e+00
  5.925745e+00    3.551956e+00
  5.957497e+00    3.500617e+00
  5.989248e+00    3.477810e+00
  6.020999e+00    3.469061e+00
  6.052750e+00    3.581560e+00
  6.084501e+00    3.529819e+00
  6.116252e+00    3.602626e+00
  6.148003e+00    3.562823e+00
  6.179755e+00    3.546559e+00
  6.211506e+00    3.621942e+00
  6.243257e+00    3.578615e+00
  6.275008e+00    3.541869e+00
  6.306759e+00    3.515218e+00
  6.338510e+00    3.526872e+00
  6.370261e+00    3.607255e+00
  6.402013e+00    3.489592e+00
  6.433764e+00    3.546104e+00
  6.465515e+00    3.519985e+00
  6.497266e+00    3.464397e+00
  6.529017e+00    3.635629e+00
  6.560768e+00    3.538496e+00
  6.592519e+00    3.531461e+00
  6.624271e+00    3.531278e+00
  6.656022e+00    3.592507e+00
  6.687773e+00    3.600130e+00
  6.719524e+00    3.611068e+00
  6.751275e+00    3.497523e+00
  6.783026e+00    3.575248e+00
  6.814777e+00    3.618833e+00
  6.846529e+00    3.597242e+00
  6.878280e+00    3.544394e+00
  6.910031e+00    3.572196e+00
  6.941782e+00    3.553478e+00
  6.973533e+00    3.502569e+00
  7.005284e+00    3.443299e+00
  7.037036e+00    3.458226e+00
  7.068787e+00    3.510117e+00
  7.100538e+00    3.522969e+00
  7.132289e+00    3.521685e+00
  7.164040e+00    3.555884e+00
  7.195791e+00    3.531667e+00
  7.227542e+00    3.471533e+00
  7.259294e+00    3.542419e+00
  7.291045e+00    3.560624e+00
  7.322796e+00    3.465027e+00
  7.354547e+00    3.489076e+00
  7.386298e+00    3.479960e+00
  7.418049e+00    3.456015e+00
  7.449800e+00    3.472786e+00
  7.481552e+00    3.511439e+00
  7.513303e+00    3.512031e+00
  7.545054e+00    3.442900e+00
  7.576805e+00    3.476130e+00
  7.608556e+00    3.546279e+00
  7.640307e+00    3.417926e+00
  7.672058e+00    3.470464e+00
  7.703810e+00    3.424131e+00
  7.735561e+00    3.414485e+00
  7.767312e+00    3.493698e+00
  7.799063e+00    3.436455e+00
  7.830814e+00    3.396715e+00
  7.862565e+00    3.518651e+00
  7.894317e+00    3.402953e+00
  7.926068e+00    3.426748e+00
  7.957819e+00    3.393429e+00
  7.989570e+00    3.453229e+00
  8.021321e+00    3.370568e+00
  8.053072e+00    3.438854e+00
  8.084823e+00    3.397010e+00
  8.116575e+00    3.484560e+00
  8.148326e+00    3.441460e+00
  8.180077e+00    3.470956e+00
  8.211828e+00    3.390892e+00
  8.243579e+00    3.436286e+00
  8.275330e+00    3.439790e+00
  8.307081e+00    3.414604e+00
  8.338833e+00    3.422504e+00
  8.370584e+00    3.392836e+00
  8.402335e+00    3.401150e+00
  8.434086e+00    3.392152e+00
  8.465837e+00    3.369814e+00
  8.497588e+00    3.376736e+00
  8.529339e+00    3.359081e+00
  8.561091e+00    3.391990e+00
  8.592842e+00    3.365758e+00
  8.624593e+00    3.373065e+00
  8.656344e+00    3.345528e+00
  8.688095e+00    3.375229e+00
  8.719846e+00    3.340813e+00
  8.751598e+00    3.385785e+00
  8.783349e+00    3.294374e+00
  8.815100e+00    3.342185e+00
  8.846851e+00    3.342421e+00
  8.878602e+00    3.280983e+00
  8.910353e+00    3.301187e+00
  8.942104e+00    3.265633e+00
  8.973856e+00    3.302871e+00
  9.005607e+00    3.245250e+00
  9.037358e+00    3.244900e+00
  9.069109e+00    3.333885e+00
  9.100860e+00    3.307591e+00
  9.132611e+00    3.204842e+00
  9.164362e+00    3.255639e+00
  9.196114e+00    3.318934e+00
  9.227865e+00    3.288326e+00
  9.259616e+00    3.217078e+00
  9.291367e+00    3.207729e+00
  9.323118e+00    3.209634e+00
  9.354869e+00    3.201866e+00
  9.386620e+00    3.225836e+00
  9.418372e+00    3.234864e+00
  9.450123e+00    3.240803e+00
  9.481874e+00    3.178253e+00
  9.513625e+00    3.246100e+00
  9.545376e+00    3.267160e+00
  9.577127e+00    3.319717e+00
  9.608878e+00    3.270618e+00
  9.640630e+00    3.155010e+00
  9.672381e+00    3.173464e+00
  9.704132e+00    3.133177e+00
  9.735883e+00    3.107627e+00
  9.767634e+00    3.149146e+00
  9.799385e+00    3.125721e+00
  9.831137e+00    3.164886e+00
  9.862888e+00    3.119581e+00
  9.894639e+00    3.165162e+00
  9.926390e+00    3.112392e+00
  9.958141e+00    3.132373e+00
  9.989892e+00    3.106720e+00
  1.002164e+01    3.129640e+00
  1.005339e+01    3.140415e+00
  1.008515e+01    3.139817e+00
  1.011690e+01    3.135444e+00
  1.014865e+01    3.082775e+00
  1.018040e+01    3.051826e+00
  1.021215e+01    3.067935e+00
  1.024390e+01    3.062261e+00
  1.027565e+01    3.067731e+00
  1.030740e+01    3.041243e+00
  1.033915e+01    3.047948e+00
  1.037091e+01    2.997912e+00
  1.040266e+01    3.027554e+00
  1.043441e+01    3.051613e+00
  1.046616e+01    3.016920e+00
  1.049791e+01    2.999848e+00
  1.052966e+01    3.006100e+00
  1.056141e+01    2.973724e+00
  1.059316e+01    2.983341e+00
  1.062492e+01    2.960479e+00
  1.065667e+01    2.938383e+00
  1.068842e+01    2.970799e+00
  1.072017e+01    2.961901e+00
  1.075192e+01    2.999821e+00
  1.078367e+01    2.952827e+00
  1.081542e+01    2.973294e+00
  1.084717e+01    2.896158e+00
  1.087892e+01    2.957828e+00
  1.091068e+01    2.934678e+00
  1.094243e+01    2.874409e+00
  1.097418e+01    2.917867e+00
  1.100593e+01    2.901346e+00
  1.103768e+01    2.882149e+00
  1.106943e+01    2.858406e+00
  1.110118e+01    2.858796e+00
  1.113293e+01    2.862412e+00
  1.116468e+01    2.878179e+00
  1.119644e+01    2.882552e+00
  1.122819e+01    2.864733e+00
  1.125994e+01    2.901090e+00
  1.129169e+01    2.833618e+00
  1.132344e+01    2.875609e+00
  1.135519e+01    2.800490e+00
  1.138694e+01    2.850155e+00
  1.141869e+01    2.818016e+00
  1.145045e+01    2.757562e+00
  1.148220e+01    2.790970e+00
  1.151395e+01    2.861653e+00
  1.154570e+01    2.799977e+00
  1.157745e+01    2.750640e+00
  1.160920e+01    2.822447e+00
  1.164095e+01    2.775472e+00
  1.167270e+01    2.742843e+00
  1.170445e+01    2.765809e+00
  1.173621e+01    2.725199e+00
  1.176796e+01    2.760554e+00
  1.179971e+01    2.709330e+00
  1.183146e+01    2.771116e+00
  1.186321e+01    2.733574e+00
  1.189496e+01    2.754421e+00
  1.192671e+01    2.748584e+00
  1.195846e+01    2.691914e+00
  1.199021e+01    2.666418e+00
  1.202197e+01    2.702151e+00
  1.205372e+01    2.701718e+00
  1.208547e+01    2.744233e+00
  1.211722e+01    2.713700e+00
  1.214897e+01    2.702576e+00
  1.218072e+01    2.765915e+00
  1.221247e+01    2.679797e+00
  1.224422e+01    2.740781e+00
  1.227597e+01    2.715428e+00
  1.230773e+01    2.740997e+00
  1.233948e+01    2.693550e+00
  1.237123e+01    2.707655e+00
  1.240298e+01    2.720469e+00
  1.243473e+01    2.720643e+00
  1.246648e+01    2.700190e+00
  1.249823e+01    2.701010e+00
  1.252998e+01    2.693742e+00
  1.256174e+01    2.768477e+00
  1.259349e+01    2.696356e+00
  1.262524e+01    2.792266e+00
  1.265699e+01    2.799594e+00
  1.268874e+01    2.836472e+00
  1.272049e+01    2.809862e+00
  1.275224e+01    2.970232e+00
  1.278399e+01    2.985540e+00
  1.281574e+01    3.019928e+00
  1.284750e+01    3.243352e+00
  1.287925e+01    3.401896e+00
  1.291100e+01    3.667223e+00
  1.294275e+01    4.081594e+00
  1.297450e+01    4.829623e+00
  1.300625e+01    5.974176e+00
  1.303800e+01    7.699034e+00
  1.306975e+01    1.016860e+01
  1.310150e+01    1.278019e+01
  1.313326e+01    1.476119e+01
  1.316501e+01    1.629782e+01
  1.319676e+01    1.543361e+01
  1.322851e+01    1.229967e+01
  1.326026e+01    8.996158e+00
  1.329201e+01    6.648061e+00
  1.332376e+01    5.266138e+00
  1.335551e+01    4.386386e+00
  1.338727e+01    3.822664e+00
  1.341902e+01    3.453761e+00
  1.345077e+01    3.217437e+00
  1.348252e+01    3.050528e+00
  1.351427e+01    2.916473e+00
  1.354602e+01    2.855016e+00
  1.357777e+01    2.714766e+00
  1.360952e+01    2.684324e+00
  1.364127e+01    2.655814e+00
  1.367303e+01    2.576074e+00
  1.370478e+01    2.560028e+00
  1.373653e+01    2.497677e+00
  1.376828e+01    2.492686e+00
  1.380003e+01    2.422154e+00
  1.383178e+01    2.489105e+00
  1.386353e+01    2.415362e+00
  1.389528e+01    2.422494e+00
  1.392703e+01    2.409969e+00
  1.395879e+01    2.384599e+00
  1.399054e+01    2.393007e+00
  1.402229e+01    2.402534e+00
  1.405404e+01    2.360488e+00
  1.408579e+01    2.333755e+00
  1.411754e+01    2.308063e+00
  1.414929e+01    2.355921e+00
  1.418104e+01    2.291666e+00
  1.421279e+01    2.270086e+00
  1.424455e+01    2.269861e+00
  1.427630e+01    2.271287e+00
  1.430805e+01    2.272865e+00
  1.433980e+01    2.243318e+00
  1.437155e+01    2.244551e+00
  1.440330e+01    2.238344e+00
  1.443505e+01    2.238980e+00
  1.446680e+01    2.197758e+00
  1.449856e+01    2.249846e+00
  1.453031e+01    2.238943e+00
  1.456206e+01    2.216402e+00
  1.459381e+01    2.240871e+00
  1.462556e+01    2.230992e+00
  1.465731e+01    2.232900e+00
  1.468906e+01    2.203839e+00
  1.472081e+01    2.192509e+00
  1.475256e+01    2.194553e+00
  1.478432e+01    2.216081e+00
  1.481607e+01    2.163788e+00
  1.484782e+01    2.199708e+00
  1.487957e+01    2.188920e+00
  1.491132e+01    2.232499e+00
  1.494307e+01    2.273628e+00
  1.497482e+01    2.307538e+00
  1.500657e+01    2.432305e+00
  1.503832e+01    2.641698e+00
  1.507008e+01    2.844141e+00
  1.510183e+01    3.178467e+00
  1.513358e+01    3.768574e+00
  1.516533e+01    4.496895e+00
  1.519708e+01    5.205645e+00
  1.522883e+01    5.579103e+00
  1.526058e+01    5.849765e+00
  1.529233e+01    5.387465e+00
  1.532409e+01    4.672208e+00
  1.535584e+01    3.738680e+00
  1.538759e+01    3.157383e+00
  1.541934e+01    2.785004e+00
  1.545109e+01    2.517963e+00
  1.548284e+01    2.338121e+00
  1.551459e+01    2.288774e+00
  1.554634e+01    2.151116e+00
  1.557809e+01    2.105989e+00
  1.560985e+01    2.045765e+00
  1.564160e+01    2.071315e+00
  1.567335e+01    2.026653e+00
  1.570510e+01    1.989675e+00
  1.573685e+01    1.959549e+00
  1.576860e+01    1.964476e+00
  1.580035e+01    1.944664e+00
  1.583210e+01    1.925839e+00
  1.586385e+01    1.909005e+00
  1.589561e+01    1.901008e+00
  1.592736e+01    1.895154e+00
  1.595911e+01    1.920669e+00
  1.599086e+01    1.897027e+00
  1.602261e+01    1.865583e+00
  1.605436e+01    1.867735e+00
  1.608611e+01    1.861135e+00
  1.611786e+01    1.816091e+00
  1.614961e+01    1.860871e+00
  1.618137e+01    1.851470e+00
  1.621312e+01    1.837206e+00
  1.624487e+01    1.813322e+00
  1.627662e+01    1.778733e+00
  1.630837e+01    1.772669e+00
  1.634012e+01    1.810562e+00
  1.637187e+01    1.772100e+00
  1.640362e+01    1.745887e+00
  1.643538e+01    1.756406e+00
  1.646713e+01    1.752824e+00
  1.649888e+01    1.761120e+00
  1.653063e+01    1.757025e+00
  1.656238e+01    1.729741e+00
  1.659413e+01    1.742536e+00
  1.662588e+01    1.734691e+00
  1.665763e+01    1.731796e+00
  1.668938e+01    1.717278e+00
  1.672114e+01    1.687761e+00
  1.675289e+01    1.729692e+00
  1.678464e+01    1.727292e+00
  1.681639e+01    1.667259e+00
  1.684814e+01    1.694581e+00
  1.687989e+01    1.659298e+00
  1.691164e+01    1.665932e+00
  1.694339e+01    1.723355e+00
  1.697514e+01    1.679443e+00
  1.700690e+01    1.677659e+00
  1.703865e+01    1.638802e+00
  1.707040e+01    1.658756e+00
  1.710215e+01    1.664013e+00
  1.713390e+01    1.640964e+00
  1.716565e+01    1.679732e+00
  1.719740e+01    1.611144e+00
  1.722915e+01    1.634262e+00
  1.726091e+01    1.619931e+00
  1.729266e+01    1.634156e+00
  1.732441e+01    1.611239e+00
  1.735616e+01    1.569113e+00
  1.738791e+01    1.604213e+00
  1.741966e+01    1.594698e+00
  1.745141e+01    1.595875e+00
  1.748316e+01    1.606313e+00
  1.751491e+01    1.574920e+00
  1.754667e+01    1.598802e+00
  1.757842e+01    1.560781e+00
  1.761017e+01    1.580588e+00
  1.764192e+01    1.559189e+00
  1.767367e+01    1.552281e+00
  1.770542e+01    1.536909e+00
  1.773717e+01    1.551121e+00
  1.776892e+01    1.544626e+00
  1.780067e+01    1.523389e+00
  1.783243e+01    1.560963e+00
  1.786418e+01    1.531073e+00
  1.789593e+01    1.529895e+00
  1.792768e+01    1.511748e+00
  1.795943e+01    1.509194e+00
  1.799118e+01    1.491764e+00
  1.802293e+01    1.505768e+00
  1.805468e+01    1.496379e+00
  1.808643e+01    1.532865e+00
  1.811819e+01    1.520174e+00
  1.814994e+01    1.457957e+00
  1.818169e+01    1.480206e+00
  1.821344e+01    1.493192e+00
  1.824519e+01    1.461336e+00
  1.827694e+01    1.473909e+00
  1.830869e+01    1.489764e+00
  1.834044e+01    1.457480e+00
  1.837220e+01    1.450017e+00
  1.840395e+01    1.441372e+00
  1.843570e+01    1.437427e+00
  1.846745e+01    1.410690e+00
  1.849920e+01    1.468823e+00
  1.853095e+01    1.431824e+00
  1.856270e+01    1.427713e+00
  1.859445e+01    1.447351e+00
  1.862620e+01    1.432503e+00
  1.865796e+01    1.421210e+00
  1.868971e+01    1.432151e+00
  1.872146e+01    1.402272e+00
  1.875321e+01    1.405439e+00
  1.878496e+01    1.423273e+00
  1.881671e+01    1.413407e+00
  1.884846e+01    1.384403e+00
  1.888021e+01    1.398336e+00
  1.891196e+01    1.370176e+00
  1.894372e+01    1.395641e+00
  1.897547e+01    1.403885e+00
  1.900722e+01    1.377616e+00
  1.903897e+01    1.411424e+00
  1.907072e+01    1.390369e+00
  1.910247e+01    1.370099e+00
  1.913422e+01    1.357953e+00
  1.916597e+01    1.365888e+00
  1.919773e+01    1.365287e+00
  1.922948e+01    1.336579e+00
  1.926123e+01    1.359679e+00
  1.929298e+01    1.331142e+00
  1.932473e+01    1.341469e+00
  1.935648e+01    1.354692e+00
  1.938823e+01    1.343524e+00
  1.941998e+01    1.327560e+00
  1.945173e+01    1.322136e+00
  1.948349e+01    1.344660e+00
  1.951524e+01    1.327088e+00
  1.954699e+01    1.308123e+00
  1.957874e+01    1.312900e+00
  1.961049e+01    1.318813e+00
  1.964224e+01    1.335842e+00
  1.967399e+01    1.326917e+00
  1.970574e+01    1.310994e+00
  1.973749e+01    1.315260e+00
  1.976925e+01    1.307686e+00
  1.980100e+01    1.308537e+00
  1.983275e+01    1.304882e+00
  1.986450e+01    1.299878e+00
  1.989625e+01    1.298534e+00
  1.992800e+01    1.301611e+00
  1.995975e+01    1.276526e+00
  1.999150e+01    1.342611e+00
  2.002325e+01    1.290830e+00
  2.005501e+01    1.253422e+00
  2.008676e+01    1.254653e+00
  2.011851e+01    1.275531e+00
  2.015026e+01    1.273389e+00
  2.018201e+01    1.264865e+00
  2.021376e+01    1.286402e+00
  2.024551e+01    1.230548e+00
  2.027726e+01    1.215292e+00
  2.030902e+01    1.263161e+00
  2.034077e+01    1.274573e+00
  2.037252e+01    1.266633e+00
  2.040427e+01    1.216456e+00
  2.043602e+01    1.246342e+00
  2.046777e+01    1.202398e+00
  2.049952e+01    1.237959e+00
  2.053127e+01    1.242144e+00
  2.056302e+01    1.245304e+00
  2.059478e+01    1.217186e+00
  2.062653e+01    1.235629e+00
  2.065828e+01    1.212796e+00
  2.069003e+01    1.234578e+00
  2.072178e+01    1.215134e+00
  2.075353e+01    1.254033e+00
  2.078528e+01    1.233248e+00
  2.081703e+01    1.216745e+00
  2.084878e+01    1.195995e+00
  2.088054e+01    1.224247e+00
  2.091229e+01    1.212237e+00
  2.094404e+01    1.231180e+00
  2.097579e+01    1.244228e+00
  2.100754e+01    1.255407e+00
  2.103929e+01    1.232365e+00
  2.107104e+01    1.212826e+00
  2.110279e+01    1.229374e+00
  2.113455e+01    1.209704e+00
  2.116630e+01    1.219430e+00
  2.119805e+01    1.234562e+00
  2.122980e+01    1.250761e+00
  2.126155e+01    1.253564e+00
  2.129330e+01    1.244534e+00
  2.132505e+01    1.279320e+00
  2.135680e+01    1.258167e+00
  2.138855e+01    1.303112e+00
  2.142031e+01    1.323798e+00
  2.145206e+01    1.345324e+00
  2.148381e+01    1.395204e+00
  2.151556e+01    1.436243e+00
  2.154731e+01    1.546665e+00
  2.157906e+01    1.610482e+00
  2.161081e+01    1.755601e+00
  2.164256e+01    2.008943e+00
  2.167431e+01    2.292893e+00
  2.170607e+01    2.804068e+00
  2.173782e+01    3.528112e+00
  2.176957e+01    4.593683e+00
  2.180132e+01    5.880697e+00
  2.183307e+01    7.206868e+00
  2.186482e+01    8.335845e+00
  2.189657e+01    8.886812e+00
  2.192832e+01    8.199418e+00
  2.196007e+01    6.493094e+00
  2.199183e+01    4.821741e+00
  2.202358e+01    3.638020e+00
  2.205533e+01    2.813910e+00
  2.208708e+01    2.298636e+00
  2.211883e+01    1.992836e+00
  2.215058e+01    1.752756e+00
  2.218233e+01    1.605684e+00
  2.221408e+01    1.485870e+00
  2.224584e+01    1.410745e+00
  2.227759e+01    1.348740e+00
  2.230934e+01    1.316035e+00
  2.234109e+01    1.266537e+00
  2.237284e+01    1.244690e+00
  2.240459e+01    1.211636e+00
  2.243634e+01    1.174896e+00
  2.246809e+01    1.161031e+00
  2.249984e+01    1.170418e+00
  2.253160e+01    1.133143e+00
  2.256335e+01    1.103472e+00
  2.259510e+01    1.098772e+00
  2.262685e+01    1.090846e+00
  2.265860e+01    1.106205e+00
  2.269035e+01    1.086137e+00
  2.272210e+01    1.084493e+00
  2.275385e+01    1.064475e+00
  2.278560e+01    1.055939e+00
  2.281736e+01    1.058027e+00
  2.284911e+01    1.036077e+00
  2.288086e+01    1.032127e+00
  2.291261e+01    1.046171e+00
  2.294436e+01    1.047367e+00
  2.297611e+01    1.037895e+00
  2.300786e+01    1.018316e+00
  2.303961e+01    1.021250e+00
  2.307137e+01    1.021684e+00
  2.310312e+01    9.975004e-01
  2.313487e+01    1.004467e+00
  2.316662e+01    9.954300e-01
  2.319837e+01    9.871645e-01
  2.323012e+01    9.868671e-01
  2.326187e+01    9.825875e-01
  2.329362e+01    1.015090e+00
  2.332537e+01    9.925222e-01
  2.335713e+01    9.872673e-01
  2.338888e+01    9.817824e-01
  2.342063e+01    9.823514e-01
  2.345238e+01    9.530149e-01
  2.348413e+01    9.628673e-01
  2.351588e+01    9.532396e-01
  2.354763e+01    9.649951e-01
  2.357938e+01    9.756779e-01
  2.361113e+01    9.646642e-01
  2.364289e+01    9.598343e-01
  2.367464e+01    9.510508e-01
  2.370639e+01    9.047620e-01
  2.373814e+01    9.328777e-01
  2.376989e+01    9.273570e-01
  2.380164e+01    9.239028e-01
  2.383339e+01    9.186918e-01
  2.386514e+01    9.242992e-01
  2.389689e+01    8.866495e-01
  2.392865e+01    9.045885e-01
  2.396040e+01    9.033453e-01
  2.399215e+01    9.008850e-01
  2.402390e+01    8.977582e-01
  2.405565e+01    8.884580e-01
  2.408740e+01    8.997195e-01
  2.411915e+01    8.831994e-01
  2.415090e+01    8.771961e-01
  2.418266e+01    8.796170e-01
  2.421441e+01    8.828994e-01
  2.424616e+01    8.758718e-01
  2.427791e+01    8.773300e-01
  2.430966e+01    8.932858e-01
  2.434141e+01    8.914853e-01
  2.437316e+01    8.904613e-01
  2.440491e+01    8.872891e-01
  2.443666e+01    8.886103e-01
  2.446842e+01    9.087739e-01
  2.450017e+01    9.021521e-01
  2.453192e+01    8.883355e-01
  2.456367e+01    8.973559e-01
  2.459542e+01    8.984252e-01
  2.462717e+01    9.021205e-01
  2.465892e+01    8.937643e-01
  2.469067e+01    9.145072e-01
  2.472242e+01    8.984596e-01
  2.475418e+01    8.724070e-01
  2.478593e+01    8.871115e-01
  2.481768e+01    8.830696e-01
  2.484943e+01    9.050202e-01
  2.488118e+01    8.659579e-01
  2.491293e+01    8.801161e-01
  2.494468e+01    8.804122e-01
  2.497643e+01    8.998775e-01
  2.500819e+01    8.900573e-01
  2.503994e+01    9.098825e-01
  2.507169e+01    9.035308e-01
  2.510344e+01    9.079041e-01
  2.513519e+01    8.916512e-01
  2.516694e+01    9.066547e-01
  2.519869e+01    9.165795e-01
  2.523044e+01    9.370505e-01
  2.526219e+01    9.480028e-01
  2.529395e+01    9.455171e-01
  2.532570e+01    9.533206e-01
  2.535745e+01    9.790211e-01
  2.538920e+01    9.741957e-01
  2.542095e+01    9.918736e-01
  2.545270e+01    9.934925e-01
  2.548445e+01    1.052067e+00
  2.551620e+01    1.074817e+00
  2.554795e+01    1.116756e+00
  2.557971e+01    1.143850e+00
  2.561146e+01    1.203919e+00
  2.564321e+01    1.286680e+00
  2.567496e+01    1.411367e+00
  2.570671e+01    1.602227e+00
  2.573846e+01    1.877526e+00
  2.577021e+01    2.224077e+00
  2.580196e+01    2.839948e+00
  2.583371e+01    3.710594e+00
  2.586547e+01    4.700631e+00
  2.589722e+01    5.835368e+00
  2.592897e+01    6.721665e+00
  2.596072e+01    7.091088e+00
  2.599247e+01    6.457155e+00
  2.602422e+01    5.231617e+00
  2.605597e+01    3.880805e+00
  2.608772e+01    2.981287e+00
  2.611948e+01    2.322345e+00
  2.615123e+01    1.897465e+00
  2.618298e+01    1.661212e+00
  2.621473e+01    1.484004e+00
  2.624648e+01    1.331407e+00
  2.627823e+01    1.277821e+00
  2.630998e+01    1.158061e+00
  2.634173e+01    1.123616e+00
  2.637348e+01    1.089761e+00
  2.640524e+01    1.027940e+00
  2.643699e+01    1.034032e+00
  2.646874e+01    1.019430e+00
  2.650049e+01    1.021613e+00
  2.653224e+01    9.927237e-01
  2.656399e+01    9.966987e-01
  2.659574e+01    9.816497e-01
  2.662749e+01    9.707902e-01
  2.665924e+01    9.728985e-01
  2.669100e+01    9.828625e-01
  2.672275e+01    9.620202e-01
  2.675450e+01    9.861227e-01
  2.678625e+01    9.682182e-01
  2.681800e+01    9.628643e-01
  2.684975e+01    9.779605e-01
  2.688150e+01    9.649338e-01
  2.691325e+01    1.012171e+00
  2.694501e+01    9.969231e-01
  2.697676e+01    1.049082e+00
  2.700851e+01    1.132887e+00
  2.704026e+01    1.200542e+00
  2.707201e+01    1.325563e+00
  2.710376e+01    1.512284e+00
  2.713551e+01    1.758301e+00
  2.716726e+01    1.991054e+00
  2.719901e+01    2.141209e+00
  2.723077e+01    2.138680e+00
  2.726252e+01    1.929618e+00
  2.729427e+01    1.691188e+00
  2.732602e+01    1.427355e+00
  2.735777e+01    1.300484e+00
  2.738952e+01    1.148854e+00
  2.742127e+01    1.072646e+00
  2.745302e+01    1.009896e+00
  2.748477e+01    1.012821e+00
  2.751653e+01    9.477913e-01
  2.754828e+01    9.381775e-01
  2.758003e+01    9.312229e-01
  2.761178e+01    9.279892e-01
  2.764353e+01    9.245043e-01
  2.767528e+01    8.967683e-01
  2.770703e+01    9.046509e-01
  2.773878e+01    8.888100e-01
  2.777054e+01    9.118418e-01
  2.780229e+01    8.866093e-01
  2.783404e+01    9.063934e-01
  2.786579e+01    8.738838e-01
  2.789754e+01    8.671114e-01
  2.792929e+01    8.519121e-01
  2.796104e+01    8.590761e-01
  2.799279e+01    9.078086e-01
  2.802454e+01    8.811949e-01
  2.805630e+01    8.528478e-01
  2.808805e+01    8.645890e-01
  2.811980e+01    8.374370e-01
  2.815155e+01    8.584746e-01
  2.818330e+01    8.586083e-01
  2.821505e+01    8.540849e-01
  2.824680e+01    8.475309e-01
  2.827855e+01    8.617460e-01
  2.831030e+01    8.578826e-01
  2.834206e+01    8.343115e-01
  2.837381e+01    8.383402e-01
  2.840556e+01    8.346999e-01
  2.843731e+01    8.209030e-01
  2.846906e+01    8.347965e-01
  2.850081e+01    8.298016e-01
  2.853256e+01    8.415341e-01
  2.856431e+01    8.444341e-01
  2.859606e+01    8.270386e-01
  2.862782e+01    8.409458e-01
  2.865957e+01    8.248862e-01
  2.869132e+01    8.151715e-01
  2.872307e+01    8.246459e-01
  2.875482e+01    8.199882e-01
  2.878657e+01    8.333548e-01
  2.881832e+01    8.093663e-01
  2.885007e+01    8.168702e-01
  2.888183e+01    8.206527e-01
  2.891358e+01    7.976049e-01
  2.894533e+01    8.142104e-01
  2.897708e+01    8.263364e-01
  2.900883e+01    8.219444e-01
  2.904058e+01    8.225431e-01
  2.907233e+01    8.099618e-01
  2.910408e+01    7.955363e-01
  2.913583e+01    8.153892e-01
  2.916759e+01    8.099726e-01
  2.919934e+01    7.883352e-01
  2.923109e+01    8.235705e-01
  2.926284e+01    8.026865e-01
  2.929459e+01    7.944150e-01
  2.932634e+01    7.876983e-01
  2.935809e+01    8.026433e-01
  2.938984e+01    8.064593e-01
  2.942159e+01    8.173108e-01
  2.945335e+01    7.947070e-01
  2.948510e+01    8.000478e-01
  2.951685e+01    8.109931e-01
  2.954860e+01    8.121265e-01
  2.958035e+01    8.180389e-01
  2.961210e+01    8.070571e-01
  2.964385e+01    7.977671e-01
  2.967560e+01    8.128356e-01
  2.970736e+01    7.963064e-01
  2.973911e+01    8.067564e-01
  2.977086e+01    7.902334e-01
  2.980261e+01    8.064128e-01
  2.983436e+01    7.940900e-01
  2.986611e+01    8.219166e-01
  2.989786e+01    8.005666e-01
  2.992961e+01    7.870209e-01
  2.996136e+01    8.068585e-01
  2.999312e+01    8.121300e-01
  3.002487e+01    8.268018e-01
  3.005662e+01    8.132370e-01
  3.008837e+01    8.142753e-01
  3.012012e+01    7.922864e-01
  3.015187e+01    7.923777e-01
  3.018362e+01    7.689325e-01
  3.021537e+01    7.780759e-01
  3.024712e+01    7.845032e-01
  3.027888e+01    7.815829e-01
  3.031063e+01    7.809640e-01
  3.034238e+01    7.797837e-01
  3.037413e+01    7.784139e-01
  3.040588e+01    7.704279e-01
  3.043763e+01    7.952310e-01
  3.046938e+01    7.721466e-01
  3.050113e+01    7.831854e-01
  3.053288e+01    7.954753e-01
  3.056464e+01    7.877439e-01
  3.059639e+01    8.085188e-01
  3.062814e+01    7.897064e-01
  3.065989e+01    7.743298e-01
  3.069164e+01    7.917489e-01
  3.072339e+01    7.861984e-01
  3.075514e+01    7.779559e-01
  3.078689e+01    7.789829e-01
  3.081865e+01    7.945830e-01
  3.085040e+01    7.769917e-01
  3.088215e+01    8.074756e-01
  3.091390e+01    7.837638e-01
  3.094565e+01    8.037108e-01
  3.097740e+01    7.925328e-01
  3.100915e+01    7.767391e-01
  3.104090e+01    7.749549e-01
  3.107265e+01    7.902055e-01
  3.110441e+01    7.862102e-01
  3.113616e+01    7.847049e-01
  3.116791e+01    8.000942e-01
  3.119966e+01    7.719069e-01
  3.123141e+01    7.640859e-01
  3.126316e+01    7.899216e-01
  3.129491e+01    7.742467e-01
  3.132666e+01    7.824890e-01
  3.135841e+01    7.911023e-01
  3.139017e+01    8.156269e-01
  3.142192e+01    8.214946e-01
  3.145367e+01    8.171316e-01
  3.148542e+01    8.131937e-01
  3.151717e+01    8.083577e-01
  3.154892e+01    8.429891e-01
  3.158067e+01    8.625476e-01
  3.161242e+01    9.051356e-01
  3.164418e+01    8.964154e-01
  3.167593e+01    9.481861e-01
  3.170768e+01    1.019277e+00
  3.173943e+01    1.118609e+00
  3.177118e+01    1.256930e+00
  3.180293e+01    1.446177e+00
  3.183468e+01    1.694060e+00
  3.186643e+01    1.944784e+00
  3.189818e+01    2.091432e+00
  3.192994e+01    1.999679e+00
  3.196169e+01    1.810504e+00
  3.199344e+01    1.555007e+00
  3.202519e+01    1.313392e+00
  3.205694e+01    1.122323e+00
  3.208869e+01    1.036695e+00
  3.212044e+01    9.675556e-01
  3.215219e+01    9.009976e-01
  3.218394e+01    8.687646e-01
  3.221570e+01    8.573902e-01
  3.224745e+01    8.530709e-01
  3.227920e+01    8.076583e-01
  3.231095e+01    8.171592e-01
  3.234270e+01    7.924108e-01
  3.237445e+01    8.048227e-01
  3.240620e+01    7.850536e-01
  3.243795e+01    7.933423e-01
  3.246970e+01    7.726362e-01
  3.250146e+01    7.770069e-01
  3.253321e+01    7.823291e-01
  3.254908e+01    7.929878e-01