File: XRD/Reaction conditions/2024-07-27_003_Ru-CGO-ex_Reaction_dwell_000023_data_000068.dat
# == pyFAI calibration ==
# Distance Sample to Detector: 0.4 m
# PONI: 9.750e-02, 1.135e-01 m
# Rotations: -0.000175 0.000000 -0.000000 rad
#
# == Fit2d calibration ==
# Distance Sample-beamCenter: 400.000 mm
# Center: x=1514.000, y=1300.000 pix
# Tilt: 0.010 deg  TiltPlanRot: 0.010 deg
#
# Detector Detector	 Spline= None	 PixelSize= 7.500e-05, 7.500e-05 m
#    Detector has a mask: False
#    Detector has a dark current: False
#    detector has a flat field: False
#
# Wavelength: 6.888e-11 m
# Mask applied: user provided
# Dark current applied: False
# Flat field applied: False
# Polarization factor: 0.99
# Normalization factor: 1.0
# --> /home/myspot/data/2024_07_Rosario/Ru-CGO-ex/2024-07-27_003_Ru-CGO-ex_Reaction_dwell_000023_data_000068.dat
#       q_nm^-1             I
  2.003187e-02    0.000000e+00
  5.178302e-02    4.982200e-02
  8.353417e-02    8.182689e-02
  1.152853e-01    2.737308e-02
  1.470365e-01    1.543290e-02
  1.787876e-01    1.442671e-02
  2.105388e-01    3.696898e-02
  2.422899e-01    6.583267e-02
  2.740411e-01    2.304467e-02
  3.057922e-01    2.648416e-02
  3.375433e-01    9.278978e-02
  3.692945e-01    5.245586e-02
  4.010456e-01    2.230303e-02
  4.327968e-01    2.745653e-02
  4.645479e-01    4.079744e-02
  4.962991e-01    6.002546e-02
  5.280502e-01    4.233904e-02
  5.598014e-01    3.867015e-02
  5.915525e-01    4.803328e-02
  6.233037e-01    2.562050e-02
  6.550548e-01    5.050659e-02
  6.868060e-01    2.483786e-02
  7.185571e-01    3.636897e-02
  7.503083e-01    5.864640e-02
  7.820594e-01    1.219518e-01
  8.138106e-01    1.781309e-01
  8.455617e-01    3.129838e-01
  8.773129e-01    4.773719e-01
  9.090640e-01    6.426412e-01
  9.408152e-01    8.609849e-01
  9.725663e-01    1.014403e+00
  1.004317e+00    1.201709e+00
  1.036069e+00    1.373380e+00
  1.067820e+00    1.515060e+00
  1.099571e+00    1.566713e+00
  1.131322e+00    1.584191e+00
  1.163073e+00    1.691844e+00
  1.194824e+00    1.728528e+00
  1.226575e+00    2.214006e+00
  1.258327e+00    2.475005e+00
  1.290078e+00    2.684807e+00
  1.321829e+00    2.586065e+00
  1.353580e+00    2.595335e+00
  1.385331e+00    2.841953e+00
  1.417082e+00    2.893729e+00
  1.448834e+00    3.001138e+00
  1.480585e+00    2.919785e+00
  1.512336e+00    3.058419e+00
  1.544087e+00    3.136752e+00
  1.575838e+00    3.296628e+00
  1.607589e+00    3.281124e+00
  1.639340e+00    3.256450e+00
  1.671092e+00    3.193841e+00
  1.702843e+00    3.149121e+00
  1.734594e+00    3.097725e+00
  1.766345e+00    3.065172e+00
  1.798096e+00    3.013674e+00
  1.829847e+00    3.187297e+00
  1.861598e+00    3.070207e+00
  1.893350e+00    3.033727e+00
  1.925101e+00    3.062704e+00
  1.956852e+00    3.125809e+00
  1.988603e+00    3.088348e+00
  2.020354e+00    3.110065e+00
  2.052105e+00    3.051938e+00
  2.083856e+00    3.109647e+00
  2.115608e+00    3.017144e+00
  2.147359e+00    3.048580e+00
  2.179110e+00    3.134282e+00
  2.210861e+00    3.175702e+00
  2.242612e+00    3.081762e+00
  2.274363e+00    3.116097e+00
  2.306115e+00    3.111844e+00
  2.337866e+00    3.135381e+00
  2.369617e+00    3.235141e+00
  2.401368e+00    3.177582e+00
  2.433119e+00    3.246052e+00
  2.464870e+00    3.227084e+00
  2.496621e+00    3.176048e+00
  2.528373e+00    3.277319e+00
  2.560124e+00    3.201472e+00
  2.591875e+00    3.205512e+00
  2.623626e+00    3.225149e+00
  2.655377e+00    3.297926e+00
  2.687128e+00    3.314514e+00
  2.718879e+00    3.145101e+00
  2.750631e+00    3.313906e+00
  2.782382e+00    3.340807e+00
  2.814133e+00    3.401957e+00
  2.845884e+00    3.315469e+00
  2.877635e+00    3.387465e+00
  2.909386e+00    3.216025e+00
  2.941137e+00    3.315052e+00
  2.972889e+00    3.331856e+00
  3.004640e+00    3.359374e+00
  3.036391e+00    3.367129e+00
  3.068142e+00    3.354019e+00
  3.099893e+00    3.415006e+00
  3.131644e+00    3.282522e+00
  3.163395e+00    3.419645e+00
  3.195147e+00    3.309214e+00
  3.226898e+00    3.356508e+00
  3.258649e+00    3.382969e+00
  3.290400e+00    3.394577e+00
  3.322151e+00    3.459349e+00
  3.353902e+00    3.363550e+00
  3.385654e+00    3.428720e+00
  3.417405e+00    3.358189e+00
  3.449156e+00    3.421970e+00
  3.480907e+00    3.542664e+00
  3.512658e+00    3.358802e+00
  3.544409e+00    3.347144e+00
  3.576160e+00    3.447052e+00
  3.607912e+00    3.486184e+00
  3.639663e+00    3.448695e+00
  3.671414e+00    3.519550e+00
  3.703165e+00    3.538582e+00
  3.734916e+00    3.472648e+00
  3.766667e+00    3.637184e+00
  3.798418e+00    3.518512e+00
  3.830170e+00    3.556937e+00
  3.861921e+00    3.476189e+00
  3.893672e+00    3.454274e+00
  3.925423e+00    3.469873e+00
  3.957174e+00    3.494708e+00
  3.988925e+00    3.534832e+00
  4.020676e+00    3.528403e+00
  4.052428e+00    3.509960e+00
  4.084179e+00    3.526430e+00
  4.115930e+00    3.514235e+00
  4.147681e+00    3.586350e+00
  4.179432e+00    3.653051e+00
  4.211183e+00    3.549716e+00
  4.242935e+00    3.629175e+00
  4.274686e+00    3.545608e+00
  4.306437e+00    3.564810e+00
  4.338188e+00    3.550309e+00
  4.369939e+00    3.587386e+00
  4.401690e+00    3.630633e+00
  4.433441e+00    3.511494e+00
  4.465193e+00    3.531364e+00
  4.496944e+00    3.624552e+00
  4.528695e+00    3.616395e+00
  4.560446e+00    3.410748e+00
  4.592197e+00    3.600695e+00
  4.623948e+00    3.625886e+00
  4.655699e+00    3.689775e+00
  4.687451e+00    3.546517e+00
  4.719202e+00    3.611079e+00
  4.750953e+00    3.581365e+00
  4.782704e+00    3.497345e+00
  4.814455e+00    3.649135e+00
  4.846206e+00    3.745394e+00
  4.877957e+00    3.708979e+00
  4.909709e+00    3.648332e+00
  4.941460e+00    3.645849e+00
  4.973211e+00    3.674942e+00
  5.004962e+00    3.695194e+00
  5.036713e+00    3.597486e+00
  5.068464e+00    3.754022e+00
  5.100216e+00    3.661401e+00
  5.131967e+00    3.654684e+00
  5.163718e+00    3.562238e+00
  5.195469e+00    3.575532e+00
  5.227220e+00    3.670572e+00
  5.258971e+00    3.605633e+00
  5.290722e+00    3.642331e+00
  5.322474e+00    3.643600e+00
  5.354225e+00    3.744342e+00
  5.385976e+00    3.656088e+00
  5.417727e+00    3.603259e+00
  5.449478e+00    3.608121e+00
  5.481229e+00    3.526830e+00
  5.512980e+00    3.654644e+00
  5.544732e+00    3.575446e+00
  5.576483e+00    3.561452e+00
  5.608234e+00    3.642607e+00
  5.639985e+00    3.554601e+00
  5.671736e+00    3.524820e+00
  5.703487e+00    3.549472e+00
  5.735238e+00    3.581722e+00
  5.766990e+00    3.668361e+00
  5.798741e+00    3.594024e+00
  5.830492e+00    3.526864e+00
  5.862243e+00    3.540289e+00
  5.893994e+00    3.475021e+00
  5.925745e+00    3.562411e+00
  5.957497e+00    3.595020e+00
  5.989248e+00    3.560330e+00
  6.020999e+00    3.540808e+00
  6.052750e+00    3.513676e+00
  6.084501e+00    3.531956e+00
  6.116252e+00    3.574923e+00
  6.148003e+00    3.589158e+00
  6.179755e+00    3.561025e+00
  6.211506e+00    3.571521e+00
  6.243257e+00    3.639076e+00
  6.275008e+00    3.484234e+00
  6.306759e+00    3.503726e+00
  6.338510e+00    3.537125e+00
  6.370261e+00    3.563738e+00
  6.402013e+00    3.591551e+00
  6.433764e+00    3.538781e+00
  6.465515e+00    3.619343e+00
  6.497266e+00    3.578051e+00
  6.529017e+00    3.632504e+00
  6.560768e+00    3.542949e+00
  6.592519e+00    3.589826e+00
  6.624271e+00    3.473495e+00
  6.656022e+00    3.523977e+00
  6.687773e+00    3.558116e+00
  6.719524e+00    3.576783e+00
  6.751275e+00    3.631219e+00
  6.783026e+00    3.538452e+00
  6.814777e+00    3.597701e+00
  6.846529e+00    3.481153e+00
  6.878280e+00    3.465284e+00
  6.910031e+00    3.496053e+00
  6.941782e+00    3.595724e+00
  6.973533e+00    3.500659e+00
  7.005284e+00    3.509802e+00
  7.037036e+00    3.511335e+00
  7.068787e+00    3.578361e+00
  7.100538e+00    3.470584e+00
  7.132289e+00    3.578733e+00
  7.164040e+00    3.520319e+00
  7.195791e+00    3.416844e+00
  7.227542e+00    3.470214e+00
  7.259294e+00    3.527743e+00
  7.291045e+00    3.521881e+00
  7.322796e+00    3.440971e+00
  7.354547e+00    3.557574e+00
  7.386298e+00    3.461783e+00
  7.418049e+00    3.463702e+00
  7.449800e+00    3.524384e+00
  7.481552e+00    3.499943e+00
  7.513303e+00    3.525438e+00
  7.545054e+00    3.556647e+00
  7.576805e+00    3.461416e+00
  7.608556e+00    3.584156e+00
  7.640307e+00    3.434638e+00
  7.672058e+00    3.423637e+00
  7.703810e+00    3.506094e+00
  7.735561e+00    3.452114e+00
  7.767312e+00    3.482665e+00
  7.799063e+00    3.434657e+00
  7.830814e+00    3.452845e+00
  7.862565e+00    3.448661e+00
  7.894317e+00    3.458301e+00
  7.926068e+00    3.385872e+00
  7.957819e+00    3.411801e+00
  7.989570e+00    3.432522e+00
  8.021321e+00    3.394388e+00
  8.053072e+00    3.438492e+00
  8.084823e+00    3.394909e+00
  8.116575e+00    3.440775e+00
  8.148326e+00    3.466736e+00
  8.180077e+00    3.446761e+00
  8.211828e+00    3.441413e+00
  8.243579e+00    3.531035e+00
  8.275330e+00    3.395689e+00
  8.307081e+00    3.443786e+00
  8.338833e+00    3.391511e+00
  8.370584e+00    3.367939e+00
  8.402335e+00    3.369858e+00
  8.434086e+00    3.384610e+00
  8.465837e+00    3.391922e+00
  8.497588e+00    3.374571e+00
  8.529339e+00    3.371064e+00
  8.561091e+00    3.378071e+00
  8.592842e+00    3.356433e+00
  8.624593e+00    3.364801e+00
  8.656344e+00    3.323545e+00
  8.688095e+00    3.316637e+00
  8.719846e+00    3.316539e+00
  8.751598e+00    3.319094e+00
  8.783349e+00    3.331822e+00
  8.815100e+00    3.330314e+00
  8.846851e+00    3.279511e+00
  8.878602e+00    3.340437e+00
  8.910353e+00    3.312937e+00
  8.942104e+00    3.310476e+00
  8.973856e+00    3.328016e+00
  9.005607e+00    3.300789e+00
  9.037358e+00    3.239078e+00
  9.069109e+00    3.210414e+00
  9.100860e+00    3.273822e+00
  9.132611e+00    3.303976e+00
  9.164362e+00    3.228991e+00
  9.196114e+00    3.233759e+00
  9.227865e+00    3.240904e+00
  9.259616e+00    3.245003e+00
  9.291367e+00    3.219584e+00
  9.323118e+00    3.226517e+00
  9.354869e+00    3.216050e+00
  9.386620e+00    3.301300e+00
  9.418372e+00    3.174144e+00
  9.450123e+00    3.269665e+00
  9.481874e+00    3.222483e+00
  9.513625e+00    3.196898e+00
  9.545376e+00    3.197077e+00
  9.577127e+00    3.212300e+00
  9.608878e+00    3.214565e+00
  9.640630e+00    3.200125e+00
  9.672381e+00    3.185367e+00
  9.704132e+00    3.162128e+00
  9.735883e+00    3.220638e+00
  9.767634e+00    3.155723e+00
  9.799385e+00    3.126839e+00
  9.831137e+00    3.142548e+00
  9.862888e+00    3.104672e+00
  9.894639e+00    3.089955e+00
  9.926390e+00    3.114861e+00
  9.958141e+00    3.138068e+00
  9.989892e+00    3.127452e+00
  1.002164e+01    3.121100e+00
  1.005339e+01    3.082134e+00
  1.008515e+01    3.159765e+00
  1.011690e+01    3.122473e+00
  1.014865e+01    3.096975e+00
  1.018040e+01    3.039639e+00
  1.021215e+01    3.105009e+00
  1.024390e+01    3.040729e+00
  1.027565e+01    3.088060e+00
  1.030740e+01    3.054159e+00
  1.033915e+01    2.978290e+00
  1.037091e+01    3.050375e+00
  1.040266e+01    3.051769e+00
  1.043441e+01    2.992042e+00
  1.046616e+01    3.084459e+00
  1.049791e+01    2.932034e+00
  1.052966e+01    3.053185e+00
  1.056141e+01    2.957575e+00
  1.059316e+01    2.964082e+00
  1.062492e+01    3.006774e+00
  1.065667e+01    2.986907e+00
  1.068842e+01    2.995278e+00
  1.072017e+01    3.003494e+00
  1.075192e+01    2.952398e+00
  1.078367e+01    2.950748e+00
  1.081542e+01    2.972724e+00
  1.084717e+01    2.900285e+00
  1.087892e+01    2.956152e+00
  1.091068e+01    2.986581e+00
  1.094243e+01    2.962187e+00
  1.097418e+01    2.953046e+00
  1.100593e+01    2.905775e+00
  1.103768e+01    2.895881e+00
  1.106943e+01    2.879603e+00
  1.110118e+01    2.875012e+00
  1.113293e+01    2.877005e+00
  1.116468e+01    2.864583e+00
  1.119644e+01    2.868623e+00
  1.122819e+01    2.905460e+00
  1.125994e+01    2.846685e+00
  1.129169e+01    2.836957e+00
  1.132344e+01    2.831424e+00
  1.135519e+01    2.806465e+00
  1.138694e+01    2.832004e+00
  1.141869e+01    2.800421e+00
  1.145045e+01    2.787510e+00
  1.148220e+01    2.799633e+00
  1.151395e+01    2.811229e+00
  1.154570e+01    2.790451e+00
  1.157745e+01    2.765562e+00
  1.160920e+01    2.790032e+00
  1.164095e+01    2.747976e+00
  1.167270e+01    2.749120e+00
  1.170445e+01    2.793572e+00
  1.173621e+01    2.724814e+00
  1.176796e+01    2.743364e+00
  1.179971e+01    2.741347e+00
  1.183146e+01    2.800023e+00
  1.186321e+01    2.691450e+00
  1.189496e+01    2.730179e+00
  1.192671e+01    2.738592e+00
  1.195846e+01    2.713870e+00
  1.199021e+01    2.756526e+00
  1.202197e+01    2.684356e+00
  1.205372e+01    2.717497e+00
  1.208547e+01    2.740697e+00
  1.211722e+01    2.663535e+00
  1.214897e+01    2.704984e+00
  1.218072e+01    2.674340e+00
  1.221247e+01    2.628664e+00
  1.224422e+01    2.670478e+00
  1.227597e+01    2.658726e+00
  1.230773e+01    2.727023e+00
  1.233948e+01    2.659172e+00
  1.237123e+01    2.728721e+00
  1.240298e+01    2.687020e+00
  1.243473e+01    2.701911e+00
  1.246648e+01    2.705795e+00
  1.249823e+01    2.747056e+00
  1.252998e+01    2.671808e+00
  1.256174e+01    2.718044e+00
  1.259349e+01    2.735728e+00
  1.262524e+01    2.784142e+00
  1.265699e+01    2.796455e+00
  1.268874e+01    2.788874e+00
  1.272049e+01    2.855992e+00
  1.275224e+01    2.938288e+00
  1.278399e+01    2.946686e+00
  1.281574e+01    3.031232e+00
  1.284750e+01    3.169869e+00
  1.287925e+01    3.350942e+00
  1.291100e+01    3.606678e+00
  1.294275e+01    4.082176e+00
  1.297450e+01    4.765306e+00
  1.300625e+01    5.906815e+00
  1.303800e+01    7.744094e+00
  1.306975e+01    1.030433e+01
  1.310150e+01    1.275799e+01
  1.313326e+01    1.489002e+01
  1.316501e+01    1.626481e+01
  1.319676e+01    1.560543e+01
  1.322851e+01    1.235900e+01
  1.326026e+01    8.895278e+00
  1.329201e+01    6.646325e+00
  1.332376e+01    5.254852e+00
  1.335551e+01    4.433367e+00
  1.338727e+01    3.900668e+00
  1.341902e+01    3.437490e+00
  1.345077e+01    3.235840e+00
  1.348252e+01    3.033406e+00
  1.351427e+01    2.891819e+00
  1.354602e+01    2.809009e+00
  1.357777e+01    2.715028e+00
  1.360952e+01    2.667218e+00
  1.364127e+01    2.675803e+00
  1.367303e+01    2.622202e+00
  1.370478e+01    2.536376e+00
  1.373653e+01    2.522366e+00
  1.376828e+01    2.505342e+00
  1.380003e+01    2.463945e+00
  1.383178e+01    2.490014e+00
  1.386353e+01    2.392456e+00
  1.389528e+01    2.409319e+00
  1.392703e+01    2.398204e+00
  1.395879e+01    2.393480e+00
  1.399054e+01    2.349650e+00
  1.402229e+01    2.376262e+00
  1.405404e+01    2.362244e+00
  1.408579e+01    2.333287e+00
  1.411754e+01    2.317410e+00
  1.414929e+01    2.312210e+00
  1.418104e+01    2.286578e+00
  1.421279e+01    2.333791e+00
  1.424455e+01    2.273984e+00
  1.427630e+01    2.273305e+00
  1.430805e+01    2.240713e+00
  1.433980e+01    2.236634e+00
  1.437155e+01    2.276258e+00
  1.440330e+01    2.231640e+00
  1.443505e+01    2.230459e+00
  1.446680e+01    2.270924e+00
  1.449856e+01    2.223019e+00
  1.453031e+01    2.208163e+00
  1.456206e+01    2.211617e+00
  1.459381e+01    2.233454e+00
  1.462556e+01    2.206114e+00
  1.465731e+01    2.191369e+00
  1.468906e+01    2.286513e+00
  1.472081e+01    2.229010e+00
  1.475256e+01    2.181832e+00
  1.478432e+01    2.152734e+00
  1.481607e+01    2.187928e+00
  1.484782e+01    2.214083e+00
  1.487957e+01    2.250413e+00
  1.491132e+01    2.236582e+00
  1.494307e+01    2.283525e+00
  1.497482e+01    2.346944e+00
  1.500657e+01    2.451989e+00
  1.503832e+01    2.580410e+00
  1.507008e+01    2.854638e+00
  1.510183e+01    3.215319e+00
  1.513358e+01    3.777674e+00
  1.516533e+01    4.606814e+00
  1.519708e+01    5.136972e+00
  1.522883e+01    5.529601e+00
  1.526058e+01    5.833941e+00
  1.529233e+01    5.439407e+00
  1.532409e+01    4.664669e+00
  1.535584e+01    3.691278e+00
  1.538759e+01    3.174187e+00
  1.541934e+01    2.738885e+00
  1.545109e+01    2.479010e+00
  1.548284e+01    2.333913e+00
  1.551459e+01    2.267274e+00
  1.554634e+01    2.168941e+00
  1.557809e+01    2.171801e+00
  1.560985e+01    2.061955e+00
  1.564160e+01    2.043737e+00
  1.567335e+01    2.011884e+00
  1.570510e+01    2.000166e+00
  1.573685e+01    1.948840e+00
  1.576860e+01    1.947229e+00
  1.580035e+01    1.926291e+00
  1.583210e+01    1.910693e+00
  1.586385e+01    1.911055e+00
  1.589561e+01    1.868972e+00
  1.592736e+01    1.898471e+00
  1.595911e+01    1.880611e+00
  1.599086e+01    1.903647e+00
  1.602261e+01    1.852910e+00
  1.605436e+01    1.861481e+00
  1.608611e+01    1.861902e+00
  1.611786e+01    1.807992e+00
  1.614961e+01    1.852494e+00
  1.618137e+01    1.812174e+00
  1.621312e+01    1.848062e+00
  1.624487e+01    1.813283e+00
  1.627662e+01    1.793602e+00
  1.630837e+01    1.784241e+00
  1.634012e+01    1.839875e+00
  1.637187e+01    1.762599e+00
  1.640362e+01    1.754658e+00
  1.643538e+01    1.750711e+00
  1.646713e+01    1.756216e+00
  1.649888e+01    1.721034e+00
  1.653063e+01    1.735977e+00
  1.656238e+01    1.752515e+00
  1.659413e+01    1.734445e+00
  1.662588e+01    1.736429e+00
  1.665763e+01    1.755065e+00
  1.668938e+01    1.723793e+00
  1.672114e+01    1.696214e+00
  1.675289e+01    1.723500e+00
  1.678464e+01    1.693190e+00
  1.681639e+01    1.696182e+00
  1.684814e+01    1.708005e+00
  1.687989e+01    1.701605e+00
  1.691164e+01    1.702972e+00
  1.694339e+01    1.667818e+00
  1.697514e+01    1.671088e+00
  1.700690e+01    1.652583e+00
  1.703865e+01    1.649283e+00
  1.707040e+01    1.675650e+00
  1.710215e+01    1.655829e+00
  1.713390e+01    1.649643e+00
  1.716565e+01    1.636998e+00
  1.719740e+01    1.632008e+00
  1.722915e+01    1.648835e+00
  1.726091e+01    1.656826e+00
  1.729266e+01    1.630441e+00
  1.732441e+01    1.614305e+00
  1.735616e+01    1.620430e+00
  1.738791e+01    1.608966e+00
  1.741966e+01    1.593208e+00
  1.745141e+01    1.566191e+00
  1.748316e+01    1.571078e+00
  1.751491e+01    1.576422e+00
  1.754667e+01    1.565814e+00
  1.757842e+01    1.565393e+00
  1.761017e+01    1.539487e+00
  1.764192e+01    1.550075e+00
  1.767367e+01    1.579604e+00
  1.770542e+01    1.543927e+00
  1.773717e+01    1.551389e+00
  1.776892e+01    1.527847e+00
  1.780067e+01    1.524573e+00
  1.783243e+01    1.559825e+00
  1.786418e+01    1.511274e+00
  1.789593e+01    1.528971e+00
  1.792768e+01    1.500329e+00
  1.795943e+01    1.523979e+00
  1.799118e+01    1.516202e+00
  1.802293e+01    1.504429e+00
  1.805468e+01    1.508269e+00
  1.808643e+01    1.525950e+00
  1.811819e+01    1.481623e+00
  1.814994e+01    1.499451e+00
  1.818169e+01    1.493591e+00
  1.821344e+01    1.493632e+00
  1.824519e+01    1.485671e+00
  1.827694e+01    1.449524e+00
  1.830869e+01    1.453291e+00
  1.834044e+01    1.476866e+00
  1.837220e+01    1.473651e+00
  1.840395e+01    1.460160e+00
  1.843570e+01    1.468735e+00
  1.846745e+01    1.453762e+00
  1.849920e+01    1.433406e+00
  1.853095e+01    1.438503e+00
  1.856270e+01    1.428095e+00
  1.859445e+01    1.437502e+00
  1.862620e+01    1.422254e+00
  1.865796e+01    1.428553e+00
  1.868971e+01    1.417860e+00
  1.872146e+01    1.437825e+00
  1.875321e+01    1.406860e+00
  1.878496e+01    1.408869e+00
  1.881671e+01    1.390859e+00
  1.884846e+01    1.384212e+00
  1.888021e+01    1.377874e+00
  1.891196e+01    1.377204e+00
  1.894372e+01    1.387295e+00
  1.897547e+01    1.355241e+00
  1.900722e+01    1.375847e+00
  1.903897e+01    1.399354e+00
  1.907072e+01    1.381449e+00
  1.910247e+01    1.387923e+00
  1.913422e+01    1.357761e+00
  1.916597e+01    1.401051e+00
  1.919773e+01    1.342110e+00
  1.922948e+01    1.372231e+00
  1.926123e+01    1.365049e+00
  1.929298e+01    1.346056e+00
  1.932473e+01    1.344067e+00
  1.935648e+01    1.358895e+00
  1.938823e+01    1.319335e+00
  1.941998e+01    1.318843e+00
  1.945173e+01    1.314617e+00
  1.948349e+01    1.328799e+00
  1.951524e+01    1.343643e+00
  1.954699e+01    1.290359e+00
  1.957874e+01    1.327027e+00
  1.961049e+01    1.315977e+00
  1.964224e+01    1.312104e+00
  1.967399e+01    1.328119e+00
  1.970574e+01    1.334975e+00
  1.973749e+01    1.284370e+00
  1.976925e+01    1.305959e+00
  1.980100e+01    1.306051e+00
  1.983275e+01    1.294793e+00
  1.986450e+01    1.293193e+00
  1.989625e+01    1.304706e+00
  1.992800e+01    1.296294e+00
  1.995975e+01    1.270014e+00
  1.999150e+01    1.282105e+00
  2.002325e+01    1.274614e+00
  2.005501e+01    1.273599e+00
  2.008676e+01    1.265387e+00
  2.011851e+01    1.286331e+00
  2.015026e+01    1.271473e+00
  2.018201e+01    1.259475e+00
  2.021376e+01    1.251533e+00
  2.024551e+01    1.248877e+00
  2.027726e+01    1.250996e+00
  2.030902e+01    1.260761e+00
  2.034077e+01    1.284474e+00
  2.037252e+01    1.262534e+00
  2.040427e+01    1.264250e+00
  2.043602e+01    1.233363e+00
  2.046777e+01    1.247303e+00
  2.049952e+01    1.229773e+00
  2.053127e+01    1.248234e+00
  2.056302e+01    1.247065e+00
  2.059478e+01    1.266287e+00
  2.062653e+01    1.214447e+00
  2.065828e+01    1.248614e+00
  2.069003e+01    1.211640e+00
  2.072178e+01    1.257939e+00
  2.075353e+01    1.227319e+00
  2.078528e+01    1.224926e+00
  2.081703e+01    1.229239e+00
  2.084878e+01    1.229525e+00
  2.088054e+01    1.220289e+00
  2.091229e+01    1.207770e+00
  2.094404e+01    1.238750e+00
  2.097579e+01    1.208985e+00
  2.100754e+01    1.208146e+00
  2.103929e+01    1.221713e+00
  2.107104e+01    1.223598e+00
  2.110279e+01    1.203580e+00
  2.113455e+01    1.204192e+00
  2.116630e+01    1.212385e+00
  2.119805e+01    1.210591e+00
  2.122980e+01    1.246835e+00
  2.126155e+01    1.248918e+00
  2.129330e+01    1.267076e+00
  2.132505e+01    1.268547e+00
  2.135680e+01    1.296272e+00
  2.138855e+01    1.302554e+00
  2.142031e+01    1.317797e+00
  2.145206e+01    1.385894e+00
  2.148381e+01    1.393375e+00
  2.151556e+01    1.433196e+00
  2.154731e+01    1.569138e+00
  2.157906e+01    1.637726e+00
  2.161081e+01    1.768255e+00
  2.164256e+01    1.979849e+00
  2.167431e+01    2.308039e+00
  2.170607e+01    2.809560e+00
  2.173782e+01    3.650599e+00
  2.176957e+01    4.590131e+00
  2.180132e+01    5.920378e+00
  2.183307e+01    7.251691e+00
  2.186482e+01    8.404814e+00
  2.189657e+01    8.914631e+00
  2.192832e+01    8.207230e+00
  2.196007e+01    6.506145e+00
  2.199183e+01    4.749099e+00
  2.202358e+01    3.542537e+00
  2.205533e+01    2.806929e+00
  2.208708e+01    2.268478e+00
  2.211883e+01    1.961390e+00
  2.215058e+01    1.761661e+00
  2.218233e+01    1.606458e+00
  2.221408e+01    1.510561e+00
  2.224584e+01    1.394504e+00
  2.227759e+01    1.351426e+00
  2.230934e+01    1.287656e+00
  2.234109e+01    1.262074e+00
  2.237284e+01    1.226627e+00
  2.240459e+01    1.206836e+00
  2.243634e+01    1.170839e+00
  2.246809e+01    1.174255e+00
  2.249984e+01    1.156614e+00
  2.253160e+01    1.122941e+00
  2.256335e+01    1.106885e+00
  2.259510e+01    1.114468e+00
  2.262685e+01    1.121834e+00
  2.265860e+01    1.096649e+00
  2.269035e+01    1.066412e+00
  2.272210e+01    1.072535e+00
  2.275385e+01    1.070636e+00
  2.278560e+01    1.049935e+00
  2.281736e+01    1.056434e+00
  2.284911e+01    1.051892e+00
  2.288086e+01    1.026156e+00
  2.291261e+01    1.044844e+00
  2.294436e+01    1.041838e+00
  2.297611e+01    1.035779e+00
  2.300786e+01    1.027294e+00
  2.303961e+01    1.019848e+00
  2.307137e+01    1.010789e+00
  2.310312e+01    1.000186e+00
  2.313487e+01    9.865631e-01
  2.316662e+01    9.962704e-01
  2.319837e+01    1.019446e+00
  2.323012e+01    9.850494e-01
  2.326187e+01    9.981824e-01
  2.329362e+01    9.849650e-01
  2.332537e+01    1.005359e+00
  2.335713e+01    9.883800e-01
  2.338888e+01    9.749446e-01
  2.342063e+01    9.640095e-01
  2.345238e+01    9.923018e-01
  2.348413e+01    9.809625e-01
  2.351588e+01    9.742088e-01
  2.354763e+01    9.518276e-01
  2.357938e+01    9.468641e-01
  2.361113e+01    9.736849e-01
  2.364289e+01    9.568790e-01
  2.367464e+01    9.319929e-01
  2.370639e+01    9.371321e-01
  2.373814e+01    9.500715e-01
  2.376989e+01    9.364020e-01
  2.380164e+01    9.353667e-01
  2.383339e+01    9.017681e-01
  2.386514e+01    8.956317e-01
  2.389689e+01    9.178602e-01
  2.392865e+01    8.937753e-01
  2.396040e+01    9.246988e-01
  2.399215e+01    8.893744e-01
  2.402390e+01    8.798042e-01
  2.405565e+01    8.830011e-01
  2.408740e+01    8.947434e-01
  2.411915e+01    8.846887e-01
  2.415090e+01    8.861002e-01
  2.418266e+01    8.926504e-01
  2.421441e+01    8.802245e-01
  2.424616e+01    8.850358e-01
  2.427791e+01    8.917777e-01
  2.430966e+01    8.992574e-01
  2.434141e+01    8.772931e-01
  2.437316e+01    8.935822e-01
  2.440491e+01    8.697473e-01
  2.443666e+01    8.866533e-01
  2.446842e+01    8.915918e-01
  2.450017e+01    8.748724e-01
  2.453192e+01    9.070799e-01
  2.456367e+01    9.225832e-01
  2.459542e+01    8.954996e-01
  2.462717e+01    8.889767e-01
  2.465892e+01    8.994098e-01
  2.469067e+01    8.881756e-01
  2.472242e+01    8.982619e-01
  2.475418e+01    8.893324e-01
  2.478593e+01    8.978887e-01
  2.481768e+01    9.052006e-01
  2.484943e+01    9.039291e-01
  2.488118e+01    8.879769e-01
  2.491293e+01    8.869490e-01
  2.494468e+01    9.007235e-01
  2.497643e+01    8.961555e-01
  2.500819e+01    8.753763e-01
  2.503994e+01    8.952281e-01
  2.507169e+01    9.143512e-01
  2.510344e+01    9.159853e-01
  2.513519e+01    9.017636e-01
  2.516694e+01    9.200424e-01
  2.519869e+01    9.192020e-01
  2.523044e+01    9.183739e-01
  2.526219e+01    9.258922e-01
  2.529395e+01    9.509587e-01
  2.532570e+01    9.577529e-01
  2.535745e+01    9.822620e-01
  2.538920e+01    9.643134e-01
  2.542095e+01    1.006424e+00
  2.545270e+01    1.002996e+00
  2.548445e+01    1.058556e+00
  2.551620e+01    1.065210e+00
  2.554795e+01    1.110109e+00
  2.557971e+01    1.152786e+00
  2.561146e+01    1.209986e+00
  2.564321e+01    1.321846e+00
  2.567496e+01    1.442749e+00
  2.570671e+01    1.623258e+00
  2.573846e+01    1.851466e+00
  2.577021e+01    2.265513e+00
  2.580196e+01    2.846448e+00
  2.583371e+01    3.669228e+00
  2.586547e+01    4.745534e+00
  2.589722e+01    5.864500e+00
  2.592897e+01    6.809040e+00
  2.596072e+01    7.112156e+00
  2.599247e+01    6.511676e+00
  2.602422e+01    5.184796e+00
  2.605597e+01    3.907635e+00
  2.608772e+01    2.965587e+00
  2.611948e+01    2.335024e+00
  2.615123e+01    1.907989e+00
  2.618298e+01    1.642606e+00
  2.621473e+01    1.488273e+00
  2.624648e+01    1.339706e+00
  2.627823e+01    1.247522e+00
  2.630998e+01    1.156548e+00
  2.634173e+01    1.111778e+00
  2.637348e+01    1.100187e+00
  2.640524e+01    1.058677e+00
  2.643699e+01    1.042198e+00
  2.646874e+01    1.032531e+00
  2.650049e+01    1.022918e+00
  2.653224e+01    9.930180e-01
  2.656399e+01    9.843227e-01
  2.659574e+01    1.005723e+00
  2.662749e+01    9.683822e-01
  2.665924e+01    9.919047e-01
  2.669100e+01    9.757426e-01
  2.672275e+01    9.720955e-01
  2.675450e+01    9.425256e-01
  2.678625e+01    9.733842e-01
  2.681800e+01    9.933257e-01
  2.684975e+01    9.677394e-01
  2.688150e+01    9.739262e-01
  2.691325e+01    1.028671e+00
  2.694501e+01    1.012808e+00
  2.697676e+01    1.071767e+00
  2.700851e+01    1.126141e+00
  2.704026e+01    1.194454e+00
  2.707201e+01    1.324476e+00
  2.710376e+01    1.514601e+00
  2.713551e+01    1.750587e+00
  2.716726e+01    2.002666e+00
  2.719901e+01    2.191767e+00
  2.723077e+01    2.148537e+00
  2.726252e+01    1.930326e+00
  2.729427e+01    1.689425e+00
  2.732602e+01    1.454365e+00
  2.735777e+01    1.292041e+00
  2.738952e+01    1.161474e+00
  2.742127e+01    1.066440e+00
  2.745302e+01    1.040886e+00
  2.748477e+01    9.962172e-01
  2.751653e+01    9.927096e-01
  2.754828e+01    9.595153e-01
  2.758003e+01    9.414334e-01
  2.761178e+01    9.305725e-01
  2.764353e+01    9.309753e-01
  2.767528e+01    9.113775e-01
  2.770703e+01    9.245884e-01
  2.773878e+01    9.049224e-01
  2.777054e+01    8.835141e-01
  2.780229e+01    9.019237e-01
  2.783404e+01    8.611099e-01
  2.786579e+01    8.811924e-01
  2.789754e+01    8.852483e-01
  2.792929e+01    8.791786e-01
  2.796104e+01    8.845032e-01
  2.799279e+01    8.938901e-01
  2.802454e+01    8.776985e-01
  2.805630e+01    8.527796e-01
  2.808805e+01    8.659159e-01
  2.811980e+01    8.482745e-01
  2.815155e+01    8.656115e-01
  2.818330e+01    8.645825e-01
  2.821505e+01    8.294691e-01
  2.824680e+01    8.594397e-01
  2.827855e+01    8.584179e-01
  2.831030e+01    8.455564e-01
  2.834206e+01    8.573800e-01
  2.837381e+01    8.345735e-01
  2.840556e+01    8.404949e-01
  2.843731e+01    8.403828e-01
  2.846906e+01    8.351033e-01
  2.850081e+01    8.489671e-01
  2.853256e+01    8.519189e-01
  2.856431e+01    8.210094e-01
  2.859606e+01    8.216369e-01
  2.862782e+01    8.240092e-01
  2.865957e+01    8.317499e-01
  2.869132e+01    8.446555e-01
  2.872307e+01    8.077539e-01
  2.875482e+01    8.281660e-01
  2.878657e+01    8.329461e-01
  2.881832e+01    8.075522e-01
  2.885007e+01    8.263679e-01
  2.888183e+01    8.309336e-01
  2.891358e+01    8.185898e-01
  2.894533e+01    8.302841e-01
  2.897708e+01    8.103390e-01
  2.900883e+01    8.300470e-01
  2.904058e+01    8.158630e-01
  2.907233e+01    8.250515e-01
  2.910408e+01    8.196690e-01
  2.913583e+01    8.286368e-01
  2.916759e+01    8.325233e-01
  2.919934e+01    7.931342e-01
  2.923109e+01    8.182929e-01
  2.926284e+01    8.024363e-01
  2.929459e+01    8.180770e-01
  2.932634e+01    7.989067e-01
  2.935809e+01    8.064851e-01
  2.938984e+01    7.883991e-01
  2.942159e+01    8.140171e-01
  2.945335e+01    8.198411e-01
  2.948510e+01    7.992681e-01
  2.951685e+01    8.089113e-01
  2.954860e+01    8.009455e-01
  2.958035e+01    8.048798e-01
  2.961210e+01    7.945359e-01
  2.964385e+01    7.733619e-01
  2.967560e+01    7.858555e-01
  2.970736e+01    7.763155e-01
  2.973911e+01    7.848074e-01
  2.977086e+01    7.982718e-01
  2.980261e+01    7.957978e-01
  2.983436e+01    7.914758e-01
  2.986611e+01    7.971355e-01
  2.989786e+01    7.810928e-01
  2.992961e+01    7.888620e-01
  2.996136e+01    7.956367e-01
  2.999312e+01    7.959632e-01
  3.002487e+01    8.126656e-01
  3.005662e+01    8.094498e-01
  3.008837e+01    8.199005e-01
  3.012012e+01    7.929661e-01
  3.015187e+01    7.915786e-01
  3.018362e+01    7.850096e-01
  3.021537e+01    7.938207e-01
  3.024712e+01    7.819521e-01
  3.027888e+01    7.714353e-01
  3.031063e+01    7.955445e-01
  3.034238e+01    7.857761e-01
  3.037413e+01    7.905720e-01
  3.040588e+01    7.980516e-01
  3.043763e+01    7.884690e-01
  3.046938e+01    7.563477e-01
  3.050113e+01    7.868187e-01
  3.053288e+01    7.709629e-01
  3.056464e+01    7.780275e-01
  3.059639e+01    7.735363e-01
  3.062814e+01    7.780035e-01
  3.065989e+01    7.850681e-01
  3.069164e+01    7.860618e-01
  3.072339e+01    7.781002e-01
  3.075514e+01    7.861528e-01
  3.078689e+01    7.870347e-01
  3.081865e+01    7.842664e-01
  3.085040e+01    7.824948e-01
  3.088215e+01    7.977979e-01
  3.091390e+01    7.940741e-01
  3.094565e+01    7.721770e-01
  3.097740e+01    7.816995e-01
  3.100915e+01    7.574362e-01
  3.104090e+01    7.866040e-01
  3.107265e+01    7.911706e-01
  3.110441e+01    7.887553e-01
  3.113616e+01    7.884834e-01
  3.116791e+01    7.975659e-01
  3.119966e+01    8.086139e-01
  3.123141e+01    7.941590e-01
  3.126316e+01    7.983829e-01
  3.129491e+01    7.990980e-01
  3.132666e+01    7.946141e-01
  3.135841e+01    7.928233e-01
  3.139017e+01    8.256926e-01
  3.142192e+01    8.343430e-01
  3.145367e+01    8.134631e-01
  3.148542e+01    8.045956e-01
  3.151717e+01    8.299126e-01
  3.154892e+01    8.493934e-01
  3.158067e+01    8.620266e-01
  3.161242e+01    8.738456e-01
  3.164418e+01    9.350039e-01
  3.167593e+01    9.721097e-01
  3.170768e+01    1.058042e+00
  3.173943e+01    1.136204e+00
  3.177118e+01    1.277573e+00
  3.180293e+01    1.461181e+00
  3.183468e+01    1.717194e+00
  3.186643e+01    1.977519e+00
  3.189818e+01    2.088751e+00
  3.192994e+01    1.983961e+00
  3.196169e+01    1.786075e+00
  3.199344e+01    1.514434e+00
  3.202519e+01    1.302550e+00
  3.205694e+01    1.150783e+00
  3.208869e+01    1.027479e+00
  3.212044e+01    9.856090e-01
  3.215219e+01    9.121137e-01
  3.218394e+01    8.459326e-01
  3.221570e+01    8.794701e-01
  3.224745e+01    8.335792e-01
  3.227920e+01    8.266686e-01
  3.231095e+01    7.809798e-01
  3.234270e+01    8.193042e-01
  3.237445e+01    7.784228e-01
  3.240620e+01    7.898061e-01
  3.243795e+01    8.017163e-01
  3.246970e+01    7.912793e-01
  3.250146e+01    7.808462e-01
  3.253321e+01    7.768221e-01
  3.254908e+01    7.928657e-01