File: XRD/Reaction conditions/2024-07-27_003_Ru-CGO-ex_Reaction_dwell_000023_data_000125.dat
# == pyFAI calibration ==
# Distance Sample to Detector: 0.4 m
# PONI: 9.750e-02, 1.135e-01 m
# Rotations: -0.000175 0.000000 -0.000000 rad
#
# == Fit2d calibration ==
# Distance Sample-beamCenter: 400.000 mm
# Center: x=1514.000, y=1300.000 pix
# Tilt: 0.010 deg  TiltPlanRot: 0.010 deg
#
# Detector Detector	 Spline= None	 PixelSize= 7.500e-05, 7.500e-05 m
#    Detector has a mask: False
#    Detector has a dark current: False
#    detector has a flat field: False
#
# Wavelength: 6.888e-11 m
# Mask applied: user provided
# Dark current applied: False
# Flat field applied: False
# Polarization factor: 0.99
# Normalization factor: 1.0
# --> /home/myspot/data/2024_07_Rosario/Ru-CGO-ex/2024-07-27_003_Ru-CGO-ex_Reaction_dwell_000023_data_000125.dat
#       q_nm^-1             I
  2.003187e-02    7.711996e-02
  5.178302e-02    1.494693e-01
  8.353417e-02    6.532367e-02
  1.152853e-01    9.823014e-02
  1.470365e-01    5.517565e-02
  1.787876e-01    2.328301e-03
  2.105388e-01    5.800613e-02
  2.422899e-01    5.984955e-02
  2.740411e-01    7.986993e-02
  3.057922e-01    1.898000e-02
  3.375433e-01    3.091156e-02
  3.692945e-01    5.261501e-02
  4.010456e-01    3.662194e-02
  4.327968e-01    8.829089e-02
  4.645479e-01    1.791353e-02
  4.962991e-01    1.948469e-02
  5.280502e-01    3.501891e-02
  5.598014e-01    3.106756e-02
  5.915525e-01    3.330048e-02
  6.233037e-01    6.235648e-02
  6.550548e-01    4.241904e-02
  6.868060e-01    6.212528e-02
  7.185571e-01    5.396304e-02
  7.503083e-01    5.130329e-02
  7.820594e-01    1.185256e-01
  8.138106e-01    2.319373e-01
  8.455617e-01    3.368578e-01
  8.773129e-01    5.312282e-01
  9.090640e-01    6.029245e-01
  9.408152e-01    7.961854e-01
  9.725663e-01    9.838223e-01
  1.004317e+00    1.116043e+00
  1.036069e+00    1.421507e+00
  1.067820e+00    1.509955e+00
  1.099571e+00    1.495374e+00
  1.131322e+00    1.658967e+00
  1.163073e+00    1.657286e+00
  1.194824e+00    1.826612e+00
  1.226575e+00    2.190440e+00
  1.258327e+00    2.359728e+00
  1.290078e+00    2.506507e+00
  1.321829e+00    2.741136e+00
  1.353580e+00    2.879340e+00
  1.385331e+00    2.692518e+00
  1.417082e+00    2.926179e+00
  1.448834e+00    2.817134e+00
  1.480585e+00    3.009531e+00
  1.512336e+00    3.150184e+00
  1.544087e+00    3.175462e+00
  1.575838e+00    3.130825e+00
  1.607589e+00    3.240350e+00
  1.639340e+00    3.139433e+00
  1.671092e+00    3.190190e+00
  1.702843e+00    2.953194e+00
  1.734594e+00    3.177907e+00
  1.766345e+00    3.263206e+00
  1.798096e+00    3.116579e+00
  1.829847e+00    3.032688e+00
  1.861598e+00    3.100609e+00
  1.893350e+00    2.992419e+00
  1.925101e+00    3.055639e+00
  1.956852e+00    3.023330e+00
  1.988603e+00    3.266274e+00
  2.020354e+00    3.298305e+00
  2.052105e+00    3.164944e+00
  2.083856e+00    3.038105e+00
  2.115608e+00    3.059371e+00
  2.147359e+00    3.080280e+00
  2.179110e+00    3.064503e+00
  2.210861e+00    3.030396e+00
  2.242612e+00    3.087139e+00
  2.274363e+00    3.055752e+00
  2.306115e+00    3.291028e+00
  2.337866e+00    3.167973e+00
  2.369617e+00    3.187527e+00
  2.401368e+00    3.215262e+00
  2.433119e+00    3.154820e+00
  2.464870e+00    3.075732e+00
  2.496621e+00    3.218202e+00
  2.528373e+00    3.166090e+00
  2.560124e+00    3.188282e+00
  2.591875e+00    3.399808e+00
  2.623626e+00    3.180924e+00
  2.655377e+00    3.272353e+00
  2.687128e+00    3.261265e+00
  2.718879e+00    3.177744e+00
  2.750631e+00    3.361542e+00
  2.782382e+00    3.255385e+00
  2.814133e+00    3.201992e+00
  2.845884e+00    3.308424e+00
  2.877635e+00    3.297163e+00
  2.909386e+00    3.395453e+00
  2.941137e+00    3.328108e+00
  2.972889e+00    3.295286e+00
  3.004640e+00    3.337516e+00
  3.036391e+00    3.370416e+00
  3.068142e+00    3.415231e+00
  3.099893e+00    3.223739e+00
  3.131644e+00    3.336018e+00
  3.163395e+00    3.380477e+00
  3.195147e+00    3.340161e+00
  3.226898e+00    3.389257e+00
  3.258649e+00    3.434660e+00
  3.290400e+00    3.409812e+00
  3.322151e+00    3.443573e+00
  3.353902e+00    3.460310e+00
  3.385654e+00    3.386331e+00
  3.417405e+00    3.466818e+00
  3.449156e+00    3.365082e+00
  3.480907e+00    3.364821e+00
  3.512658e+00    3.381595e+00
  3.544409e+00    3.479224e+00
  3.576160e+00    3.505877e+00
  3.607912e+00    3.391728e+00
  3.639663e+00    3.424073e+00
  3.671414e+00    3.481024e+00
  3.703165e+00    3.587905e+00
  3.734916e+00    3.582393e+00
  3.766667e+00    3.497732e+00
  3.798418e+00    3.519924e+00
  3.830170e+00    3.528082e+00
  3.861921e+00    3.547988e+00
  3.893672e+00    3.523541e+00
  3.925423e+00    3.519256e+00
  3.957174e+00    3.487639e+00
  3.988925e+00    3.492948e+00
  4.020676e+00    3.568897e+00
  4.052428e+00    3.532194e+00
  4.084179e+00    3.584401e+00
  4.115930e+00    3.553566e+00
  4.147681e+00    3.505358e+00
  4.179432e+00    3.577809e+00
  4.211183e+00    3.545416e+00
  4.242935e+00    3.461238e+00
  4.274686e+00    3.532236e+00
  4.306437e+00    3.724087e+00
  4.338188e+00    3.506677e+00
  4.369939e+00    3.595696e+00
  4.401690e+00    3.534326e+00
  4.433441e+00    3.544260e+00
  4.465193e+00    3.560838e+00
  4.496944e+00    3.566083e+00
  4.528695e+00    3.666074e+00
  4.560446e+00    3.556684e+00
  4.592197e+00    3.670798e+00
  4.623948e+00    3.589674e+00
  4.655699e+00    3.647929e+00
  4.687451e+00    3.607944e+00
  4.719202e+00    3.585922e+00
  4.750953e+00    3.631652e+00
  4.782704e+00    3.651253e+00
  4.814455e+00    3.630446e+00
  4.846206e+00    3.698755e+00
  4.877957e+00    3.640181e+00
  4.909709e+00    3.667327e+00
  4.941460e+00    3.649394e+00
  4.973211e+00    3.632102e+00
  5.004962e+00    3.706169e+00
  5.036713e+00    3.591570e+00
  5.068464e+00    3.612003e+00
  5.100216e+00    3.573161e+00
  5.131967e+00    3.666044e+00
  5.163718e+00    3.636721e+00
  5.195469e+00    3.640608e+00
  5.227220e+00    3.625629e+00
  5.258971e+00    3.639383e+00
  5.290722e+00    3.645802e+00
  5.322474e+00    3.691782e+00
  5.354225e+00    3.712506e+00
  5.385976e+00    3.638541e+00
  5.417727e+00    3.643522e+00
  5.449478e+00    3.600866e+00
  5.481229e+00    3.594635e+00
  5.512980e+00    3.644044e+00
  5.544732e+00    3.721259e+00
  5.576483e+00    3.584235e+00
  5.608234e+00    3.552817e+00
  5.639985e+00    3.581364e+00
  5.671736e+00    3.528563e+00
  5.703487e+00    3.493266e+00
  5.735238e+00    3.481834e+00
  5.766990e+00    3.481040e+00
  5.798741e+00    3.618460e+00
  5.830492e+00    3.622124e+00
  5.862243e+00    3.501397e+00
  5.893994e+00    3.554698e+00
  5.925745e+00    3.590688e+00
  5.957497e+00    3.624317e+00
  5.989248e+00    3.567007e+00
  6.020999e+00    3.522566e+00
  6.052750e+00    3.528177e+00
  6.084501e+00    3.552098e+00
  6.116252e+00    3.594128e+00
  6.148003e+00    3.466887e+00
  6.179755e+00    3.555390e+00
  6.211506e+00    3.531699e+00
  6.243257e+00    3.610490e+00
  6.275008e+00    3.556991e+00
  6.306759e+00    3.514198e+00
  6.338510e+00    3.555117e+00
  6.370261e+00    3.626036e+00
  6.402013e+00    3.504968e+00
  6.433764e+00    3.573108e+00
  6.465515e+00    3.534036e+00
  6.497266e+00    3.618572e+00
  6.529017e+00    3.610594e+00
  6.560768e+00    3.595384e+00
  6.592519e+00    3.599208e+00
  6.624271e+00    3.545583e+00
  6.656022e+00    3.639273e+00
  6.687773e+00    3.577546e+00
  6.719524e+00    3.540252e+00
  6.751275e+00    3.553977e+00
  6.783026e+00    3.526440e+00
  6.814777e+00    3.441972e+00
  6.846529e+00    3.554258e+00
  6.878280e+00    3.559333e+00
  6.910031e+00    3.570892e+00
  6.941782e+00    3.569904e+00
  6.973533e+00    3.505183e+00
  7.005284e+00    3.507348e+00
  7.037036e+00    3.546748e+00
  7.068787e+00    3.508970e+00
  7.100538e+00    3.510642e+00
  7.132289e+00    3.558417e+00
  7.164040e+00    3.481208e+00
  7.195791e+00    3.527331e+00
  7.227542e+00    3.480151e+00
  7.259294e+00    3.526942e+00
  7.291045e+00    3.607747e+00
  7.322796e+00    3.503791e+00
  7.354547e+00    3.460043e+00
  7.386298e+00    3.453179e+00
  7.418049e+00    3.501599e+00
  7.449800e+00    3.422270e+00
  7.481552e+00    3.466485e+00
  7.513303e+00    3.516365e+00
  7.545054e+00    3.423509e+00
  7.576805e+00    3.576067e+00
  7.608556e+00    3.469739e+00
  7.640307e+00    3.431380e+00
  7.672058e+00    3.492295e+00
  7.703810e+00    3.422290e+00
  7.735561e+00    3.522130e+00
  7.767312e+00    3.469549e+00
  7.799063e+00    3.447711e+00
  7.830814e+00    3.408882e+00
  7.862565e+00    3.419342e+00
  7.894317e+00    3.435191e+00
  7.926068e+00    3.434874e+00
  7.957819e+00    3.475613e+00
  7.989570e+00    3.368379e+00
  8.021321e+00    3.425115e+00
  8.053072e+00    3.432285e+00
  8.084823e+00    3.454987e+00
  8.116575e+00    3.477481e+00
  8.148326e+00    3.471055e+00
  8.180077e+00    3.498777e+00
  8.211828e+00    3.467729e+00
  8.243579e+00    3.416283e+00
  8.275330e+00    3.451524e+00
  8.307081e+00    3.444100e+00
  8.338833e+00    3.357864e+00
  8.370584e+00    3.392864e+00
  8.402335e+00    3.400627e+00
  8.434086e+00    3.389202e+00
  8.465837e+00    3.421223e+00
  8.497588e+00    3.364585e+00
  8.529339e+00    3.358106e+00
  8.561091e+00    3.371458e+00
  8.592842e+00    3.350322e+00
  8.624593e+00    3.375164e+00
  8.656344e+00    3.359229e+00
  8.688095e+00    3.312117e+00
  8.719846e+00    3.323455e+00
  8.751598e+00    3.353595e+00
  8.783349e+00    3.342933e+00
  8.815100e+00    3.395196e+00
  8.846851e+00    3.343016e+00
  8.878602e+00    3.292387e+00
  8.910353e+00    3.250964e+00
  8.942104e+00    3.310028e+00
  8.973856e+00    3.284430e+00
  9.005607e+00    3.261241e+00
  9.037358e+00    3.316265e+00
  9.069109e+00    3.242218e+00
  9.100860e+00    3.258765e+00
  9.132611e+00    3.273395e+00
  9.164362e+00    3.317173e+00
  9.196114e+00    3.247286e+00
  9.227865e+00    3.289098e+00
  9.259616e+00    3.219723e+00
  9.291367e+00    3.218752e+00
  9.323118e+00    3.234222e+00
  9.354869e+00    3.167300e+00
  9.386620e+00    3.246123e+00
  9.418372e+00    3.221076e+00
  9.450123e+00    3.211033e+00
  9.481874e+00    3.207057e+00
  9.513625e+00    3.188385e+00
  9.545376e+00    3.188445e+00
  9.577127e+00    3.201984e+00
  9.608878e+00    3.275595e+00
  9.640630e+00    3.201877e+00
  9.672381e+00    3.197039e+00
  9.704132e+00    3.181832e+00
  9.735883e+00    3.102208e+00
  9.767634e+00    3.112859e+00
  9.799385e+00    3.173962e+00
  9.831137e+00    3.150304e+00
  9.862888e+00    3.173736e+00
  9.894639e+00    3.131328e+00
  9.926390e+00    3.151436e+00
  9.958141e+00    3.110053e+00
  9.989892e+00    3.115774e+00
  1.002164e+01    3.106905e+00
  1.005339e+01    3.088557e+00
  1.008515e+01    3.108039e+00
  1.011690e+01    3.037775e+00
  1.014865e+01    3.078700e+00
  1.018040e+01    3.103100e+00
  1.021215e+01    3.103020e+00
  1.024390e+01    3.074504e+00
  1.027565e+01    3.126878e+00
  1.030740e+01    3.032378e+00
  1.033915e+01    3.078129e+00
  1.037091e+01    3.085244e+00
  1.040266e+01    3.025224e+00
  1.043441e+01    3.091669e+00
  1.046616e+01    3.044761e+00
  1.049791e+01    3.009735e+00
  1.052966e+01    3.015838e+00
  1.056141e+01    3.011536e+00
  1.059316e+01    3.035934e+00
  1.062492e+01    2.983421e+00
  1.065667e+01    3.047500e+00
  1.068842e+01    2.930788e+00
  1.072017e+01    2.943394e+00
  1.075192e+01    2.907876e+00
  1.078367e+01    2.947973e+00
  1.081542e+01    2.968805e+00
  1.084717e+01    2.966750e+00
  1.087892e+01    2.903635e+00
  1.091068e+01    2.927761e+00
  1.094243e+01    2.921932e+00
  1.097418e+01    2.919144e+00
  1.100593e+01    2.909375e+00
  1.103768e+01    2.885590e+00
  1.106943e+01    2.889168e+00
  1.110118e+01    2.882544e+00
  1.113293e+01    2.910193e+00
  1.116468e+01    2.848886e+00
  1.119644e+01    2.857662e+00
  1.122819e+01    2.863374e+00
  1.125994e+01    2.897148e+00
  1.129169e+01    2.830667e+00
  1.132344e+01    2.850468e+00
  1.135519e+01    2.865322e+00
  1.138694e+01    2.808133e+00
  1.141869e+01    2.845767e+00
  1.145045e+01    2.815151e+00
  1.148220e+01    2.806307e+00
  1.151395e+01    2.798148e+00
  1.154570e+01    2.812433e+00
  1.157745e+01    2.807835e+00
  1.160920e+01    2.823998e+00
  1.164095e+01    2.774143e+00
  1.167270e+01    2.745991e+00
  1.170445e+01    2.746814e+00
  1.173621e+01    2.747093e+00
  1.176796e+01    2.768070e+00
  1.179971e+01    2.710712e+00
  1.183146e+01    2.680868e+00
  1.186321e+01    2.704625e+00
  1.189496e+01    2.729494e+00
  1.192671e+01    2.714088e+00
  1.195846e+01    2.699463e+00
  1.199021e+01    2.688513e+00
  1.202197e+01    2.755970e+00
  1.205372e+01    2.729237e+00
  1.208547e+01    2.677759e+00
  1.211722e+01    2.672457e+00
  1.214897e+01    2.734697e+00
  1.218072e+01    2.682833e+00
  1.221247e+01    2.733714e+00
  1.224422e+01    2.692897e+00
  1.227597e+01    2.694154e+00
  1.230773e+01    2.668069e+00
  1.233948e+01    2.710114e+00
  1.237123e+01    2.737186e+00
  1.240298e+01    2.712184e+00
  1.243473e+01    2.713535e+00
  1.246648e+01    2.641962e+00
  1.249823e+01    2.698837e+00
  1.252998e+01    2.693696e+00
  1.256174e+01    2.714182e+00
  1.259349e+01    2.770296e+00
  1.262524e+01    2.721272e+00
  1.265699e+01    2.728776e+00
  1.268874e+01    2.836951e+00
  1.272049e+01    2.877814e+00
  1.275224e+01    2.905067e+00
  1.278399e+01    2.951200e+00
  1.281574e+01    3.057230e+00
  1.284750e+01    3.167606e+00
  1.287925e+01    3.393179e+00
  1.291100e+01    3.608056e+00
  1.294275e+01    4.126685e+00
  1.297450e+01    4.775241e+00
  1.300625e+01    5.901186e+00
  1.303800e+01    7.732277e+00
  1.306975e+01    1.013394e+01
  1.310150e+01    1.266243e+01
  1.313326e+01    1.480152e+01
  1.316501e+01    1.599684e+01
  1.319676e+01    1.558867e+01
  1.322851e+01    1.237197e+01
  1.326026e+01    9.085850e+00
  1.329201e+01    6.768366e+00
  1.332376e+01    5.268797e+00
  1.335551e+01    4.363747e+00
  1.338727e+01    3.833647e+00
  1.341902e+01    3.462345e+00
  1.345077e+01    3.237344e+00
  1.348252e+01    2.974002e+00
  1.351427e+01    2.899094e+00
  1.354602e+01    2.818624e+00
  1.357777e+01    2.779420e+00
  1.360952e+01    2.653995e+00
  1.364127e+01    2.620782e+00
  1.367303e+01    2.581952e+00
  1.370478e+01    2.607870e+00
  1.373653e+01    2.517355e+00
  1.376828e+01    2.540716e+00
  1.380003e+01    2.489316e+00
  1.383178e+01    2.471664e+00
  1.386353e+01    2.413404e+00
  1.389528e+01    2.389228e+00
  1.392703e+01    2.402216e+00
  1.395879e+01    2.389458e+00
  1.399054e+01    2.353371e+00
  1.402229e+01    2.351499e+00
  1.405404e+01    2.394861e+00
  1.408579e+01    2.345641e+00
  1.411754e+01    2.355124e+00
  1.414929e+01    2.327319e+00
  1.418104e+01    2.294396e+00
  1.421279e+01    2.326729e+00
  1.424455e+01    2.301808e+00
  1.427630e+01    2.260124e+00
  1.430805e+01    2.257057e+00
  1.433980e+01    2.288147e+00
  1.437155e+01    2.256262e+00
  1.440330e+01    2.242990e+00
  1.443505e+01    2.267622e+00
  1.446680e+01    2.193599e+00
  1.449856e+01    2.275331e+00
  1.453031e+01    2.240491e+00
  1.456206e+01    2.208342e+00
  1.459381e+01    2.210559e+00
  1.462556e+01    2.230077e+00
  1.465731e+01    2.213292e+00
  1.468906e+01    2.160547e+00
  1.472081e+01    2.204314e+00
  1.475256e+01    2.186630e+00
  1.478432e+01    2.185640e+00
  1.481607e+01    2.222908e+00
  1.484782e+01    2.198717e+00
  1.487957e+01    2.238282e+00
  1.491132e+01    2.267743e+00
  1.494307e+01    2.301334e+00
  1.497482e+01    2.330792e+00
  1.500657e+01    2.456500e+00
  1.503832e+01    2.574576e+00
  1.507008e+01    2.815020e+00
  1.510183e+01    3.254127e+00
  1.513358e+01    3.787736e+00
  1.516533e+01    4.568024e+00
  1.519708e+01    5.148971e+00
  1.522883e+01    5.603942e+00
  1.526058e+01    5.778455e+00
  1.529233e+01    5.453055e+00
  1.532409e+01    4.602831e+00
  1.535584e+01    3.720569e+00
  1.538759e+01    3.165182e+00
  1.541934e+01    2.765521e+00
  1.545109e+01    2.522017e+00
  1.548284e+01    2.326890e+00
  1.551459e+01    2.263313e+00
  1.554634e+01    2.217418e+00
  1.557809e+01    2.097018e+00
  1.560985e+01    2.073901e+00
  1.564160e+01    2.063462e+00
  1.567335e+01    2.023276e+00
  1.570510e+01    2.028446e+00
  1.573685e+01    1.998192e+00
  1.576860e+01    2.009846e+00
  1.580035e+01    1.893048e+00
  1.583210e+01    1.943629e+00
  1.586385e+01    1.914849e+00
  1.589561e+01    1.934071e+00
  1.592736e+01    1.917150e+00
  1.595911e+01    1.873592e+00
  1.599086e+01    1.866173e+00
  1.602261e+01    1.821236e+00
  1.605436e+01    1.889599e+00
  1.608611e+01    1.852702e+00
  1.611786e+01    1.849291e+00
  1.614961e+01    1.864313e+00
  1.618137e+01    1.820028e+00
  1.621312e+01    1.810471e+00
  1.624487e+01    1.840116e+00
  1.627662e+01    1.802683e+00
  1.630837e+01    1.770871e+00
  1.634012e+01    1.787623e+00
  1.637187e+01    1.767554e+00
  1.640362e+01    1.754342e+00
  1.643538e+01    1.743442e+00
  1.646713e+01    1.797096e+00
  1.649888e+01    1.729340e+00
  1.653063e+01    1.733828e+00
  1.656238e+01    1.727505e+00
  1.659413e+01    1.731958e+00
  1.662588e+01    1.750890e+00
  1.665763e+01    1.754156e+00
  1.668938e+01    1.721785e+00
  1.672114e+01    1.729261e+00
  1.675289e+01    1.705693e+00
  1.678464e+01    1.688623e+00
  1.681639e+01    1.698232e+00
  1.684814e+01    1.703876e+00
  1.687989e+01    1.679832e+00
  1.691164e+01    1.687191e+00
  1.694339e+01    1.680391e+00
  1.697514e+01    1.707119e+00
  1.700690e+01    1.670683e+00
  1.703865e+01    1.671996e+00
  1.707040e+01    1.636609e+00
  1.710215e+01    1.657509e+00
  1.713390e+01    1.631154e+00
  1.716565e+01    1.595026e+00
  1.719740e+01    1.631816e+00
  1.722915e+01    1.637808e+00
  1.726091e+01    1.630082e+00
  1.729266e+01    1.611213e+00
  1.732441e+01    1.621905e+00
  1.735616e+01    1.614908e+00
  1.738791e+01    1.586120e+00
  1.741966e+01    1.599263e+00
  1.745141e+01    1.600383e+00
  1.748316e+01    1.573879e+00
  1.751491e+01    1.606967e+00
  1.754667e+01    1.574451e+00
  1.757842e+01    1.597397e+00
  1.761017e+01    1.591060e+00
  1.764192e+01    1.547676e+00
  1.767367e+01    1.544054e+00
  1.770542e+01    1.544301e+00
  1.773717e+01    1.537681e+00
  1.776892e+01    1.557001e+00
  1.780067e+01    1.549774e+00
  1.783243e+01    1.529541e+00
  1.786418e+01    1.539926e+00
  1.789593e+01    1.548173e+00
  1.792768e+01    1.490445e+00
  1.795943e+01    1.509144e+00
  1.799118e+01    1.491291e+00
  1.802293e+01    1.492001e+00
  1.805468e+01    1.525024e+00
  1.808643e+01    1.512322e+00
  1.811819e+01    1.476694e+00
  1.814994e+01    1.519735e+00
  1.818169e+01    1.472184e+00
  1.821344e+01    1.510607e+00
  1.824519e+01    1.468066e+00
  1.827694e+01    1.493201e+00
  1.830869e+01    1.491275e+00
  1.834044e+01    1.487220e+00
  1.837220e+01    1.457321e+00
  1.840395e+01    1.441141e+00
  1.843570e+01    1.449195e+00
  1.846745e+01    1.459088e+00
  1.849920e+01    1.475589e+00
  1.853095e+01    1.455934e+00
  1.856270e+01    1.427876e+00
  1.859445e+01    1.422444e+00
  1.862620e+01    1.436174e+00
  1.865796e+01    1.458751e+00
  1.868971e+01    1.396931e+00
  1.872146e+01    1.414045e+00
  1.875321e+01    1.430136e+00
  1.878496e+01    1.398106e+00
  1.881671e+01    1.402032e+00
  1.884846e+01    1.427203e+00
  1.888021e+01    1.421151e+00
  1.891196e+01    1.425449e+00
  1.894372e+01    1.433948e+00
  1.897547e+01    1.394570e+00
  1.900722e+01    1.375620e+00
  1.903897e+01    1.390550e+00
  1.907072e+01    1.363679e+00
  1.910247e+01    1.369626e+00
  1.913422e+01    1.349764e+00
  1.916597e+01    1.375339e+00
  1.919773e+01    1.364990e+00
  1.922948e+01    1.358210e+00
  1.926123e+01    1.363743e+00
  1.929298e+01    1.353551e+00
  1.932473e+01    1.327317e+00
  1.935648e+01    1.326084e+00
  1.938823e+01    1.370961e+00
  1.941998e+01    1.350213e+00
  1.945173e+01    1.340174e+00
  1.948349e+01    1.322372e+00
  1.951524e+01    1.308794e+00
  1.954699e+01    1.309939e+00
  1.957874e+01    1.336345e+00
  1.961049e+01    1.313210e+00
  1.964224e+01    1.329283e+00
  1.967399e+01    1.301932e+00
  1.970574e+01    1.309981e+00
  1.973749e+01    1.316551e+00
  1.976925e+01    1.322920e+00
  1.980100e+01    1.302071e+00
  1.983275e+01    1.308840e+00
  1.986450e+01    1.311866e+00
  1.989625e+01    1.295127e+00
  1.992800e+01    1.301020e+00
  1.995975e+01    1.298501e+00
  1.999150e+01    1.297270e+00
  2.002325e+01    1.284672e+00
  2.005501e+01    1.286215e+00
  2.008676e+01    1.275521e+00
  2.011851e+01    1.268174e+00
  2.015026e+01    1.289941e+00
  2.018201e+01    1.221690e+00
  2.021376e+01    1.252730e+00
  2.024551e+01    1.270081e+00
  2.027726e+01    1.279711e+00
  2.030902e+01    1.246037e+00
  2.034077e+01    1.259628e+00
  2.037252e+01    1.240826e+00
  2.040427e+01    1.246999e+00
  2.043602e+01    1.241420e+00
  2.046777e+01    1.251207e+00
  2.049952e+01    1.244087e+00
  2.053127e+01    1.238630e+00
  2.056302e+01    1.214373e+00
  2.059478e+01    1.219458e+00
  2.062653e+01    1.229004e+00
  2.065828e+01    1.213813e+00
  2.069003e+01    1.209974e+00
  2.072178e+01    1.240665e+00
  2.075353e+01    1.213868e+00
  2.078528e+01    1.220504e+00
  2.081703e+01    1.231085e+00
  2.084878e+01    1.224301e+00
  2.088054e+01    1.204840e+00
  2.091229e+01    1.230301e+00
  2.094404e+01    1.233168e+00
  2.097579e+01    1.232517e+00
  2.100754e+01    1.232720e+00
  2.103929e+01    1.251210e+00
  2.107104e+01    1.246623e+00
  2.110279e+01    1.239136e+00
  2.113455e+01    1.209427e+00
  2.116630e+01    1.239275e+00
  2.119805e+01    1.254208e+00
  2.122980e+01    1.238124e+00
  2.126155e+01    1.233513e+00
  2.129330e+01    1.253877e+00
  2.132505e+01    1.252302e+00
  2.135680e+01    1.235466e+00
  2.138855e+01    1.308616e+00
  2.142031e+01    1.318469e+00
  2.145206e+01    1.380015e+00
  2.148381e+01    1.406342e+00
  2.151556e+01    1.466469e+00
  2.154731e+01    1.525104e+00
  2.157906e+01    1.626276e+00
  2.161081e+01    1.769685e+00
  2.164256e+01    1.977281e+00
  2.167431e+01    2.290854e+00
  2.170607e+01    2.769645e+00
  2.173782e+01    3.519919e+00
  2.176957e+01    4.586770e+00
  2.180132e+01    5.854219e+00
  2.183307e+01    7.202382e+00
  2.186482e+01    8.315420e+00
  2.189657e+01    8.826889e+00
  2.192832e+01    8.157843e+00
  2.196007e+01    6.557833e+00
  2.199183e+01    4.815023e+00
  2.202358e+01    3.582604e+00
  2.205533e+01    2.830849e+00
  2.208708e+01    2.329874e+00
  2.211883e+01    1.980818e+00
  2.215058e+01    1.775675e+00
  2.218233e+01    1.605383e+00
  2.221408e+01    1.495531e+00
  2.224584e+01    1.400450e+00
  2.227759e+01    1.343433e+00
  2.230934e+01    1.287737e+00
  2.234109e+01    1.284218e+00
  2.237284e+01    1.207429e+00
  2.240459e+01    1.203168e+00
  2.243634e+01    1.184172e+00
  2.246809e+01    1.143753e+00
  2.249984e+01    1.143963e+00
  2.253160e+01    1.140537e+00
  2.256335e+01    1.117033e+00
  2.259510e+01    1.110948e+00
  2.262685e+01    1.102036e+00
  2.265860e+01    1.071209e+00
  2.269035e+01    1.058517e+00
  2.272210e+01    1.068785e+00
  2.275385e+01    1.088239e+00
  2.278560e+01    1.063505e+00
  2.281736e+01    1.058450e+00
  2.284911e+01    1.049171e+00
  2.288086e+01    1.040760e+00
  2.291261e+01    1.022560e+00
  2.294436e+01    1.026359e+00
  2.297611e+01    1.040358e+00
  2.300786e+01    1.020932e+00
  2.303961e+01    1.026040e+00
  2.307137e+01    1.036825e+00
  2.310312e+01    1.026871e+00
  2.313487e+01    1.008164e+00
  2.316662e+01    1.028084e+00
  2.319837e+01    9.952199e-01
  2.323012e+01    9.898025e-01
  2.326187e+01    9.873307e-01
  2.329362e+01    1.001085e+00
  2.332537e+01    9.909831e-01
  2.335713e+01    9.633426e-01
  2.338888e+01    9.855407e-01
  2.342063e+01    9.676215e-01
  2.345238e+01    9.681558e-01
  2.348413e+01    9.548180e-01
  2.351588e+01    9.774940e-01
  2.354763e+01    9.691154e-01
  2.357938e+01    9.541519e-01
  2.361113e+01    9.528387e-01
  2.364289e+01    9.577918e-01
  2.367464e+01    9.461853e-01
  2.370639e+01    9.299848e-01
  2.373814e+01    9.431936e-01
  2.376989e+01    9.181751e-01
  2.380164e+01    9.241175e-01
  2.383339e+01    9.316163e-01
  2.386514e+01    8.800256e-01
  2.389689e+01    8.952280e-01
  2.392865e+01    9.053069e-01
  2.396040e+01    9.197723e-01
  2.399215e+01    9.083189e-01
  2.402390e+01    8.902382e-01
  2.405565e+01    8.980079e-01
  2.408740e+01    8.967612e-01
  2.411915e+01    8.799973e-01
  2.415090e+01    8.801775e-01
  2.418266e+01    9.120818e-01
  2.421441e+01    8.784317e-01
  2.424616e+01    8.784112e-01
  2.427791e+01    9.021531e-01
  2.430966e+01    9.043141e-01
  2.434141e+01    8.818582e-01
  2.437316e+01    8.909588e-01
  2.440491e+01    8.932142e-01
  2.443666e+01    9.062045e-01
  2.446842e+01    9.017990e-01
  2.450017e+01    8.580728e-01
  2.453192e+01    9.031676e-01
  2.456367e+01    8.864785e-01
  2.459542e+01    8.693601e-01
  2.462717e+01    8.759782e-01
  2.465892e+01    9.012921e-01
  2.469067e+01    8.826970e-01
  2.472242e+01    8.915656e-01
  2.475418e+01    8.946941e-01
  2.478593e+01    9.151631e-01
  2.481768e+01    8.957357e-01
  2.484943e+01    8.893977e-01
  2.488118e+01    8.756458e-01
  2.491293e+01    8.990388e-01
  2.494468e+01    9.031762e-01
  2.497643e+01    9.092579e-01
  2.500819e+01    9.050969e-01
  2.503994e+01    8.942277e-01
  2.507169e+01    9.214230e-01
  2.510344e+01    9.000668e-01
  2.513519e+01    9.013152e-01
  2.516694e+01    9.095097e-01
  2.519869e+01    9.253418e-01
  2.523044e+01    9.501716e-01
  2.526219e+01    9.404486e-01
  2.529395e+01    9.497577e-01
  2.532570e+01    9.715977e-01
  2.535745e+01    9.428172e-01
  2.538920e+01    1.007550e+00
  2.542095e+01    1.015491e+00
  2.545270e+01    9.977901e-01
  2.548445e+01    1.044916e+00
  2.551620e+01    1.049182e+00
  2.554795e+01    1.127062e+00
  2.557971e+01    1.156699e+00
  2.561146e+01    1.221619e+00
  2.564321e+01    1.300075e+00
  2.567496e+01    1.434735e+00
  2.570671e+01    1.592256e+00
  2.573846e+01    1.857872e+00
  2.577021e+01    2.223458e+00
  2.580196e+01    2.796318e+00
  2.583371e+01    3.611351e+00
  2.586547e+01    4.694084e+00
  2.589722e+01    5.827946e+00
  2.592897e+01    6.720252e+00
  2.596072e+01    7.095689e+00
  2.599247e+01    6.477689e+00
  2.602422e+01    5.196843e+00
  2.605597e+01    3.939537e+00
  2.608772e+01    3.003068e+00
  2.611948e+01    2.332407e+00
  2.615123e+01    1.911356e+00
  2.618298e+01    1.662033e+00
  2.621473e+01    1.479461e+00
  2.624648e+01    1.335261e+00
  2.627823e+01    1.244608e+00
  2.630998e+01    1.194947e+00
  2.634173e+01    1.114609e+00
  2.637348e+01    1.092938e+00
  2.640524e+01    1.061732e+00
  2.643699e+01    1.035149e+00
  2.646874e+01    1.013626e+00
  2.650049e+01    1.012853e+00
  2.653224e+01    9.973007e-01
  2.656399e+01    9.893600e-01
  2.659574e+01    9.802303e-01
  2.662749e+01    9.820120e-01
  2.665924e+01    9.680148e-01
  2.669100e+01    9.802875e-01
  2.672275e+01    9.404370e-01
  2.675450e+01    9.570658e-01
  2.678625e+01    9.736013e-01
  2.681800e+01    9.541707e-01
  2.684975e+01    9.905381e-01
  2.688150e+01    9.811361e-01
  2.691325e+01    9.967610e-01
  2.694501e+01    1.031478e+00
  2.697676e+01    1.049755e+00
  2.700851e+01    1.125002e+00
  2.704026e+01    1.204381e+00
  2.707201e+01    1.323221e+00
  2.710376e+01    1.485349e+00
  2.713551e+01    1.712062e+00
  2.716726e+01    1.973540e+00
  2.719901e+01    2.132149e+00
  2.723077e+01    2.140374e+00
  2.726252e+01    1.901254e+00
  2.729427e+01    1.681311e+00
  2.732602e+01    1.465786e+00
  2.735777e+01    1.266613e+00
  2.738952e+01    1.169055e+00
  2.742127e+01    1.080303e+00
  2.745302e+01    1.037021e+00
  2.748477e+01    9.944919e-01
  2.751653e+01    9.410622e-01
  2.754828e+01    9.652015e-01
  2.758003e+01    9.382668e-01
  2.761178e+01    9.296027e-01
  2.764353e+01    9.281424e-01
  2.767528e+01    9.041309e-01
  2.770703e+01    9.013593e-01
  2.773878e+01    9.031999e-01
  2.777054e+01    8.983929e-01
  2.780229e+01    8.980724e-01
  2.783404e+01    8.954422e-01
  2.786579e+01    8.862025e-01
  2.789754e+01    8.969706e-01
  2.792929e+01    8.888137e-01
  2.796104e+01    8.638846e-01
  2.799279e+01    8.605061e-01
  2.802454e+01    8.462197e-01
  2.805630e+01    8.514185e-01
  2.808805e+01    8.629116e-01
  2.811980e+01    8.726297e-01
  2.815155e+01    8.634811e-01
  2.818330e+01    8.477229e-01
  2.821505e+01    8.613417e-01
  2.824680e+01    8.531495e-01
  2.827855e+01    8.565255e-01
  2.831030e+01    8.479041e-01
  2.834206e+01    8.429927e-01
  2.837381e+01    8.496097e-01
  2.840556e+01    8.605669e-01
  2.843731e+01    8.513526e-01
  2.846906e+01    8.619097e-01
  2.850081e+01    8.406814e-01
  2.853256e+01    8.468804e-01
  2.856431e+01    8.288199e-01
  2.859606e+01    8.275625e-01
  2.862782e+01    8.406479e-01
  2.865957e+01    8.336049e-01
  2.869132e+01    8.337003e-01
  2.872307e+01    8.127728e-01
  2.875482e+01    8.206151e-01
  2.878657e+01    8.429753e-01
  2.881832e+01    8.318260e-01
  2.885007e+01    8.230180e-01
  2.888183e+01    8.051152e-01
  2.891358e+01    8.044496e-01
  2.894533e+01    8.221405e-01
  2.897708e+01    7.986937e-01
  2.900883e+01    8.133862e-01
  2.904058e+01    8.029873e-01
  2.907233e+01    7.967478e-01
  2.910408e+01    8.280439e-01
  2.913583e+01    8.100582e-01
  2.916759e+01    8.381173e-01
  2.919934e+01    8.064486e-01
  2.923109e+01    8.230488e-01
  2.926284e+01    8.190954e-01
  2.929459e+01    8.081952e-01
  2.932634e+01    8.209434e-01
  2.935809e+01    7.886623e-01
  2.938984e+01    7.970554e-01
  2.942159e+01    8.034659e-01
  2.945335e+01    7.971817e-01
  2.948510e+01    8.056008e-01
  2.951685e+01    7.799261e-01
  2.954860e+01    8.060106e-01
  2.958035e+01    7.746699e-01
  2.961210e+01    8.253845e-01
  2.964385e+01    7.994071e-01
  2.967560e+01    7.873903e-01
  2.970736e+01    8.145680e-01
  2.973911e+01    7.780579e-01
  2.977086e+01    7.827054e-01
  2.980261e+01    7.906329e-01
  2.983436e+01    8.011398e-01
  2.986611e+01    8.002615e-01
  2.989786e+01    7.819998e-01
  2.992961e+01    8.019881e-01
  2.996136e+01    8.144163e-01
  2.999312e+01    8.034634e-01
  3.002487e+01    7.939059e-01
  3.005662e+01    8.237363e-01
  3.008837e+01    8.100211e-01
  3.012012e+01    8.146678e-01
  3.015187e+01    7.817203e-01
  3.018362e+01    7.881656e-01
  3.021537e+01    7.779757e-01
  3.024712e+01    7.717391e-01
  3.027888e+01    8.128322e-01
  3.031063e+01    7.850136e-01
  3.034238e+01    8.125152e-01
  3.037413e+01    7.735659e-01
  3.040588e+01    7.955134e-01
  3.043763e+01    7.686851e-01
  3.046938e+01    7.807726e-01
  3.050113e+01    7.975090e-01
  3.053288e+01    7.750632e-01
  3.056464e+01    7.975115e-01
  3.059639e+01    8.118861e-01
  3.062814e+01    7.718953e-01
  3.065989e+01    7.869233e-01
  3.069164e+01    7.943537e-01
  3.072339e+01    7.689461e-01
  3.075514e+01    7.807447e-01
  3.078689e+01    7.846493e-01
  3.081865e+01    8.071048e-01
  3.085040e+01    7.856995e-01
  3.088215e+01    7.815133e-01
  3.091390e+01    7.774248e-01
  3.094565e+01    7.689340e-01
  3.097740e+01    8.005559e-01
  3.100915e+01    7.803871e-01
  3.104090e+01    7.870187e-01
  3.107265e+01    7.657603e-01
  3.110441e+01    7.918665e-01
  3.113616e+01    7.857239e-01
  3.116791e+01    7.970247e-01
  3.119966e+01    7.892647e-01
  3.123141e+01    7.894783e-01
  3.126316e+01    7.663819e-01
  3.129491e+01    7.857007e-01
  3.132666e+01    8.041272e-01
  3.135841e+01    7.875082e-01
  3.139017e+01    7.981491e-01
  3.142192e+01    8.146474e-01
  3.145367e+01    8.324421e-01
  3.148542e+01    8.250154e-01
  3.151717e+01    8.202166e-01
  3.154892e+01    8.384825e-01
  3.158067e+01    8.697110e-01
  3.161242e+01    9.139474e-01
  3.164418e+01    9.046776e-01
  3.167593e+01    9.570339e-01
  3.170768e+01    9.987603e-01
  3.173943e+01    1.138774e+00
  3.177118e+01    1.256531e+00
  3.180293e+01    1.432432e+00
  3.183468e+01    1.700480e+00
  3.186643e+01    1.937362e+00
  3.189818e+01    2.052508e+00
  3.192994e+01    1.987432e+00
  3.196169e+01    1.804563e+00
  3.199344e+01    1.513383e+00
  3.202519e+01    1.291172e+00
  3.205694e+01    1.169390e+00
  3.208869e+01    1.015421e+00
  3.212044e+01    9.582951e-01
  3.215219e+01    9.408518e-01
  3.218394e+01    8.925706e-01
  3.221570e+01    8.400325e-01
  3.224745e+01    8.435691e-01
  3.227920e+01    8.182874e-01
  3.231095e+01    7.884210e-01
  3.234270e+01    8.046318e-01
  3.237445e+01    7.907811e-01
  3.240620e+01    7.842959e-01
  3.243795e+01    8.089691e-01
  3.246970e+01    7.891026e-01
  3.250146e+01    7.952271e-01
  3.253321e+01    7.883443e-01
  3.254908e+01    7.977678e-01