File: XRD/Reaction conditions/2024-07-27_003_Ru-CGO-ex_Reaction_dwell_000023_data_000037.dat
# == pyFAI calibration ==
# Distance Sample to Detector: 0.4 m
# PONI: 9.750e-02, 1.135e-01 m
# Rotations: -0.000175 0.000000 -0.000000 rad
#
# == Fit2d calibration ==
# Distance Sample-beamCenter: 400.000 mm
# Center: x=1514.000, y=1300.000 pix
# Tilt: 0.010 deg  TiltPlanRot: 0.010 deg
#
# Detector Detector	 Spline= None	 PixelSize= 7.500e-05, 7.500e-05 m
#    Detector has a mask: False
#    Detector has a dark current: False
#    detector has a flat field: False
#
# Wavelength: 6.888e-11 m
# Mask applied: user provided
# Dark current applied: False
# Flat field applied: False
# Polarization factor: 0.99
# Normalization factor: 1.0
# --> /home/myspot/data/2024_07_Rosario/Ru-CGO-ex/2024-07-27_003_Ru-CGO-ex_Reaction_dwell_000023_data_000037.dat
#       q_nm^-1             I
  2.003187e-02    7.711996e-02
  5.178302e-02    1.474495e-01
  8.353417e-02    4.769114e-02
  1.152853e-01    9.822825e-02
  1.470365e-01    8.934253e-02
  1.787876e-01    3.895181e-02
  2.105388e-01    3.639286e-02
  2.422899e-01    5.987814e-02
  2.740411e-01    5.705062e-02
  3.057922e-01    4.395632e-02
  3.375433e-01    2.738708e-02
  3.692945e-01    1.704197e-02
  4.010456e-01    2.713692e-02
  4.327968e-01    3.450081e-02
  4.645479e-01    2.968537e-02
  4.962991e-01    6.132953e-02
  5.280502e-01    5.043869e-02
  5.598014e-01    5.604869e-02
  5.915525e-01    5.593935e-02
  6.233037e-01    5.213029e-02
  6.550548e-01    3.081741e-02
  6.868060e-01    3.648822e-02
  7.185571e-01    4.041702e-02
  7.503083e-01    4.774715e-02
  7.820594e-01    7.080711e-02
  8.138106e-01    2.742862e-01
  8.455617e-01    3.266632e-01
  8.773129e-01    4.792772e-01
  9.090640e-01    6.274307e-01
  9.408152e-01    8.265411e-01
  9.725663e-01    9.517095e-01
  1.004317e+00    1.123037e+00
  1.036069e+00    1.450793e+00
  1.067820e+00    1.459015e+00
  1.099571e+00    1.442810e+00
  1.131322e+00    1.592496e+00
  1.163073e+00    1.541109e+00
  1.194824e+00    1.747073e+00
  1.226575e+00    2.321870e+00
  1.258327e+00    2.636988e+00
  1.290078e+00    2.571647e+00
  1.321829e+00    2.665454e+00
  1.353580e+00    2.803234e+00
  1.385331e+00    2.794074e+00
  1.417082e+00    2.904590e+00
  1.448834e+00    2.928060e+00
  1.480585e+00    3.073527e+00
  1.512336e+00    3.141108e+00
  1.544087e+00    3.215837e+00
  1.575838e+00    3.196050e+00
  1.607589e+00    3.195022e+00
  1.639340e+00    3.154003e+00
  1.671092e+00    3.237169e+00
  1.702843e+00    3.120163e+00
  1.734594e+00    3.195979e+00
  1.766345e+00    3.115487e+00
  1.798096e+00    3.113442e+00
  1.829847e+00    3.099303e+00
  1.861598e+00    3.131106e+00
  1.893350e+00    3.174386e+00
  1.925101e+00    2.976801e+00
  1.956852e+00    3.171684e+00
  1.988603e+00    3.107816e+00
  2.020354e+00    3.083053e+00
  2.052105e+00    3.084643e+00
  2.083856e+00    3.134047e+00
  2.115608e+00    3.118134e+00
  2.147359e+00    3.126267e+00
  2.179110e+00    3.188581e+00
  2.210861e+00    3.077060e+00
  2.242612e+00    3.099926e+00
  2.274363e+00    3.193487e+00
  2.306115e+00    3.115737e+00
  2.337866e+00    3.147966e+00
  2.369617e+00    3.065937e+00
  2.401368e+00    3.258908e+00
  2.433119e+00    3.141060e+00
  2.464870e+00    3.232036e+00
  2.496621e+00    3.256143e+00
  2.528373e+00    3.288627e+00
  2.560124e+00    3.162844e+00
  2.591875e+00    3.270084e+00
  2.623626e+00    3.285302e+00
  2.655377e+00    3.219443e+00
  2.687128e+00    3.208180e+00
  2.718879e+00    3.317223e+00
  2.750631e+00    3.235659e+00
  2.782382e+00    3.254252e+00
  2.814133e+00    3.421523e+00
  2.845884e+00    3.216107e+00
  2.877635e+00    3.364176e+00
  2.909386e+00    3.386902e+00
  2.941137e+00    3.289699e+00
  2.972889e+00    3.407624e+00
  3.004640e+00    3.324975e+00
  3.036391e+00    3.349258e+00
  3.068142e+00    3.393807e+00
  3.099893e+00    3.360844e+00
  3.131644e+00    3.382071e+00
  3.163395e+00    3.382347e+00
  3.195147e+00    3.329373e+00
  3.226898e+00    3.378101e+00
  3.258649e+00    3.439704e+00
  3.290400e+00    3.442283e+00
  3.322151e+00    3.494595e+00
  3.353902e+00    3.419304e+00
  3.385654e+00    3.469878e+00
  3.417405e+00    3.386019e+00
  3.449156e+00    3.388839e+00
  3.480907e+00    3.504586e+00
  3.512658e+00    3.442075e+00
  3.544409e+00    3.492803e+00
  3.576160e+00    3.467723e+00
  3.607912e+00    3.527023e+00
  3.639663e+00    3.473848e+00
  3.671414e+00    3.448349e+00
  3.703165e+00    3.481998e+00
  3.734916e+00    3.653242e+00
  3.766667e+00    3.548022e+00
  3.798418e+00    3.481817e+00
  3.830170e+00    3.507718e+00
  3.861921e+00    3.516644e+00
  3.893672e+00    3.537013e+00
  3.925423e+00    3.507973e+00
  3.957174e+00    3.555784e+00
  3.988925e+00    3.586571e+00
  4.020676e+00    3.561134e+00
  4.052428e+00    3.534664e+00
  4.084179e+00    3.561450e+00
  4.115930e+00    3.669515e+00
  4.147681e+00    3.541338e+00
  4.179432e+00    3.514010e+00
  4.211183e+00    3.704707e+00
  4.242935e+00    3.590904e+00
  4.274686e+00    3.562833e+00
  4.306437e+00    3.593014e+00
  4.338188e+00    3.571311e+00
  4.369939e+00    3.615450e+00
  4.401690e+00    3.630703e+00
  4.433441e+00    3.552978e+00
  4.465193e+00    3.711789e+00
  4.496944e+00    3.602116e+00
  4.528695e+00    3.609896e+00
  4.560446e+00    3.618233e+00
  4.592197e+00    3.588762e+00
  4.623948e+00    3.629377e+00
  4.655699e+00    3.662590e+00
  4.687451e+00    3.639972e+00
  4.719202e+00    3.695003e+00
  4.750953e+00    3.549531e+00
  4.782704e+00    3.585215e+00
  4.814455e+00    3.609935e+00
  4.846206e+00    3.668088e+00
  4.877957e+00    3.658728e+00
  4.909709e+00    3.650560e+00
  4.941460e+00    3.711351e+00
  4.973211e+00    3.653070e+00
  5.004962e+00    3.639673e+00
  5.036713e+00    3.749017e+00
  5.068464e+00    3.618878e+00
  5.100216e+00    3.591902e+00
  5.131967e+00    3.804463e+00
  5.163718e+00    3.670159e+00
  5.195469e+00    3.725509e+00
  5.227220e+00    3.787760e+00
  5.258971e+00    3.695900e+00
  5.290722e+00    3.713343e+00
  5.322474e+00    3.728775e+00
  5.354225e+00    3.680025e+00
  5.385976e+00    3.700387e+00
  5.417727e+00    3.764159e+00
  5.449478e+00    3.601811e+00
  5.481229e+00    3.630112e+00
  5.512980e+00    3.616741e+00
  5.544732e+00    3.532536e+00
  5.576483e+00    3.628537e+00
  5.608234e+00    3.645913e+00
  5.639985e+00    3.702718e+00
  5.671736e+00    3.555369e+00
  5.703487e+00    3.675508e+00
  5.735238e+00    3.566242e+00
  5.766990e+00    3.636324e+00
  5.798741e+00    3.569756e+00
  5.830492e+00    3.602995e+00
  5.862243e+00    3.515475e+00
  5.893994e+00    3.625246e+00
  5.925745e+00    3.626100e+00
  5.957497e+00    3.659176e+00
  5.989248e+00    3.536584e+00
  6.020999e+00    3.577252e+00
  6.052750e+00    3.592809e+00
  6.084501e+00    3.583797e+00
  6.116252e+00    3.589839e+00
  6.148003e+00    3.579249e+00
  6.179755e+00    3.647468e+00
  6.211506e+00    3.578184e+00
  6.243257e+00    3.684539e+00
  6.275008e+00    3.563233e+00
  6.306759e+00    3.522710e+00
  6.338510e+00    3.582850e+00
  6.370261e+00    3.575980e+00
  6.402013e+00    3.548635e+00
  6.433764e+00    3.568541e+00
  6.465515e+00    3.645297e+00
  6.497266e+00    3.526747e+00
  6.529017e+00    3.543171e+00
  6.560768e+00    3.618418e+00
  6.592519e+00    3.496004e+00
  6.624271e+00    3.628171e+00
  6.656022e+00    3.561938e+00
  6.687773e+00    3.588459e+00
  6.719524e+00    3.600364e+00
  6.751275e+00    3.492464e+00
  6.783026e+00    3.566532e+00
  6.814777e+00    3.542905e+00
  6.846529e+00    3.555979e+00
  6.878280e+00    3.544215e+00
  6.910031e+00    3.558711e+00
  6.941782e+00    3.623098e+00
  6.973533e+00    3.612382e+00
  7.005284e+00    3.516446e+00
  7.037036e+00    3.570357e+00
  7.068787e+00    3.541169e+00
  7.100538e+00    3.619454e+00
  7.132289e+00    3.464797e+00
  7.164040e+00    3.570883e+00
  7.195791e+00    3.553622e+00
  7.227542e+00    3.559178e+00
  7.259294e+00    3.552814e+00
  7.291045e+00    3.513376e+00
  7.322796e+00    3.518940e+00
  7.354547e+00    3.431491e+00
  7.386298e+00    3.453192e+00
  7.418049e+00    3.466611e+00
  7.449800e+00    3.484183e+00
  7.481552e+00    3.498267e+00
  7.513303e+00    3.575225e+00
  7.545054e+00    3.514913e+00
  7.576805e+00    3.482358e+00
  7.608556e+00    3.505442e+00
  7.640307e+00    3.518446e+00
  7.672058e+00    3.452199e+00
  7.703810e+00    3.490825e+00
  7.735561e+00    3.445801e+00
  7.767312e+00    3.473537e+00
  7.799063e+00    3.441482e+00
  7.830814e+00    3.469101e+00
  7.862565e+00    3.455423e+00
  7.894317e+00    3.415597e+00
  7.926068e+00    3.463335e+00
  7.957819e+00    3.460058e+00
  7.989570e+00    3.443671e+00
  8.021321e+00    3.423104e+00
  8.053072e+00    3.432950e+00
  8.084823e+00    3.498174e+00
  8.116575e+00    3.472089e+00
  8.148326e+00    3.535266e+00
  8.180077e+00    3.554391e+00
  8.211828e+00    3.467486e+00
  8.243579e+00    3.402334e+00
  8.275330e+00    3.425248e+00
  8.307081e+00    3.566328e+00
  8.338833e+00    3.410346e+00
  8.370584e+00    3.409466e+00
  8.402335e+00    3.457748e+00
  8.434086e+00    3.401747e+00
  8.465837e+00    3.417696e+00
  8.497588e+00    3.423385e+00
  8.529339e+00    3.411310e+00
  8.561091e+00    3.388690e+00
  8.592842e+00    3.444659e+00
  8.624593e+00    3.445474e+00
  8.656344e+00    3.342527e+00
  8.688095e+00    3.397408e+00
  8.719846e+00    3.393199e+00
  8.751598e+00    3.349896e+00
  8.783349e+00    3.316177e+00
  8.815100e+00    3.382210e+00
  8.846851e+00    3.306135e+00
  8.878602e+00    3.312314e+00
  8.910353e+00    3.287410e+00
  8.942104e+00    3.413359e+00
  8.973856e+00    3.351106e+00
  9.005607e+00    3.324626e+00
  9.037358e+00    3.372883e+00
  9.069109e+00    3.257843e+00
  9.100860e+00    3.350896e+00
  9.132611e+00    3.329257e+00
  9.164362e+00    3.294969e+00
  9.196114e+00    3.317837e+00
  9.227865e+00    3.245860e+00
  9.259616e+00    3.270342e+00
  9.291367e+00    3.252640e+00
  9.323118e+00    3.276778e+00
  9.354869e+00    3.217263e+00
  9.386620e+00    3.249400e+00
  9.418372e+00    3.262465e+00
  9.450123e+00    3.219787e+00
  9.481874e+00    3.215328e+00
  9.513625e+00    3.250095e+00
  9.545376e+00    3.285225e+00
  9.577127e+00    3.247820e+00
  9.608878e+00    3.198667e+00
  9.640630e+00    3.227960e+00
  9.672381e+00    3.124188e+00
  9.704132e+00    3.229909e+00
  9.735883e+00    3.180080e+00
  9.767634e+00    3.152326e+00
  9.799385e+00    3.186347e+00
  9.831137e+00    3.177591e+00
  9.862888e+00    3.143750e+00
  9.894639e+00    3.106952e+00
  9.926390e+00    3.176178e+00
  9.958141e+00    3.145553e+00
  9.989892e+00    3.169849e+00
  1.002164e+01    3.096027e+00
  1.005339e+01    3.085099e+00
  1.008515e+01    3.062395e+00
  1.011690e+01    3.099632e+00
  1.014865e+01    3.144688e+00
  1.018040e+01    3.083181e+00
  1.021215e+01    3.093667e+00
  1.024390e+01    3.055795e+00
  1.027565e+01    3.027551e+00
  1.030740e+01    3.098246e+00
  1.033915e+01    3.104277e+00
  1.037091e+01    3.048174e+00
  1.040266e+01    3.095624e+00
  1.043441e+01    3.103356e+00
  1.046616e+01    3.006648e+00
  1.049791e+01    3.060503e+00
  1.052966e+01    3.048276e+00
  1.056141e+01    3.017386e+00
  1.059316e+01    3.005816e+00
  1.062492e+01    3.031095e+00
  1.065667e+01    2.968833e+00
  1.068842e+01    3.007766e+00
  1.072017e+01    2.992960e+00
  1.075192e+01    2.951276e+00
  1.078367e+01    3.035935e+00
  1.081542e+01    2.915467e+00
  1.084717e+01    2.952918e+00
  1.087892e+01    2.934609e+00
  1.091068e+01    2.997144e+00
  1.094243e+01    2.998528e+00
  1.097418e+01    2.936869e+00
  1.100593e+01    2.891327e+00
  1.103768e+01    2.933057e+00
  1.106943e+01    2.880971e+00
  1.110118e+01    2.847177e+00
  1.113293e+01    2.807896e+00
  1.116468e+01    2.912425e+00
  1.119644e+01    2.871347e+00
  1.122819e+01    2.826555e+00
  1.125994e+01    2.846953e+00
  1.129169e+01    2.847827e+00
  1.132344e+01    2.842816e+00
  1.135519e+01    2.826206e+00
  1.138694e+01    2.846484e+00
  1.141869e+01    2.802871e+00
  1.145045e+01    2.847239e+00
  1.148220e+01    2.868261e+00
  1.151395e+01    2.811426e+00
  1.154570e+01    2.829231e+00
  1.157745e+01    2.811072e+00
  1.160920e+01    2.851116e+00
  1.164095e+01    2.739334e+00
  1.167270e+01    2.847273e+00
  1.170445e+01    2.778654e+00
  1.173621e+01    2.759068e+00
  1.176796e+01    2.799023e+00
  1.179971e+01    2.767050e+00
  1.183146e+01    2.766595e+00
  1.186321e+01    2.773159e+00
  1.189496e+01    2.782442e+00
  1.192671e+01    2.777439e+00
  1.195846e+01    2.793465e+00
  1.199021e+01    2.712559e+00
  1.202197e+01    2.751418e+00
  1.205372e+01    2.763540e+00
  1.208547e+01    2.747907e+00
  1.211722e+01    2.724758e+00
  1.214897e+01    2.716314e+00
  1.218072e+01    2.731256e+00
  1.221247e+01    2.716347e+00
  1.224422e+01    2.699140e+00
  1.227597e+01    2.772769e+00
  1.230773e+01    2.712554e+00
  1.233948e+01    2.690838e+00
  1.237123e+01    2.725403e+00
  1.240298e+01    2.744831e+00
  1.243473e+01    2.694513e+00
  1.246648e+01    2.698839e+00
  1.249823e+01    2.719142e+00
  1.252998e+01    2.728079e+00
  1.256174e+01    2.710782e+00
  1.259349e+01    2.782802e+00
  1.262524e+01    2.764654e+00
  1.265699e+01    2.850076e+00
  1.268874e+01    2.783028e+00
  1.272049e+01    2.847731e+00
  1.275224e+01    2.880346e+00
  1.278399e+01    3.029579e+00
  1.281574e+01    3.042806e+00
  1.284750e+01    3.231251e+00
  1.287925e+01    3.409922e+00
  1.291100e+01    3.722184e+00
  1.294275e+01    4.127985e+00
  1.297450e+01    4.854279e+00
  1.300625e+01    5.897175e+00
  1.303800e+01    7.751479e+00
  1.306975e+01    1.023755e+01
  1.310150e+01    1.269194e+01
  1.313326e+01    1.496153e+01
  1.316501e+01    1.637221e+01
  1.319676e+01    1.584938e+01
  1.322851e+01    1.268823e+01
  1.326026e+01    9.192039e+00
  1.329201e+01    6.853168e+00
  1.332376e+01    5.380655e+00
  1.335551e+01    4.444039e+00
  1.338727e+01    3.961426e+00
  1.341902e+01    3.498394e+00
  1.345077e+01    3.219383e+00
  1.348252e+01    3.084619e+00
  1.351427e+01    2.943480e+00
  1.354602e+01    2.861973e+00
  1.357777e+01    2.732617e+00
  1.360952e+01    2.715682e+00
  1.364127e+01    2.648019e+00
  1.367303e+01    2.554290e+00
  1.370478e+01    2.515392e+00
  1.373653e+01    2.564254e+00
  1.376828e+01    2.505851e+00
  1.380003e+01    2.502429e+00
  1.383178e+01    2.433913e+00
  1.386353e+01    2.431857e+00
  1.389528e+01    2.466349e+00
  1.392703e+01    2.405981e+00
  1.395879e+01    2.400546e+00
  1.399054e+01    2.385897e+00
  1.402229e+01    2.347166e+00
  1.405404e+01    2.414621e+00
  1.408579e+01    2.386881e+00
  1.411754e+01    2.333583e+00
  1.414929e+01    2.293011e+00
  1.418104e+01    2.343229e+00
  1.421279e+01    2.316204e+00
  1.424455e+01    2.284800e+00
  1.427630e+01    2.267159e+00
  1.430805e+01    2.304441e+00
  1.433980e+01    2.266049e+00
  1.437155e+01    2.268655e+00
  1.440330e+01    2.258477e+00
  1.443505e+01    2.257035e+00
  1.446680e+01    2.268751e+00
  1.449856e+01    2.221490e+00
  1.453031e+01    2.250354e+00
  1.456206e+01    2.250839e+00
  1.459381e+01    2.241880e+00
  1.462556e+01    2.261424e+00
  1.465731e+01    2.263678e+00
  1.468906e+01    2.182027e+00
  1.472081e+01    2.165762e+00
  1.475256e+01    2.233134e+00
  1.478432e+01    2.243936e+00
  1.481607e+01    2.201257e+00
  1.484782e+01    2.237892e+00
  1.487957e+01    2.184168e+00
  1.491132e+01    2.241813e+00
  1.494307e+01    2.324312e+00
  1.497482e+01    2.398547e+00
  1.500657e+01    2.493094e+00
  1.503832e+01    2.606727e+00
  1.507008e+01    2.760178e+00
  1.510183e+01    3.207311e+00
  1.513358e+01    3.870339e+00
  1.516533e+01    4.564504e+00
  1.519708e+01    5.235825e+00
  1.522883e+01    5.601103e+00
  1.526058e+01    5.813038e+00
  1.529233e+01    5.559801e+00
  1.532409e+01    4.739204e+00
  1.535584e+01    3.806946e+00
  1.538759e+01    3.205346e+00
  1.541934e+01    2.847798e+00
  1.545109e+01    2.541121e+00
  1.548284e+01    2.427717e+00
  1.551459e+01    2.264912e+00
  1.554634e+01    2.203343e+00
  1.557809e+01    2.129912e+00
  1.560985e+01    2.099793e+00
  1.564160e+01    2.083701e+00
  1.567335e+01    2.002720e+00
  1.570510e+01    2.028312e+00
  1.573685e+01    1.991668e+00
  1.576860e+01    1.941790e+00
  1.580035e+01    1.899689e+00
  1.583210e+01    1.943168e+00
  1.586385e+01    1.932436e+00
  1.589561e+01    1.938346e+00
  1.592736e+01    1.904145e+00
  1.595911e+01    1.915774e+00
  1.599086e+01    1.916165e+00
  1.602261e+01    1.909432e+00
  1.605436e+01    1.838720e+00
  1.608611e+01    1.869220e+00
  1.611786e+01    1.875233e+00
  1.614961e+01    1.839078e+00
  1.618137e+01    1.839967e+00
  1.621312e+01    1.853165e+00
  1.624487e+01    1.828456e+00
  1.627662e+01    1.822655e+00
  1.630837e+01    1.809662e+00
  1.634012e+01    1.830461e+00
  1.637187e+01    1.772601e+00
  1.640362e+01    1.772166e+00
  1.643538e+01    1.763197e+00
  1.646713e+01    1.782043e+00
  1.649888e+01    1.773780e+00
  1.653063e+01    1.770534e+00
  1.656238e+01    1.775531e+00
  1.659413e+01    1.788434e+00
  1.662588e+01    1.715237e+00
  1.665763e+01    1.775100e+00
  1.668938e+01    1.749680e+00
  1.672114e+01    1.730172e+00
  1.675289e+01    1.727310e+00
  1.678464e+01    1.696396e+00
  1.681639e+01    1.738433e+00
  1.684814e+01    1.746965e+00
  1.687989e+01    1.700687e+00
  1.691164e+01    1.722479e+00
  1.694339e+01    1.691573e+00
  1.697514e+01    1.678199e+00
  1.700690e+01    1.703296e+00
  1.703865e+01    1.673763e+00
  1.707040e+01    1.672356e+00
  1.710215e+01    1.663278e+00
  1.713390e+01    1.641013e+00
  1.716565e+01    1.627670e+00
  1.719740e+01    1.648477e+00
  1.722915e+01    1.625879e+00
  1.726091e+01    1.613089e+00
  1.729266e+01    1.661311e+00
  1.732441e+01    1.613831e+00
  1.735616e+01    1.597096e+00
  1.738791e+01    1.604004e+00
  1.741966e+01    1.590804e+00
  1.745141e+01    1.622190e+00
  1.748316e+01    1.587399e+00
  1.751491e+01    1.577848e+00
  1.754667e+01    1.605714e+00
  1.757842e+01    1.588158e+00
  1.761017e+01    1.591741e+00
  1.764192e+01    1.611897e+00
  1.767367e+01    1.585539e+00
  1.770542e+01    1.526504e+00
  1.773717e+01    1.569738e+00
  1.776892e+01    1.581646e+00
  1.780067e+01    1.553666e+00
  1.783243e+01    1.554174e+00
  1.786418e+01    1.534715e+00
  1.789593e+01    1.547357e+00
  1.792768e+01    1.527437e+00
  1.795943e+01    1.501514e+00
  1.799118e+01    1.513407e+00
  1.802293e+01    1.544278e+00
  1.805468e+01    1.511778e+00
  1.808643e+01    1.509606e+00
  1.811819e+01    1.514438e+00
  1.814994e+01    1.525335e+00
  1.818169e+01    1.509099e+00
  1.821344e+01    1.488176e+00
  1.824519e+01    1.496873e+00
  1.827694e+01    1.467571e+00
  1.830869e+01    1.464029e+00
  1.834044e+01    1.488484e+00
  1.837220e+01    1.498995e+00
  1.840395e+01    1.473989e+00
  1.843570e+01    1.462707e+00
  1.846745e+01    1.413202e+00
  1.849920e+01    1.435886e+00
  1.853095e+01    1.435868e+00
  1.856270e+01    1.434552e+00
  1.859445e+01    1.471549e+00
  1.862620e+01    1.433003e+00
  1.865796e+01    1.440046e+00
  1.868971e+01    1.449351e+00
  1.872146e+01    1.408074e+00
  1.875321e+01    1.417431e+00
  1.878496e+01    1.418275e+00
  1.881671e+01    1.416245e+00
  1.884846e+01    1.409553e+00
  1.888021e+01    1.397118e+00
  1.891196e+01    1.393636e+00
  1.894372e+01    1.415472e+00
  1.897547e+01    1.405252e+00
  1.900722e+01    1.381426e+00
  1.903897e+01    1.400106e+00
  1.907072e+01    1.373633e+00
  1.910247e+01    1.369598e+00
  1.913422e+01    1.381674e+00
  1.916597e+01    1.373459e+00
  1.919773e+01    1.379727e+00
  1.922948e+01    1.379474e+00
  1.926123e+01    1.368448e+00
  1.929298e+01    1.357173e+00
  1.932473e+01    1.381575e+00
  1.935648e+01    1.371812e+00
  1.938823e+01    1.368465e+00
  1.941998e+01    1.359158e+00
  1.945173e+01    1.396372e+00
  1.948349e+01    1.346630e+00
  1.951524e+01    1.343911e+00
  1.954699e+01    1.326045e+00
  1.957874e+01    1.336223e+00
  1.961049e+01    1.329105e+00
  1.964224e+01    1.306678e+00
  1.967399e+01    1.316619e+00
  1.970574e+01    1.303923e+00
  1.973749e+01    1.335735e+00
  1.976925e+01    1.303771e+00
  1.980100e+01    1.306871e+00
  1.983275e+01    1.309240e+00
  1.986450e+01    1.277127e+00
  1.989625e+01    1.292878e+00
  1.992800e+01    1.303036e+00
  1.995975e+01    1.312065e+00
  1.999150e+01    1.289846e+00
  2.002325e+01    1.280712e+00
  2.005501e+01    1.275078e+00
  2.008676e+01    1.271557e+00
  2.011851e+01    1.267266e+00
  2.015026e+01    1.264446e+00
  2.018201e+01    1.283966e+00
  2.021376e+01    1.265576e+00
  2.024551e+01    1.280089e+00
  2.027726e+01    1.273759e+00
  2.030902e+01    1.262632e+00
  2.034077e+01    1.287655e+00
  2.037252e+01    1.259475e+00
  2.040427e+01    1.259088e+00
  2.043602e+01    1.259968e+00
  2.046777e+01    1.268244e+00
  2.049952e+01    1.241842e+00
  2.053127e+01    1.245638e+00
  2.056302e+01    1.259110e+00
  2.059478e+01    1.249908e+00
  2.062653e+01    1.233301e+00
  2.065828e+01    1.263055e+00
  2.069003e+01    1.250222e+00
  2.072178e+01    1.245295e+00
  2.075353e+01    1.241059e+00
  2.078528e+01    1.219988e+00
  2.081703e+01    1.242604e+00
  2.084878e+01    1.218992e+00
  2.088054e+01    1.266897e+00
  2.091229e+01    1.218149e+00
  2.094404e+01    1.238131e+00
  2.097579e+01    1.226528e+00
  2.100754e+01    1.232890e+00
  2.103929e+01    1.241739e+00
  2.107104e+01    1.234644e+00
  2.110279e+01    1.267327e+00
  2.113455e+01    1.253880e+00
  2.116630e+01    1.257591e+00
  2.119805e+01    1.272852e+00
  2.122980e+01    1.257637e+00
  2.126155e+01    1.249262e+00
  2.129330e+01    1.277923e+00
  2.132505e+01    1.292118e+00
  2.135680e+01    1.297879e+00
  2.138855e+01    1.312209e+00
  2.142031e+01    1.321353e+00
  2.145206e+01    1.350792e+00
  2.148381e+01    1.406972e+00
  2.151556e+01    1.468562e+00
  2.154731e+01    1.544597e+00
  2.157906e+01    1.638025e+00
  2.161081e+01    1.782220e+00
  2.164256e+01    1.979082e+00
  2.167431e+01    2.301068e+00
  2.170607e+01    2.761763e+00
  2.173782e+01    3.557260e+00
  2.176957e+01    4.552668e+00
  2.180132e+01    5.875411e+00
  2.183307e+01    7.189049e+00
  2.186482e+01    8.397484e+00
  2.189657e+01    9.025821e+00
  2.192832e+01    8.377554e+00
  2.196007e+01    6.676649e+00
  2.199183e+01    4.959443e+00
  2.202358e+01    3.665586e+00
  2.205533e+01    2.846375e+00
  2.208708e+01    2.378960e+00
  2.211883e+01    2.041469e+00
  2.215058e+01    1.766861e+00
  2.218233e+01    1.597655e+00
  2.221408e+01    1.507829e+00
  2.224584e+01    1.449647e+00
  2.227759e+01    1.382278e+00
  2.230934e+01    1.348425e+00
  2.234109e+01    1.270643e+00
  2.237284e+01    1.227232e+00
  2.240459e+01    1.212255e+00
  2.243634e+01    1.181069e+00
  2.246809e+01    1.169457e+00
  2.249984e+01    1.154755e+00
  2.253160e+01    1.135213e+00
  2.256335e+01    1.126733e+00
  2.259510e+01    1.122408e+00
  2.262685e+01    1.079313e+00
  2.265860e+01    1.093802e+00
  2.269035e+01    1.076796e+00
  2.272210e+01    1.093338e+00
  2.275385e+01    1.063309e+00
  2.278560e+01    1.057151e+00
  2.281736e+01    1.066763e+00
  2.284911e+01    1.034750e+00
  2.288086e+01    1.074390e+00
  2.291261e+01    1.026777e+00
  2.294436e+01    1.033526e+00
  2.297611e+01    1.029870e+00
  2.300786e+01    1.036859e+00
  2.303961e+01    1.010456e+00
  2.307137e+01    1.032797e+00
  2.310312e+01    1.013507e+00
  2.313487e+01    1.014666e+00
  2.316662e+01    1.011305e+00
  2.319837e+01    1.012066e+00
  2.323012e+01    9.991378e-01
  2.326187e+01    9.931170e-01
  2.329362e+01    9.856322e-01
  2.332537e+01    1.008069e+00
  2.335713e+01    9.748253e-01
  2.338888e+01    9.837614e-01
  2.342063e+01    9.685881e-01
  2.345238e+01    9.693921e-01
  2.348413e+01    9.799537e-01
  2.351588e+01    9.635288e-01
  2.354763e+01    9.608731e-01
  2.357938e+01    9.712757e-01
  2.361113e+01    9.494596e-01
  2.364289e+01    9.665708e-01
  2.367464e+01    9.578989e-01
  2.370639e+01    9.378653e-01
  2.373814e+01    9.668584e-01
  2.376989e+01    9.417379e-01
  2.380164e+01    9.159137e-01
  2.383339e+01    9.082354e-01
  2.386514e+01    9.250445e-01
  2.389689e+01    9.225866e-01
  2.392865e+01    9.191805e-01
  2.396040e+01    9.149931e-01
  2.399215e+01    8.795877e-01
  2.402390e+01    8.880178e-01
  2.405565e+01    9.215113e-01
  2.408740e+01    8.828490e-01
  2.411915e+01    9.069557e-01
  2.415090e+01    8.772869e-01
  2.418266e+01    9.007089e-01
  2.421441e+01    8.798176e-01
  2.424616e+01    9.054524e-01
  2.427791e+01    9.137713e-01
  2.430966e+01    9.038278e-01
  2.434141e+01    9.196826e-01
  2.437316e+01    8.884345e-01
  2.440491e+01    9.083769e-01
  2.443666e+01    8.691352e-01
  2.446842e+01    9.079040e-01
  2.450017e+01    9.014436e-01
  2.453192e+01    9.088397e-01
  2.456367e+01    8.882131e-01
  2.459542e+01    9.037828e-01
  2.462717e+01    9.129276e-01
  2.465892e+01    9.021291e-01
  2.469067e+01    8.922080e-01
  2.472242e+01    8.749831e-01
  2.475418e+01    9.081900e-01
  2.478593e+01    8.797427e-01
  2.481768e+01    9.058900e-01
  2.484943e+01    8.823305e-01
  2.488118e+01    8.835844e-01
  2.491293e+01    8.923776e-01
  2.494468e+01    9.166255e-01
  2.497643e+01    9.239919e-01
  2.500819e+01    9.290842e-01
  2.503994e+01    8.980388e-01
  2.507169e+01    8.963697e-01
  2.510344e+01    9.143785e-01
  2.513519e+01    8.985508e-01
  2.516694e+01    9.180138e-01
  2.519869e+01    9.325882e-01
  2.523044e+01    9.214419e-01
  2.526219e+01    9.562441e-01
  2.529395e+01    9.505129e-01
  2.532570e+01    9.584960e-01
  2.535745e+01    9.810803e-01
  2.538920e+01    9.945570e-01
  2.542095e+01    9.878916e-01
  2.545270e+01    1.015305e+00
  2.548445e+01    1.053089e+00
  2.551620e+01    1.076140e+00
  2.554795e+01    1.112347e+00
  2.557971e+01    1.172727e+00
  2.561146e+01    1.219700e+00
  2.564321e+01    1.301812e+00
  2.567496e+01    1.429705e+00
  2.570671e+01    1.623593e+00
  2.573846e+01    1.851288e+00
  2.577021e+01    2.258957e+00
  2.580196e+01    2.823575e+00
  2.583371e+01    3.662858e+00
  2.586547e+01    4.688896e+00
  2.589722e+01    5.871353e+00
  2.592897e+01    6.770707e+00
  2.596072e+01    7.178266e+00
  2.599247e+01    6.623439e+00
  2.602422e+01    5.351464e+00
  2.605597e+01    4.048098e+00
  2.608772e+01    3.052136e+00
  2.611948e+01    2.381992e+00
  2.615123e+01    1.983454e+00
  2.618298e+01    1.686183e+00
  2.621473e+01    1.496584e+00
  2.624648e+01    1.372293e+00
  2.627823e+01    1.287879e+00
  2.630998e+01    1.192671e+00
  2.634173e+01    1.140335e+00
  2.637348e+01    1.101524e+00
  2.640524e+01    1.063773e+00
  2.643699e+01    1.055013e+00
  2.646874e+01    1.033412e+00
  2.650049e+01    1.042487e+00
  2.653224e+01    1.022296e+00
  2.656399e+01    9.969978e-01
  2.659574e+01    1.003448e+00
  2.662749e+01    9.870299e-01
  2.665924e+01    9.748408e-01
  2.669100e+01    9.887466e-01
  2.672275e+01    9.786662e-01
  2.675450e+01    9.746765e-01
  2.678625e+01    9.628816e-01
  2.681800e+01    9.974040e-01
  2.684975e+01    9.895775e-01
  2.688150e+01    9.807237e-01
  2.691325e+01    1.017455e+00
  2.694501e+01    1.043869e+00
  2.697676e+01    1.077795e+00
  2.700851e+01    1.125007e+00
  2.704026e+01    1.194729e+00
  2.707201e+01    1.346171e+00
  2.710376e+01    1.494616e+00
  2.713551e+01    1.736159e+00
  2.716726e+01    1.977461e+00
  2.719901e+01    2.165763e+00
  2.723077e+01    2.163970e+00
  2.726252e+01    1.987795e+00
  2.729427e+01    1.727460e+00
  2.732602e+01    1.459796e+00
  2.735777e+01    1.304266e+00
  2.738952e+01    1.178853e+00
  2.742127e+01    1.104791e+00
  2.745302e+01    1.051245e+00
  2.748477e+01    9.976164e-01
  2.751653e+01    9.665746e-01
  2.754828e+01    9.439557e-01
  2.758003e+01    9.306840e-01
  2.761178e+01    9.422477e-01
  2.764353e+01    9.241792e-01
  2.767528e+01    9.163956e-01
  2.770703e+01    8.970944e-01
  2.773878e+01    9.189119e-01
  2.777054e+01    9.125737e-01
  2.780229e+01    8.847867e-01
  2.783404e+01    8.926098e-01
  2.786579e+01    8.883729e-01
  2.789754e+01    8.830776e-01
  2.792929e+01    9.059500e-01
  2.796104e+01    9.035986e-01
  2.799279e+01    8.679922e-01
  2.802454e+01    8.626099e-01
  2.805630e+01    8.916823e-01
  2.808805e+01    8.696849e-01
  2.811980e+01    8.841252e-01
  2.815155e+01    8.596318e-01
  2.818330e+01    8.677542e-01
  2.821505e+01    8.683817e-01
  2.824680e+01    8.444916e-01
  2.827855e+01    8.384392e-01
  2.831030e+01    8.691149e-01
  2.834206e+01    8.650467e-01
  2.837381e+01    8.566142e-01
  2.840556e+01    8.580283e-01
  2.843731e+01    8.337359e-01
  2.846906e+01    8.488165e-01
  2.850081e+01    8.389742e-01
  2.853256e+01    8.412927e-01
  2.856431e+01    8.426772e-01
  2.859606e+01    8.446041e-01
  2.862782e+01    8.312386e-01
  2.865957e+01    8.387356e-01
  2.869132e+01    8.767015e-01
  2.872307e+01    8.343796e-01
  2.875482e+01    8.144712e-01
  2.878657e+01    8.274761e-01
  2.881832e+01    8.466334e-01
  2.885007e+01    8.290361e-01
  2.888183e+01    8.306152e-01
  2.891358e+01    8.478788e-01
  2.894533e+01    8.327730e-01
  2.897708e+01    8.500313e-01
  2.900883e+01    8.307080e-01
  2.904058e+01    8.272013e-01
  2.907233e+01    8.037394e-01
  2.910408e+01    8.277981e-01
  2.913583e+01    8.389922e-01
  2.916759e+01    8.219852e-01
  2.919934e+01    8.164872e-01
  2.923109e+01    8.275046e-01
  2.926284e+01    8.059691e-01
  2.929459e+01    8.054462e-01
  2.932634e+01    7.997658e-01
  2.935809e+01    8.206567e-01
  2.938984e+01    8.024006e-01
  2.942159e+01    8.119981e-01
  2.945335e+01    8.256959e-01
  2.948510e+01    8.045756e-01
  2.951685e+01    7.887494e-01
  2.954860e+01    8.135620e-01
  2.958035e+01    7.849847e-01
  2.961210e+01    7.970744e-01
  2.964385e+01    8.166225e-01
  2.967560e+01    7.982230e-01
  2.970736e+01    8.055434e-01
  2.973911e+01    7.965252e-01
  2.977086e+01    7.914306e-01
  2.980261e+01    7.842269e-01
  2.983436e+01    7.727320e-01
  2.986611e+01    8.070351e-01
  2.989786e+01    7.962099e-01
  2.992961e+01    7.942210e-01
  2.996136e+01    7.985269e-01
  2.999312e+01    8.001045e-01
  3.002487e+01    8.218081e-01
  3.005662e+01    8.191817e-01
  3.008837e+01    7.957730e-01
  3.012012e+01    7.969925e-01
  3.015187e+01    7.963802e-01
  3.018362e+01    7.806253e-01
  3.021537e+01    7.768044e-01
  3.024712e+01    7.949693e-01
  3.027888e+01    7.933665e-01
  3.031063e+01    7.514126e-01
  3.034238e+01    8.022188e-01
  3.037413e+01    7.999142e-01
  3.040588e+01    7.824332e-01
  3.043763e+01    7.840710e-01
  3.046938e+01    7.748799e-01
  3.050113e+01    7.920737e-01
  3.053288e+01    7.670429e-01
  3.056464e+01    7.965806e-01
  3.059639e+01    8.012000e-01
  3.062814e+01    7.905455e-01
  3.065989e+01    7.673311e-01
  3.069164e+01    7.569042e-01
  3.072339e+01    8.082781e-01
  3.075514e+01    7.902117e-01
  3.078689e+01    7.911929e-01
  3.081865e+01    7.870174e-01
  3.085040e+01    7.838932e-01
  3.088215e+01    7.680721e-01
  3.091390e+01    7.706592e-01
  3.094565e+01    7.896439e-01
  3.097740e+01    8.059117e-01
  3.100915e+01    7.941273e-01
  3.104090e+01    7.707350e-01
  3.107265e+01    8.090890e-01
  3.110441e+01    7.866305e-01
  3.113616e+01    7.949265e-01
  3.116791e+01    7.868409e-01
  3.119966e+01    7.981447e-01
  3.123141e+01    8.179225e-01
  3.126316e+01    8.017127e-01
  3.129491e+01    8.141411e-01
  3.132666e+01    8.196649e-01
  3.135841e+01    8.325025e-01
  3.139017e+01    7.847863e-01
  3.142192e+01    8.156235e-01
  3.145367e+01    8.063707e-01
  3.148542e+01    8.352420e-01
  3.151717e+01    8.568501e-01
  3.154892e+01    8.350708e-01
  3.158067e+01    8.745228e-01
  3.161242e+01    8.878517e-01
  3.164418e+01    9.072582e-01
  3.167593e+01    9.790862e-01
  3.170768e+01    1.032571e+00
  3.173943e+01    1.115668e+00
  3.177118e+01    1.283910e+00
  3.180293e+01    1.451969e+00
  3.183468e+01    1.746037e+00
  3.186643e+01    1.953146e+00
  3.189818e+01    2.121142e+00
  3.192994e+01    2.073652e+00
  3.196169e+01    1.845482e+00
  3.199344e+01    1.590773e+00
  3.202519e+01    1.336355e+00
  3.205694e+01    1.158720e+00
  3.208869e+01    1.057762e+00
  3.212044e+01    9.750471e-01
  3.215219e+01    9.264700e-01
  3.218394e+01    8.658645e-01
  3.221570e+01    8.597836e-01
  3.224745e+01    8.576040e-01
  3.227920e+01    8.455740e-01
  3.231095e+01    8.154276e-01
  3.234270e+01    8.219023e-01
  3.237445e+01    8.080742e-01
  3.240620e+01    8.171708e-01
  3.243795e+01    8.025680e-01
  3.246970e+01    7.934071e-01
  3.250146e+01    7.896737e-01
  3.253321e+01    7.891196e-01
  3.254908e+01    7.965475e-01