File: XRD/Reaction conditions/2024-07-27_003_Ru-CGO-ex_Reaction_dwell_000023_data_000140.dat
# == pyFAI calibration ==
# Distance Sample to Detector: 0.4 m
# PONI: 9.750e-02, 1.135e-01 m
# Rotations: -0.000175 0.000000 -0.000000 rad
#
# == Fit2d calibration ==
# Distance Sample-beamCenter: 400.000 mm
# Center: x=1514.000, y=1300.000 pix
# Tilt: 0.010 deg  TiltPlanRot: 0.010 deg
#
# Detector Detector	 Spline= None	 PixelSize= 7.500e-05, 7.500e-05 m
#    Detector has a mask: False
#    Detector has a dark current: False
#    detector has a flat field: False
#
# Wavelength: 6.888e-11 m
# Mask applied: user provided
# Dark current applied: False
# Flat field applied: False
# Polarization factor: 0.99
# Normalization factor: 1.0
# --> /home/myspot/data/2024_07_Rosario/Ru-CGO-ex/2024-07-27_003_Ru-CGO-ex_Reaction_dwell_000023_data_000140.dat
#       q_nm^-1             I
  2.003187e-02    7.711996e-02
  5.178302e-02    4.982381e-02
  8.353417e-02    4.769114e-02
  1.152853e-01    7.216797e-02
  1.470365e-01    4.594758e-02
  1.787876e-01    6.657278e-02
  2.105388e-01    7.890273e-02
  2.422899e-01    2.116267e-02
  2.740411e-01    2.473468e-02
  3.057922e-01    3.761571e-02
  3.375433e-01    1.079717e-01
  3.692945e-01    6.168500e-02
  4.010456e-01    8.713588e-02
  4.327968e-01    5.576822e-02
  4.645479e-01    3.510791e-02
  4.962991e-01    4.301463e-02
  5.280502e-01    5.163220e-02
  5.598014e-01    2.734927e-02
  5.915525e-01    1.430255e-02
  6.233037e-01    3.285038e-02
  6.550548e-01    4.634212e-02
  6.868060e-01    4.008193e-02
  7.185571e-01    5.307744e-02
  7.503083e-01    4.646301e-02
  7.820594e-01    1.068653e-01
  8.138106e-01    1.757599e-01
  8.455617e-01    3.526348e-01
  8.773129e-01    4.362824e-01
  9.090640e-01    6.116643e-01
  9.408152e-01    8.421884e-01
  9.725663e-01    9.934595e-01
  1.004317e+00    1.343100e+00
  1.036069e+00    1.426025e+00
  1.067820e+00    1.375965e+00
  1.099571e+00    1.502494e+00
  1.131322e+00    1.499082e+00
  1.163073e+00    1.630525e+00
  1.194824e+00    1.794494e+00
  1.226575e+00    2.170463e+00
  1.258327e+00    2.411791e+00
  1.290078e+00    2.690181e+00
  1.321829e+00    2.780638e+00
  1.353580e+00    2.785846e+00
  1.385331e+00    2.951461e+00
  1.417082e+00    2.938212e+00
  1.448834e+00    2.933666e+00
  1.480585e+00    3.165143e+00
  1.512336e+00    3.261055e+00
  1.544087e+00    3.180419e+00
  1.575838e+00    3.110818e+00
  1.607589e+00    3.065409e+00
  1.639340e+00    3.215420e+00
  1.671092e+00    3.143256e+00
  1.702843e+00    3.287974e+00
  1.734594e+00    3.130573e+00
  1.766345e+00    3.178410e+00
  1.798096e+00    3.179957e+00
  1.829847e+00    3.208728e+00
  1.861598e+00    3.145780e+00
  1.893350e+00    2.990201e+00
  1.925101e+00    2.956460e+00
  1.956852e+00    3.107282e+00
  1.988603e+00    3.042863e+00
  2.020354e+00    3.082224e+00
  2.052105e+00    3.014711e+00
  2.083856e+00    3.059303e+00
  2.115608e+00    2.915535e+00
  2.147359e+00    3.061273e+00
  2.179110e+00    3.052783e+00
  2.210861e+00    3.094300e+00
  2.242612e+00    3.088932e+00
  2.274363e+00    2.970834e+00
  2.306115e+00    3.235445e+00
  2.337866e+00    3.220782e+00
  2.369617e+00    3.059051e+00
  2.401368e+00    3.005718e+00
  2.433119e+00    3.294467e+00
  2.464870e+00    3.209155e+00
  2.496621e+00    3.201351e+00
  2.528373e+00    3.170887e+00
  2.560124e+00    3.156687e+00
  2.591875e+00    3.145739e+00
  2.623626e+00    3.190829e+00
  2.655377e+00    3.194569e+00
  2.687128e+00    3.184106e+00
  2.718879e+00    3.329653e+00
  2.750631e+00    3.203810e+00
  2.782382e+00    3.230845e+00
  2.814133e+00    3.243869e+00
  2.845884e+00    3.264202e+00
  2.877635e+00    3.237358e+00
  2.909386e+00    3.407260e+00
  2.941137e+00    3.413467e+00
  2.972889e+00    3.374940e+00
  3.004640e+00    3.325106e+00
  3.036391e+00    3.304595e+00
  3.068142e+00    3.312345e+00
  3.099893e+00    3.348894e+00
  3.131644e+00    3.303252e+00
  3.163395e+00    3.272660e+00
  3.195147e+00    3.413757e+00
  3.226898e+00    3.404057e+00
  3.258649e+00    3.378636e+00
  3.290400e+00    3.404417e+00
  3.322151e+00    3.447973e+00
  3.353902e+00    3.499552e+00
  3.385654e+00    3.493701e+00
  3.417405e+00    3.409585e+00
  3.449156e+00    3.416841e+00
  3.480907e+00    3.538998e+00
  3.512658e+00    3.379046e+00
  3.544409e+00    3.461994e+00
  3.576160e+00    3.461365e+00
  3.607912e+00    3.534449e+00
  3.639663e+00    3.515431e+00
  3.671414e+00    3.394569e+00
  3.703165e+00    3.485862e+00
  3.734916e+00    3.435421e+00
  3.766667e+00    3.512608e+00
  3.798418e+00    3.491139e+00
  3.830170e+00    3.494324e+00
  3.861921e+00    3.497899e+00
  3.893672e+00    3.504256e+00
  3.925423e+00    3.491831e+00
  3.957174e+00    3.495559e+00
  3.988925e+00    3.486107e+00
  4.020676e+00    3.550824e+00
  4.052428e+00    3.540488e+00
  4.084179e+00    3.470370e+00
  4.115930e+00    3.523706e+00
  4.147681e+00    3.492648e+00
  4.179432e+00    3.488046e+00
  4.211183e+00    3.433599e+00
  4.242935e+00    3.626636e+00
  4.274686e+00    3.618561e+00
  4.306437e+00    3.604604e+00
  4.338188e+00    3.455442e+00
  4.369939e+00    3.599734e+00
  4.401690e+00    3.563588e+00
  4.433441e+00    3.539930e+00
  4.465193e+00    3.612330e+00
  4.496944e+00    3.615923e+00
  4.528695e+00    3.610096e+00
  4.560446e+00    3.536120e+00
  4.592197e+00    3.641121e+00
  4.623948e+00    3.615528e+00
  4.655699e+00    3.656137e+00
  4.687451e+00    3.663751e+00
  4.719202e+00    3.667564e+00
  4.750953e+00    3.622908e+00
  4.782704e+00    3.565660e+00
  4.814455e+00    3.614255e+00
  4.846206e+00    3.679950e+00
  4.877957e+00    3.565806e+00
  4.909709e+00    3.599864e+00
  4.941460e+00    3.575321e+00
  4.973211e+00    3.680030e+00
  5.004962e+00    3.786658e+00
  5.036713e+00    3.662693e+00
  5.068464e+00    3.715829e+00
  5.100216e+00    3.660307e+00
  5.131967e+00    3.687761e+00
  5.163718e+00    3.616242e+00
  5.195469e+00    3.643312e+00
  5.227220e+00    3.687636e+00
  5.258971e+00    3.679291e+00
  5.290722e+00    3.676219e+00
  5.322474e+00    3.627625e+00
  5.354225e+00    3.737038e+00
  5.385976e+00    3.623106e+00
  5.417727e+00    3.610437e+00
  5.449478e+00    3.602607e+00
  5.481229e+00    3.651486e+00
  5.512980e+00    3.637631e+00
  5.544732e+00    3.670469e+00
  5.576483e+00    3.652058e+00
  5.608234e+00    3.675062e+00
  5.639985e+00    3.706516e+00
  5.671736e+00    3.614079e+00
  5.703487e+00    3.561307e+00
  5.735238e+00    3.561725e+00
  5.766990e+00    3.553545e+00
  5.798741e+00    3.503782e+00
  5.830492e+00    3.490820e+00
  5.862243e+00    3.577306e+00
  5.893994e+00    3.487026e+00
  5.925745e+00    3.574133e+00
  5.957497e+00    3.639130e+00
  5.989248e+00    3.520686e+00
  6.020999e+00    3.577931e+00
  6.052750e+00    3.461960e+00
  6.084501e+00    3.514721e+00
  6.116252e+00    3.591312e+00
  6.148003e+00    3.630824e+00
  6.179755e+00    3.606752e+00
  6.211506e+00    3.613194e+00
  6.243257e+00    3.504622e+00
  6.275008e+00    3.520373e+00
  6.306759e+00    3.536570e+00
  6.338510e+00    3.532389e+00
  6.370261e+00    3.527881e+00
  6.402013e+00    3.549738e+00
  6.433764e+00    3.525199e+00
  6.465515e+00    3.533896e+00
  6.497266e+00    3.536357e+00
  6.529017e+00    3.549236e+00
  6.560768e+00    3.495836e+00
  6.592519e+00    3.507092e+00
  6.624271e+00    3.569401e+00
  6.656022e+00    3.554422e+00
  6.687773e+00    3.477315e+00
  6.719524e+00    3.571353e+00
  6.751275e+00    3.585408e+00
  6.783026e+00    3.530638e+00
  6.814777e+00    3.496875e+00
  6.846529e+00    3.573992e+00
  6.878280e+00    3.564517e+00
  6.910031e+00    3.554329e+00
  6.941782e+00    3.571961e+00
  6.973533e+00    3.493885e+00
  7.005284e+00    3.533610e+00
  7.037036e+00    3.564254e+00
  7.068787e+00    3.411001e+00
  7.100538e+00    3.530457e+00
  7.132289e+00    3.547177e+00
  7.164040e+00    3.484640e+00
  7.195791e+00    3.487393e+00
  7.227542e+00    3.431697e+00
  7.259294e+00    3.553852e+00
  7.291045e+00    3.413106e+00
  7.322796e+00    3.539892e+00
  7.354547e+00    3.469597e+00
  7.386298e+00    3.496072e+00
  7.418049e+00    3.465586e+00
  7.449800e+00    3.504452e+00
  7.481552e+00    3.471166e+00
  7.513303e+00    3.484388e+00
  7.545054e+00    3.489757e+00
  7.576805e+00    3.496322e+00
  7.608556e+00    3.466694e+00
  7.640307e+00    3.351600e+00
  7.672058e+00    3.482483e+00
  7.703810e+00    3.488180e+00
  7.735561e+00    3.436853e+00
  7.767312e+00    3.456421e+00
  7.799063e+00    3.469916e+00
  7.830814e+00    3.469633e+00
  7.862565e+00    3.438603e+00
  7.894317e+00    3.474381e+00
  7.926068e+00    3.429732e+00
  7.957819e+00    3.420961e+00
  7.989570e+00    3.452402e+00
  8.021321e+00    3.441022e+00
  8.053072e+00    3.452055e+00
  8.084823e+00    3.439225e+00
  8.116575e+00    3.502811e+00
  8.148326e+00    3.527822e+00
  8.180077e+00    3.463274e+00
  8.211828e+00    3.531455e+00
  8.243579e+00    3.466454e+00
  8.275330e+00    3.396855e+00
  8.307081e+00    3.356988e+00
  8.338833e+00    3.364830e+00
  8.370584e+00    3.385982e+00
  8.402335e+00    3.374657e+00
  8.434086e+00    3.457639e+00
  8.465837e+00    3.423417e+00
  8.497588e+00    3.317165e+00
  8.529339e+00    3.353812e+00
  8.561091e+00    3.399252e+00
  8.592842e+00    3.326430e+00
  8.624593e+00    3.401589e+00
  8.656344e+00    3.371574e+00
  8.688095e+00    3.327241e+00
  8.719846e+00    3.374184e+00
  8.751598e+00    3.317911e+00
  8.783349e+00    3.329811e+00
  8.815100e+00    3.388281e+00
  8.846851e+00    3.297055e+00
  8.878602e+00    3.362193e+00
  8.910353e+00    3.303762e+00
  8.942104e+00    3.287007e+00
  8.973856e+00    3.384887e+00
  9.005607e+00    3.355773e+00
  9.037358e+00    3.325056e+00
  9.069109e+00    3.313520e+00
  9.100860e+00    3.251558e+00
  9.132611e+00    3.271722e+00
  9.164362e+00    3.263973e+00
  9.196114e+00    3.232487e+00
  9.227865e+00    3.222635e+00
  9.259616e+00    3.187370e+00
  9.291367e+00    3.277652e+00
  9.323118e+00    3.167320e+00
  9.354869e+00    3.241739e+00
  9.386620e+00    3.250922e+00
  9.418372e+00    3.286288e+00
  9.450123e+00    3.215518e+00
  9.481874e+00    3.156713e+00
  9.513625e+00    3.217097e+00
  9.545376e+00    3.206888e+00
  9.577127e+00    3.211689e+00
  9.608878e+00    3.204955e+00
  9.640630e+00    3.204482e+00
  9.672381e+00    3.189230e+00
  9.704132e+00    3.189670e+00
  9.735883e+00    3.184617e+00
  9.767634e+00    3.106189e+00
  9.799385e+00    3.162462e+00
  9.831137e+00    3.132786e+00
  9.862888e+00    3.099134e+00
  9.894639e+00    3.117497e+00
  9.926390e+00    3.055769e+00
  9.958141e+00    3.168075e+00
  9.989892e+00    3.146095e+00
  1.002164e+01    3.063407e+00
  1.005339e+01    3.131207e+00
  1.008515e+01    3.106585e+00
  1.011690e+01    3.060512e+00
  1.014865e+01    3.085196e+00
  1.018040e+01    3.077874e+00
  1.021215e+01    3.117320e+00
  1.024390e+01    3.027808e+00
  1.027565e+01    3.101172e+00
  1.030740e+01    3.020671e+00
  1.033915e+01    3.118793e+00
  1.037091e+01    3.064580e+00
  1.040266e+01    3.047154e+00
  1.043441e+01    3.055583e+00
  1.046616e+01    2.981089e+00
  1.049791e+01    3.009582e+00
  1.052966e+01    2.976985e+00
  1.056141e+01    3.019051e+00
  1.059316e+01    2.966095e+00
  1.062492e+01    2.929182e+00
  1.065667e+01    3.038138e+00
  1.068842e+01    3.014999e+00
  1.072017e+01    2.978430e+00
  1.075192e+01    2.981709e+00
  1.078367e+01    2.938286e+00
  1.081542e+01    3.020700e+00
  1.084717e+01    2.885638e+00
  1.087892e+01    2.969684e+00
  1.091068e+01    2.922742e+00
  1.094243e+01    2.872423e+00
  1.097418e+01    2.956336e+00
  1.100593e+01    2.887842e+00
  1.103768e+01    2.892097e+00
  1.106943e+01    2.914786e+00
  1.110118e+01    2.962744e+00
  1.113293e+01    2.888920e+00
  1.116468e+01    2.865870e+00
  1.119644e+01    2.901664e+00
  1.122819e+01    2.834476e+00
  1.125994e+01    2.884673e+00
  1.129169e+01    2.847980e+00
  1.132344e+01    2.880233e+00
  1.135519e+01    2.816181e+00
  1.138694e+01    2.850798e+00
  1.141869e+01    2.823595e+00
  1.145045e+01    2.837079e+00
  1.148220e+01    2.799254e+00
  1.151395e+01    2.806597e+00
  1.154570e+01    2.769588e+00
  1.157745e+01    2.820340e+00
  1.160920e+01    2.790036e+00
  1.164095e+01    2.777457e+00
  1.167270e+01    2.764340e+00
  1.170445e+01    2.773396e+00
  1.173621e+01    2.778062e+00
  1.176796e+01    2.747769e+00
  1.179971e+01    2.788093e+00
  1.183146e+01    2.788855e+00
  1.186321e+01    2.745256e+00
  1.189496e+01    2.768683e+00
  1.192671e+01    2.688504e+00
  1.195846e+01    2.722027e+00
  1.199021e+01    2.742458e+00
  1.202197e+01    2.671755e+00
  1.205372e+01    2.695517e+00
  1.208547e+01    2.745421e+00
  1.211722e+01    2.723425e+00
  1.214897e+01    2.684494e+00
  1.218072e+01    2.717188e+00
  1.221247e+01    2.696321e+00
  1.224422e+01    2.660778e+00
  1.227597e+01    2.671623e+00
  1.230773e+01    2.700081e+00
  1.233948e+01    2.694032e+00
  1.237123e+01    2.651314e+00
  1.240298e+01    2.701581e+00
  1.243473e+01    2.690824e+00
  1.246648e+01    2.712993e+00
  1.249823e+01    2.698323e+00
  1.252998e+01    2.724707e+00
  1.256174e+01    2.754924e+00
  1.259349e+01    2.723438e+00
  1.262524e+01    2.749983e+00
  1.265699e+01    2.816224e+00
  1.268874e+01    2.765646e+00
  1.272049e+01    2.804964e+00
  1.275224e+01    2.876707e+00
  1.278399e+01    2.970222e+00
  1.281574e+01    2.971218e+00
  1.284750e+01    3.133310e+00
  1.287925e+01    3.387531e+00
  1.291100e+01    3.638457e+00
  1.294275e+01    4.058131e+00
  1.297450e+01    4.767769e+00
  1.300625e+01    5.880826e+00
  1.303800e+01    7.647170e+00
  1.306975e+01    1.024784e+01
  1.310150e+01    1.275408e+01
  1.313326e+01    1.485330e+01
  1.316501e+01    1.620018e+01
  1.319676e+01    1.568354e+01
  1.322851e+01    1.245382e+01
  1.326026e+01    9.126497e+00
  1.329201e+01    6.699620e+00
  1.332376e+01    5.312832e+00
  1.335551e+01    4.466203e+00
  1.338727e+01    3.883798e+00
  1.341902e+01    3.501986e+00
  1.345077e+01    3.236605e+00
  1.348252e+01    3.033244e+00
  1.351427e+01    2.894079e+00
  1.354602e+01    2.843681e+00
  1.357777e+01    2.797029e+00
  1.360952e+01    2.736091e+00
  1.364127e+01    2.601039e+00
  1.367303e+01    2.590229e+00
  1.370478e+01    2.564134e+00
  1.373653e+01    2.520786e+00
  1.376828e+01    2.463825e+00
  1.380003e+01    2.511106e+00
  1.383178e+01    2.426817e+00
  1.386353e+01    2.478773e+00
  1.389528e+01    2.430902e+00
  1.392703e+01    2.376518e+00
  1.395879e+01    2.376884e+00
  1.399054e+01    2.331898e+00
  1.402229e+01    2.331511e+00
  1.405404e+01    2.371392e+00
  1.408579e+01    2.326006e+00
  1.411754e+01    2.348809e+00
  1.414929e+01    2.339093e+00
  1.418104e+01    2.328934e+00
  1.421279e+01    2.268057e+00
  1.424455e+01    2.311530e+00
  1.427630e+01    2.241141e+00
  1.430805e+01    2.293376e+00
  1.433980e+01    2.270009e+00
  1.437155e+01    2.231263e+00
  1.440330e+01    2.227201e+00
  1.443505e+01    2.226803e+00
  1.446680e+01    2.246646e+00
  1.449856e+01    2.221505e+00
  1.453031e+01    2.264704e+00
  1.456206e+01    2.230595e+00
  1.459381e+01    2.234431e+00
  1.462556e+01    2.232797e+00
  1.465731e+01    2.228537e+00
  1.468906e+01    2.195118e+00
  1.472081e+01    2.237728e+00
  1.475256e+01    2.201266e+00
  1.478432e+01    2.208624e+00
  1.481607e+01    2.242734e+00
  1.484782e+01    2.207236e+00
  1.487957e+01    2.225908e+00
  1.491132e+01    2.242586e+00
  1.494307e+01    2.324873e+00
  1.497482e+01    2.319502e+00
  1.500657e+01    2.424940e+00
  1.503832e+01    2.620675e+00
  1.507008e+01    2.856484e+00
  1.510183e+01    3.148062e+00
  1.513358e+01    3.810327e+00
  1.516533e+01    4.471436e+00
  1.519708e+01    5.147571e+00
  1.522883e+01    5.590368e+00
  1.526058e+01    5.757065e+00
  1.529233e+01    5.478130e+00
  1.532409e+01    4.619448e+00
  1.535584e+01    3.759890e+00
  1.538759e+01    3.201626e+00
  1.541934e+01    2.728211e+00
  1.545109e+01    2.511389e+00
  1.548284e+01    2.372540e+00
  1.551459e+01    2.296792e+00
  1.554634e+01    2.169180e+00
  1.557809e+01    2.145622e+00
  1.560985e+01    2.045437e+00
  1.564160e+01    2.050622e+00
  1.567335e+01    2.017227e+00
  1.570510e+01    2.006573e+00
  1.573685e+01    1.950915e+00
  1.576860e+01    1.931342e+00
  1.580035e+01    1.934575e+00
  1.583210e+01    1.909265e+00
  1.586385e+01    1.913977e+00
  1.589561e+01    1.883143e+00
  1.592736e+01    1.897841e+00
  1.595911e+01    1.898152e+00
  1.599086e+01    1.878561e+00
  1.602261e+01    1.871039e+00
  1.605436e+01    1.876301e+00
  1.608611e+01    1.891505e+00
  1.611786e+01    1.804918e+00
  1.614961e+01    1.840221e+00
  1.618137e+01    1.815368e+00
  1.621312e+01    1.836541e+00
  1.624487e+01    1.834714e+00
  1.627662e+01    1.789916e+00
  1.630837e+01    1.781080e+00
  1.634012e+01    1.811844e+00
  1.637187e+01    1.795534e+00
  1.640362e+01    1.791269e+00
  1.643538e+01    1.796965e+00
  1.646713e+01    1.764297e+00
  1.649888e+01    1.751783e+00
  1.653063e+01    1.758184e+00
  1.656238e+01    1.720831e+00
  1.659413e+01    1.722177e+00
  1.662588e+01    1.761864e+00
  1.665763e+01    1.740255e+00
  1.668938e+01    1.710627e+00
  1.672114e+01    1.729406e+00
  1.675289e+01    1.713638e+00
  1.678464e+01    1.702965e+00
  1.681639e+01    1.754046e+00
  1.684814e+01    1.696723e+00
  1.687989e+01    1.684826e+00
  1.691164e+01    1.685049e+00
  1.694339e+01    1.696148e+00
  1.697514e+01    1.672761e+00
  1.700690e+01    1.661834e+00
  1.703865e+01    1.674138e+00
  1.707040e+01    1.684877e+00
  1.710215e+01    1.653653e+00
  1.713390e+01    1.671653e+00
  1.716565e+01    1.629468e+00
  1.719740e+01    1.639016e+00
  1.722915e+01    1.652794e+00
  1.726091e+01    1.617702e+00
  1.729266e+01    1.629696e+00
  1.732441e+01    1.642151e+00
  1.735616e+01    1.610092e+00
  1.738791e+01    1.600038e+00
  1.741966e+01    1.614529e+00
  1.745141e+01    1.607389e+00
  1.748316e+01    1.589991e+00
  1.751491e+01    1.602139e+00
  1.754667e+01    1.560055e+00
  1.757842e+01    1.594817e+00
  1.761017e+01    1.572159e+00
  1.764192e+01    1.535103e+00
  1.767367e+01    1.552978e+00
  1.770542e+01    1.549255e+00
  1.773717e+01    1.557539e+00
  1.776892e+01    1.554726e+00
  1.780067e+01    1.558371e+00
  1.783243e+01    1.539324e+00
  1.786418e+01    1.525380e+00
  1.789593e+01    1.555468e+00
  1.792768e+01    1.531667e+00
  1.795943e+01    1.512877e+00
  1.799118e+01    1.502941e+00
  1.802293e+01    1.485270e+00
  1.805468e+01    1.490170e+00
  1.808643e+01    1.511043e+00
  1.811819e+01    1.483673e+00
  1.814994e+01    1.469194e+00
  1.818169e+01    1.501145e+00
  1.821344e+01    1.476817e+00
  1.824519e+01    1.466471e+00
  1.827694e+01    1.463481e+00
  1.830869e+01    1.467122e+00
  1.834044e+01    1.464100e+00
  1.837220e+01    1.450123e+00
  1.840395e+01    1.422576e+00
  1.843570e+01    1.459117e+00
  1.846745e+01    1.478297e+00
  1.849920e+01    1.473439e+00
  1.853095e+01    1.450607e+00
  1.856270e+01    1.421820e+00
  1.859445e+01    1.455376e+00
  1.862620e+01    1.438639e+00
  1.865796e+01    1.391520e+00
  1.868971e+01    1.452175e+00
  1.872146e+01    1.436404e+00
  1.875321e+01    1.412782e+00
  1.878496e+01    1.408589e+00
  1.881671e+01    1.403342e+00
  1.884846e+01    1.379943e+00
  1.888021e+01    1.385185e+00
  1.891196e+01    1.392600e+00
  1.894372e+01    1.392461e+00
  1.897547e+01    1.393431e+00
  1.900722e+01    1.399535e+00
  1.903897e+01    1.389926e+00
  1.907072e+01    1.401247e+00
  1.910247e+01    1.356302e+00
  1.913422e+01    1.349422e+00
  1.916597e+01    1.382296e+00
  1.919773e+01    1.343034e+00
  1.922948e+01    1.349820e+00
  1.926123e+01    1.384376e+00
  1.929298e+01    1.345800e+00
  1.932473e+01    1.368914e+00
  1.935648e+01    1.341972e+00
  1.938823e+01    1.344595e+00
  1.941998e+01    1.343326e+00
  1.945173e+01    1.356244e+00
  1.948349e+01    1.332650e+00
  1.951524e+01    1.365843e+00
  1.954699e+01    1.319227e+00
  1.957874e+01    1.325754e+00
  1.961049e+01    1.341699e+00
  1.964224e+01    1.316612e+00
  1.967399e+01    1.315999e+00
  1.970574e+01    1.292922e+00
  1.973749e+01    1.326704e+00
  1.976925e+01    1.289972e+00
  1.980100e+01    1.297914e+00
  1.983275e+01    1.293591e+00
  1.986450e+01    1.317713e+00
  1.989625e+01    1.307133e+00
  1.992800e+01    1.277581e+00
  1.995975e+01    1.304103e+00
  1.999150e+01    1.297528e+00
  2.002325e+01    1.275480e+00
  2.005501e+01    1.253365e+00
  2.008676e+01    1.279333e+00
  2.011851e+01    1.263288e+00
  2.015026e+01    1.265182e+00
  2.018201e+01    1.263023e+00
  2.021376e+01    1.275437e+00
  2.024551e+01    1.284802e+00
  2.027726e+01    1.266111e+00
  2.030902e+01    1.248767e+00
  2.034077e+01    1.254698e+00
  2.037252e+01    1.247319e+00
  2.040427e+01    1.236869e+00
  2.043602e+01    1.235492e+00
  2.046777e+01    1.259026e+00
  2.049952e+01    1.245151e+00
  2.053127e+01    1.242931e+00
  2.056302e+01    1.241175e+00
  2.059478e+01    1.232259e+00
  2.062653e+01    1.220399e+00
  2.065828e+01    1.219348e+00
  2.069003e+01    1.225896e+00
  2.072178e+01    1.227811e+00
  2.075353e+01    1.233902e+00
  2.078528e+01    1.205022e+00
  2.081703e+01    1.237001e+00
  2.084878e+01    1.220325e+00
  2.088054e+01    1.235878e+00
  2.091229e+01    1.200387e+00
  2.094404e+01    1.205932e+00
  2.097579e+01    1.207132e+00
  2.100754e+01    1.206914e+00
  2.103929e+01    1.216301e+00
  2.107104e+01    1.252336e+00
  2.110279e+01    1.242575e+00
  2.113455e+01    1.223269e+00
  2.116630e+01    1.245221e+00
  2.119805e+01    1.238523e+00
  2.122980e+01    1.241319e+00
  2.126155e+01    1.213318e+00
  2.129330e+01    1.263113e+00
  2.132505e+01    1.299552e+00
  2.135680e+01    1.290527e+00
  2.138855e+01    1.306947e+00
  2.142031e+01    1.318385e+00
  2.145206e+01    1.344627e+00
  2.148381e+01    1.383201e+00
  2.151556e+01    1.463069e+00
  2.154731e+01    1.543379e+00
  2.157906e+01    1.620808e+00
  2.161081e+01    1.768927e+00
  2.164256e+01    1.930644e+00
  2.167431e+01    2.285136e+00
  2.170607e+01    2.811280e+00
  2.173782e+01    3.475247e+00
  2.176957e+01    4.543375e+00
  2.180132e+01    5.855944e+00
  2.183307e+01    7.099559e+00
  2.186482e+01    8.356590e+00
  2.189657e+01    8.825919e+00
  2.192832e+01    8.281549e+00
  2.196007e+01    6.573730e+00
  2.199183e+01    4.840551e+00
  2.202358e+01    3.620168e+00
  2.205533e+01    2.884493e+00
  2.208708e+01    2.343058e+00
  2.211883e+01    2.028808e+00
  2.215058e+01    1.777454e+00
  2.218233e+01    1.626875e+00
  2.221408e+01    1.505263e+00
  2.224584e+01    1.404846e+00
  2.227759e+01    1.346391e+00
  2.230934e+01    1.291673e+00
  2.234109e+01    1.279603e+00
  2.237284e+01    1.218813e+00
  2.240459e+01    1.187483e+00
  2.243634e+01    1.159108e+00
  2.246809e+01    1.177273e+00
  2.249984e+01    1.141893e+00
  2.253160e+01    1.117459e+00
  2.256335e+01    1.112436e+00
  2.259510e+01    1.116851e+00
  2.262685e+01    1.091051e+00
  2.265860e+01    1.117795e+00
  2.269035e+01    1.097456e+00
  2.272210e+01    1.058051e+00
  2.275385e+01    1.054637e+00
  2.278560e+01    1.045789e+00
  2.281736e+01    1.052366e+00
  2.284911e+01    1.023689e+00
  2.288086e+01    1.057376e+00
  2.291261e+01    1.052058e+00
  2.294436e+01    1.031340e+00
  2.297611e+01    1.009794e+00
  2.300786e+01    1.022072e+00
  2.303961e+01    1.024521e+00
  2.307137e+01    1.003206e+00
  2.310312e+01    1.016441e+00
  2.313487e+01    9.797771e-01
  2.316662e+01    9.944952e-01
  2.319837e+01    1.004700e+00
  2.323012e+01    9.650055e-01
  2.326187e+01    9.935543e-01
  2.329362e+01    9.819863e-01
  2.332537e+01    9.768919e-01
  2.335713e+01    1.001758e+00
  2.338888e+01    9.735129e-01
  2.342063e+01    9.690300e-01
  2.345238e+01    9.692014e-01
  2.348413e+01    9.679984e-01
  2.351588e+01    9.653054e-01
  2.354763e+01    9.484307e-01
  2.357938e+01    9.607524e-01
  2.361113e+01    9.483752e-01
  2.364289e+01    9.487052e-01
  2.367464e+01    9.711608e-01
  2.370639e+01    9.334799e-01
  2.373814e+01    9.228997e-01
  2.376989e+01    9.376771e-01
  2.380164e+01    9.253048e-01
  2.383339e+01    9.082382e-01
  2.386514e+01    9.162548e-01
  2.389689e+01    9.101882e-01
  2.392865e+01    8.938609e-01
  2.396040e+01    9.141549e-01
  2.399215e+01    8.813561e-01
  2.402390e+01    9.105028e-01
  2.405565e+01    8.941063e-01
  2.408740e+01    8.670602e-01
  2.411915e+01    8.653678e-01
  2.415090e+01    8.963184e-01
  2.418266e+01    8.932373e-01
  2.421441e+01    8.654685e-01
  2.424616e+01    8.778727e-01
  2.427791e+01    8.913920e-01
  2.430966e+01    8.918407e-01
  2.434141e+01    8.782904e-01
  2.437316e+01    8.962247e-01
  2.440491e+01    8.947726e-01
  2.443666e+01    8.903398e-01
  2.446842e+01    8.839726e-01
  2.450017e+01    9.006907e-01
  2.453192e+01    9.001458e-01
  2.456367e+01    8.932885e-01
  2.459542e+01    8.948112e-01
  2.462717e+01    8.852554e-01
  2.465892e+01    8.945369e-01
  2.469067e+01    8.876768e-01
  2.472242e+01    8.933135e-01
  2.475418e+01    8.925859e-01
  2.478593e+01    8.748619e-01
  2.481768e+01    8.775084e-01
  2.484943e+01    8.649575e-01
  2.488118e+01    8.836951e-01
  2.491293e+01    8.953460e-01
  2.494468e+01    8.968772e-01
  2.497643e+01    8.926037e-01
  2.500819e+01    8.812029e-01
  2.503994e+01    8.986345e-01
  2.507169e+01    9.024165e-01
  2.510344e+01    9.184697e-01
  2.513519e+01    9.278146e-01
  2.516694e+01    9.167643e-01
  2.519869e+01    9.331777e-01
  2.523044e+01    9.304335e-01
  2.526219e+01    9.533668e-01
  2.529395e+01    9.288581e-01
  2.532570e+01    9.593428e-01
  2.535745e+01    9.765705e-01
  2.538920e+01    9.768910e-01
  2.542095e+01    1.019281e+00
  2.545270e+01    1.022078e+00
  2.548445e+01    1.035520e+00
  2.551620e+01    1.095461e+00
  2.554795e+01    1.080881e+00
  2.557971e+01    1.154651e+00
  2.561146e+01    1.216890e+00
  2.564321e+01    1.299856e+00
  2.567496e+01    1.430555e+00
  2.570671e+01    1.592656e+00
  2.573846e+01    1.844228e+00
  2.577021e+01    2.206458e+00
  2.580196e+01    2.796640e+00
  2.583371e+01    3.636335e+00
  2.586547e+01    4.691938e+00
  2.589722e+01    5.784739e+00
  2.592897e+01    6.784471e+00
  2.596072e+01    7.075292e+00
  2.599247e+01    6.552817e+00
  2.602422e+01    5.313867e+00
  2.605597e+01    3.963018e+00
  2.608772e+01    2.989441e+00
  2.611948e+01    2.368846e+00
  2.615123e+01    1.944032e+00
  2.618298e+01    1.673429e+00
  2.621473e+01    1.476894e+00
  2.624648e+01    1.334940e+00
  2.627823e+01    1.236515e+00
  2.630998e+01    1.193914e+00
  2.634173e+01    1.122969e+00
  2.637348e+01    1.078976e+00
  2.640524e+01    1.042316e+00
  2.643699e+01    1.040291e+00
  2.646874e+01    1.013087e+00
  2.650049e+01    1.010859e+00
  2.653224e+01    9.990429e-01
  2.656399e+01    9.871768e-01
  2.659574e+01    9.908059e-01
  2.662749e+01    9.787475e-01
  2.665924e+01    9.692520e-01
  2.669100e+01    9.647822e-01
  2.672275e+01    9.479610e-01
  2.675450e+01    9.676108e-01
  2.678625e+01    9.767612e-01
  2.681800e+01    9.941446e-01
  2.684975e+01    9.943241e-01
  2.688150e+01    9.965413e-01
  2.691325e+01    1.014052e+00
  2.694501e+01    1.055630e+00
  2.697676e+01    1.067633e+00
  2.700851e+01    1.112668e+00
  2.704026e+01    1.172835e+00
  2.707201e+01    1.316196e+00
  2.710376e+01    1.505637e+00
  2.713551e+01    1.735549e+00
  2.716726e+01    1.963492e+00
  2.719901e+01    2.131772e+00
  2.723077e+01    2.186734e+00
  2.726252e+01    1.998285e+00
  2.729427e+01    1.724753e+00
  2.732602e+01    1.446236e+00
  2.735777e+01    1.296675e+00
  2.738952e+01    1.156330e+00
  2.742127e+01    1.096070e+00
  2.745302e+01    1.058762e+00
  2.748477e+01    9.967957e-01
  2.751653e+01    9.779782e-01
  2.754828e+01    9.352992e-01
  2.758003e+01    9.428017e-01
  2.761178e+01    9.333727e-01
  2.764353e+01    9.131898e-01
  2.767528e+01    9.054593e-01
  2.770703e+01    9.149926e-01
  2.773878e+01    8.920892e-01
  2.777054e+01    9.023328e-01
  2.780229e+01    8.844237e-01
  2.783404e+01    8.824795e-01
  2.786579e+01    8.679538e-01
  2.789754e+01    8.589016e-01
  2.792929e+01    8.686164e-01
  2.796104e+01    8.701461e-01
  2.799279e+01    8.706021e-01
  2.802454e+01    8.561252e-01
  2.805630e+01    8.797713e-01
  2.808805e+01    8.731033e-01
  2.811980e+01    8.701189e-01
  2.815155e+01    8.671195e-01
  2.818330e+01    8.842051e-01
  2.821505e+01    8.594804e-01
  2.824680e+01    8.785833e-01
  2.827855e+01    8.484735e-01
  2.831030e+01    8.416598e-01
  2.834206e+01    8.648460e-01
  2.837381e+01    8.735655e-01
  2.840556e+01    8.468314e-01
  2.843731e+01    8.577504e-01
  2.846906e+01    8.535352e-01
  2.850081e+01    8.368036e-01
  2.853256e+01    8.436170e-01
  2.856431e+01    8.497609e-01
  2.859606e+01    8.463718e-01
  2.862782e+01    8.279857e-01
  2.865957e+01    8.421445e-01
  2.869132e+01    8.317183e-01
  2.872307e+01    7.994688e-01
  2.875482e+01    8.180967e-01
  2.878657e+01    8.285152e-01
  2.881832e+01    8.230399e-01
  2.885007e+01    8.298805e-01
  2.888183e+01    8.136277e-01
  2.891358e+01    8.256890e-01
  2.894533e+01    8.155174e-01
  2.897708e+01    8.278590e-01
  2.900883e+01    8.146246e-01
  2.904058e+01    8.226921e-01
  2.907233e+01    8.011050e-01
  2.910408e+01    8.317055e-01
  2.913583e+01    8.083349e-01
  2.916759e+01    8.161708e-01
  2.919934e+01    8.178725e-01
  2.923109e+01    8.187721e-01
  2.926284e+01    8.192189e-01
  2.929459e+01    8.244522e-01
  2.932634e+01    7.988032e-01
  2.935809e+01    8.059844e-01
  2.938984e+01    8.048863e-01
  2.942159e+01    7.956815e-01
  2.945335e+01    7.938119e-01
  2.948510e+01    8.050304e-01
  2.951685e+01    7.905367e-01
  2.954860e+01    8.088263e-01
  2.958035e+01    8.006454e-01
  2.961210e+01    8.057752e-01
  2.964385e+01    8.015521e-01
  2.967560e+01    8.108418e-01
  2.970736e+01    7.906289e-01
  2.973911e+01    8.211243e-01
  2.977086e+01    7.973613e-01
  2.980261e+01    7.720602e-01
  2.983436e+01    7.963426e-01
  2.986611e+01    8.057426e-01
  2.989786e+01    8.058729e-01
  2.992961e+01    8.152119e-01
  2.996136e+01    8.212032e-01
  2.999312e+01    8.070717e-01
  3.002487e+01    7.996660e-01
  3.005662e+01    8.165351e-01
  3.008837e+01    8.353462e-01
  3.012012e+01    7.980000e-01
  3.015187e+01    7.728643e-01
  3.018362e+01    8.099934e-01
  3.021537e+01    7.875080e-01
  3.024712e+01    7.816725e-01
  3.027888e+01    7.749908e-01
  3.031063e+01    8.184457e-01
  3.034238e+01    7.878781e-01
  3.037413e+01    7.906422e-01
  3.040588e+01    7.940704e-01
  3.043763e+01    7.875008e-01
  3.046938e+01    7.864897e-01
  3.050113e+01    7.894192e-01
  3.053288e+01    7.891458e-01
  3.056464e+01    7.622361e-01
  3.059639e+01    8.209719e-01
  3.062814e+01    7.807739e-01
  3.065989e+01    7.750037e-01
  3.069164e+01    7.609919e-01
  3.072339e+01    7.788466e-01
  3.075514e+01    7.724728e-01
  3.078689e+01    7.794711e-01
  3.081865e+01    7.801398e-01
  3.085040e+01    7.682334e-01
  3.088215e+01    7.896447e-01
  3.091390e+01    7.789301e-01
  3.094565e+01    7.856317e-01
  3.097740e+01    8.153437e-01
  3.100915e+01    7.664220e-01
  3.104090e+01    7.960740e-01
  3.107265e+01    8.031657e-01
  3.110441e+01    7.920974e-01
  3.113616e+01    7.765111e-01
  3.116791e+01    7.868918e-01
  3.119966e+01    7.844311e-01
  3.123141e+01    8.089721e-01
  3.126316e+01    7.904218e-01
  3.129491e+01    7.851392e-01
  3.132666e+01    8.191080e-01
  3.135841e+01    8.265899e-01
  3.139017e+01    8.054401e-01
  3.142192e+01    8.185402e-01
  3.145367e+01    8.099085e-01
  3.148542e+01    8.158109e-01
  3.151717e+01    8.538991e-01
  3.154892e+01    8.263523e-01
  3.158067e+01    8.693416e-01
  3.161242e+01    8.986585e-01
  3.164418e+01    9.002859e-01
  3.167593e+01    9.543454e-01
  3.170768e+01    1.028526e+00
  3.173943e+01    1.103221e+00
  3.177118e+01    1.253366e+00
  3.180293e+01    1.470329e+00
  3.183468e+01    1.708069e+00
  3.186643e+01    1.943744e+00
  3.189818e+01    2.063790e+00
  3.192994e+01    2.018694e+00
  3.196169e+01    1.811800e+00
  3.199344e+01    1.537319e+00
  3.202519e+01    1.310714e+00
  3.205694e+01    1.175838e+00
  3.208869e+01    1.045084e+00
  3.212044e+01    9.829939e-01
  3.215219e+01    9.433170e-01
  3.218394e+01    8.794467e-01
  3.221570e+01    8.745122e-01
  3.224745e+01    8.304750e-01
  3.227920e+01    8.205001e-01
  3.231095e+01    8.005615e-01
  3.234270e+01    7.910097e-01
  3.237445e+01    7.824962e-01
  3.240620e+01    8.086573e-01
  3.243795e+01    7.987534e-01
  3.246970e+01    7.802005e-01
  3.250146e+01    7.559521e-01
  3.253321e+01    7.539522e-01
  3.254908e+01    7.610638e-01