File: XRD/Reaction conditions/2024-07-27_003_Ru-CGO-ex_Reaction_dwell_000023_data_000036.dat
# == pyFAI calibration ==
# Distance Sample to Detector: 0.4 m
# PONI: 9.750e-02, 1.135e-01 m
# Rotations: -0.000175 0.000000 -0.000000 rad
#
# == Fit2d calibration ==
# Distance Sample-beamCenter: 400.000 mm
# Center: x=1514.000, y=1300.000 pix
# Tilt: 0.010 deg  TiltPlanRot: 0.010 deg
#
# Detector Detector	 Spline= None	 PixelSize= 7.500e-05, 7.500e-05 m
#    Detector has a mask: False
#    Detector has a dark current: False
#    detector has a flat field: False
#
# Wavelength: 6.888e-11 m
# Mask applied: user provided
# Dark current applied: False
# Flat field applied: False
# Polarization factor: 0.99
# Normalization factor: 1.0
# --> /home/myspot/data/2024_07_Rosario/Ru-CGO-ex/2024-07-27_003_Ru-CGO-ex_Reaction_dwell_000023_data_000036.dat
#       q_nm^-1             I
  2.003187e-02    0.000000e+00
  5.178302e-02    9.529690e-02
  8.353417e-02    1.373329e-01
  1.152853e-01    5.601212e-02
  1.470365e-01    1.065547e-01
  1.787876e-01    2.968168e-02
  2.105388e-01    7.134536e-02
  2.422899e-01    2.201815e-02
  2.740411e-01    2.446120e-02
  3.057922e-01    2.379742e-02
  3.375433e-01    4.922249e-02
  3.692945e-01    3.505735e-02
  4.010456e-01    6.173045e-02
  4.327968e-01    2.420691e-02
  4.645479e-01    3.031134e-02
  4.962991e-01    2.973786e-02
  5.280502e-01    4.035365e-02
  5.598014e-01    4.158792e-02
  5.915525e-01    4.124725e-02
  6.233037e-01    5.165049e-02
  6.550548e-01    5.402306e-02
  6.868060e-01    4.336724e-02
  7.185571e-01    3.916945e-02
  7.503083e-01    3.778048e-02
  7.820594e-01    9.668720e-02
  8.138106e-01    2.436858e-01
  8.455617e-01    3.301305e-01
  8.773129e-01    4.741969e-01
  9.090640e-01    6.625822e-01
  9.408152e-01    8.252622e-01
  9.725663e-01    9.409481e-01
  1.004317e+00    1.252231e+00
  1.036069e+00    1.375420e+00
  1.067820e+00    1.511931e+00
  1.099571e+00    1.569058e+00
  1.131322e+00    1.663977e+00
  1.163073e+00    1.641885e+00
  1.194824e+00    1.662200e+00
  1.226575e+00    2.239683e+00
  1.258327e+00    2.334117e+00
  1.290078e+00    2.649758e+00
  1.321829e+00    2.825789e+00
  1.353580e+00    2.864079e+00
  1.385331e+00    2.803625e+00
  1.417082e+00    2.917797e+00
  1.448834e+00    2.946205e+00
  1.480585e+00    3.153719e+00
  1.512336e+00    3.086795e+00
  1.544087e+00    3.115527e+00
  1.575838e+00    3.247846e+00
  1.607589e+00    3.134503e+00
  1.639340e+00    3.304562e+00
  1.671092e+00    3.222282e+00
  1.702843e+00    3.026453e+00
  1.734594e+00    3.135116e+00
  1.766345e+00    3.136293e+00
  1.798096e+00    3.104251e+00
  1.829847e+00    2.939844e+00
  1.861598e+00    3.128925e+00
  1.893350e+00    3.054712e+00
  1.925101e+00    3.107789e+00
  1.956852e+00    3.200845e+00
  1.988603e+00    3.216135e+00
  2.020354e+00    3.086814e+00
  2.052105e+00    3.102057e+00
  2.083856e+00    3.164451e+00
  2.115608e+00    3.047905e+00
  2.147359e+00    3.081458e+00
  2.179110e+00    3.125022e+00
  2.210861e+00    3.095428e+00
  2.242612e+00    3.076100e+00
  2.274363e+00    3.178571e+00
  2.306115e+00    3.249898e+00
  2.337866e+00    3.274004e+00
  2.369617e+00    3.156132e+00
  2.401368e+00    3.037785e+00
  2.433119e+00    3.153775e+00
  2.464870e+00    3.188497e+00
  2.496621e+00    3.113297e+00
  2.528373e+00    3.109314e+00
  2.560124e+00    3.135677e+00
  2.591875e+00    3.177409e+00
  2.623626e+00    3.250060e+00
  2.655377e+00    3.330781e+00
  2.687128e+00    3.357732e+00
  2.718879e+00    3.228146e+00
  2.750631e+00    3.174773e+00
  2.782382e+00    3.164800e+00
  2.814133e+00    3.354455e+00
  2.845884e+00    3.208628e+00
  2.877635e+00    3.440169e+00
  2.909386e+00    3.238076e+00
  2.941137e+00    3.420805e+00
  2.972889e+00    3.378742e+00
  3.004640e+00    3.397693e+00
  3.036391e+00    3.369636e+00
  3.068142e+00    3.336417e+00
  3.099893e+00    3.363786e+00
  3.131644e+00    3.435718e+00
  3.163395e+00    3.291671e+00
  3.195147e+00    3.376296e+00
  3.226898e+00    3.403034e+00
  3.258649e+00    3.465142e+00
  3.290400e+00    3.347120e+00
  3.322151e+00    3.432781e+00
  3.353902e+00    3.434642e+00
  3.385654e+00    3.551206e+00
  3.417405e+00    3.369042e+00
  3.449156e+00    3.484635e+00
  3.480907e+00    3.496190e+00
  3.512658e+00    3.502348e+00
  3.544409e+00    3.538607e+00
  3.576160e+00    3.402195e+00
  3.607912e+00    3.387367e+00
  3.639663e+00    3.449398e+00
  3.671414e+00    3.524918e+00
  3.703165e+00    3.541615e+00
  3.734916e+00    3.450606e+00
  3.766667e+00    3.494022e+00
  3.798418e+00    3.549288e+00
  3.830170e+00    3.539058e+00
  3.861921e+00    3.529660e+00
  3.893672e+00    3.568320e+00
  3.925423e+00    3.650412e+00
  3.957174e+00    3.500350e+00
  3.988925e+00    3.538001e+00
  4.020676e+00    3.544932e+00
  4.052428e+00    3.598309e+00
  4.084179e+00    3.567127e+00
  4.115930e+00    3.577477e+00
  4.147681e+00    3.500161e+00
  4.179432e+00    3.579767e+00
  4.211183e+00    3.623973e+00
  4.242935e+00    3.545894e+00
  4.274686e+00    3.604982e+00
  4.306437e+00    3.514865e+00
  4.338188e+00    3.590139e+00
  4.369939e+00    3.609480e+00
  4.401690e+00    3.559224e+00
  4.433441e+00    3.550687e+00
  4.465193e+00    3.628464e+00
  4.496944e+00    3.554027e+00
  4.528695e+00    3.695832e+00
  4.560446e+00    3.587971e+00
  4.592197e+00    3.640573e+00
  4.623948e+00    3.583248e+00
  4.655699e+00    3.685514e+00
  4.687451e+00    3.664590e+00
  4.719202e+00    3.614321e+00
  4.750953e+00    3.693165e+00
  4.782704e+00    3.704964e+00
  4.814455e+00    3.696071e+00
  4.846206e+00    3.704991e+00
  4.877957e+00    3.685378e+00
  4.909709e+00    3.635991e+00
  4.941460e+00    3.665662e+00
  4.973211e+00    3.714097e+00
  5.004962e+00    3.660408e+00
  5.036713e+00    3.734143e+00
  5.068464e+00    3.676751e+00
  5.100216e+00    3.724895e+00
  5.131967e+00    3.655416e+00
  5.163718e+00    3.612113e+00
  5.195469e+00    3.698658e+00
  5.227220e+00    3.626264e+00
  5.258971e+00    3.707508e+00
  5.290722e+00    3.679577e+00
  5.322474e+00    3.646775e+00
  5.354225e+00    3.638474e+00
  5.385976e+00    3.626557e+00
  5.417727e+00    3.674435e+00
  5.449478e+00    3.720151e+00
  5.481229e+00    3.610567e+00
  5.512980e+00    3.600578e+00
  5.544732e+00    3.542283e+00
  5.576483e+00    3.669412e+00
  5.608234e+00    3.567635e+00
  5.639985e+00    3.655703e+00
  5.671736e+00    3.557115e+00
  5.703487e+00    3.680571e+00
  5.735238e+00    3.691878e+00
  5.766990e+00    3.678970e+00
  5.798741e+00    3.526371e+00
  5.830492e+00    3.607980e+00
  5.862243e+00    3.544014e+00
  5.893994e+00    3.645617e+00
  5.925745e+00    3.572330e+00
  5.957497e+00    3.574793e+00
  5.989248e+00    3.547841e+00
  6.020999e+00    3.572038e+00
  6.052750e+00    3.660057e+00
  6.084501e+00    3.557085e+00
  6.116252e+00    3.653050e+00
  6.148003e+00    3.557986e+00
  6.179755e+00    3.624116e+00
  6.211506e+00    3.601723e+00
  6.243257e+00    3.586815e+00
  6.275008e+00    3.599231e+00
  6.306759e+00    3.577765e+00
  6.338510e+00    3.580751e+00
  6.370261e+00    3.599253e+00
  6.402013e+00    3.608366e+00
  6.433764e+00    3.586399e+00
  6.465515e+00    3.649357e+00
  6.497266e+00    3.578032e+00
  6.529017e+00    3.623003e+00
  6.560768e+00    3.500968e+00
  6.592519e+00    3.614008e+00
  6.624271e+00    3.628670e+00
  6.656022e+00    3.572867e+00
  6.687773e+00    3.617458e+00
  6.719524e+00    3.607637e+00
  6.751275e+00    3.615158e+00
  6.783026e+00    3.595649e+00
  6.814777e+00    3.607757e+00
  6.846529e+00    3.568466e+00
  6.878280e+00    3.547634e+00
  6.910031e+00    3.586076e+00
  6.941782e+00    3.588286e+00
  6.973533e+00    3.610152e+00
  7.005284e+00    3.508354e+00
  7.037036e+00    3.635795e+00
  7.068787e+00    3.589521e+00
  7.100538e+00    3.595966e+00
  7.132289e+00    3.554124e+00
  7.164040e+00    3.607594e+00
  7.195791e+00    3.508232e+00
  7.227542e+00    3.540151e+00
  7.259294e+00    3.495275e+00
  7.291045e+00    3.589868e+00
  7.322796e+00    3.585972e+00
  7.354547e+00    3.535608e+00
  7.386298e+00    3.514492e+00
  7.418049e+00    3.497330e+00
  7.449800e+00    3.541813e+00
  7.481552e+00    3.449895e+00
  7.513303e+00    3.534328e+00
  7.545054e+00    3.448066e+00
  7.576805e+00    3.551247e+00
  7.608556e+00    3.497660e+00
  7.640307e+00    3.559701e+00
  7.672058e+00    3.497388e+00
  7.703810e+00    3.567590e+00
  7.735561e+00    3.482482e+00
  7.767312e+00    3.520484e+00
  7.799063e+00    3.419758e+00
  7.830814e+00    3.457787e+00
  7.862565e+00    3.495871e+00
  7.894317e+00    3.478859e+00
  7.926068e+00    3.502255e+00
  7.957819e+00    3.454064e+00
  7.989570e+00    3.422235e+00
  8.021321e+00    3.424057e+00
  8.053072e+00    3.398548e+00
  8.084823e+00    3.494715e+00
  8.116575e+00    3.495987e+00
  8.148326e+00    3.481132e+00
  8.180077e+00    3.437517e+00
  8.211828e+00    3.474939e+00
  8.243579e+00    3.488351e+00
  8.275330e+00    3.451766e+00
  8.307081e+00    3.407518e+00
  8.338833e+00    3.360786e+00
  8.370584e+00    3.428960e+00
  8.402335e+00    3.368739e+00
  8.434086e+00    3.440741e+00
  8.465837e+00    3.349040e+00
  8.497588e+00    3.348035e+00
  8.529339e+00    3.422930e+00
  8.561091e+00    3.431957e+00
  8.592842e+00    3.363140e+00
  8.624593e+00    3.396367e+00
  8.656344e+00    3.306685e+00
  8.688095e+00    3.360471e+00
  8.719846e+00    3.368692e+00
  8.751598e+00    3.406787e+00
  8.783349e+00    3.382826e+00
  8.815100e+00    3.328885e+00
  8.846851e+00    3.369927e+00
  8.878602e+00    3.342803e+00
  8.910353e+00    3.375956e+00
  8.942104e+00    3.280468e+00
  8.973856e+00    3.321887e+00
  9.005607e+00    3.376444e+00
  9.037358e+00    3.255522e+00
  9.069109e+00    3.283894e+00
  9.100860e+00    3.318269e+00
  9.132611e+00    3.246885e+00
  9.164362e+00    3.373452e+00
  9.196114e+00    3.324330e+00
  9.227865e+00    3.288959e+00
  9.259616e+00    3.210981e+00
  9.291367e+00    3.243501e+00
  9.323118e+00    3.241676e+00
  9.354869e+00    3.238902e+00
  9.386620e+00    3.161687e+00
  9.418372e+00    3.243351e+00
  9.450123e+00    3.232805e+00
  9.481874e+00    3.182543e+00
  9.513625e+00    3.259852e+00
  9.545376e+00    3.315164e+00
  9.577127e+00    3.301341e+00
  9.608878e+00    3.266042e+00
  9.640630e+00    3.252356e+00
  9.672381e+00    3.210623e+00
  9.704132e+00    3.243184e+00
  9.735883e+00    3.182677e+00
  9.767634e+00    3.201701e+00
  9.799385e+00    3.158321e+00
  9.831137e+00    3.156433e+00
  9.862888e+00    3.172927e+00
  9.894639e+00    3.191789e+00
  9.926390e+00    3.075426e+00
  9.958141e+00    3.156658e+00
  9.989892e+00    3.122991e+00
  1.002164e+01    3.164271e+00
  1.005339e+01    3.083728e+00
  1.008515e+01    3.085679e+00
  1.011690e+01    3.128304e+00
  1.014865e+01    3.147078e+00
  1.018040e+01    3.095034e+00
  1.021215e+01    3.071969e+00
  1.024390e+01    3.054827e+00
  1.027565e+01    3.075661e+00
  1.030740e+01    3.078940e+00
  1.033915e+01    3.089538e+00
  1.037091e+01    3.106828e+00
  1.040266e+01    3.073110e+00
  1.043441e+01    3.023414e+00
  1.046616e+01    3.061177e+00
  1.049791e+01    3.020910e+00
  1.052966e+01    2.967164e+00
  1.056141e+01    3.024286e+00
  1.059316e+01    2.985650e+00
  1.062492e+01    3.040295e+00
  1.065667e+01    2.953488e+00
  1.068842e+01    2.993085e+00
  1.072017e+01    3.049174e+00
  1.075192e+01    2.939562e+00
  1.078367e+01    2.957207e+00
  1.081542e+01    2.952929e+00
  1.084717e+01    2.959244e+00
  1.087892e+01    2.991184e+00
  1.091068e+01    2.964239e+00
  1.094243e+01    2.967522e+00
  1.097418e+01    2.914322e+00
  1.100593e+01    2.949111e+00
  1.103768e+01    2.909240e+00
  1.106943e+01    2.898313e+00
  1.110118e+01    2.878802e+00
  1.113293e+01    2.880162e+00
  1.116468e+01    2.898189e+00
  1.119644e+01    2.905718e+00
  1.122819e+01    2.891463e+00
  1.125994e+01    2.843361e+00
  1.129169e+01    2.867277e+00
  1.132344e+01    2.860029e+00
  1.135519e+01    2.874470e+00
  1.138694e+01    2.877845e+00
  1.141869e+01    2.837547e+00
  1.145045e+01    2.850846e+00
  1.148220e+01    2.876752e+00
  1.151395e+01    2.898440e+00
  1.154570e+01    2.782201e+00
  1.157745e+01    2.799435e+00
  1.160920e+01    2.773480e+00
  1.164095e+01    2.822803e+00
  1.167270e+01    2.827203e+00
  1.170445e+01    2.763502e+00
  1.173621e+01    2.844633e+00
  1.176796e+01    2.760039e+00
  1.179971e+01    2.761824e+00
  1.183146e+01    2.726735e+00
  1.186321e+01    2.759479e+00
  1.189496e+01    2.762101e+00
  1.192671e+01    2.728728e+00
  1.195846e+01    2.759845e+00
  1.199021e+01    2.720492e+00
  1.202197e+01    2.774393e+00
  1.205372e+01    2.712510e+00
  1.208547e+01    2.674758e+00
  1.211722e+01    2.717698e+00
  1.214897e+01    2.687529e+00
  1.218072e+01    2.688676e+00
  1.221247e+01    2.681078e+00
  1.224422e+01    2.678514e+00
  1.227597e+01    2.658172e+00
  1.230773e+01    2.684415e+00
  1.233948e+01    2.732992e+00
  1.237123e+01    2.697572e+00
  1.240298e+01    2.709810e+00
  1.243473e+01    2.737023e+00
  1.246648e+01    2.702620e+00
  1.249823e+01    2.710108e+00
  1.252998e+01    2.703632e+00
  1.256174e+01    2.749383e+00
  1.259349e+01    2.770189e+00
  1.262524e+01    2.798438e+00
  1.265699e+01    2.774883e+00
  1.268874e+01    2.783817e+00
  1.272049e+01    2.852101e+00
  1.275224e+01    2.893650e+00
  1.278399e+01    2.969652e+00
  1.281574e+01    3.060754e+00
  1.284750e+01    3.189209e+00
  1.287925e+01    3.391376e+00
  1.291100e+01    3.704883e+00
  1.294275e+01    4.140355e+00
  1.297450e+01    4.858224e+00
  1.300625e+01    5.983150e+00
  1.303800e+01    7.815031e+00
  1.306975e+01    1.040339e+01
  1.310150e+01    1.274525e+01
  1.313326e+01    1.505482e+01
  1.316501e+01    1.642546e+01
  1.319676e+01    1.577403e+01
  1.322851e+01    1.256396e+01
  1.326026e+01    9.161529e+00
  1.329201e+01    6.822677e+00
  1.332376e+01    5.343184e+00
  1.335551e+01    4.527072e+00
  1.338727e+01    3.853119e+00
  1.341902e+01    3.524044e+00
  1.345077e+01    3.219902e+00
  1.348252e+01    3.114073e+00
  1.351427e+01    2.987166e+00
  1.354602e+01    2.862287e+00
  1.357777e+01    2.741497e+00
  1.360952e+01    2.734401e+00
  1.364127e+01    2.641412e+00
  1.367303e+01    2.585824e+00
  1.370478e+01    2.546633e+00
  1.373653e+01    2.534050e+00
  1.376828e+01    2.478211e+00
  1.380003e+01    2.523363e+00
  1.383178e+01    2.475653e+00
  1.386353e+01    2.437261e+00
  1.389528e+01    2.467996e+00
  1.392703e+01    2.431161e+00
  1.395879e+01    2.418845e+00
  1.399054e+01    2.365969e+00
  1.402229e+01    2.413973e+00
  1.405404e+01    2.326285e+00
  1.408579e+01    2.363425e+00
  1.411754e+01    2.356671e+00
  1.414929e+01    2.327435e+00
  1.418104e+01    2.334213e+00
  1.421279e+01    2.287948e+00
  1.424455e+01    2.314008e+00
  1.427630e+01    2.334516e+00
  1.430805e+01    2.275745e+00
  1.433980e+01    2.291291e+00
  1.437155e+01    2.290608e+00
  1.440330e+01    2.302059e+00
  1.443505e+01    2.228805e+00
  1.446680e+01    2.181609e+00
  1.449856e+01    2.241002e+00
  1.453031e+01    2.260365e+00
  1.456206e+01    2.206543e+00
  1.459381e+01    2.217220e+00
  1.462556e+01    2.207968e+00
  1.465731e+01    2.179164e+00
  1.468906e+01    2.203005e+00
  1.472081e+01    2.219844e+00
  1.475256e+01    2.217504e+00
  1.478432e+01    2.225506e+00
  1.481607e+01    2.230792e+00
  1.484782e+01    2.257763e+00
  1.487957e+01    2.242488e+00
  1.491132e+01    2.234257e+00
  1.494307e+01    2.356795e+00
  1.497482e+01    2.382981e+00
  1.500657e+01    2.495987e+00
  1.503832e+01    2.606625e+00
  1.507008e+01    2.850283e+00
  1.510183e+01    3.193352e+00
  1.513358e+01    3.796962e+00
  1.516533e+01    4.625431e+00
  1.519708e+01    5.294203e+00
  1.522883e+01    5.721530e+00
  1.526058e+01    5.786198e+00
  1.529233e+01    5.507416e+00
  1.532409e+01    4.706940e+00
  1.535584e+01    3.791993e+00
  1.538759e+01    3.152800e+00
  1.541934e+01    2.750113e+00
  1.545109e+01    2.529512e+00
  1.548284e+01    2.358382e+00
  1.551459e+01    2.267066e+00
  1.554634e+01    2.212636e+00
  1.557809e+01    2.133528e+00
  1.560985e+01    2.094567e+00
  1.564160e+01    2.066876e+00
  1.567335e+01    2.046104e+00
  1.570510e+01    1.984295e+00
  1.573685e+01    1.974572e+00
  1.576860e+01    1.984300e+00
  1.580035e+01    1.922526e+00
  1.583210e+01    1.987034e+00
  1.586385e+01    1.955709e+00
  1.589561e+01    1.939579e+00
  1.592736e+01    1.912233e+00
  1.595911e+01    1.932388e+00
  1.599086e+01    1.876980e+00
  1.602261e+01    1.856357e+00
  1.605436e+01    1.875617e+00
  1.608611e+01    1.898830e+00
  1.611786e+01    1.919131e+00
  1.614961e+01    1.841591e+00
  1.618137e+01    1.847073e+00
  1.621312e+01    1.796753e+00
  1.624487e+01    1.812439e+00
  1.627662e+01    1.830118e+00
  1.630837e+01    1.812801e+00
  1.634012e+01    1.805250e+00
  1.637187e+01    1.781932e+00
  1.640362e+01    1.790971e+00
  1.643538e+01    1.783480e+00
  1.646713e+01    1.769729e+00
  1.649888e+01    1.790511e+00
  1.653063e+01    1.768361e+00
  1.656238e+01    1.734779e+00
  1.659413e+01    1.758329e+00
  1.662588e+01    1.756542e+00
  1.665763e+01    1.751789e+00
  1.668938e+01    1.732341e+00
  1.672114e+01    1.744261e+00
  1.675289e+01    1.738402e+00
  1.678464e+01    1.735068e+00
  1.681639e+01    1.702947e+00
  1.684814e+01    1.719079e+00
  1.687989e+01    1.681712e+00
  1.691164e+01    1.698006e+00
  1.694339e+01    1.701422e+00
  1.697514e+01    1.673863e+00
  1.700690e+01    1.683651e+00
  1.703865e+01    1.656141e+00
  1.707040e+01    1.650336e+00
  1.710215e+01    1.672199e+00
  1.713390e+01    1.669223e+00
  1.716565e+01    1.648650e+00
  1.719740e+01    1.657830e+00
  1.722915e+01    1.652599e+00
  1.726091e+01    1.646972e+00
  1.729266e+01    1.636624e+00
  1.732441e+01    1.593685e+00
  1.735616e+01    1.625177e+00
  1.738791e+01    1.649828e+00
  1.741966e+01    1.647376e+00
  1.745141e+01    1.585386e+00
  1.748316e+01    1.588411e+00
  1.751491e+01    1.617122e+00
  1.754667e+01    1.556600e+00
  1.757842e+01    1.562850e+00
  1.761017e+01    1.565429e+00
  1.764192e+01    1.577390e+00
  1.767367e+01    1.540203e+00
  1.770542e+01    1.580552e+00
  1.773717e+01    1.559989e+00
  1.776892e+01    1.564851e+00
  1.780067e+01    1.525826e+00
  1.783243e+01    1.550460e+00
  1.786418e+01    1.542620e+00
  1.789593e+01    1.523239e+00
  1.792768e+01    1.536700e+00
  1.795943e+01    1.535800e+00
  1.799118e+01    1.517135e+00
  1.802293e+01    1.537179e+00
  1.805468e+01    1.513840e+00
  1.808643e+01    1.551337e+00
  1.811819e+01    1.519812e+00
  1.814994e+01    1.487706e+00
  1.818169e+01    1.514325e+00
  1.821344e+01    1.479648e+00
  1.824519e+01    1.481014e+00
  1.827694e+01    1.465032e+00
  1.830869e+01    1.502562e+00
  1.834044e+01    1.463497e+00
  1.837220e+01    1.472133e+00
  1.840395e+01    1.489942e+00
  1.843570e+01    1.449252e+00
  1.846745e+01    1.457407e+00
  1.849920e+01    1.443072e+00
  1.853095e+01    1.458831e+00
  1.856270e+01    1.450646e+00
  1.859445e+01    1.458755e+00
  1.862620e+01    1.449155e+00
  1.865796e+01    1.430007e+00
  1.868971e+01    1.448560e+00
  1.872146e+01    1.436816e+00
  1.875321e+01    1.428255e+00
  1.878496e+01    1.427229e+00
  1.881671e+01    1.405474e+00
  1.884846e+01    1.406803e+00
  1.888021e+01    1.398103e+00
  1.891196e+01    1.387766e+00
  1.894372e+01    1.385037e+00
  1.897547e+01    1.434168e+00
  1.900722e+01    1.378492e+00
  1.903897e+01    1.391470e+00
  1.907072e+01    1.392601e+00
  1.910247e+01    1.374553e+00
  1.913422e+01    1.375456e+00
  1.916597e+01    1.364993e+00
  1.919773e+01    1.392960e+00
  1.922948e+01    1.353950e+00
  1.926123e+01    1.387590e+00
  1.929298e+01    1.343111e+00
  1.932473e+01    1.384943e+00
  1.935648e+01    1.368193e+00
  1.938823e+01    1.347568e+00
  1.941998e+01    1.332162e+00
  1.945173e+01    1.331681e+00
  1.948349e+01    1.366223e+00
  1.951524e+01    1.348914e+00
  1.954699e+01    1.347722e+00
  1.957874e+01    1.345210e+00
  1.961049e+01    1.357034e+00
  1.964224e+01    1.333523e+00
  1.967399e+01    1.332942e+00
  1.970574e+01    1.330564e+00
  1.973749e+01    1.314275e+00
  1.976925e+01    1.296203e+00
  1.980100e+01    1.294115e+00
  1.983275e+01    1.287248e+00
  1.986450e+01    1.263862e+00
  1.989625e+01    1.298057e+00
  1.992800e+01    1.273592e+00
  1.995975e+01    1.290797e+00
  1.999150e+01    1.295238e+00
  2.002325e+01    1.288087e+00
  2.005501e+01    1.291782e+00
  2.008676e+01    1.289070e+00
  2.011851e+01    1.325848e+00
  2.015026e+01    1.286474e+00
  2.018201e+01    1.259725e+00
  2.021376e+01    1.245432e+00
  2.024551e+01    1.278473e+00
  2.027726e+01    1.267167e+00
  2.030902e+01    1.264698e+00
  2.034077e+01    1.239204e+00
  2.037252e+01    1.260943e+00
  2.040427e+01    1.269217e+00
  2.043602e+01    1.255675e+00
  2.046777e+01    1.242040e+00
  2.049952e+01    1.263956e+00
  2.053127e+01    1.269478e+00
  2.056302e+01    1.221134e+00
  2.059478e+01    1.257878e+00
  2.062653e+01    1.241423e+00
  2.065828e+01    1.259682e+00
  2.069003e+01    1.237605e+00
  2.072178e+01    1.253752e+00
  2.075353e+01    1.243747e+00
  2.078528e+01    1.241836e+00
  2.081703e+01    1.235038e+00
  2.084878e+01    1.238338e+00
  2.088054e+01    1.234668e+00
  2.091229e+01    1.249801e+00
  2.094404e+01    1.234299e+00
  2.097579e+01    1.238263e+00
  2.100754e+01    1.256823e+00
  2.103929e+01    1.236730e+00
  2.107104e+01    1.263238e+00
  2.110279e+01    1.217600e+00
  2.113455e+01    1.226560e+00
  2.116630e+01    1.231131e+00
  2.119805e+01    1.284253e+00
  2.122980e+01    1.258634e+00
  2.126155e+01    1.271873e+00
  2.129330e+01    1.261424e+00
  2.132505e+01    1.284929e+00
  2.135680e+01    1.313334e+00
  2.138855e+01    1.320273e+00
  2.142031e+01    1.311602e+00
  2.145206e+01    1.381238e+00
  2.148381e+01    1.393224e+00
  2.151556e+01    1.470345e+00
  2.154731e+01    1.549422e+00
  2.157906e+01    1.644474e+00
  2.161081e+01    1.763590e+00
  2.164256e+01    2.034300e+00
  2.167431e+01    2.322966e+00
  2.170607e+01    2.826095e+00
  2.173782e+01    3.591198e+00
  2.176957e+01    4.679630e+00
  2.180132e+01    5.980330e+00
  2.183307e+01    7.349053e+00
  2.186482e+01    8.530853e+00
  2.189657e+01    9.046894e+00
  2.192832e+01    8.348145e+00
  2.196007e+01    6.568861e+00
  2.199183e+01    4.892028e+00
  2.202358e+01    3.624972e+00
  2.205533e+01    2.832126e+00
  2.208708e+01    2.337126e+00
  2.211883e+01    2.019809e+00
  2.215058e+01    1.758070e+00
  2.218233e+01    1.624895e+00
  2.221408e+01    1.508855e+00
  2.224584e+01    1.402857e+00
  2.227759e+01    1.350303e+00
  2.230934e+01    1.303261e+00
  2.234109e+01    1.264935e+00
  2.237284e+01    1.231442e+00
  2.240459e+01    1.226110e+00
  2.243634e+01    1.188860e+00
  2.246809e+01    1.163431e+00
  2.249984e+01    1.137958e+00
  2.253160e+01    1.127900e+00
  2.256335e+01    1.141003e+00
  2.259510e+01    1.137199e+00
  2.262685e+01    1.118824e+00
  2.265860e+01    1.107715e+00
  2.269035e+01    1.091646e+00
  2.272210e+01    1.091375e+00
  2.275385e+01    1.054209e+00
  2.278560e+01    1.056960e+00
  2.281736e+01    1.068805e+00
  2.284911e+01    1.069215e+00
  2.288086e+01    1.039690e+00
  2.291261e+01    1.051135e+00
  2.294436e+01    1.041883e+00
  2.297611e+01    1.036312e+00
  2.300786e+01    1.020666e+00
  2.303961e+01    1.019673e+00
  2.307137e+01    1.030372e+00
  2.310312e+01    1.025520e+00
  2.313487e+01    9.987347e-01
  2.316662e+01    1.022969e+00
  2.319837e+01    1.004472e+00
  2.323012e+01    9.963310e-01
  2.326187e+01    9.848009e-01
  2.329362e+01    9.979262e-01
  2.332537e+01    9.979975e-01
  2.335713e+01    9.737579e-01
  2.338888e+01    9.824145e-01
  2.342063e+01    9.969005e-01
  2.345238e+01    9.599504e-01
  2.348413e+01    9.789449e-01
  2.351588e+01    9.901814e-01
  2.354763e+01    9.754529e-01
  2.357938e+01    9.784119e-01
  2.361113e+01    9.594181e-01
  2.364289e+01    9.613320e-01
  2.367464e+01    9.698851e-01
  2.370639e+01    9.328766e-01
  2.373814e+01    9.335083e-01
  2.376989e+01    9.272951e-01
  2.380164e+01    9.443142e-01
  2.383339e+01    9.273683e-01
  2.386514e+01    9.369411e-01
  2.389689e+01    9.164872e-01
  2.392865e+01    9.185184e-01
  2.396040e+01    8.930588e-01
  2.399215e+01    9.219301e-01
  2.402390e+01    9.258362e-01
  2.405565e+01    8.790491e-01
  2.408740e+01    8.756790e-01
  2.411915e+01    8.735588e-01
  2.415090e+01    8.831754e-01
  2.418266e+01    8.884591e-01
  2.421441e+01    8.897787e-01
  2.424616e+01    8.863601e-01
  2.427791e+01    9.007494e-01
  2.430966e+01    8.935878e-01
  2.434141e+01    9.067323e-01
  2.437316e+01    8.730724e-01
  2.440491e+01    8.700699e-01
  2.443666e+01    8.921909e-01
  2.446842e+01    8.855493e-01
  2.450017e+01    8.872339e-01
  2.453192e+01    8.920579e-01
  2.456367e+01    9.067273e-01
  2.459542e+01    9.107011e-01
  2.462717e+01    9.002437e-01
  2.465892e+01    9.032241e-01
  2.469067e+01    8.954810e-01
  2.472242e+01    8.939885e-01
  2.475418e+01    8.729517e-01
  2.478593e+01    9.100218e-01
  2.481768e+01    8.914167e-01
  2.484943e+01    9.123279e-01
  2.488118e+01    9.086362e-01
  2.491293e+01    9.134175e-01
  2.494468e+01    8.978600e-01
  2.497643e+01    9.081547e-01
  2.500819e+01    9.005808e-01
  2.503994e+01    8.863645e-01
  2.507169e+01    9.200132e-01
  2.510344e+01    9.034598e-01
  2.513519e+01    8.920738e-01
  2.516694e+01    9.210634e-01
  2.519869e+01    9.241320e-01
  2.523044e+01    9.294655e-01
  2.526219e+01    9.491811e-01
  2.529395e+01    9.600321e-01
  2.532570e+01    9.522969e-01
  2.535745e+01    9.698920e-01
  2.538920e+01    1.002174e+00
  2.542095e+01    1.020037e+00
  2.545270e+01    1.043494e+00
  2.548445e+01    1.049934e+00
  2.551620e+01    1.087889e+00
  2.554795e+01    1.115631e+00
  2.557971e+01    1.180211e+00
  2.561146e+01    1.235175e+00
  2.564321e+01    1.312060e+00
  2.567496e+01    1.452415e+00
  2.570671e+01    1.637334e+00
  2.573846e+01    1.888977e+00
  2.577021e+01    2.291778e+00
  2.580196e+01    2.868645e+00
  2.583371e+01    3.687765e+00
  2.586547e+01    4.781985e+00
  2.589722e+01    5.898580e+00
  2.592897e+01    6.906593e+00
  2.596072e+01    7.198305e+00
  2.599247e+01    6.627912e+00
  2.602422e+01    5.323183e+00
  2.605597e+01    3.964898e+00
  2.608772e+01    3.025491e+00
  2.611948e+01    2.396964e+00
  2.615123e+01    1.942894e+00
  2.618298e+01    1.691403e+00
  2.621473e+01    1.495218e+00
  2.624648e+01    1.343542e+00
  2.627823e+01    1.283834e+00
  2.630998e+01    1.195382e+00
  2.634173e+01    1.125468e+00
  2.637348e+01    1.091030e+00
  2.640524e+01    1.038850e+00
  2.643699e+01    1.047567e+00
  2.646874e+01    1.025729e+00
  2.650049e+01    1.021726e+00
  2.653224e+01    1.007311e+00
  2.656399e+01    1.014095e+00
  2.659574e+01    9.820009e-01
  2.662749e+01    9.858865e-01
  2.665924e+01    9.953859e-01
  2.669100e+01    9.779339e-01
  2.672275e+01    9.660324e-01
  2.675450e+01    9.811398e-01
  2.678625e+01    9.554680e-01
  2.681800e+01    9.814282e-01
  2.684975e+01    9.847633e-01
  2.688150e+01    1.003155e+00
  2.691325e+01    9.963058e-01
  2.694501e+01    1.009608e+00
  2.697676e+01    1.071579e+00
  2.700851e+01    1.137037e+00
  2.704026e+01    1.209138e+00
  2.707201e+01    1.332692e+00
  2.710376e+01    1.525236e+00
  2.713551e+01    1.776622e+00
  2.716726e+01    1.985176e+00
  2.719901e+01    2.129789e+00
  2.723077e+01    2.154485e+00
  2.726252e+01    1.982822e+00
  2.729427e+01    1.728217e+00
  2.732602e+01    1.467785e+00
  2.735777e+01    1.295473e+00
  2.738952e+01    1.152937e+00
  2.742127e+01    1.077017e+00
  2.745302e+01    1.069018e+00
  2.748477e+01    9.944038e-01
  2.751653e+01    9.766207e-01
  2.754828e+01    9.598309e-01
  2.758003e+01    9.254099e-01
  2.761178e+01    9.263803e-01
  2.764353e+01    9.253829e-01
  2.767528e+01    9.037196e-01
  2.770703e+01    9.061294e-01
  2.773878e+01    9.067290e-01
  2.777054e+01    9.157376e-01
  2.780229e+01    8.862862e-01
  2.783404e+01    8.889695e-01
  2.786579e+01    8.973666e-01
  2.789754e+01    8.724822e-01
  2.792929e+01    8.974908e-01
  2.796104e+01    8.666064e-01
  2.799279e+01    8.761236e-01
  2.802454e+01    8.586556e-01
  2.805630e+01    8.757283e-01
  2.808805e+01    8.717926e-01
  2.811980e+01    8.793859e-01
  2.815155e+01    8.843164e-01
  2.818330e+01    8.501114e-01
  2.821505e+01    8.742793e-01
  2.824680e+01    8.598601e-01
  2.827855e+01    8.305586e-01
  2.831030e+01    8.552396e-01
  2.834206e+01    8.568164e-01
  2.837381e+01    8.472540e-01
  2.840556e+01    8.569654e-01
  2.843731e+01    8.477836e-01
  2.846906e+01    8.400426e-01
  2.850081e+01    8.528336e-01
  2.853256e+01    8.350981e-01
  2.856431e+01    8.271911e-01
  2.859606e+01    8.473095e-01
  2.862782e+01    8.162810e-01
  2.865957e+01    8.227372e-01
  2.869132e+01    8.245201e-01
  2.872307e+01    8.302290e-01
  2.875482e+01    8.503942e-01
  2.878657e+01    8.666502e-01
  2.881832e+01    8.418177e-01
  2.885007e+01    8.317552e-01
  2.888183e+01    8.069917e-01
  2.891358e+01    8.489249e-01
  2.894533e+01    8.092060e-01
  2.897708e+01    8.224937e-01
  2.900883e+01    8.203265e-01
  2.904058e+01    8.233407e-01
  2.907233e+01    8.453850e-01
  2.910408e+01    8.287230e-01
  2.913583e+01    8.215687e-01
  2.916759e+01    8.289840e-01
  2.919934e+01    8.366775e-01
  2.923109e+01    8.241078e-01
  2.926284e+01    8.081182e-01
  2.929459e+01    8.256144e-01
  2.932634e+01    8.217834e-01
  2.935809e+01    8.267272e-01
  2.938984e+01    8.149568e-01
  2.942159e+01    8.266411e-01
  2.945335e+01    8.152914e-01
  2.948510e+01    8.029968e-01
  2.951685e+01    8.052900e-01
  2.954860e+01    8.266002e-01
  2.958035e+01    8.196540e-01
  2.961210e+01    7.971230e-01
  2.964385e+01    8.266950e-01
  2.967560e+01    7.832118e-01
  2.970736e+01    8.242379e-01
  2.973911e+01    7.576481e-01
  2.977086e+01    8.012350e-01
  2.980261e+01    8.141936e-01
  2.983436e+01    7.865317e-01
  2.986611e+01    7.899120e-01
  2.989786e+01    8.027303e-01
  2.992961e+01    8.262558e-01
  2.996136e+01    8.107474e-01
  2.999312e+01    7.963857e-01
  3.002487e+01    8.234318e-01
  3.005662e+01    8.402777e-01
  3.008837e+01    8.152114e-01
  3.012012e+01    8.017078e-01
  3.015187e+01    7.981222e-01
  3.018362e+01    7.881797e-01
  3.021537e+01    8.017470e-01
  3.024712e+01    7.825521e-01
  3.027888e+01    7.879993e-01
  3.031063e+01    7.991647e-01
  3.034238e+01    7.711826e-01
  3.037413e+01    7.872896e-01
  3.040588e+01    7.755645e-01
  3.043763e+01    7.883856e-01
  3.046938e+01    8.054636e-01
  3.050113e+01    8.111205e-01
  3.053288e+01    7.896414e-01
  3.056464e+01    7.965415e-01
  3.059639e+01    7.854686e-01
  3.062814e+01    7.772653e-01
  3.065989e+01    8.010518e-01
  3.069164e+01    7.997736e-01
  3.072339e+01    7.690886e-01
  3.075514e+01    7.951592e-01
  3.078689e+01    7.824846e-01
  3.081865e+01    7.706787e-01
  3.085040e+01    7.916124e-01
  3.088215e+01    8.122784e-01
  3.091390e+01    8.064545e-01
  3.094565e+01    7.937218e-01
  3.097740e+01    7.977108e-01
  3.100915e+01    7.929212e-01
  3.104090e+01    7.983726e-01
  3.107265e+01    7.894219e-01
  3.110441e+01    7.992468e-01
  3.113616e+01    7.992073e-01
  3.116791e+01    7.988521e-01
  3.119966e+01    7.892516e-01
  3.123141e+01    8.148515e-01
  3.126316e+01    8.148322e-01
  3.129491e+01    8.027898e-01
  3.132666e+01    8.302481e-01
  3.135841e+01    8.342498e-01
  3.139017e+01    8.211453e-01
  3.142192e+01    8.274212e-01
  3.145367e+01    8.439404e-01
  3.148542e+01    8.133942e-01
  3.151717e+01    8.535410e-01
  3.154892e+01    8.471698e-01
  3.158067e+01    8.655242e-01
  3.161242e+01    8.883615e-01
  3.164418e+01    9.217989e-01
  3.167593e+01    9.584828e-01
  3.170768e+01    1.043367e+00
  3.173943e+01    1.134796e+00
  3.177118e+01    1.299975e+00
  3.180293e+01    1.516046e+00
  3.183468e+01    1.725046e+00
  3.186643e+01    2.008162e+00
  3.189818e+01    2.110933e+00
  3.192994e+01    2.070137e+00
  3.196169e+01    1.802444e+00
  3.199344e+01    1.556462e+00
  3.202519e+01    1.330400e+00
  3.205694e+01    1.119862e+00
  3.208869e+01    1.032031e+00
  3.212044e+01    9.980970e-01
  3.215219e+01    9.121258e-01
  3.218394e+01    8.799800e-01
  3.221570e+01    8.605475e-01
  3.224745e+01    8.464628e-01
  3.227920e+01    8.471612e-01
  3.231095e+01    8.172829e-01
  3.234270e+01    8.087952e-01
  3.237445e+01    7.938070e-01
  3.240620e+01    8.036955e-01
  3.243795e+01    7.846956e-01
  3.246970e+01    7.871713e-01
  3.250146e+01    7.754710e-01
  3.253321e+01    7.911456e-01
  3.254908e+01    7.819820e-01