File: XRD/Reaction conditions/2024-07-27_003_Ru-CGO-ex_Reaction_dwell_000023_data_000114.dat
# == pyFAI calibration ==
# Distance Sample to Detector: 0.4 m
# PONI: 9.750e-02, 1.135e-01 m
# Rotations: -0.000175 0.000000 -0.000000 rad
#
# == Fit2d calibration ==
# Distance Sample-beamCenter: 400.000 mm
# Center: x=1514.000, y=1300.000 pix
# Tilt: 0.010 deg  TiltPlanRot: 0.010 deg
#
# Detector Detector	 Spline= None	 PixelSize= 7.500e-05, 7.500e-05 m
#    Detector has a mask: False
#    Detector has a dark current: False
#    detector has a flat field: False
#
# Wavelength: 6.888e-11 m
# Mask applied: user provided
# Dark current applied: False
# Flat field applied: False
# Polarization factor: 0.99
# Normalization factor: 1.0
# --> /home/myspot/data/2024_07_Rosario/Ru-CGO-ex/2024-07-27_003_Ru-CGO-ex_Reaction_dwell_000023_data_000114.dat
#       q_nm^-1             I
  2.003187e-02    0.000000e+00
  5.178302e-02    6.857958e-02
  8.353417e-02    1.472698e-01
  1.152853e-01    5.033294e-02
  1.470365e-01    1.987341e-02
  1.787876e-01    1.316620e-01
  2.105388e-01    4.427416e-02
  2.422899e-01    7.358242e-03
  2.740411e-01    2.574031e-02
  3.057922e-01    6.801769e-02
  3.375433e-01    4.648107e-02
  3.692945e-01    4.498903e-02
  4.010456e-01    3.648293e-02
  4.327968e-01    5.478808e-02
  4.645479e-01    4.221410e-02
  4.962991e-01    3.296602e-02
  5.280502e-01    6.443872e-02
  5.598014e-01    3.632956e-02
  5.915525e-01    4.056399e-02
  6.233037e-01    3.146343e-02
  6.550548e-01    2.403908e-02
  6.868060e-01    3.894211e-02
  7.185571e-01    2.008130e-02
  7.503083e-01    6.028438e-02
  7.820594e-01    1.395210e-01
  8.138106e-01    1.786091e-01
  8.455617e-01    3.526576e-01
  8.773129e-01    5.222192e-01
  9.090640e-01    6.145446e-01
  9.408152e-01    8.138962e-01
  9.725663e-01    9.991959e-01
  1.004317e+00    1.199695e+00
  1.036069e+00    1.278128e+00
  1.067820e+00    1.503537e+00
  1.099571e+00    1.575620e+00
  1.131322e+00    1.566867e+00
  1.163073e+00    1.607829e+00
  1.194824e+00    1.762295e+00
  1.226575e+00    2.353186e+00
  1.258327e+00    2.408497e+00
  1.290078e+00    2.716932e+00
  1.321829e+00    2.827315e+00
  1.353580e+00    2.809131e+00
  1.385331e+00    2.825436e+00
  1.417082e+00    2.904582e+00
  1.448834e+00    2.843647e+00
  1.480585e+00    3.054575e+00
  1.512336e+00    3.091460e+00
  1.544087e+00    3.214022e+00
  1.575838e+00    3.176592e+00
  1.607589e+00    3.089407e+00
  1.639340e+00    3.113383e+00
  1.671092e+00    2.960165e+00
  1.702843e+00    3.060310e+00
  1.734594e+00    3.135395e+00
  1.766345e+00    3.014716e+00
  1.798096e+00    3.034444e+00
  1.829847e+00    3.083705e+00
  1.861598e+00    3.163178e+00
  1.893350e+00    3.119943e+00
  1.925101e+00    2.991769e+00
  1.956852e+00    3.113670e+00
  1.988603e+00    3.165196e+00
  2.020354e+00    3.029415e+00
  2.052105e+00    3.112656e+00
  2.083856e+00    3.025758e+00
  2.115608e+00    3.047463e+00
  2.147359e+00    3.208045e+00
  2.179110e+00    3.075325e+00
  2.210861e+00    3.161272e+00
  2.242612e+00    3.184074e+00
  2.274363e+00    3.177003e+00
  2.306115e+00    3.147239e+00
  2.337866e+00    3.139670e+00
  2.369617e+00    3.131264e+00
  2.401368e+00    3.201703e+00
  2.433119e+00    3.240336e+00
  2.464870e+00    3.289967e+00
  2.496621e+00    3.248524e+00
  2.528373e+00    3.102381e+00
  2.560124e+00    3.203473e+00
  2.591875e+00    3.014936e+00
  2.623626e+00    3.310494e+00
  2.655377e+00    3.107942e+00
  2.687128e+00    3.280342e+00
  2.718879e+00    3.257217e+00
  2.750631e+00    3.368645e+00
  2.782382e+00    3.284481e+00
  2.814133e+00    3.262544e+00
  2.845884e+00    3.324751e+00
  2.877635e+00    3.286990e+00
  2.909386e+00    3.304680e+00
  2.941137e+00    3.273875e+00
  2.972889e+00    3.418289e+00
  3.004640e+00    3.233323e+00
  3.036391e+00    3.306775e+00
  3.068142e+00    3.341744e+00
  3.099893e+00    3.314349e+00
  3.131644e+00    3.465585e+00
  3.163395e+00    3.307492e+00
  3.195147e+00    3.390023e+00
  3.226898e+00    3.465232e+00
  3.258649e+00    3.350985e+00
  3.290400e+00    3.437338e+00
  3.322151e+00    3.441694e+00
  3.353902e+00    3.449367e+00
  3.385654e+00    3.384114e+00
  3.417405e+00    3.504166e+00
  3.449156e+00    3.455575e+00
  3.480907e+00    3.400460e+00
  3.512658e+00    3.389603e+00
  3.544409e+00    3.508092e+00
  3.576160e+00    3.443196e+00
  3.607912e+00    3.404402e+00
  3.639663e+00    3.494880e+00
  3.671414e+00    3.484278e+00
  3.703165e+00    3.465549e+00
  3.734916e+00    3.439539e+00
  3.766667e+00    3.391402e+00
  3.798418e+00    3.518465e+00
  3.830170e+00    3.520761e+00
  3.861921e+00    3.506770e+00
  3.893672e+00    3.545301e+00
  3.925423e+00    3.521384e+00
  3.957174e+00    3.619799e+00
  3.988925e+00    3.491287e+00
  4.020676e+00    3.508845e+00
  4.052428e+00    3.555791e+00
  4.084179e+00    3.552136e+00
  4.115930e+00    3.636096e+00
  4.147681e+00    3.538950e+00
  4.179432e+00    3.503446e+00
  4.211183e+00    3.700967e+00
  4.242935e+00    3.697005e+00
  4.274686e+00    3.567011e+00
  4.306437e+00    3.552176e+00
  4.338188e+00    3.481935e+00
  4.369939e+00    3.532442e+00
  4.401690e+00    3.627122e+00
  4.433441e+00    3.576700e+00
  4.465193e+00    3.608934e+00
  4.496944e+00    3.639383e+00
  4.528695e+00    3.549032e+00
  4.560446e+00    3.632065e+00
  4.592197e+00    3.560474e+00
  4.623948e+00    3.638571e+00
  4.655699e+00    3.652082e+00
  4.687451e+00    3.624660e+00
  4.719202e+00    3.647750e+00
  4.750953e+00    3.663279e+00
  4.782704e+00    3.617224e+00
  4.814455e+00    3.622089e+00
  4.846206e+00    3.532698e+00
  4.877957e+00    3.648506e+00
  4.909709e+00    3.682480e+00
  4.941460e+00    3.631834e+00
  4.973211e+00    3.617614e+00
  5.004962e+00    3.747719e+00
  5.036713e+00    3.664144e+00
  5.068464e+00    3.727221e+00
  5.100216e+00    3.690354e+00
  5.131967e+00    3.707257e+00
  5.163718e+00    3.704630e+00
  5.195469e+00    3.701785e+00
  5.227220e+00    3.707927e+00
  5.258971e+00    3.689570e+00
  5.290722e+00    3.666231e+00
  5.322474e+00    3.746275e+00
  5.354225e+00    3.609626e+00
  5.385976e+00    3.618922e+00
  5.417727e+00    3.636090e+00
  5.449478e+00    3.553623e+00
  5.481229e+00    3.612517e+00
  5.512980e+00    3.611163e+00
  5.544732e+00    3.538054e+00
  5.576483e+00    3.615319e+00
  5.608234e+00    3.579211e+00
  5.639985e+00    3.623762e+00
  5.671736e+00    3.594937e+00
  5.703487e+00    3.553631e+00
  5.735238e+00    3.590384e+00
  5.766990e+00    3.632522e+00
  5.798741e+00    3.596712e+00
  5.830492e+00    3.391912e+00
  5.862243e+00    3.670500e+00
  5.893994e+00    3.557405e+00
  5.925745e+00    3.536663e+00
  5.957497e+00    3.650017e+00
  5.989248e+00    3.613898e+00
  6.020999e+00    3.548263e+00
  6.052750e+00    3.575711e+00
  6.084501e+00    3.594423e+00
  6.116252e+00    3.689956e+00
  6.148003e+00    3.624444e+00
  6.179755e+00    3.658949e+00
  6.211506e+00    3.620416e+00
  6.243257e+00    3.584596e+00
  6.275008e+00    3.607911e+00
  6.306759e+00    3.512310e+00
  6.338510e+00    3.600809e+00
  6.370261e+00    3.581017e+00
  6.402013e+00    3.571950e+00
  6.433764e+00    3.618623e+00
  6.465515e+00    3.578247e+00
  6.497266e+00    3.596668e+00
  6.529017e+00    3.570375e+00
  6.560768e+00    3.490217e+00
  6.592519e+00    3.563467e+00
  6.624271e+00    3.604471e+00
  6.656022e+00    3.612112e+00
  6.687773e+00    3.546590e+00
  6.719524e+00    3.537064e+00
  6.751275e+00    3.560613e+00
  6.783026e+00    3.515612e+00
  6.814777e+00    3.547892e+00
  6.846529e+00    3.558765e+00
  6.878280e+00    3.623287e+00
  6.910031e+00    3.480346e+00
  6.941782e+00    3.474747e+00
  6.973533e+00    3.536767e+00
  7.005284e+00    3.589617e+00
  7.037036e+00    3.531615e+00
  7.068787e+00    3.507518e+00
  7.100538e+00    3.545097e+00
  7.132289e+00    3.522199e+00
  7.164040e+00    3.522458e+00
  7.195791e+00    3.474598e+00
  7.227542e+00    3.425643e+00
  7.259294e+00    3.508572e+00
  7.291045e+00    3.543401e+00
  7.322796e+00    3.499413e+00
  7.354547e+00    3.427618e+00
  7.386298e+00    3.482070e+00
  7.418049e+00    3.451853e+00
  7.449800e+00    3.427843e+00
  7.481552e+00    3.499450e+00
  7.513303e+00    3.484681e+00
  7.545054e+00    3.468364e+00
  7.576805e+00    3.459732e+00
  7.608556e+00    3.440386e+00
  7.640307e+00    3.473703e+00
  7.672058e+00    3.525773e+00
  7.703810e+00    3.444623e+00
  7.735561e+00    3.462057e+00
  7.767312e+00    3.506471e+00
  7.799063e+00    3.416529e+00
  7.830814e+00    3.462872e+00
  7.862565e+00    3.406373e+00
  7.894317e+00    3.388103e+00
  7.926068e+00    3.433794e+00
  7.957819e+00    3.468076e+00
  7.989570e+00    3.450696e+00
  8.021321e+00    3.377185e+00
  8.053072e+00    3.450150e+00
  8.084823e+00    3.472167e+00
  8.116575e+00    3.461828e+00
  8.148326e+00    3.435716e+00
  8.180077e+00    3.479600e+00
  8.211828e+00    3.496042e+00
  8.243579e+00    3.475744e+00
  8.275330e+00    3.394779e+00
  8.307081e+00    3.386242e+00
  8.338833e+00    3.327435e+00
  8.370584e+00    3.440514e+00
  8.402335e+00    3.430763e+00
  8.434086e+00    3.371195e+00
  8.465837e+00    3.402735e+00
  8.497588e+00    3.418532e+00
  8.529339e+00    3.356530e+00
  8.561091e+00    3.352064e+00
  8.592842e+00    3.321157e+00
  8.624593e+00    3.409597e+00
  8.656344e+00    3.296845e+00
  8.688095e+00    3.331353e+00
  8.719846e+00    3.388502e+00
  8.751598e+00    3.319097e+00
  8.783349e+00    3.307235e+00
  8.815100e+00    3.309951e+00
  8.846851e+00    3.362606e+00
  8.878602e+00    3.296708e+00
  8.910353e+00    3.262156e+00
  8.942104e+00    3.319489e+00
  8.973856e+00    3.350961e+00
  9.005607e+00    3.265453e+00
  9.037358e+00    3.331599e+00
  9.069109e+00    3.284170e+00
  9.100860e+00    3.339795e+00
  9.132611e+00    3.279940e+00
  9.164362e+00    3.291921e+00
  9.196114e+00    3.246581e+00
  9.227865e+00    3.259195e+00
  9.259616e+00    3.230221e+00
  9.291367e+00    3.207609e+00
  9.323118e+00    3.349260e+00
  9.354869e+00    3.213012e+00
  9.386620e+00    3.257439e+00
  9.418372e+00    3.183630e+00
  9.450123e+00    3.271948e+00
  9.481874e+00    3.236299e+00
  9.513625e+00    3.291298e+00
  9.545376e+00    3.192040e+00
  9.577127e+00    3.247149e+00
  9.608878e+00    3.200614e+00
  9.640630e+00    3.238410e+00
  9.672381e+00    3.185345e+00
  9.704132e+00    3.141973e+00
  9.735883e+00    3.298167e+00
  9.767634e+00    3.206039e+00
  9.799385e+00    3.186959e+00
  9.831137e+00    3.218554e+00
  9.862888e+00    3.115206e+00
  9.894639e+00    3.097438e+00
  9.926390e+00    3.139004e+00
  9.958141e+00    3.157227e+00
  9.989892e+00    3.106853e+00
  1.002164e+01    3.127258e+00
  1.005339e+01    3.100899e+00
  1.008515e+01    3.089560e+00
  1.011690e+01    3.083312e+00
  1.014865e+01    3.095934e+00
  1.018040e+01    3.119611e+00
  1.021215e+01    3.076552e+00
  1.024390e+01    3.049519e+00
  1.027565e+01    3.101410e+00
  1.030740e+01    3.069590e+00
  1.033915e+01    2.999994e+00
  1.037091e+01    3.035192e+00
  1.040266e+01    3.028368e+00
  1.043441e+01    2.944627e+00
  1.046616e+01    2.950760e+00
  1.049791e+01    3.005118e+00
  1.052966e+01    3.047682e+00
  1.056141e+01    2.985462e+00
  1.059316e+01    2.998612e+00
  1.062492e+01    2.987069e+00
  1.065667e+01    2.998692e+00
  1.068842e+01    2.986223e+00
  1.072017e+01    3.021659e+00
  1.075192e+01    3.034238e+00
  1.078367e+01    2.923456e+00
  1.081542e+01    2.951665e+00
  1.084717e+01    2.936672e+00
  1.087892e+01    2.994458e+00
  1.091068e+01    2.979949e+00
  1.094243e+01    2.910234e+00
  1.097418e+01    2.938047e+00
  1.100593e+01    2.920798e+00
  1.103768e+01    2.887814e+00
  1.106943e+01    2.873224e+00
  1.110118e+01    2.919227e+00
  1.113293e+01    2.889392e+00
  1.116468e+01    2.905257e+00
  1.119644e+01    2.885997e+00
  1.122819e+01    2.823697e+00
  1.125994e+01    2.871537e+00
  1.129169e+01    2.834956e+00
  1.132344e+01    2.795561e+00
  1.135519e+01    2.830670e+00
  1.138694e+01    2.828712e+00
  1.141869e+01    2.805807e+00
  1.145045e+01    2.808584e+00
  1.148220e+01    2.823806e+00
  1.151395e+01    2.791335e+00
  1.154570e+01    2.838061e+00
  1.157745e+01    2.759930e+00
  1.160920e+01    2.768890e+00
  1.164095e+01    2.759713e+00
  1.167270e+01    2.750023e+00
  1.170445e+01    2.800086e+00
  1.173621e+01    2.793453e+00
  1.176796e+01    2.774534e+00
  1.179971e+01    2.719301e+00
  1.183146e+01    2.720555e+00
  1.186321e+01    2.733422e+00
  1.189496e+01    2.758851e+00
  1.192671e+01    2.683281e+00
  1.195846e+01    2.762491e+00
  1.199021e+01    2.687717e+00
  1.202197e+01    2.685240e+00
  1.205372e+01    2.709267e+00
  1.208547e+01    2.689360e+00
  1.211722e+01    2.688633e+00
  1.214897e+01    2.681070e+00
  1.218072e+01    2.719009e+00
  1.221247e+01    2.660170e+00
  1.224422e+01    2.689518e+00
  1.227597e+01    2.694222e+00
  1.230773e+01    2.704689e+00
  1.233948e+01    2.688240e+00
  1.237123e+01    2.716694e+00
  1.240298e+01    2.719743e+00
  1.243473e+01    2.714197e+00
  1.246648e+01    2.700175e+00
  1.249823e+01    2.691398e+00
  1.252998e+01    2.711772e+00
  1.256174e+01    2.758288e+00
  1.259349e+01    2.788806e+00
  1.262524e+01    2.747030e+00
  1.265699e+01    2.766039e+00
  1.268874e+01    2.782956e+00
  1.272049e+01    2.862095e+00
  1.275224e+01    2.922035e+00
  1.278399e+01    2.921214e+00
  1.281574e+01    3.007794e+00
  1.284750e+01    3.159831e+00
  1.287925e+01    3.363343e+00
  1.291100e+01    3.712192e+00
  1.294275e+01    4.097463e+00
  1.297450e+01    4.808610e+00
  1.300625e+01    5.975215e+00
  1.303800e+01    7.712929e+00
  1.306975e+01    1.023590e+01
  1.310150e+01    1.267673e+01
  1.313326e+01    1.487620e+01
  1.316501e+01    1.637092e+01
  1.319676e+01    1.568593e+01
  1.322851e+01    1.250533e+01
  1.326026e+01    9.148230e+00
  1.329201e+01    6.776983e+00
  1.332376e+01    5.388767e+00
  1.335551e+01    4.458680e+00
  1.338727e+01    3.831692e+00
  1.341902e+01    3.475214e+00
  1.345077e+01    3.252040e+00
  1.348252e+01    3.047552e+00
  1.351427e+01    2.953679e+00
  1.354602e+01    2.807763e+00
  1.357777e+01    2.719558e+00
  1.360952e+01    2.667343e+00
  1.364127e+01    2.644383e+00
  1.367303e+01    2.586482e+00
  1.370478e+01    2.579310e+00
  1.373653e+01    2.562725e+00
  1.376828e+01    2.516459e+00
  1.380003e+01    2.435385e+00
  1.383178e+01    2.464299e+00
  1.386353e+01    2.456940e+00
  1.389528e+01    2.428452e+00
  1.392703e+01    2.397430e+00
  1.395879e+01    2.383892e+00
  1.399054e+01    2.361686e+00
  1.402229e+01    2.378971e+00
  1.405404e+01    2.375718e+00
  1.408579e+01    2.328549e+00
  1.411754e+01    2.335605e+00
  1.414929e+01    2.338529e+00
  1.418104e+01    2.311350e+00
  1.421279e+01    2.315135e+00
  1.424455e+01    2.314031e+00
  1.427630e+01    2.270028e+00
  1.430805e+01    2.263564e+00
  1.433980e+01    2.294814e+00
  1.437155e+01    2.273028e+00
  1.440330e+01    2.242363e+00
  1.443505e+01    2.261916e+00
  1.446680e+01    2.216023e+00
  1.449856e+01    2.217972e+00
  1.453031e+01    2.187401e+00
  1.456206e+01    2.244682e+00
  1.459381e+01    2.222085e+00
  1.462556e+01    2.267025e+00
  1.465731e+01    2.219419e+00
  1.468906e+01    2.218726e+00
  1.472081e+01    2.220379e+00
  1.475256e+01    2.190493e+00
  1.478432e+01    2.176158e+00
  1.481607e+01    2.203289e+00
  1.484782e+01    2.262824e+00
  1.487957e+01    2.244161e+00
  1.491132e+01    2.249166e+00
  1.494307e+01    2.338414e+00
  1.497482e+01    2.351851e+00
  1.500657e+01    2.429337e+00
  1.503832e+01    2.556788e+00
  1.507008e+01    2.831610e+00
  1.510183e+01    3.197673e+00
  1.513358e+01    3.770369e+00
  1.516533e+01    4.590390e+00
  1.519708e+01    5.205716e+00
  1.522883e+01    5.636569e+00
  1.526058e+01    5.784032e+00
  1.529233e+01    5.498121e+00
  1.532409e+01    4.711878e+00
  1.535584e+01    3.787874e+00
  1.538759e+01    3.153716e+00
  1.541934e+01    2.789073e+00
  1.545109e+01    2.525296e+00
  1.548284e+01    2.435487e+00
  1.551459e+01    2.273528e+00
  1.554634e+01    2.216009e+00
  1.557809e+01    2.084718e+00
  1.560985e+01    2.091826e+00
  1.564160e+01    2.041274e+00
  1.567335e+01    2.034350e+00
  1.570510e+01    1.979293e+00
  1.573685e+01    1.954682e+00
  1.576860e+01    1.938837e+00
  1.580035e+01    1.952916e+00
  1.583210e+01    1.936653e+00
  1.586385e+01    1.945142e+00
  1.589561e+01    1.903473e+00
  1.592736e+01    1.910592e+00
  1.595911e+01    1.862707e+00
  1.599086e+01    1.882053e+00
  1.602261e+01    1.882646e+00
  1.605436e+01    1.864856e+00
  1.608611e+01    1.866932e+00
  1.611786e+01    1.857769e+00
  1.614961e+01    1.831126e+00
  1.618137e+01    1.850311e+00
  1.621312e+01    1.807485e+00
  1.624487e+01    1.815330e+00
  1.627662e+01    1.840821e+00
  1.630837e+01    1.796222e+00
  1.634012e+01    1.805873e+00
  1.637187e+01    1.770403e+00
  1.640362e+01    1.769675e+00
  1.643538e+01    1.789703e+00
  1.646713e+01    1.739541e+00
  1.649888e+01    1.738908e+00
  1.653063e+01    1.756160e+00
  1.656238e+01    1.745498e+00
  1.659413e+01    1.739869e+00
  1.662588e+01    1.758847e+00
  1.665763e+01    1.714737e+00
  1.668938e+01    1.719783e+00
  1.672114e+01    1.715656e+00
  1.675289e+01    1.709921e+00
  1.678464e+01    1.704553e+00
  1.681639e+01    1.694547e+00
  1.684814e+01    1.700074e+00
  1.687989e+01    1.678348e+00
  1.691164e+01    1.696038e+00
  1.694339e+01    1.680904e+00
  1.697514e+01    1.698842e+00
  1.700690e+01    1.675851e+00
  1.703865e+01    1.651434e+00
  1.707040e+01    1.628256e+00
  1.710215e+01    1.665480e+00
  1.713390e+01    1.643008e+00
  1.716565e+01    1.630714e+00
  1.719740e+01    1.664421e+00
  1.722915e+01    1.619321e+00
  1.726091e+01    1.644285e+00
  1.729266e+01    1.639307e+00
  1.732441e+01    1.608126e+00
  1.735616e+01    1.578024e+00
  1.738791e+01    1.585309e+00
  1.741966e+01    1.620303e+00
  1.745141e+01    1.606192e+00
  1.748316e+01    1.636214e+00
  1.751491e+01    1.574669e+00
  1.754667e+01    1.588305e+00
  1.757842e+01    1.556874e+00
  1.761017e+01    1.584564e+00
  1.764192e+01    1.558839e+00
  1.767367e+01    1.534231e+00
  1.770542e+01    1.573660e+00
  1.773717e+01    1.554518e+00
  1.776892e+01    1.524867e+00
  1.780067e+01    1.536165e+00
  1.783243e+01    1.548727e+00
  1.786418e+01    1.563740e+00
  1.789593e+01    1.523595e+00
  1.792768e+01    1.524626e+00
  1.795943e+01    1.525108e+00
  1.799118e+01    1.527989e+00
  1.802293e+01    1.500162e+00
  1.805468e+01    1.529231e+00
  1.808643e+01    1.486524e+00
  1.811819e+01    1.490004e+00
  1.814994e+01    1.503654e+00
  1.818169e+01    1.498779e+00
  1.821344e+01    1.502520e+00
  1.824519e+01    1.488668e+00
  1.827694e+01    1.482469e+00
  1.830869e+01    1.471459e+00
  1.834044e+01    1.459223e+00
  1.837220e+01    1.462298e+00
  1.840395e+01    1.450644e+00
  1.843570e+01    1.450523e+00
  1.846745e+01    1.451920e+00
  1.849920e+01    1.463784e+00
  1.853095e+01    1.437223e+00
  1.856270e+01    1.430477e+00
  1.859445e+01    1.446799e+00
  1.862620e+01    1.449913e+00
  1.865796e+01    1.421879e+00
  1.868971e+01    1.432923e+00
  1.872146e+01    1.405091e+00
  1.875321e+01    1.424734e+00
  1.878496e+01    1.408724e+00
  1.881671e+01    1.411898e+00
  1.884846e+01    1.385051e+00
  1.888021e+01    1.368626e+00
  1.891196e+01    1.419744e+00
  1.894372e+01    1.399010e+00
  1.897547e+01    1.388203e+00
  1.900722e+01    1.414819e+00
  1.903897e+01    1.383638e+00
  1.907072e+01    1.373479e+00
  1.910247e+01    1.398134e+00
  1.913422e+01    1.358073e+00
  1.916597e+01    1.366421e+00
  1.919773e+01    1.335215e+00
  1.922948e+01    1.368085e+00
  1.926123e+01    1.364694e+00
  1.929298e+01    1.347280e+00
  1.932473e+01    1.342191e+00
  1.935648e+01    1.339561e+00
  1.938823e+01    1.338605e+00
  1.941998e+01    1.356433e+00
  1.945173e+01    1.315699e+00
  1.948349e+01    1.337095e+00
  1.951524e+01    1.332746e+00
  1.954699e+01    1.323150e+00
  1.957874e+01    1.361869e+00
  1.961049e+01    1.339688e+00
  1.964224e+01    1.327165e+00
  1.967399e+01    1.326527e+00
  1.970574e+01    1.305027e+00
  1.973749e+01    1.300930e+00
  1.976925e+01    1.300082e+00
  1.980100e+01    1.296738e+00
  1.983275e+01    1.301720e+00
  1.986450e+01    1.310419e+00
  1.989625e+01    1.286651e+00
  1.992800e+01    1.264664e+00
  1.995975e+01    1.283754e+00
  1.999150e+01    1.297259e+00
  2.002325e+01    1.269659e+00
  2.005501e+01    1.288109e+00
  2.008676e+01    1.274497e+00
  2.011851e+01    1.267429e+00
  2.015026e+01    1.286127e+00
  2.018201e+01    1.281696e+00
  2.021376e+01    1.281867e+00
  2.024551e+01    1.260180e+00
  2.027726e+01    1.267998e+00
  2.030902e+01    1.265501e+00
  2.034077e+01    1.244170e+00
  2.037252e+01    1.270848e+00
  2.040427e+01    1.265497e+00
  2.043602e+01    1.235167e+00
  2.046777e+01    1.230931e+00
  2.049952e+01    1.254143e+00
  2.053127e+01    1.245046e+00
  2.056302e+01    1.251879e+00
  2.059478e+01    1.216522e+00
  2.062653e+01    1.218276e+00
  2.065828e+01    1.245614e+00
  2.069003e+01    1.209717e+00
  2.072178e+01    1.226284e+00
  2.075353e+01    1.242669e+00
  2.078528e+01    1.225327e+00
  2.081703e+01    1.219190e+00
  2.084878e+01    1.226620e+00
  2.088054e+01    1.229364e+00
  2.091229e+01    1.242363e+00
  2.094404e+01    1.223951e+00
  2.097579e+01    1.238810e+00
  2.100754e+01    1.237470e+00
  2.103929e+01    1.195848e+00
  2.107104e+01    1.209192e+00
  2.110279e+01    1.219041e+00
  2.113455e+01    1.223181e+00
  2.116630e+01    1.229931e+00
  2.119805e+01    1.195743e+00
  2.122980e+01    1.231897e+00
  2.126155e+01    1.269741e+00
  2.129330e+01    1.264566e+00
  2.132505e+01    1.280237e+00
  2.135680e+01    1.268893e+00
  2.138855e+01    1.295332e+00
  2.142031e+01    1.304213e+00
  2.145206e+01    1.388047e+00
  2.148381e+01    1.404965e+00
  2.151556e+01    1.441502e+00
  2.154731e+01    1.526479e+00
  2.157906e+01    1.621808e+00
  2.161081e+01    1.772133e+00
  2.164256e+01    1.947606e+00
  2.167431e+01    2.301171e+00
  2.170607e+01    2.755143e+00
  2.173782e+01    3.519932e+00
  2.176957e+01    4.573005e+00
  2.180132e+01    5.892735e+00
  2.183307e+01    7.160285e+00
  2.186482e+01    8.355842e+00
  2.189657e+01    8.997305e+00
  2.192832e+01    8.317564e+00
  2.196007e+01    6.616411e+00
  2.199183e+01    4.866781e+00
  2.202358e+01    3.635178e+00
  2.205533e+01    2.836460e+00
  2.208708e+01    2.290287e+00
  2.211883e+01    2.009820e+00
  2.215058e+01    1.729170e+00
  2.218233e+01    1.621412e+00
  2.221408e+01    1.510922e+00
  2.224584e+01    1.395314e+00
  2.227759e+01    1.354110e+00
  2.230934e+01    1.313833e+00
  2.234109e+01    1.239239e+00
  2.237284e+01    1.233581e+00
  2.240459e+01    1.210652e+00
  2.243634e+01    1.213014e+00
  2.246809e+01    1.162743e+00
  2.249984e+01    1.103689e+00
  2.253160e+01    1.125176e+00
  2.256335e+01    1.145563e+00
  2.259510e+01    1.096536e+00
  2.262685e+01    1.109805e+00
  2.265860e+01    1.079162e+00
  2.269035e+01    1.095229e+00
  2.272210e+01    1.083856e+00
  2.275385e+01    1.051135e+00
  2.278560e+01    1.037568e+00
  2.281736e+01    1.093624e+00
  2.284911e+01    1.064050e+00
  2.288086e+01    1.049880e+00
  2.291261e+01    1.052483e+00
  2.294436e+01    1.012676e+00
  2.297611e+01    1.025086e+00
  2.300786e+01    1.023269e+00
  2.303961e+01    1.032476e+00
  2.307137e+01    1.014844e+00
  2.310312e+01    1.022647e+00
  2.313487e+01    1.015064e+00
  2.316662e+01    9.849479e-01
  2.319837e+01    1.000242e+00
  2.323012e+01    9.847361e-01
  2.326187e+01    9.893112e-01
  2.329362e+01    9.614088e-01
  2.332537e+01    9.823605e-01
  2.335713e+01    9.620415e-01
  2.338888e+01    9.868608e-01
  2.342063e+01    9.870232e-01
  2.345238e+01    9.888913e-01
  2.348413e+01    9.675056e-01
  2.351588e+01    9.631870e-01
  2.354763e+01    9.718544e-01
  2.357938e+01    9.426725e-01
  2.361113e+01    9.715775e-01
  2.364289e+01    9.681681e-01
  2.367464e+01    9.501319e-01
  2.370639e+01    9.256536e-01
  2.373814e+01    9.301363e-01
  2.376989e+01    9.216994e-01
  2.380164e+01    9.291245e-01
  2.383339e+01    9.197190e-01
  2.386514e+01    9.102573e-01
  2.389689e+01    9.313837e-01
  2.392865e+01    9.138851e-01
  2.396040e+01    9.099030e-01
  2.399215e+01    9.215285e-01
  2.402390e+01    8.958910e-01
  2.405565e+01    8.967473e-01
  2.408740e+01    8.910700e-01
  2.411915e+01    8.922854e-01
  2.415090e+01    8.977472e-01
  2.418266e+01    9.052139e-01
  2.421441e+01    8.559840e-01
  2.424616e+01    8.921866e-01
  2.427791e+01    8.864172e-01
  2.430966e+01    8.926039e-01
  2.434141e+01    8.972025e-01
  2.437316e+01    9.046121e-01
  2.440491e+01    8.959939e-01
  2.443666e+01    8.843375e-01
  2.446842e+01    9.045653e-01
  2.450017e+01    9.097962e-01
  2.453192e+01    8.976759e-01
  2.456367e+01    8.951514e-01
  2.459542e+01    8.853531e-01
  2.462717e+01    8.989845e-01
  2.465892e+01    8.927054e-01
  2.469067e+01    9.082658e-01
  2.472242e+01    8.903170e-01
  2.475418e+01    8.908197e-01
  2.478593e+01    8.976442e-01
  2.481768e+01    9.156092e-01
  2.484943e+01    8.664739e-01
  2.488118e+01    9.143336e-01
  2.491293e+01    8.754353e-01
  2.494468e+01    8.938096e-01
  2.497643e+01    9.092789e-01
  2.500819e+01    8.993133e-01
  2.503994e+01    8.995552e-01
  2.507169e+01    8.947482e-01
  2.510344e+01    9.303569e-01
  2.513519e+01    9.302089e-01
  2.516694e+01    9.114212e-01
  2.519869e+01    9.264033e-01
  2.523044e+01    9.386469e-01
  2.526219e+01    9.200535e-01
  2.529395e+01    9.438117e-01
  2.532570e+01    9.566560e-01
  2.535745e+01    9.779599e-01
  2.538920e+01    9.877539e-01
  2.542095e+01    1.026000e+00
  2.545270e+01    1.052800e+00
  2.548445e+01    1.041592e+00
  2.551620e+01    1.074018e+00
  2.554795e+01    1.111240e+00
  2.557971e+01    1.161551e+00
  2.561146e+01    1.251165e+00
  2.564321e+01    1.284456e+00
  2.567496e+01    1.429129e+00
  2.570671e+01    1.609489e+00
  2.573846e+01    1.879091e+00
  2.577021e+01    2.245733e+00
  2.580196e+01    2.801244e+00
  2.583371e+01    3.653531e+00
  2.586547e+01    4.705205e+00
  2.589722e+01    5.856201e+00
  2.592897e+01    6.813753e+00
  2.596072e+01    7.162981e+00
  2.599247e+01    6.623835e+00
  2.602422e+01    5.293272e+00
  2.605597e+01    3.940206e+00
  2.608772e+01    3.027629e+00
  2.611948e+01    2.377617e+00
  2.615123e+01    1.953879e+00
  2.618298e+01    1.670552e+00
  2.621473e+01    1.489834e+00
  2.624648e+01    1.319456e+00
  2.627823e+01    1.244998e+00
  2.630998e+01    1.156806e+00
  2.634173e+01    1.124767e+00
  2.637348e+01    1.107816e+00
  2.640524e+01    1.053149e+00
  2.643699e+01    1.027222e+00
  2.646874e+01    1.051329e+00
  2.650049e+01    1.021015e+00
  2.653224e+01    1.014986e+00
  2.656399e+01    1.002246e+00
  2.659574e+01    1.002539e+00
  2.662749e+01    9.838279e-01
  2.665924e+01    9.647043e-01
  2.669100e+01    9.924088e-01
  2.672275e+01    9.779966e-01
  2.675450e+01    9.832779e-01
  2.678625e+01    9.770690e-01
  2.681800e+01    9.567869e-01
  2.684975e+01    9.971952e-01
  2.688150e+01    9.941801e-01
  2.691325e+01    9.696643e-01
  2.694501e+01    9.949794e-01
  2.697676e+01    1.060355e+00
  2.700851e+01    1.108234e+00
  2.704026e+01    1.173130e+00
  2.707201e+01    1.334409e+00
  2.710376e+01    1.501821e+00
  2.713551e+01    1.709399e+00
  2.716726e+01    1.986400e+00
  2.719901e+01    2.150870e+00
  2.723077e+01    2.151016e+00
  2.726252e+01    1.967400e+00
  2.729427e+01    1.679674e+00
  2.732602e+01    1.462173e+00
  2.735777e+01    1.290260e+00
  2.738952e+01    1.148396e+00
  2.742127e+01    1.119214e+00
  2.745302e+01    1.026372e+00
  2.748477e+01    9.989364e-01
  2.751653e+01    9.747065e-01
  2.754828e+01    9.674144e-01
  2.758003e+01    9.402777e-01
  2.761178e+01    9.414838e-01
  2.764353e+01    9.209810e-01
  2.767528e+01    9.122696e-01
  2.770703e+01    9.078492e-01
  2.773878e+01    9.060217e-01
  2.777054e+01    9.192545e-01
  2.780229e+01    8.996707e-01
  2.783404e+01    8.845472e-01
  2.786579e+01    8.955144e-01
  2.789754e+01    8.640403e-01
  2.792929e+01    8.721941e-01
  2.796104e+01    8.915811e-01
  2.799279e+01    8.762885e-01
  2.802454e+01    8.724723e-01
  2.805630e+01    8.551575e-01
  2.808805e+01    8.514443e-01
  2.811980e+01    8.587638e-01
  2.815155e+01    8.694818e-01
  2.818330e+01    8.581812e-01
  2.821505e+01    8.320718e-01
  2.824680e+01    8.268796e-01
  2.827855e+01    8.671401e-01
  2.831030e+01    8.413060e-01
  2.834206e+01    8.493165e-01
  2.837381e+01    8.463196e-01
  2.840556e+01    8.456483e-01
  2.843731e+01    8.281623e-01
  2.846906e+01    8.402711e-01
  2.850081e+01    8.563349e-01
  2.853256e+01    8.351970e-01
  2.856431e+01    8.466196e-01
  2.859606e+01    8.376122e-01
  2.862782e+01    8.526891e-01
  2.865957e+01    8.387657e-01
  2.869132e+01    8.380025e-01
  2.872307e+01    8.524342e-01
  2.875482e+01    8.403288e-01
  2.878657e+01    8.232507e-01
  2.881832e+01    8.061358e-01
  2.885007e+01    8.328177e-01
  2.888183e+01    8.545607e-01
  2.891358e+01    8.214669e-01
  2.894533e+01    8.187457e-01
  2.897708e+01    8.001670e-01
  2.900883e+01    8.291327e-01
  2.904058e+01    8.217633e-01
  2.907233e+01    8.141462e-01
  2.910408e+01    8.194268e-01
  2.913583e+01    8.147960e-01
  2.916759e+01    8.001531e-01
  2.919934e+01    8.028053e-01
  2.923109e+01    8.254195e-01
  2.926284e+01    8.099272e-01
  2.929459e+01    8.206906e-01
  2.932634e+01    7.956589e-01
  2.935809e+01    8.044955e-01
  2.938984e+01    8.116466e-01
  2.942159e+01    8.152561e-01
  2.945335e+01    8.202170e-01
  2.948510e+01    8.146719e-01
  2.951685e+01    7.889851e-01
  2.954860e+01    8.111072e-01
  2.958035e+01    8.014337e-01
  2.961210e+01    8.019313e-01
  2.964385e+01    8.134874e-01
  2.967560e+01    7.833161e-01
  2.970736e+01    7.997673e-01
  2.973911e+01    8.056126e-01
  2.977086e+01    8.025266e-01
  2.980261e+01    7.871646e-01
  2.983436e+01    8.005967e-01
  2.986611e+01    7.983604e-01
  2.989786e+01    7.906519e-01
  2.992961e+01    7.986085e-01
  2.996136e+01    8.074198e-01
  2.999312e+01    7.989629e-01
  3.002487e+01    8.280367e-01
  3.005662e+01    8.216961e-01
  3.008837e+01    7.923447e-01
  3.012012e+01    7.985252e-01
  3.015187e+01    7.801478e-01
  3.018362e+01    7.792130e-01
  3.021537e+01    7.874621e-01
  3.024712e+01    7.998657e-01
  3.027888e+01    7.943344e-01
  3.031063e+01    8.035116e-01
  3.034238e+01    8.048856e-01
  3.037413e+01    7.829095e-01
  3.040588e+01    7.819402e-01
  3.043763e+01    7.831046e-01
  3.046938e+01    7.845598e-01
  3.050113e+01    7.954369e-01
  3.053288e+01    7.722169e-01
  3.056464e+01    7.926576e-01
  3.059639e+01    7.744160e-01
  3.062814e+01    8.002667e-01
  3.065989e+01    7.848822e-01
  3.069164e+01    7.596462e-01
  3.072339e+01    7.912249e-01
  3.075514e+01    7.901253e-01
  3.078689e+01    7.671700e-01
  3.081865e+01    7.745662e-01
  3.085040e+01    7.972683e-01
  3.088215e+01    7.874234e-01
  3.091390e+01    7.957948e-01
  3.094565e+01    7.892668e-01
  3.097740e+01    7.918633e-01
  3.100915e+01    7.736854e-01
  3.104090e+01    7.844278e-01
  3.107265e+01    7.852730e-01
  3.110441e+01    7.722160e-01
  3.113616e+01    7.849984e-01
  3.116791e+01    7.895721e-01
  3.119966e+01    7.851834e-01
  3.123141e+01    7.890725e-01
  3.126316e+01    8.072975e-01
  3.129491e+01    7.945514e-01
  3.132666e+01    7.919605e-01
  3.135841e+01    7.844672e-01
  3.139017e+01    8.064164e-01
  3.142192e+01    8.153551e-01
  3.145367e+01    8.321650e-01
  3.148542e+01    8.557624e-01
  3.151717e+01    8.289487e-01
  3.154892e+01    8.589971e-01
  3.158067e+01    8.710709e-01
  3.161242e+01    9.078466e-01
  3.164418e+01    9.454101e-01
  3.167593e+01    9.651161e-01
  3.170768e+01    1.042812e+00
  3.173943e+01    1.147267e+00
  3.177118e+01    1.281940e+00
  3.180293e+01    1.461764e+00
  3.183468e+01    1.705838e+00
  3.186643e+01    1.955875e+00
  3.189818e+01    2.078966e+00
  3.192994e+01    2.009112e+00
  3.196169e+01    1.867129e+00
  3.199344e+01    1.552796e+00
  3.202519e+01    1.335449e+00
  3.205694e+01    1.153647e+00
  3.208869e+01    1.033087e+00
  3.212044e+01    9.947280e-01
  3.215219e+01    9.070975e-01
  3.218394e+01    8.898875e-01
  3.221570e+01    8.765282e-01
  3.224745e+01    8.200605e-01
  3.227920e+01    8.279148e-01
  3.231095e+01    8.271646e-01
  3.234270e+01    7.881671e-01
  3.237445e+01    8.134627e-01
  3.240620e+01    7.807955e-01
  3.243795e+01    7.908058e-01
  3.246970e+01    7.695019e-01
  3.250146e+01    7.675297e-01
  3.253321e+01    7.995387e-01
  3.254908e+01    7.812531e-01