File: XRD/Reaction conditions/2024-07-27_003_Ru-CGO-ex_Reaction_dwell_000023_data_000116.dat
# == pyFAI calibration ==
# Distance Sample to Detector: 0.4 m
# PONI: 9.750e-02, 1.135e-01 m
# Rotations: -0.000175 0.000000 -0.000000 rad
#
# == Fit2d calibration ==
# Distance Sample-beamCenter: 400.000 mm
# Center: x=1514.000, y=1300.000 pix
# Tilt: 0.010 deg  TiltPlanRot: 0.010 deg
#
# Detector Detector	 Spline= None	 PixelSize= 7.500e-05, 7.500e-05 m
#    Detector has a mask: False
#    Detector has a dark current: False
#    detector has a flat field: False
#
# Wavelength: 6.888e-11 m
# Mask applied: user provided
# Dark current applied: False
# Flat field applied: False
# Polarization factor: 0.99
# Normalization factor: 1.0
# --> /home/myspot/data/2024_07_Rosario/Ru-CGO-ex/2024-07-27_003_Ru-CGO-ex_Reaction_dwell_000023_data_000116.dat
#       q_nm^-1             I
  2.003187e-02    1.424646e-01
  5.178302e-02    6.858626e-02
  8.353417e-02    1.870029e-01
  1.152853e-01    7.272012e-02
  1.470365e-01    4.691579e-02
  1.787876e-01    0.000000e+00
  2.105388e-01    3.230736e-02
  2.422899e-01    5.565881e-02
  2.740411e-01    4.526148e-02
  3.057922e-01    2.892513e-02
  3.375433e-01    3.824325e-02
  3.692945e-01    1.765951e-02
  4.010456e-01    1.181575e-02
  4.327968e-01    2.763506e-02
  4.645479e-01    2.463388e-02
  4.962991e-01    4.947400e-02
  5.280502e-01    4.346500e-02
  5.598014e-01    5.137022e-02
  5.915525e-01    5.416027e-02
  6.233037e-01    4.464321e-02
  6.550548e-01    2.380083e-02
  6.868060e-01    4.299977e-02
  7.185571e-01    6.301925e-02
  7.503083e-01    5.178613e-02
  7.820594e-01    1.135667e-01
  8.138106e-01    1.890528e-01
  8.455617e-01    3.588070e-01
  8.773129e-01    4.605493e-01
  9.090640e-01    7.767361e-01
  9.408152e-01    8.239428e-01
  9.725663e-01    1.128930e+00
  1.004317e+00    1.114290e+00
  1.036069e+00    1.423619e+00
  1.067820e+00    1.498398e+00
  1.099571e+00    1.639774e+00
  1.131322e+00    1.555664e+00
  1.163073e+00    1.614816e+00
  1.194824e+00    1.749452e+00
  1.226575e+00    2.163445e+00
  1.258327e+00    2.518219e+00
  1.290078e+00    2.784350e+00
  1.321829e+00    2.834188e+00
  1.353580e+00    2.832652e+00
  1.385331e+00    2.710629e+00
  1.417082e+00    2.756993e+00
  1.448834e+00    2.954302e+00
  1.480585e+00    3.220571e+00
  1.512336e+00    2.957907e+00
  1.544087e+00    3.092293e+00
  1.575838e+00    3.251752e+00
  1.607589e+00    3.212903e+00
  1.639340e+00    3.185430e+00
  1.671092e+00    3.263022e+00
  1.702843e+00    3.021377e+00
  1.734594e+00    3.154749e+00
  1.766345e+00    3.124066e+00
  1.798096e+00    3.191232e+00
  1.829847e+00    2.976519e+00
  1.861598e+00    3.104586e+00
  1.893350e+00    3.144453e+00
  1.925101e+00    3.044912e+00
  1.956852e+00    3.122958e+00
  1.988603e+00    3.156485e+00
  2.020354e+00    3.106543e+00
  2.052105e+00    3.182347e+00
  2.083856e+00    3.040785e+00
  2.115608e+00    3.053283e+00
  2.147359e+00    3.065090e+00
  2.179110e+00    3.192539e+00
  2.210861e+00    2.931234e+00
  2.242612e+00    3.119340e+00
  2.274363e+00    3.162822e+00
  2.306115e+00    3.222415e+00
  2.337866e+00    3.115283e+00
  2.369617e+00    3.201250e+00
  2.401368e+00    3.242100e+00
  2.433119e+00    3.189369e+00
  2.464870e+00    3.192469e+00
  2.496621e+00    3.131823e+00
  2.528373e+00    3.240660e+00
  2.560124e+00    3.233305e+00
  2.591875e+00    3.138734e+00
  2.623626e+00    3.146680e+00
  2.655377e+00    3.250889e+00
  2.687128e+00    3.429806e+00
  2.718879e+00    3.270119e+00
  2.750631e+00    3.211421e+00
  2.782382e+00    3.261007e+00
  2.814133e+00    3.377868e+00
  2.845884e+00    3.330551e+00
  2.877635e+00    3.256303e+00
  2.909386e+00    3.453394e+00
  2.941137e+00    3.348299e+00
  2.972889e+00    3.308603e+00
  3.004640e+00    3.339567e+00
  3.036391e+00    3.405372e+00
  3.068142e+00    3.312814e+00
  3.099893e+00    3.392851e+00
  3.131644e+00    3.396741e+00
  3.163395e+00    3.380479e+00
  3.195147e+00    3.380030e+00
  3.226898e+00    3.384941e+00
  3.258649e+00    3.514498e+00
  3.290400e+00    3.447748e+00
  3.322151e+00    3.555273e+00
  3.353902e+00    3.443698e+00
  3.385654e+00    3.395236e+00
  3.417405e+00    3.435044e+00
  3.449156e+00    3.440126e+00
  3.480907e+00    3.297778e+00
  3.512658e+00    3.543056e+00
  3.544409e+00    3.424031e+00
  3.576160e+00    3.389877e+00
  3.607912e+00    3.558452e+00
  3.639663e+00    3.507726e+00
  3.671414e+00    3.331525e+00
  3.703165e+00    3.485854e+00
  3.734916e+00    3.472371e+00
  3.766667e+00    3.490114e+00
  3.798418e+00    3.473067e+00
  3.830170e+00    3.579190e+00
  3.861921e+00    3.522145e+00
  3.893672e+00    3.455577e+00
  3.925423e+00    3.498049e+00
  3.957174e+00    3.506600e+00
  3.988925e+00    3.457086e+00
  4.020676e+00    3.589478e+00
  4.052428e+00    3.463118e+00
  4.084179e+00    3.565177e+00
  4.115930e+00    3.608556e+00
  4.147681e+00    3.525078e+00
  4.179432e+00    3.530369e+00
  4.211183e+00    3.467360e+00
  4.242935e+00    3.577320e+00
  4.274686e+00    3.517171e+00
  4.306437e+00    3.619157e+00
  4.338188e+00    3.601943e+00
  4.369939e+00    3.587133e+00
  4.401690e+00    3.585053e+00
  4.433441e+00    3.616282e+00
  4.465193e+00    3.655199e+00
  4.496944e+00    3.580342e+00
  4.528695e+00    3.548927e+00
  4.560446e+00    3.567032e+00
  4.592197e+00    3.613729e+00
  4.623948e+00    3.662127e+00
  4.655699e+00    3.668931e+00
  4.687451e+00    3.526536e+00
  4.719202e+00    3.626772e+00
  4.750953e+00    3.596514e+00
  4.782704e+00    3.697390e+00
  4.814455e+00    3.577248e+00
  4.846206e+00    3.690266e+00
  4.877957e+00    3.668171e+00
  4.909709e+00    3.599425e+00
  4.941460e+00    3.691861e+00
  4.973211e+00    3.640013e+00
  5.004962e+00    3.634840e+00
  5.036713e+00    3.650558e+00
  5.068464e+00    3.652700e+00
  5.100216e+00    3.683812e+00
  5.131967e+00    3.636090e+00
  5.163718e+00    3.658314e+00
  5.195469e+00    3.656529e+00
  5.227220e+00    3.656564e+00
  5.258971e+00    3.698813e+00
  5.290722e+00    3.633463e+00
  5.322474e+00    3.691788e+00
  5.354225e+00    3.708144e+00
  5.385976e+00    3.658621e+00
  5.417727e+00    3.634324e+00
  5.449478e+00    3.661690e+00
  5.481229e+00    3.599567e+00
  5.512980e+00    3.567544e+00
  5.544732e+00    3.647217e+00
  5.576483e+00    3.550311e+00
  5.608234e+00    3.618987e+00
  5.639985e+00    3.635750e+00
  5.671736e+00    3.685904e+00
  5.703487e+00    3.559044e+00
  5.735238e+00    3.570475e+00
  5.766990e+00    3.681509e+00
  5.798741e+00    3.613025e+00
  5.830492e+00    3.586640e+00
  5.862243e+00    3.644148e+00
  5.893994e+00    3.575026e+00
  5.925745e+00    3.607372e+00
  5.957497e+00    3.619102e+00
  5.989248e+00    3.569823e+00
  6.020999e+00    3.466981e+00
  6.052750e+00    3.541033e+00
  6.084501e+00    3.552027e+00
  6.116252e+00    3.611419e+00
  6.148003e+00    3.609612e+00
  6.179755e+00    3.613522e+00
  6.211506e+00    3.556916e+00
  6.243257e+00    3.463336e+00
  6.275008e+00    3.595093e+00
  6.306759e+00    3.549556e+00
  6.338510e+00    3.542989e+00
  6.370261e+00    3.526083e+00
  6.402013e+00    3.548575e+00
  6.433764e+00    3.597260e+00
  6.465515e+00    3.599049e+00
  6.497266e+00    3.563088e+00
  6.529017e+00    3.665414e+00
  6.560768e+00    3.666804e+00
  6.592519e+00    3.560233e+00
  6.624271e+00    3.574444e+00
  6.656022e+00    3.537601e+00
  6.687773e+00    3.576043e+00
  6.719524e+00    3.434934e+00
  6.751275e+00    3.569266e+00
  6.783026e+00    3.495538e+00
  6.814777e+00    3.569881e+00
  6.846529e+00    3.495432e+00
  6.878280e+00    3.526227e+00
  6.910031e+00    3.489099e+00
  6.941782e+00    3.560286e+00
  6.973533e+00    3.532206e+00
  7.005284e+00    3.558414e+00
  7.037036e+00    3.524926e+00
  7.068787e+00    3.573715e+00
  7.100538e+00    3.582812e+00
  7.132289e+00    3.558264e+00
  7.164040e+00    3.551131e+00
  7.195791e+00    3.439044e+00
  7.227542e+00    3.507757e+00
  7.259294e+00    3.477247e+00
  7.291045e+00    3.538913e+00
  7.322796e+00    3.548824e+00
  7.354547e+00    3.495728e+00
  7.386298e+00    3.547917e+00
  7.418049e+00    3.465852e+00
  7.449800e+00    3.511091e+00
  7.481552e+00    3.466176e+00
  7.513303e+00    3.423255e+00
  7.545054e+00    3.384554e+00
  7.576805e+00    3.416243e+00
  7.608556e+00    3.466516e+00
  7.640307e+00    3.449941e+00
  7.672058e+00    3.424868e+00
  7.703810e+00    3.507184e+00
  7.735561e+00    3.502758e+00
  7.767312e+00    3.458913e+00
  7.799063e+00    3.480270e+00
  7.830814e+00    3.398931e+00
  7.862565e+00    3.472879e+00
  7.894317e+00    3.530319e+00
  7.926068e+00    3.506869e+00
  7.957819e+00    3.352941e+00
  7.989570e+00    3.470656e+00
  8.021321e+00    3.380703e+00
  8.053072e+00    3.449686e+00
  8.084823e+00    3.349117e+00
  8.116575e+00    3.407574e+00
  8.148326e+00    3.407311e+00
  8.180077e+00    3.455172e+00
  8.211828e+00    3.446157e+00
  8.243579e+00    3.539211e+00
  8.275330e+00    3.431244e+00
  8.307081e+00    3.447939e+00
  8.338833e+00    3.402410e+00
  8.370584e+00    3.280799e+00
  8.402335e+00    3.413893e+00
  8.434086e+00    3.448496e+00
  8.465837e+00    3.463536e+00
  8.497588e+00    3.392466e+00
  8.529339e+00    3.333713e+00
  8.561091e+00    3.414355e+00
  8.592842e+00    3.350254e+00
  8.624593e+00    3.398838e+00
  8.656344e+00    3.380537e+00
  8.688095e+00    3.324661e+00
  8.719846e+00    3.353513e+00
  8.751598e+00    3.317957e+00
  8.783349e+00    3.282869e+00
  8.815100e+00    3.372110e+00
  8.846851e+00    3.313748e+00
  8.878602e+00    3.318595e+00
  8.910353e+00    3.308465e+00
  8.942104e+00    3.343017e+00
  8.973856e+00    3.306521e+00
  9.005607e+00    3.286524e+00
  9.037358e+00    3.408308e+00
  9.069109e+00    3.241265e+00
  9.100860e+00    3.330530e+00
  9.132611e+00    3.270675e+00
  9.164362e+00    3.287632e+00
  9.196114e+00    3.274225e+00
  9.227865e+00    3.231634e+00
  9.259616e+00    3.237843e+00
  9.291367e+00    3.258563e+00
  9.323118e+00    3.251449e+00
  9.354869e+00    3.224297e+00
  9.386620e+00    3.288125e+00
  9.418372e+00    3.177037e+00
  9.450123e+00    3.200466e+00
  9.481874e+00    3.240036e+00
  9.513625e+00    3.195680e+00
  9.545376e+00    3.121213e+00
  9.577127e+00    3.254233e+00
  9.608878e+00    3.163316e+00
  9.640630e+00    3.236175e+00
  9.672381e+00    3.215446e+00
  9.704132e+00    3.175235e+00
  9.735883e+00    3.144949e+00
  9.767634e+00    3.152953e+00
  9.799385e+00    3.129106e+00
  9.831137e+00    3.160759e+00
  9.862888e+00    3.153950e+00
  9.894639e+00    3.187562e+00
  9.926390e+00    3.158031e+00
  9.958141e+00    3.155697e+00
  9.989892e+00    3.169064e+00
  1.002164e+01    3.149658e+00
  1.005339e+01    3.162812e+00
  1.008515e+01    3.113215e+00
  1.011690e+01    3.121811e+00
  1.014865e+01    3.126029e+00
  1.018040e+01    3.095785e+00
  1.021215e+01    3.027713e+00
  1.024390e+01    3.063515e+00
  1.027565e+01    3.057146e+00
  1.030740e+01    3.099813e+00
  1.033915e+01    3.030544e+00
  1.037091e+01    3.052554e+00
  1.040266e+01    3.039336e+00
  1.043441e+01    3.055454e+00
  1.046616e+01    3.010388e+00
  1.049791e+01    3.032754e+00
  1.052966e+01    3.014891e+00
  1.056141e+01    3.040096e+00
  1.059316e+01    2.983688e+00
  1.062492e+01    2.937399e+00
  1.065667e+01    3.025905e+00
  1.068842e+01    3.026260e+00
  1.072017e+01    2.992319e+00
  1.075192e+01    3.010594e+00
  1.078367e+01    2.974831e+00
  1.081542e+01    2.970148e+00
  1.084717e+01    2.988812e+00
  1.087892e+01    2.889563e+00
  1.091068e+01    2.929818e+00
  1.094243e+01    2.937093e+00
  1.097418e+01    2.838445e+00
  1.100593e+01    2.936349e+00
  1.103768e+01    2.887866e+00
  1.106943e+01    2.905301e+00
  1.110118e+01    2.912467e+00
  1.113293e+01    2.866536e+00
  1.116468e+01    2.883405e+00
  1.119644e+01    2.819404e+00
  1.122819e+01    2.796982e+00
  1.125994e+01    2.829912e+00
  1.129169e+01    2.860831e+00
  1.132344e+01    2.793645e+00
  1.135519e+01    2.835800e+00
  1.138694e+01    2.853851e+00
  1.141869e+01    2.819621e+00
  1.145045e+01    2.798234e+00
  1.148220e+01    2.794403e+00
  1.151395e+01    2.823226e+00
  1.154570e+01    2.799466e+00
  1.157745e+01    2.780039e+00
  1.160920e+01    2.787924e+00
  1.164095e+01    2.708588e+00
  1.167270e+01    2.739538e+00
  1.170445e+01    2.775085e+00
  1.173621e+01    2.740702e+00
  1.176796e+01    2.739955e+00
  1.179971e+01    2.810245e+00
  1.183146e+01    2.756746e+00
  1.186321e+01    2.780613e+00
  1.189496e+01    2.717509e+00
  1.192671e+01    2.720298e+00
  1.195846e+01    2.722773e+00
  1.199021e+01    2.736467e+00
  1.202197e+01    2.721751e+00
  1.205372e+01    2.719454e+00
  1.208547e+01    2.705581e+00
  1.211722e+01    2.729080e+00
  1.214897e+01    2.761506e+00
  1.218072e+01    2.711294e+00
  1.221247e+01    2.696802e+00
  1.224422e+01    2.715309e+00
  1.227597e+01    2.640685e+00
  1.230773e+01    2.682048e+00
  1.233948e+01    2.718353e+00
  1.237123e+01    2.699952e+00
  1.240298e+01    2.708236e+00
  1.243473e+01    2.706645e+00
  1.246648e+01    2.710780e+00
  1.249823e+01    2.679878e+00
  1.252998e+01    2.664414e+00
  1.256174e+01    2.729048e+00
  1.259349e+01    2.748272e+00
  1.262524e+01    2.805165e+00
  1.265699e+01    2.767904e+00
  1.268874e+01    2.806692e+00
  1.272049e+01    2.940464e+00
  1.275224e+01    2.909305e+00
  1.278399e+01    2.978179e+00
  1.281574e+01    3.050462e+00
  1.284750e+01    3.196927e+00
  1.287925e+01    3.444957e+00
  1.291100e+01    3.669491e+00
  1.294275e+01    4.129467e+00
  1.297450e+01    4.855964e+00
  1.300625e+01    5.988244e+00
  1.303800e+01    7.683317e+00
  1.306975e+01    1.016986e+01
  1.310150e+01    1.270213e+01
  1.313326e+01    1.489942e+01
  1.316501e+01    1.642310e+01
  1.319676e+01    1.565361e+01
  1.322851e+01    1.257748e+01
  1.326026e+01    9.086537e+00
  1.329201e+01    6.777556e+00
  1.332376e+01    5.395728e+00
  1.335551e+01    4.446018e+00
  1.338727e+01    3.876470e+00
  1.341902e+01    3.488325e+00
  1.345077e+01    3.227723e+00
  1.348252e+01    3.022279e+00
  1.351427e+01    2.868093e+00
  1.354602e+01    2.808927e+00
  1.357777e+01    2.773220e+00
  1.360952e+01    2.688868e+00
  1.364127e+01    2.597420e+00
  1.367303e+01    2.629949e+00
  1.370478e+01    2.578981e+00
  1.373653e+01    2.527902e+00
  1.376828e+01    2.563896e+00
  1.380003e+01    2.501543e+00
  1.383178e+01    2.438625e+00
  1.386353e+01    2.427009e+00
  1.389528e+01    2.441270e+00
  1.392703e+01    2.418204e+00
  1.395879e+01    2.400896e+00
  1.399054e+01    2.371967e+00
  1.402229e+01    2.338205e+00
  1.405404e+01    2.320632e+00
  1.408579e+01    2.309849e+00
  1.411754e+01    2.325921e+00
  1.414929e+01    2.363820e+00
  1.418104e+01    2.316220e+00
  1.421279e+01    2.280329e+00
  1.424455e+01    2.256404e+00
  1.427630e+01    2.252484e+00
  1.430805e+01    2.245954e+00
  1.433980e+01    2.265967e+00
  1.437155e+01    2.260156e+00
  1.440330e+01    2.265121e+00
  1.443505e+01    2.218347e+00
  1.446680e+01    2.217088e+00
  1.449856e+01    2.231324e+00
  1.453031e+01    2.242023e+00
  1.456206e+01    2.248165e+00
  1.459381e+01    2.227643e+00
  1.462556e+01    2.223128e+00
  1.465731e+01    2.214460e+00
  1.468906e+01    2.206760e+00
  1.472081e+01    2.252747e+00
  1.475256e+01    2.216542e+00
  1.478432e+01    2.203676e+00
  1.481607e+01    2.218349e+00
  1.484782e+01    2.170886e+00
  1.487957e+01    2.220739e+00
  1.491132e+01    2.329284e+00
  1.494307e+01    2.332435e+00
  1.497482e+01    2.336059e+00
  1.500657e+01    2.456337e+00
  1.503832e+01    2.567634e+00
  1.507008e+01    2.819816e+00
  1.510183e+01    3.199074e+00
  1.513358e+01    3.774399e+00
  1.516533e+01    4.481167e+00
  1.519708e+01    5.168075e+00
  1.522883e+01    5.703857e+00
  1.526058e+01    5.841880e+00
  1.529233e+01    5.504132e+00
  1.532409e+01    4.761936e+00
  1.535584e+01    3.743717e+00
  1.538759e+01    3.191569e+00
  1.541934e+01    2.769482e+00
  1.545109e+01    2.513893e+00
  1.548284e+01    2.371762e+00
  1.551459e+01    2.219643e+00
  1.554634e+01    2.167318e+00
  1.557809e+01    2.123373e+00
  1.560985e+01    2.085175e+00
  1.564160e+01    2.045661e+00
  1.567335e+01    2.020732e+00
  1.570510e+01    2.013957e+00
  1.573685e+01    2.017172e+00
  1.576860e+01    1.965373e+00
  1.580035e+01    1.922136e+00
  1.583210e+01    1.954367e+00
  1.586385e+01    1.925577e+00
  1.589561e+01    1.887265e+00
  1.592736e+01    1.911710e+00
  1.595911e+01    1.897871e+00
  1.599086e+01    1.868451e+00
  1.602261e+01    1.867296e+00
  1.605436e+01    1.853396e+00
  1.608611e+01    1.878708e+00
  1.611786e+01    1.838992e+00
  1.614961e+01    1.834102e+00
  1.618137e+01    1.884981e+00
  1.621312e+01    1.835938e+00
  1.624487e+01    1.807142e+00
  1.627662e+01    1.815914e+00
  1.630837e+01    1.818113e+00
  1.634012e+01    1.820666e+00
  1.637187e+01    1.779416e+00
  1.640362e+01    1.773733e+00
  1.643538e+01    1.777599e+00
  1.646713e+01    1.753629e+00
  1.649888e+01    1.804212e+00
  1.653063e+01    1.765115e+00
  1.656238e+01    1.799338e+00
  1.659413e+01    1.707049e+00
  1.662588e+01    1.706320e+00
  1.665763e+01    1.738768e+00
  1.668938e+01    1.695262e+00
  1.672114e+01    1.693231e+00
  1.675289e+01    1.721474e+00
  1.678464e+01    1.719279e+00
  1.681639e+01    1.732188e+00
  1.684814e+01    1.680605e+00
  1.687989e+01    1.679859e+00
  1.691164e+01    1.704062e+00
  1.694339e+01    1.734377e+00
  1.697514e+01    1.658992e+00
  1.700690e+01    1.672778e+00
  1.703865e+01    1.651062e+00
  1.707040e+01    1.674993e+00
  1.710215e+01    1.674555e+00
  1.713390e+01    1.652879e+00
  1.716565e+01    1.607759e+00
  1.719740e+01    1.640624e+00
  1.722915e+01    1.629978e+00
  1.726091e+01    1.630772e+00
  1.729266e+01    1.619514e+00
  1.732441e+01    1.624855e+00
  1.735616e+01    1.605197e+00
  1.738791e+01    1.602660e+00
  1.741966e+01    1.590722e+00
  1.745141e+01    1.621233e+00
  1.748316e+01    1.588806e+00
  1.751491e+01    1.584650e+00
  1.754667e+01    1.570246e+00
  1.757842e+01    1.598890e+00
  1.761017e+01    1.559746e+00
  1.764192e+01    1.570241e+00
  1.767367e+01    1.576439e+00
  1.770542e+01    1.565520e+00
  1.773717e+01    1.529146e+00
  1.776892e+01    1.534025e+00
  1.780067e+01    1.529352e+00
  1.783243e+01    1.504480e+00
  1.786418e+01    1.524881e+00
  1.789593e+01    1.509426e+00
  1.792768e+01    1.535632e+00
  1.795943e+01    1.548800e+00
  1.799118e+01    1.524841e+00
  1.802293e+01    1.513434e+00
  1.805468e+01    1.491276e+00
  1.808643e+01    1.522683e+00
  1.811819e+01    1.478894e+00
  1.814994e+01    1.497168e+00
  1.818169e+01    1.499133e+00
  1.821344e+01    1.513375e+00
  1.824519e+01    1.496538e+00
  1.827694e+01    1.489420e+00
  1.830869e+01    1.486841e+00
  1.834044e+01    1.479901e+00
  1.837220e+01    1.459516e+00
  1.840395e+01    1.476425e+00
  1.843570e+01    1.434236e+00
  1.846745e+01    1.447273e+00
  1.849920e+01    1.464994e+00
  1.853095e+01    1.428862e+00
  1.856270e+01    1.450803e+00
  1.859445e+01    1.422720e+00
  1.862620e+01    1.396609e+00
  1.865796e+01    1.449843e+00
  1.868971e+01    1.431235e+00
  1.872146e+01    1.411400e+00
  1.875321e+01    1.416768e+00
  1.878496e+01    1.404436e+00
  1.881671e+01    1.383558e+00
  1.884846e+01    1.409581e+00
  1.888021e+01    1.388175e+00
  1.891196e+01    1.408122e+00
  1.894372e+01    1.401855e+00
  1.897547e+01    1.373551e+00
  1.900722e+01    1.390638e+00
  1.903897e+01    1.365193e+00
  1.907072e+01    1.382202e+00
  1.910247e+01    1.364451e+00
  1.913422e+01    1.358917e+00
  1.916597e+01    1.349053e+00
  1.919773e+01    1.363607e+00
  1.922948e+01    1.343909e+00
  1.926123e+01    1.366715e+00
  1.929298e+01    1.356060e+00
  1.932473e+01    1.375851e+00
  1.935648e+01    1.363635e+00
  1.938823e+01    1.315417e+00
  1.941998e+01    1.384356e+00
  1.945173e+01    1.349286e+00
  1.948349e+01    1.333627e+00
  1.951524e+01    1.314619e+00
  1.954699e+01    1.345584e+00
  1.957874e+01    1.353296e+00
  1.961049e+01    1.329126e+00
  1.964224e+01    1.303432e+00
  1.967399e+01    1.329974e+00
  1.970574e+01    1.329637e+00
  1.973749e+01    1.296495e+00
  1.976925e+01    1.282566e+00
  1.980100e+01    1.304007e+00
  1.983275e+01    1.289698e+00
  1.986450e+01    1.277990e+00
  1.989625e+01    1.313738e+00
  1.992800e+01    1.286962e+00
  1.995975e+01    1.289943e+00
  1.999150e+01    1.277321e+00
  2.002325e+01    1.273682e+00
  2.005501e+01    1.304523e+00
  2.008676e+01    1.246584e+00
  2.011851e+01    1.276497e+00
  2.015026e+01    1.282674e+00
  2.018201e+01    1.279467e+00
  2.021376e+01    1.263166e+00
  2.024551e+01    1.248947e+00
  2.027726e+01    1.260949e+00
  2.030902e+01    1.268107e+00
  2.034077e+01    1.255477e+00
  2.037252e+01    1.255108e+00
  2.040427e+01    1.264505e+00
  2.043602e+01    1.223193e+00
  2.046777e+01    1.258388e+00
  2.049952e+01    1.242656e+00
  2.053127e+01    1.224434e+00
  2.056302e+01    1.231596e+00
  2.059478e+01    1.232749e+00
  2.062653e+01    1.241674e+00
  2.065828e+01    1.235735e+00
  2.069003e+01    1.226069e+00
  2.072178e+01    1.246574e+00
  2.075353e+01    1.213217e+00
  2.078528e+01    1.242697e+00
  2.081703e+01    1.227043e+00
  2.084878e+01    1.241922e+00
  2.088054e+01    1.210501e+00
  2.091229e+01    1.220007e+00
  2.094404e+01    1.265123e+00
  2.097579e+01    1.205366e+00
  2.100754e+01    1.219272e+00
  2.103929e+01    1.216987e+00
  2.107104e+01    1.227484e+00
  2.110279e+01    1.248261e+00
  2.113455e+01    1.231895e+00
  2.116630e+01    1.228307e+00
  2.119805e+01    1.244750e+00
  2.122980e+01    1.238691e+00
  2.126155e+01    1.248890e+00
  2.129330e+01    1.268717e+00
  2.132505e+01    1.273563e+00
  2.135680e+01    1.287019e+00
  2.138855e+01    1.306995e+00
  2.142031e+01    1.325388e+00
  2.145206e+01    1.344633e+00
  2.148381e+01    1.409866e+00
  2.151556e+01    1.475480e+00
  2.154731e+01    1.528075e+00
  2.157906e+01    1.620817e+00
  2.161081e+01    1.747957e+00
  2.164256e+01    1.990888e+00
  2.167431e+01    2.299707e+00
  2.170607e+01    2.783609e+00
  2.173782e+01    3.552200e+00
  2.176957e+01    4.589017e+00
  2.180132e+01    5.855049e+00
  2.183307e+01    7.201673e+00
  2.186482e+01    8.388554e+00
  2.189657e+01    9.014910e+00
  2.192832e+01    8.205018e+00
  2.196007e+01    6.598353e+00
  2.199183e+01    4.883140e+00
  2.202358e+01    3.620977e+00
  2.205533e+01    2.853218e+00
  2.208708e+01    2.344355e+00
  2.211883e+01    1.995013e+00
  2.215058e+01    1.770596e+00
  2.218233e+01    1.593751e+00
  2.221408e+01    1.519445e+00
  2.224584e+01    1.395071e+00
  2.227759e+01    1.370256e+00
  2.230934e+01    1.295912e+00
  2.234109e+01    1.267383e+00
  2.237284e+01    1.230690e+00
  2.240459e+01    1.193179e+00
  2.243634e+01    1.206315e+00
  2.246809e+01    1.182037e+00
  2.249984e+01    1.150914e+00
  2.253160e+01    1.143024e+00
  2.256335e+01    1.130315e+00
  2.259510e+01    1.107162e+00
  2.262685e+01    1.089406e+00
  2.265860e+01    1.080622e+00
  2.269035e+01    1.094695e+00
  2.272210e+01    1.081807e+00
  2.275385e+01    1.062891e+00
  2.278560e+01    1.056308e+00
  2.281736e+01    1.043765e+00
  2.284911e+01    1.041565e+00
  2.288086e+01    1.035646e+00
  2.291261e+01    1.034031e+00
  2.294436e+01    1.018124e+00
  2.297611e+01    1.022764e+00
  2.300786e+01    1.021663e+00
  2.303961e+01    1.020541e+00
  2.307137e+01    1.002622e+00
  2.310312e+01    1.024284e+00
  2.313487e+01    9.802762e-01
  2.316662e+01    9.962065e-01
  2.319837e+01    1.000565e+00
  2.323012e+01    9.964498e-01
  2.326187e+01    1.014758e+00
  2.329362e+01    9.593408e-01
  2.332537e+01    9.782130e-01
  2.335713e+01    9.931571e-01
  2.338888e+01    9.878203e-01
  2.342063e+01    9.685946e-01
  2.345238e+01    9.694777e-01
  2.348413e+01    9.654326e-01
  2.351588e+01    9.732870e-01
  2.354763e+01    9.437975e-01
  2.357938e+01    9.857712e-01
  2.361113e+01    9.656976e-01
  2.364289e+01    9.632615e-01
  2.367464e+01    9.516510e-01
  2.370639e+01    9.581665e-01
  2.373814e+01    9.591708e-01
  2.376989e+01    9.241837e-01
  2.380164e+01    9.128121e-01
  2.383339e+01    9.109043e-01
  2.386514e+01    9.234371e-01
  2.389689e+01    9.117294e-01
  2.392865e+01    9.203153e-01
  2.396040e+01    9.108604e-01
  2.399215e+01    9.240022e-01
  2.402390e+01    8.924406e-01
  2.405565e+01    8.805351e-01
  2.408740e+01    9.078078e-01
  2.411915e+01    8.698259e-01
  2.415090e+01    9.099716e-01
  2.418266e+01    8.868559e-01
  2.421441e+01    8.911076e-01
  2.424616e+01    8.782106e-01
  2.427791e+01    9.132472e-01
  2.430966e+01    9.051186e-01
  2.434141e+01    8.879891e-01
  2.437316e+01    8.895416e-01
  2.440491e+01    9.040502e-01
  2.443666e+01    8.958740e-01
  2.446842e+01    9.073215e-01
  2.450017e+01    8.920817e-01
  2.453192e+01    9.044448e-01
  2.456367e+01    8.991437e-01
  2.459542e+01    8.805881e-01
  2.462717e+01    8.912812e-01
  2.465892e+01    9.003904e-01
  2.469067e+01    9.102960e-01
  2.472242e+01    8.806721e-01
  2.475418e+01    8.754816e-01
  2.478593e+01    8.935392e-01
  2.481768e+01    8.976975e-01
  2.484943e+01    8.996953e-01
  2.488118e+01    8.864629e-01
  2.491293e+01    8.982789e-01
  2.494468e+01    8.813388e-01
  2.497643e+01    8.792095e-01
  2.500819e+01    8.964101e-01
  2.503994e+01    8.939214e-01
  2.507169e+01    8.969386e-01
  2.510344e+01    8.821801e-01
  2.513519e+01    9.099058e-01
  2.516694e+01    9.195799e-01
  2.519869e+01    9.267008e-01
  2.523044e+01    9.260530e-01
  2.526219e+01    9.543370e-01
  2.529395e+01    9.570692e-01
  2.532570e+01    9.812096e-01
  2.535745e+01    9.795106e-01
  2.538920e+01    9.621397e-01
  2.542095e+01    9.942606e-01
  2.545270e+01    1.008188e+00
  2.548445e+01    1.049372e+00
  2.551620e+01    1.066702e+00
  2.554795e+01    1.097448e+00
  2.557971e+01    1.174188e+00
  2.561146e+01    1.229736e+00
  2.564321e+01    1.320679e+00
  2.567496e+01    1.440235e+00
  2.570671e+01    1.570334e+00
  2.573846e+01    1.817870e+00
  2.577021e+01    2.245567e+00
  2.580196e+01    2.807187e+00
  2.583371e+01    3.666487e+00
  2.586547e+01    4.712243e+00
  2.589722e+01    5.856482e+00
  2.592897e+01    6.853019e+00
  2.596072e+01    7.174468e+00
  2.599247e+01    6.563905e+00
  2.602422e+01    5.273488e+00
  2.605597e+01    3.973177e+00
  2.608772e+01    3.015679e+00
  2.611948e+01    2.360608e+00
  2.615123e+01    1.909974e+00
  2.618298e+01    1.692822e+00
  2.621473e+01    1.490535e+00
  2.624648e+01    1.343369e+00
  2.627823e+01    1.255039e+00
  2.630998e+01    1.200118e+00
  2.634173e+01    1.129733e+00
  2.637348e+01    1.106384e+00
  2.640524e+01    1.062003e+00
  2.643699e+01    1.028906e+00
  2.646874e+01    1.011636e+00
  2.650049e+01    1.043838e+00
  2.653224e+01    1.019053e+00
  2.656399e+01    9.986205e-01
  2.659574e+01    9.942083e-01
  2.662749e+01    9.651266e-01
  2.665924e+01    9.709674e-01
  2.669100e+01    9.811604e-01
  2.672275e+01    9.974893e-01
  2.675450e+01    9.896373e-01
  2.678625e+01    9.764304e-01
  2.681800e+01    9.921495e-01
  2.684975e+01    1.002142e+00
  2.688150e+01    9.944214e-01
  2.691325e+01    1.021449e+00
  2.694501e+01    1.034564e+00
  2.697676e+01    1.085155e+00
  2.700851e+01    1.151360e+00
  2.704026e+01    1.193522e+00
  2.707201e+01    1.281655e+00
  2.710376e+01    1.512602e+00
  2.713551e+01    1.696286e+00
  2.716726e+01    1.973571e+00
  2.719901e+01    2.155655e+00
  2.723077e+01    2.185715e+00
  2.726252e+01    1.981901e+00
  2.729427e+01    1.658009e+00
  2.732602e+01    1.439419e+00
  2.735777e+01    1.295493e+00
  2.738952e+01    1.173467e+00
  2.742127e+01    1.095834e+00
  2.745302e+01    1.047111e+00
  2.748477e+01    1.021463e+00
  2.751653e+01    9.845431e-01
  2.754828e+01    9.421192e-01
  2.758003e+01    9.408631e-01
  2.761178e+01    9.275036e-01
  2.764353e+01    9.300062e-01
  2.767528e+01    9.251556e-01
  2.770703e+01    9.213635e-01
  2.773878e+01    8.775904e-01
  2.777054e+01    8.860493e-01
  2.780229e+01    8.912905e-01
  2.783404e+01    8.793778e-01
  2.786579e+01    8.774135e-01
  2.789754e+01    8.738729e-01
  2.792929e+01    8.690504e-01
  2.796104e+01    8.611973e-01
  2.799279e+01    8.676319e-01
  2.802454e+01    8.682576e-01
  2.805630e+01    8.666472e-01
  2.808805e+01    8.555647e-01
  2.811980e+01    8.709236e-01
  2.815155e+01    8.564920e-01
  2.818330e+01    8.405913e-01
  2.821505e+01    8.491612e-01
  2.824680e+01    8.668647e-01
  2.827855e+01    8.424762e-01
  2.831030e+01    8.533483e-01
  2.834206e+01    8.452671e-01
  2.837381e+01    8.515092e-01
  2.840556e+01    8.600284e-01
  2.843731e+01    8.323141e-01
  2.846906e+01    8.283492e-01
  2.850081e+01    8.574974e-01
  2.853256e+01    8.344136e-01
  2.856431e+01    8.642514e-01
  2.859606e+01    8.296874e-01
  2.862782e+01    8.235617e-01
  2.865957e+01    8.326406e-01
  2.869132e+01    8.167701e-01
  2.872307e+01    8.465663e-01
  2.875482e+01    8.185173e-01
  2.878657e+01    8.273442e-01
  2.881832e+01    8.301402e-01
  2.885007e+01    8.171040e-01
  2.888183e+01    8.194006e-01
  2.891358e+01    8.239613e-01
  2.894533e+01    8.276429e-01
  2.897708e+01    8.144540e-01
  2.900883e+01    8.318889e-01
  2.904058e+01    8.308982e-01
  2.907233e+01    8.318914e-01
  2.910408e+01    7.999960e-01
  2.913583e+01    8.160591e-01
  2.916759e+01    8.340142e-01
  2.919934e+01    8.014916e-01
  2.923109e+01    8.059634e-01
  2.926284e+01    8.202810e-01
  2.929459e+01    8.198451e-01
  2.932634e+01    8.118184e-01
  2.935809e+01    8.009604e-01
  2.938984e+01    8.224126e-01
  2.942159e+01    8.228207e-01
  2.945335e+01    8.027371e-01
  2.948510e+01    8.107470e-01
  2.951685e+01    7.963119e-01
  2.954860e+01    7.906638e-01
  2.958035e+01    7.862122e-01
  2.961210e+01    7.957242e-01
  2.964385e+01    7.972604e-01
  2.967560e+01    7.837960e-01
  2.970736e+01    8.112888e-01
  2.973911e+01    7.850540e-01
  2.977086e+01    7.776132e-01
  2.980261e+01    7.867980e-01
  2.983436e+01    8.044780e-01
  2.986611e+01    7.990134e-01
  2.989786e+01    7.875224e-01
  2.992961e+01    7.830740e-01
  2.996136e+01    8.131415e-01
  2.999312e+01    8.179861e-01
  3.002487e+01    8.116764e-01
  3.005662e+01    8.224795e-01
  3.008837e+01    8.065448e-01
  3.012012e+01    7.835353e-01
  3.015187e+01    7.833789e-01
  3.018362e+01    7.892067e-01
  3.021537e+01    8.022377e-01
  3.024712e+01    8.023291e-01
  3.027888e+01    7.764384e-01
  3.031063e+01    8.058591e-01
  3.034238e+01    7.888416e-01
  3.037413e+01    7.744097e-01
  3.040588e+01    7.870622e-01
  3.043763e+01    7.909731e-01
  3.046938e+01    7.928055e-01
  3.050113e+01    7.814472e-01
  3.053288e+01    8.092519e-01
  3.056464e+01    7.784002e-01
  3.059639e+01    8.060977e-01
  3.062814e+01    7.898742e-01
  3.065989e+01    7.743034e-01
  3.069164e+01    7.612731e-01
  3.072339e+01    7.662882e-01
  3.075514e+01    7.677652e-01
  3.078689e+01    7.823508e-01
  3.081865e+01    7.812588e-01
  3.085040e+01    7.846668e-01
  3.088215e+01    7.859793e-01
  3.091390e+01    7.872371e-01
  3.094565e+01    7.995684e-01
  3.097740e+01    7.854610e-01
  3.100915e+01    7.977629e-01
  3.104090e+01    7.752864e-01
  3.107265e+01    7.513416e-01
  3.110441e+01    7.944551e-01
  3.113616e+01    8.057334e-01
  3.116791e+01    7.919359e-01
  3.119966e+01    7.874648e-01
  3.123141e+01    7.993424e-01
  3.126316e+01    7.758650e-01
  3.129491e+01    7.951187e-01
  3.132666e+01    7.761486e-01
  3.135841e+01    7.948021e-01
  3.139017e+01    8.035117e-01
  3.142192e+01    8.083169e-01
  3.145367e+01    8.276285e-01
  3.148542e+01    8.253878e-01
  3.151717e+01    8.281783e-01
  3.154892e+01    8.500510e-01
  3.158067e+01    8.576949e-01
  3.161242e+01    8.796524e-01
  3.164418e+01    8.974472e-01
  3.167593e+01    9.676582e-01
  3.170768e+01    1.030223e+00
  3.173943e+01    1.122411e+00
  3.177118e+01    1.258496e+00
  3.180293e+01    1.445493e+00
  3.183468e+01    1.726199e+00
  3.186643e+01    1.954494e+00
  3.189818e+01    2.102209e+00
  3.192994e+01    2.045897e+00
  3.196169e+01    1.792505e+00
  3.199344e+01    1.528095e+00
  3.202519e+01    1.314286e+00
  3.205694e+01    1.154085e+00
  3.208869e+01    1.027208e+00
  3.212044e+01    9.757672e-01
  3.215219e+01    9.218411e-01
  3.218394e+01    8.689318e-01
  3.221570e+01    8.494774e-01
  3.224745e+01    8.175814e-01
  3.227920e+01    8.221940e-01
  3.231095e+01    8.444645e-01
  3.234270e+01    8.002093e-01
  3.237445e+01    8.025759e-01
  3.240620e+01    7.888388e-01
  3.243795e+01    7.809327e-01
  3.246970e+01    7.880074e-01
  3.250146e+01    7.727798e-01
  3.253321e+01    7.565589e-01
  3.254908e+01    7.631906e-01