File: XRD/Reaction conditions/2024-07-27_003_Ru-CGO-ex_Reaction_dwell_000023_data_000087.dat
# == pyFAI calibration ==
# Distance Sample to Detector: 0.4 m
# PONI: 9.750e-02, 1.135e-01 m
# Rotations: -0.000175 0.000000 -0.000000 rad
#
# == Fit2d calibration ==
# Distance Sample-beamCenter: 400.000 mm
# Center: x=1514.000, y=1300.000 pix
# Tilt: 0.010 deg  TiltPlanRot: 0.010 deg
#
# Detector Detector	 Spline= None	 PixelSize= 7.500e-05, 7.500e-05 m
#    Detector has a mask: False
#    Detector has a dark current: False
#    detector has a flat field: False
#
# Wavelength: 6.888e-11 m
# Mask applied: user provided
# Dark current applied: False
# Flat field applied: False
# Polarization factor: 0.99
# Normalization factor: 1.0
# --> /home/myspot/data/2024_07_Rosario/Ru-CGO-ex/2024-07-27_003_Ru-CGO-ex_Reaction_dwell_000023_data_000087.dat
#       q_nm^-1             I
  2.003187e-02    7.712225e-02
  5.178302e-02    2.394490e-01
  8.353417e-02    1.286686e-01
  1.152853e-01    6.282490e-02
  1.470365e-01    2.606104e-02
  1.787876e-01    1.245382e-01
  2.105388e-01    5.145624e-02
  2.422899e-01    2.193459e-02
  2.740411e-01    9.831849e-02
  3.057922e-01    5.451665e-02
  3.375433e-01    4.596792e-02
  3.692945e-01    1.555253e-02
  4.010456e-01    3.312971e-02
  4.327968e-01    3.951342e-02
  4.645479e-01    2.789195e-02
  4.962991e-01    2.897788e-03
  5.280502e-01    6.908821e-02
  5.598014e-01    9.235172e-02
  5.915525e-01    2.806839e-02
  6.233037e-01    4.807793e-02
  6.550548e-01    4.404781e-02
  6.868060e-01    5.190605e-02
  7.185571e-01    3.124561e-02
  7.503083e-01    3.343200e-02
  7.820594e-01    1.154296e-01
  8.138106e-01    2.045387e-01
  8.455617e-01    3.469883e-01
  8.773129e-01    4.894373e-01
  9.090640e-01    6.885070e-01
  9.408152e-01    8.456472e-01
  9.725663e-01    8.373002e-01
  1.004317e+00    1.132102e+00
  1.036069e+00    1.374936e+00
  1.067820e+00    1.473727e+00
  1.099571e+00    1.417653e+00
  1.131322e+00    1.577637e+00
  1.163073e+00    1.650973e+00
  1.194824e+00    1.853776e+00
  1.226575e+00    2.210736e+00
  1.258327e+00    2.417920e+00
  1.290078e+00    2.629096e+00
  1.321829e+00    2.776771e+00
  1.353580e+00    2.809889e+00
  1.385331e+00    2.813095e+00
  1.417082e+00    2.834940e+00
  1.448834e+00    2.998235e+00
  1.480585e+00    3.126957e+00
  1.512336e+00    3.182752e+00
  1.544087e+00    3.165990e+00
  1.575838e+00    3.179615e+00
  1.607589e+00    3.241758e+00
  1.639340e+00    3.097429e+00
  1.671092e+00    3.209776e+00
  1.702843e+00    3.075347e+00
  1.734594e+00    3.127379e+00
  1.766345e+00    3.158438e+00
  1.798096e+00    3.227484e+00
  1.829847e+00    3.123733e+00
  1.861598e+00    3.083839e+00
  1.893350e+00    2.929566e+00
  1.925101e+00    3.029712e+00
  1.956852e+00    3.040620e+00
  1.988603e+00    3.135752e+00
  2.020354e+00    3.001860e+00
  2.052105e+00    3.126342e+00
  2.083856e+00    3.131517e+00
  2.115608e+00    3.172606e+00
  2.147359e+00    3.140245e+00
  2.179110e+00    3.119212e+00
  2.210861e+00    3.221176e+00
  2.242612e+00    3.077241e+00
  2.274363e+00    3.100925e+00
  2.306115e+00    3.171422e+00
  2.337866e+00    3.087841e+00
  2.369617e+00    3.075228e+00
  2.401368e+00    3.235032e+00
  2.433119e+00    3.062672e+00
  2.464870e+00    3.173573e+00
  2.496621e+00    3.189172e+00
  2.528373e+00    3.208894e+00
  2.560124e+00    3.219802e+00
  2.591875e+00    3.136457e+00
  2.623626e+00    3.261501e+00
  2.655377e+00    3.262689e+00
  2.687128e+00    3.211006e+00
  2.718879e+00    3.326168e+00
  2.750631e+00    3.274583e+00
  2.782382e+00    3.262695e+00
  2.814133e+00    3.235981e+00
  2.845884e+00    3.248530e+00
  2.877635e+00    3.218106e+00
  2.909386e+00    3.367633e+00
  2.941137e+00    3.405477e+00
  2.972889e+00    3.354370e+00
  3.004640e+00    3.302671e+00
  3.036391e+00    3.354084e+00
  3.068142e+00    3.348762e+00
  3.099893e+00    3.344332e+00
  3.131644e+00    3.214619e+00
  3.163395e+00    3.207984e+00
  3.195147e+00    3.360516e+00
  3.226898e+00    3.341943e+00
  3.258649e+00    3.372819e+00
  3.290400e+00    3.472207e+00
  3.322151e+00    3.460403e+00
  3.353902e+00    3.369363e+00
  3.385654e+00    3.434440e+00
  3.417405e+00    3.436580e+00
  3.449156e+00    3.420617e+00
  3.480907e+00    3.451783e+00
  3.512658e+00    3.442786e+00
  3.544409e+00    3.393670e+00
  3.576160e+00    3.433334e+00
  3.607912e+00    3.416840e+00
  3.639663e+00    3.438499e+00
  3.671414e+00    3.556612e+00
  3.703165e+00    3.465679e+00
  3.734916e+00    3.448719e+00
  3.766667e+00    3.390468e+00
  3.798418e+00    3.441552e+00
  3.830170e+00    3.503258e+00
  3.861921e+00    3.594645e+00
  3.893672e+00    3.542721e+00
  3.925423e+00    3.520189e+00
  3.957174e+00    3.552998e+00
  3.988925e+00    3.582728e+00
  4.020676e+00    3.537599e+00
  4.052428e+00    3.542296e+00
  4.084179e+00    3.585638e+00
  4.115930e+00    3.514337e+00
  4.147681e+00    3.533246e+00
  4.179432e+00    3.559205e+00
  4.211183e+00    3.509351e+00
  4.242935e+00    3.609535e+00
  4.274686e+00    3.544173e+00
  4.306437e+00    3.492315e+00
  4.338188e+00    3.560603e+00
  4.369939e+00    3.481728e+00
  4.401690e+00    3.642612e+00
  4.433441e+00    3.518623e+00
  4.465193e+00    3.680607e+00
  4.496944e+00    3.609761e+00
  4.528695e+00    3.673030e+00
  4.560446e+00    3.666020e+00
  4.592197e+00    3.638045e+00
  4.623948e+00    3.578449e+00
  4.655699e+00    3.644570e+00
  4.687451e+00    3.647398e+00
  4.719202e+00    3.671287e+00
  4.750953e+00    3.631151e+00
  4.782704e+00    3.536764e+00
  4.814455e+00    3.723011e+00
  4.846206e+00    3.625925e+00
  4.877957e+00    3.605718e+00
  4.909709e+00    3.697460e+00
  4.941460e+00    3.612210e+00
  4.973211e+00    3.673105e+00
  5.004962e+00    3.640539e+00
  5.036713e+00    3.658661e+00
  5.068464e+00    3.665050e+00
  5.100216e+00    3.737803e+00
  5.131967e+00    3.688801e+00
  5.163718e+00    3.670137e+00
  5.195469e+00    3.628070e+00
  5.227220e+00    3.656440e+00
  5.258971e+00    3.676161e+00
  5.290722e+00    3.731063e+00
  5.322474e+00    3.624097e+00
  5.354225e+00    3.692527e+00
  5.385976e+00    3.631498e+00
  5.417727e+00    3.581396e+00
  5.449478e+00    3.619902e+00
  5.481229e+00    3.668943e+00
  5.512980e+00    3.586384e+00
  5.544732e+00    3.536776e+00
  5.576483e+00    3.546174e+00
  5.608234e+00    3.595840e+00
  5.639985e+00    3.575731e+00
  5.671736e+00    3.483593e+00
  5.703487e+00    3.620730e+00
  5.735238e+00    3.545669e+00
  5.766990e+00    3.682442e+00
  5.798741e+00    3.490788e+00
  5.830492e+00    3.483300e+00
  5.862243e+00    3.540741e+00
  5.893994e+00    3.617219e+00
  5.925745e+00    3.603563e+00
  5.957497e+00    3.541430e+00
  5.989248e+00    3.605679e+00
  6.020999e+00    3.455519e+00
  6.052750e+00    3.591497e+00
  6.084501e+00    3.671174e+00
  6.116252e+00    3.552166e+00
  6.148003e+00    3.587575e+00
  6.179755e+00    3.536564e+00
  6.211506e+00    3.700897e+00
  6.243257e+00    3.524955e+00
  6.275008e+00    3.652236e+00
  6.306759e+00    3.587973e+00
  6.338510e+00    3.495237e+00
  6.370261e+00    3.513483e+00
  6.402013e+00    3.533658e+00
  6.433764e+00    3.601229e+00
  6.465515e+00    3.635366e+00
  6.497266e+00    3.587822e+00
  6.529017e+00    3.560796e+00
  6.560768e+00    3.541830e+00
  6.592519e+00    3.605187e+00
  6.624271e+00    3.577765e+00
  6.656022e+00    3.652784e+00
  6.687773e+00    3.588930e+00
  6.719524e+00    3.559271e+00
  6.751275e+00    3.516695e+00
  6.783026e+00    3.596849e+00
  6.814777e+00    3.615376e+00
  6.846529e+00    3.546319e+00
  6.878280e+00    3.518404e+00
  6.910031e+00    3.535460e+00
  6.941782e+00    3.577856e+00
  6.973533e+00    3.574422e+00
  7.005284e+00    3.549301e+00
  7.037036e+00    3.595577e+00
  7.068787e+00    3.523977e+00
  7.100538e+00    3.558216e+00
  7.132289e+00    3.489809e+00
  7.164040e+00    3.578532e+00
  7.195791e+00    3.513042e+00
  7.227542e+00    3.522712e+00
  7.259294e+00    3.604592e+00
  7.291045e+00    3.532759e+00
  7.322796e+00    3.451742e+00
  7.354547e+00    3.470215e+00
  7.386298e+00    3.551598e+00
  7.418049e+00    3.533473e+00
  7.449800e+00    3.458388e+00
  7.481552e+00    3.453582e+00
  7.513303e+00    3.476458e+00
  7.545054e+00    3.528011e+00
  7.576805e+00    3.444921e+00
  7.608556e+00    3.398270e+00
  7.640307e+00    3.481421e+00
  7.672058e+00    3.541796e+00
  7.703810e+00    3.410173e+00
  7.735561e+00    3.474850e+00
  7.767312e+00    3.434705e+00
  7.799063e+00    3.431400e+00
  7.830814e+00    3.444453e+00
  7.862565e+00    3.391549e+00
  7.894317e+00    3.416749e+00
  7.926068e+00    3.442801e+00
  7.957819e+00    3.387305e+00
  7.989570e+00    3.411259e+00
  8.021321e+00    3.442115e+00
  8.053072e+00    3.444047e+00
  8.084823e+00    3.457073e+00
  8.116575e+00    3.459605e+00
  8.148326e+00    3.502059e+00
  8.180077e+00    3.442558e+00
  8.211828e+00    3.484110e+00
  8.243579e+00    3.434128e+00
  8.275330e+00    3.535957e+00
  8.307081e+00    3.482904e+00
  8.338833e+00    3.347704e+00
  8.370584e+00    3.403373e+00
  8.402335e+00    3.417267e+00
  8.434086e+00    3.390518e+00
  8.465837e+00    3.350179e+00
  8.497588e+00    3.380080e+00
  8.529339e+00    3.421325e+00
  8.561091e+00    3.379678e+00
  8.592842e+00    3.410712e+00
  8.624593e+00    3.410372e+00
  8.656344e+00    3.343228e+00
  8.688095e+00    3.282766e+00
  8.719846e+00    3.323964e+00
  8.751598e+00    3.393513e+00
  8.783349e+00    3.366768e+00
  8.815100e+00    3.325026e+00
  8.846851e+00    3.332476e+00
  8.878602e+00    3.250075e+00
  8.910353e+00    3.273783e+00
  8.942104e+00    3.320428e+00
  8.973856e+00    3.287091e+00
  9.005607e+00    3.222087e+00
  9.037358e+00    3.241713e+00
  9.069109e+00    3.309566e+00
  9.100860e+00    3.295191e+00
  9.132611e+00    3.281350e+00
  9.164362e+00    3.278416e+00
  9.196114e+00    3.234612e+00
  9.227865e+00    3.335387e+00
  9.259616e+00    3.215274e+00
  9.291367e+00    3.310086e+00
  9.323118e+00    3.278426e+00
  9.354869e+00    3.249212e+00
  9.386620e+00    3.191297e+00
  9.418372e+00    3.204184e+00
  9.450123e+00    3.207149e+00
  9.481874e+00    3.199388e+00
  9.513625e+00    3.232403e+00
  9.545376e+00    3.239977e+00
  9.577127e+00    3.174302e+00
  9.608878e+00    3.199963e+00
  9.640630e+00    3.252507e+00
  9.672381e+00    3.216483e+00
  9.704132e+00    3.097721e+00
  9.735883e+00    3.209122e+00
  9.767634e+00    3.139521e+00
  9.799385e+00    3.172114e+00
  9.831137e+00    3.122685e+00
  9.862888e+00    3.140401e+00
  9.894639e+00    3.105045e+00
  9.926390e+00    3.130922e+00
  9.958141e+00    3.114703e+00
  9.989892e+00    3.129910e+00
  1.002164e+01    3.114813e+00
  1.005339e+01    3.128856e+00
  1.008515e+01    3.098206e+00
  1.011690e+01    3.126344e+00
  1.014865e+01    3.060910e+00
  1.018040e+01    3.106060e+00
  1.021215e+01    3.066569e+00
  1.024390e+01    3.063971e+00
  1.027565e+01    3.144887e+00
  1.030740e+01    3.047066e+00
  1.033915e+01    3.018030e+00
  1.037091e+01    3.096996e+00
  1.040266e+01    3.082167e+00
  1.043441e+01    3.035100e+00
  1.046616e+01    3.045772e+00
  1.049791e+01    3.033031e+00
  1.052966e+01    3.013368e+00
  1.056141e+01    3.044025e+00
  1.059316e+01    3.025543e+00
  1.062492e+01    3.000788e+00
  1.065667e+01    3.003481e+00
  1.068842e+01    3.016399e+00
  1.072017e+01    2.973828e+00
  1.075192e+01    2.956376e+00
  1.078367e+01    2.983712e+00
  1.081542e+01    2.991162e+00
  1.084717e+01    2.932569e+00
  1.087892e+01    2.897380e+00
  1.091068e+01    2.974649e+00
  1.094243e+01    2.921293e+00
  1.097418e+01    2.924650e+00
  1.100593e+01    2.913767e+00
  1.103768e+01    2.869712e+00
  1.106943e+01    2.859544e+00
  1.110118e+01    2.956710e+00
  1.113293e+01    2.864247e+00
  1.116468e+01    2.875788e+00
  1.119644e+01    2.873459e+00
  1.122819e+01    2.868224e+00
  1.125994e+01    2.857784e+00
  1.129169e+01    2.859839e+00
  1.132344e+01    2.852296e+00
  1.135519e+01    2.860104e+00
  1.138694e+01    2.837713e+00
  1.141869e+01    2.782249e+00
  1.145045e+01    2.818776e+00
  1.148220e+01    2.797530e+00
  1.151395e+01    2.810360e+00
  1.154570e+01    2.740950e+00
  1.157745e+01    2.774746e+00
  1.160920e+01    2.788666e+00
  1.164095e+01    2.790958e+00
  1.167270e+01    2.768384e+00
  1.170445e+01    2.834655e+00
  1.173621e+01    2.741318e+00
  1.176796e+01    2.724125e+00
  1.179971e+01    2.725795e+00
  1.183146e+01    2.750787e+00
  1.186321e+01    2.729709e+00
  1.189496e+01    2.760232e+00
  1.192671e+01    2.728318e+00
  1.195846e+01    2.651780e+00
  1.199021e+01    2.671645e+00
  1.202197e+01    2.695474e+00
  1.205372e+01    2.691735e+00
  1.208547e+01    2.751695e+00
  1.211722e+01    2.714480e+00
  1.214897e+01    2.691605e+00
  1.218072e+01    2.690194e+00
  1.221247e+01    2.731426e+00
  1.224422e+01    2.676131e+00
  1.227597e+01    2.679976e+00
  1.230773e+01    2.678651e+00
  1.233948e+01    2.693725e+00
  1.237123e+01    2.695700e+00
  1.240298e+01    2.672584e+00
  1.243473e+01    2.728011e+00
  1.246648e+01    2.694913e+00
  1.249823e+01    2.706307e+00
  1.252998e+01    2.712714e+00
  1.256174e+01    2.702577e+00
  1.259349e+01    2.759781e+00
  1.262524e+01    2.768041e+00
  1.265699e+01    2.771902e+00
  1.268874e+01    2.811899e+00
  1.272049e+01    2.880197e+00
  1.275224e+01    2.932224e+00
  1.278399e+01    2.937800e+00
  1.281574e+01    3.064677e+00
  1.284750e+01    3.145571e+00
  1.287925e+01    3.367625e+00
  1.291100e+01    3.687055e+00
  1.294275e+01    4.167272e+00
  1.297450e+01    4.875348e+00
  1.300625e+01    5.976298e+00
  1.303800e+01    7.790180e+00
  1.306975e+01    1.020936e+01
  1.310150e+01    1.279734e+01
  1.313326e+01    1.500557e+01
  1.316501e+01    1.646839e+01
  1.319676e+01    1.576615e+01
  1.322851e+01    1.253916e+01
  1.326026e+01    9.029944e+00
  1.329201e+01    6.793364e+00
  1.332376e+01    5.282752e+00
  1.335551e+01    4.423867e+00
  1.338727e+01    3.856940e+00
  1.341902e+01    3.443667e+00
  1.345077e+01    3.217913e+00
  1.348252e+01    3.011963e+00
  1.351427e+01    2.926766e+00
  1.354602e+01    2.811897e+00
  1.357777e+01    2.755303e+00
  1.360952e+01    2.689013e+00
  1.364127e+01    2.661628e+00
  1.367303e+01    2.602905e+00
  1.370478e+01    2.561831e+00
  1.373653e+01    2.542696e+00
  1.376828e+01    2.498955e+00
  1.380003e+01    2.437479e+00
  1.383178e+01    2.435781e+00
  1.386353e+01    2.462887e+00
  1.389528e+01    2.407058e+00
  1.392703e+01    2.456330e+00
  1.395879e+01    2.404505e+00
  1.399054e+01    2.391349e+00
  1.402229e+01    2.356537e+00
  1.405404e+01    2.347390e+00
  1.408579e+01    2.344951e+00
  1.411754e+01    2.324131e+00
  1.414929e+01    2.300532e+00
  1.418104e+01    2.316774e+00
  1.421279e+01    2.304506e+00
  1.424455e+01    2.271770e+00
  1.427630e+01    2.244958e+00
  1.430805e+01    2.283048e+00
  1.433980e+01    2.285806e+00
  1.437155e+01    2.224008e+00
  1.440330e+01    2.257265e+00
  1.443505e+01    2.248760e+00
  1.446680e+01    2.220632e+00
  1.449856e+01    2.258323e+00
  1.453031e+01    2.193786e+00
  1.456206e+01    2.219910e+00
  1.459381e+01    2.216882e+00
  1.462556e+01    2.210998e+00
  1.465731e+01    2.217950e+00
  1.468906e+01    2.172418e+00
  1.472081e+01    2.201755e+00
  1.475256e+01    2.185126e+00
  1.478432e+01    2.184505e+00
  1.481607e+01    2.206661e+00
  1.484782e+01    2.221219e+00
  1.487957e+01    2.173006e+00
  1.491132e+01    2.270665e+00
  1.494307e+01    2.295723e+00
  1.497482e+01    2.401602e+00
  1.500657e+01    2.473477e+00
  1.503832e+01    2.598627e+00
  1.507008e+01    2.820506e+00
  1.510183e+01    3.272884e+00
  1.513358e+01    3.816068e+00
  1.516533e+01    4.582196e+00
  1.519708e+01    5.240287e+00
  1.522883e+01    5.684436e+00
  1.526058e+01    5.868145e+00
  1.529233e+01    5.533861e+00
  1.532409e+01    4.687037e+00
  1.535584e+01    3.756554e+00
  1.538759e+01    3.178670e+00
  1.541934e+01    2.770595e+00
  1.545109e+01    2.534945e+00
  1.548284e+01    2.372233e+00
  1.551459e+01    2.290877e+00
  1.554634e+01    2.185338e+00
  1.557809e+01    2.125523e+00
  1.560985e+01    2.084000e+00
  1.564160e+01    2.036170e+00
  1.567335e+01    2.037139e+00
  1.570510e+01    2.012128e+00
  1.573685e+01    2.024809e+00
  1.576860e+01    2.000590e+00
  1.580035e+01    1.918844e+00
  1.583210e+01    1.919971e+00
  1.586385e+01    1.902769e+00
  1.589561e+01    1.910976e+00
  1.592736e+01    1.901922e+00
  1.595911e+01    1.865011e+00
  1.599086e+01    1.922441e+00
  1.602261e+01    1.879114e+00
  1.605436e+01    1.903370e+00
  1.608611e+01    1.815105e+00
  1.611786e+01    1.842576e+00
  1.614961e+01    1.815888e+00
  1.618137e+01    1.818231e+00
  1.621312e+01    1.830194e+00
  1.624487e+01    1.807072e+00
  1.627662e+01    1.789475e+00
  1.630837e+01    1.808620e+00
  1.634012e+01    1.794137e+00
  1.637187e+01    1.808357e+00
  1.640362e+01    1.798483e+00
  1.643538e+01    1.781216e+00
  1.646713e+01    1.801694e+00
  1.649888e+01    1.770889e+00
  1.653063e+01    1.762287e+00
  1.656238e+01    1.754494e+00
  1.659413e+01    1.717004e+00
  1.662588e+01    1.721841e+00
  1.665763e+01    1.780427e+00
  1.668938e+01    1.696000e+00
  1.672114e+01    1.708837e+00
  1.675289e+01    1.694701e+00
  1.678464e+01    1.717715e+00
  1.681639e+01    1.667928e+00
  1.684814e+01    1.718360e+00
  1.687989e+01    1.655419e+00
  1.691164e+01    1.682813e+00
  1.694339e+01    1.677300e+00
  1.697514e+01    1.685178e+00
  1.700690e+01    1.660660e+00
  1.703865e+01    1.670104e+00
  1.707040e+01    1.681305e+00
  1.710215e+01    1.638488e+00
  1.713390e+01    1.633762e+00
  1.716565e+01    1.629476e+00
  1.719740e+01    1.631092e+00
  1.722915e+01    1.598130e+00
  1.726091e+01    1.605010e+00
  1.729266e+01    1.624447e+00
  1.732441e+01    1.620596e+00
  1.735616e+01    1.645601e+00
  1.738791e+01    1.570354e+00
  1.741966e+01    1.606974e+00
  1.745141e+01    1.603459e+00
  1.748316e+01    1.618846e+00
  1.751491e+01    1.589875e+00
  1.754667e+01    1.600939e+00
  1.757842e+01    1.591978e+00
  1.761017e+01    1.588889e+00
  1.764192e+01    1.588399e+00
  1.767367e+01    1.559238e+00
  1.770542e+01    1.537737e+00
  1.773717e+01    1.584672e+00
  1.776892e+01    1.533030e+00
  1.780067e+01    1.554018e+00
  1.783243e+01    1.555457e+00
  1.786418e+01    1.568713e+00
  1.789593e+01    1.534646e+00
  1.792768e+01    1.515946e+00
  1.795943e+01    1.533688e+00
  1.799118e+01    1.530333e+00
  1.802293e+01    1.510462e+00
  1.805468e+01    1.508574e+00
  1.808643e+01    1.506004e+00
  1.811819e+01    1.504603e+00
  1.814994e+01    1.486990e+00
  1.818169e+01    1.486933e+00
  1.821344e+01    1.459679e+00
  1.824519e+01    1.478937e+00
  1.827694e+01    1.450833e+00
  1.830869e+01    1.446186e+00
  1.834044e+01    1.449996e+00
  1.837220e+01    1.490533e+00
  1.840395e+01    1.443159e+00
  1.843570e+01    1.481138e+00
  1.846745e+01    1.428388e+00
  1.849920e+01    1.439687e+00
  1.853095e+01    1.457874e+00
  1.856270e+01    1.442750e+00
  1.859445e+01    1.433977e+00
  1.862620e+01    1.425238e+00
  1.865796e+01    1.450128e+00
  1.868971e+01    1.403206e+00
  1.872146e+01    1.404284e+00
  1.875321e+01    1.423609e+00
  1.878496e+01    1.398598e+00
  1.881671e+01    1.404376e+00
  1.884846e+01    1.421494e+00
  1.888021e+01    1.405243e+00
  1.891196e+01    1.372875e+00
  1.894372e+01    1.400299e+00
  1.897547e+01    1.373354e+00
  1.900722e+01    1.387070e+00
  1.903897e+01    1.386918e+00
  1.907072e+01    1.401904e+00
  1.910247e+01    1.419780e+00
  1.913422e+01    1.376132e+00
  1.916597e+01    1.362933e+00
  1.919773e+01    1.330564e+00
  1.922948e+01    1.395058e+00
  1.926123e+01    1.359586e+00
  1.929298e+01    1.361733e+00
  1.932473e+01    1.361423e+00
  1.935648e+01    1.351618e+00
  1.938823e+01    1.309309e+00
  1.941998e+01    1.311054e+00
  1.945173e+01    1.338509e+00
  1.948349e+01    1.334013e+00
  1.951524e+01    1.329778e+00
  1.954699e+01    1.311316e+00
  1.957874e+01    1.336185e+00
  1.961049e+01    1.341661e+00
  1.964224e+01    1.332998e+00
  1.967399e+01    1.304886e+00
  1.970574e+01    1.300414e+00
  1.973749e+01    1.331549e+00
  1.976925e+01    1.306728e+00
  1.980100e+01    1.323043e+00
  1.983275e+01    1.290365e+00
  1.986450e+01    1.299273e+00
  1.989625e+01    1.312759e+00
  1.992800e+01    1.303300e+00
  1.995975e+01    1.311141e+00
  1.999150e+01    1.301925e+00
  2.002325e+01    1.265605e+00
  2.005501e+01    1.271896e+00
  2.008676e+01    1.263495e+00
  2.011851e+01    1.295921e+00
  2.015026e+01    1.278475e+00
  2.018201e+01    1.281814e+00
  2.021376e+01    1.255654e+00
  2.024551e+01    1.246468e+00
  2.027726e+01    1.291230e+00
  2.030902e+01    1.284947e+00
  2.034077e+01    1.282798e+00
  2.037252e+01    1.243601e+00
  2.040427e+01    1.247503e+00
  2.043602e+01    1.251766e+00
  2.046777e+01    1.253861e+00
  2.049952e+01    1.276706e+00
  2.053127e+01    1.234206e+00
  2.056302e+01    1.250822e+00
  2.059478e+01    1.256505e+00
  2.062653e+01    1.263156e+00
  2.065828e+01    1.210783e+00
  2.069003e+01    1.214638e+00
  2.072178e+01    1.265838e+00
  2.075353e+01    1.241832e+00
  2.078528e+01    1.188273e+00
  2.081703e+01    1.251255e+00
  2.084878e+01    1.243360e+00
  2.088054e+01    1.209935e+00
  2.091229e+01    1.239447e+00
  2.094404e+01    1.225902e+00
  2.097579e+01    1.233745e+00
  2.100754e+01    1.224151e+00
  2.103929e+01    1.211582e+00
  2.107104e+01    1.217106e+00
  2.110279e+01    1.230693e+00
  2.113455e+01    1.238049e+00
  2.116630e+01    1.226059e+00
  2.119805e+01    1.229396e+00
  2.122980e+01    1.243450e+00
  2.126155e+01    1.260420e+00
  2.129330e+01    1.233846e+00
  2.132505e+01    1.262171e+00
  2.135680e+01    1.278919e+00
  2.138855e+01    1.312302e+00
  2.142031e+01    1.332957e+00
  2.145206e+01    1.355471e+00
  2.148381e+01    1.422764e+00
  2.151556e+01    1.446660e+00
  2.154731e+01    1.546990e+00
  2.157906e+01    1.645000e+00
  2.161081e+01    1.756433e+00
  2.164256e+01    1.983606e+00
  2.167431e+01    2.337482e+00
  2.170607e+01    2.858748e+00
  2.173782e+01    3.612476e+00
  2.176957e+01    4.593129e+00
  2.180132e+01    5.974241e+00
  2.183307e+01    7.249977e+00
  2.186482e+01    8.449904e+00
  2.189657e+01    8.920950e+00
  2.192832e+01    8.225186e+00
  2.196007e+01    6.578154e+00
  2.199183e+01    4.788001e+00
  2.202358e+01    3.603981e+00
  2.205533e+01    2.794031e+00
  2.208708e+01    2.333523e+00
  2.211883e+01    1.987998e+00
  2.215058e+01    1.782441e+00
  2.218233e+01    1.625294e+00
  2.221408e+01    1.521964e+00
  2.224584e+01    1.435904e+00
  2.227759e+01    1.335760e+00
  2.230934e+01    1.311220e+00
  2.234109e+01    1.269433e+00
  2.237284e+01    1.243732e+00
  2.240459e+01    1.223863e+00
  2.243634e+01    1.169376e+00
  2.246809e+01    1.155910e+00
  2.249984e+01    1.137279e+00
  2.253160e+01    1.135586e+00
  2.256335e+01    1.120811e+00
  2.259510e+01    1.113863e+00
  2.262685e+01    1.099094e+00
  2.265860e+01    1.097423e+00
  2.269035e+01    1.087619e+00
  2.272210e+01    1.088213e+00
  2.275385e+01    1.087351e+00
  2.278560e+01    1.065360e+00
  2.281736e+01    1.078297e+00
  2.284911e+01    1.063353e+00
  2.288086e+01    1.053989e+00
  2.291261e+01    1.029372e+00
  2.294436e+01    1.041164e+00
  2.297611e+01    1.051710e+00
  2.300786e+01    1.005221e+00
  2.303961e+01    1.003511e+00
  2.307137e+01    1.017000e+00
  2.310312e+01    9.857004e-01
  2.313487e+01    9.799531e-01
  2.316662e+01    9.930209e-01
  2.319837e+01    1.003555e+00
  2.323012e+01    9.979300e-01
  2.326187e+01    9.793102e-01
  2.329362e+01    9.746998e-01
  2.332537e+01    9.773982e-01
  2.335713e+01    9.905413e-01
  2.338888e+01    9.574448e-01
  2.342063e+01    9.557061e-01
  2.345238e+01    9.833946e-01
  2.348413e+01    9.577711e-01
  2.351588e+01    9.612535e-01
  2.354763e+01    9.811153e-01
  2.357938e+01    9.756526e-01
  2.361113e+01    9.760259e-01
  2.364289e+01    9.741916e-01
  2.367464e+01    9.579958e-01
  2.370639e+01    9.465333e-01
  2.373814e+01    9.203907e-01
  2.376989e+01    9.229522e-01
  2.380164e+01    9.100101e-01
  2.383339e+01    8.964100e-01
  2.386514e+01    9.149847e-01
  2.389689e+01    8.981707e-01
  2.392865e+01    9.085982e-01
  2.396040e+01    9.073906e-01
  2.399215e+01    9.109176e-01
  2.402390e+01    9.230649e-01
  2.405565e+01    9.055570e-01
  2.408740e+01    8.942256e-01
  2.411915e+01    8.852214e-01
  2.415090e+01    8.779365e-01
  2.418266e+01    8.723733e-01
  2.421441e+01    9.000155e-01
  2.424616e+01    8.746803e-01
  2.427791e+01    8.962345e-01
  2.430966e+01    9.101994e-01
  2.434141e+01    9.026905e-01
  2.437316e+01    8.813750e-01
  2.440491e+01    9.168537e-01
  2.443666e+01    9.000330e-01
  2.446842e+01    8.815369e-01
  2.450017e+01    8.878829e-01
  2.453192e+01    8.905375e-01
  2.456367e+01    8.829265e-01
  2.459542e+01    9.007837e-01
  2.462717e+01    9.026176e-01
  2.465892e+01    8.920760e-01
  2.469067e+01    8.916729e-01
  2.472242e+01    8.878532e-01
  2.475418e+01    8.957033e-01
  2.478593e+01    8.896959e-01
  2.481768e+01    8.942977e-01
  2.484943e+01    8.823297e-01
  2.488118e+01    9.091815e-01
  2.491293e+01    9.002438e-01
  2.494468e+01    8.916095e-01
  2.497643e+01    8.852133e-01
  2.500819e+01    9.136606e-01
  2.503994e+01    9.044885e-01
  2.507169e+01    9.226130e-01
  2.510344e+01    8.782886e-01
  2.513519e+01    9.154140e-01
  2.516694e+01    9.311072e-01
  2.519869e+01    9.337971e-01
  2.523044e+01    9.495016e-01
  2.526219e+01    9.502211e-01
  2.529395e+01    9.381440e-01
  2.532570e+01    9.721920e-01
  2.535745e+01    9.762020e-01
  2.538920e+01    9.749607e-01
  2.542095e+01    9.787028e-01
  2.545270e+01    1.025502e+00
  2.548445e+01    1.043208e+00
  2.551620e+01    1.081213e+00
  2.554795e+01    1.114777e+00
  2.557971e+01    1.140101e+00
  2.561146e+01    1.238876e+00
  2.564321e+01    1.294130e+00
  2.567496e+01    1.427818e+00
  2.570671e+01    1.634442e+00
  2.573846e+01    1.837916e+00
  2.577021e+01    2.257043e+00
  2.580196e+01    2.851654e+00
  2.583371e+01    3.750990e+00
  2.586547e+01    4.769789e+00
  2.589722e+01    5.932557e+00
  2.592897e+01    6.818321e+00
  2.596072e+01    7.137217e+00
  2.599247e+01    6.600986e+00
  2.602422e+01    5.228482e+00
  2.605597e+01    3.903227e+00
  2.608772e+01    3.008447e+00
  2.611948e+01    2.345934e+00
  2.615123e+01    1.946694e+00
  2.618298e+01    1.687128e+00
  2.621473e+01    1.486941e+00
  2.624648e+01    1.339296e+00
  2.627823e+01    1.256655e+00
  2.630998e+01    1.210433e+00
  2.634173e+01    1.118864e+00
  2.637348e+01    1.072778e+00
  2.640524e+01    1.064660e+00
  2.643699e+01    1.033978e+00
  2.646874e+01    1.031477e+00
  2.650049e+01    1.006513e+00
  2.653224e+01    1.017554e+00
  2.656399e+01    1.004768e+00
  2.659574e+01    9.903079e-01
  2.662749e+01    9.959700e-01
  2.665924e+01    9.814625e-01
  2.669100e+01    9.756393e-01
  2.672275e+01    9.642509e-01
  2.675450e+01    9.840780e-01
  2.678625e+01    9.685746e-01
  2.681800e+01    9.861699e-01
  2.684975e+01    9.671845e-01
  2.688150e+01    9.716982e-01
  2.691325e+01    1.018369e+00
  2.694501e+01    1.040475e+00
  2.697676e+01    1.074516e+00
  2.700851e+01    1.122812e+00
  2.704026e+01    1.223303e+00
  2.707201e+01    1.321669e+00
  2.710376e+01    1.477538e+00
  2.713551e+01    1.752014e+00
  2.716726e+01    1.974325e+00
  2.719901e+01    2.167527e+00
  2.723077e+01    2.173081e+00
  2.726252e+01    1.948884e+00
  2.729427e+01    1.690126e+00
  2.732602e+01    1.441730e+00
  2.735777e+01    1.269433e+00
  2.738952e+01    1.178508e+00
  2.742127e+01    1.093337e+00
  2.745302e+01    1.020626e+00
  2.748477e+01    9.958352e-01
  2.751653e+01    9.666111e-01
  2.754828e+01    9.535987e-01
  2.758003e+01    9.206076e-01
  2.761178e+01    9.123479e-01
  2.764353e+01    9.282268e-01
  2.767528e+01    8.819925e-01
  2.770703e+01    9.068834e-01
  2.773878e+01    9.196379e-01
  2.777054e+01    9.024456e-01
  2.780229e+01    8.878636e-01
  2.783404e+01    8.838198e-01
  2.786579e+01    8.630179e-01
  2.789754e+01    8.808395e-01
  2.792929e+01    8.806728e-01
  2.796104e+01    8.704563e-01
  2.799279e+01    9.069133e-01
  2.802454e+01    8.690581e-01
  2.805630e+01    8.548226e-01
  2.808805e+01    8.663654e-01
  2.811980e+01    8.390807e-01
  2.815155e+01    8.662717e-01
  2.818330e+01    8.610521e-01
  2.821505e+01    8.504939e-01
  2.824680e+01    8.572559e-01
  2.827855e+01    8.361863e-01
  2.831030e+01    8.587214e-01
  2.834206e+01    8.577582e-01
  2.837381e+01    8.161405e-01
  2.840556e+01    8.484690e-01
  2.843731e+01    8.587011e-01
  2.846906e+01    8.497438e-01
  2.850081e+01    8.544436e-01
  2.853256e+01    8.421668e-01
  2.856431e+01    8.167053e-01
  2.859606e+01    8.369066e-01
  2.862782e+01    8.209104e-01
  2.865957e+01    8.388174e-01
  2.869132e+01    8.334484e-01
  2.872307e+01    8.288552e-01
  2.875482e+01    8.259377e-01
  2.878657e+01    8.138461e-01
  2.881832e+01    8.237108e-01
  2.885007e+01    8.408914e-01
  2.888183e+01    8.430618e-01
  2.891358e+01    8.329736e-01
  2.894533e+01    7.989914e-01
  2.897708e+01    8.324198e-01
  2.900883e+01    8.279820e-01
  2.904058e+01    7.857767e-01
  2.907233e+01    8.257628e-01
  2.910408e+01    8.361536e-01
  2.913583e+01    8.249186e-01
  2.916759e+01    8.363772e-01
  2.919934e+01    8.214405e-01
  2.923109e+01    8.139007e-01
  2.926284e+01    8.298935e-01
  2.929459e+01    8.123664e-01
  2.932634e+01    8.081224e-01
  2.935809e+01    8.218947e-01
  2.938984e+01    8.057300e-01
  2.942159e+01    7.985157e-01
  2.945335e+01    8.100681e-01
  2.948510e+01    8.322458e-01
  2.951685e+01    8.121445e-01
  2.954860e+01    8.106595e-01
  2.958035e+01    8.151942e-01
  2.961210e+01    7.985061e-01
  2.964385e+01    7.958454e-01
  2.967560e+01    7.848945e-01
  2.970736e+01    7.980771e-01
  2.973911e+01    8.096639e-01
  2.977086e+01    7.921075e-01
  2.980261e+01    7.997124e-01
  2.983436e+01    8.072005e-01
  2.986611e+01    8.002354e-01
  2.989786e+01    8.127803e-01
  2.992961e+01    7.986965e-01
  2.996136e+01    7.979273e-01
  2.999312e+01    7.959806e-01
  3.002487e+01    8.241624e-01
  3.005662e+01    8.100945e-01
  3.008837e+01    8.079337e-01
  3.012012e+01    7.903298e-01
  3.015187e+01    7.901301e-01
  3.018362e+01    7.944639e-01
  3.021537e+01    7.882267e-01
  3.024712e+01    7.846060e-01
  3.027888e+01    7.935314e-01
  3.031063e+01    7.950472e-01
  3.034238e+01    7.676843e-01
  3.037413e+01    8.037074e-01
  3.040588e+01    7.759080e-01
  3.043763e+01    7.762395e-01
  3.046938e+01    7.897992e-01
  3.050113e+01    7.938122e-01
  3.053288e+01    7.900071e-01
  3.056464e+01    7.972263e-01
  3.059639e+01    7.631881e-01
  3.062814e+01    7.932356e-01
  3.065989e+01    7.795212e-01
  3.069164e+01    8.077263e-01
  3.072339e+01    8.050324e-01
  3.075514e+01    7.828820e-01
  3.078689e+01    8.273685e-01
  3.081865e+01    8.119149e-01
  3.085040e+01    7.769552e-01
  3.088215e+01    7.789062e-01
  3.091390e+01    7.890183e-01
  3.094565e+01    7.698903e-01
  3.097740e+01    8.115221e-01
  3.100915e+01    8.172838e-01
  3.104090e+01    7.672743e-01
  3.107265e+01    7.667944e-01
  3.110441e+01    8.002425e-01
  3.113616e+01    7.948353e-01
  3.116791e+01    7.999341e-01
  3.119966e+01    7.954296e-01
  3.123141e+01    7.979643e-01
  3.126316e+01    8.084366e-01
  3.129491e+01    8.119942e-01
  3.132666e+01    7.937891e-01
  3.135841e+01    8.418217e-01
  3.139017e+01    8.285353e-01
  3.142192e+01    8.106890e-01
  3.145367e+01    8.423750e-01
  3.148542e+01    8.256493e-01
  3.151717e+01    8.247200e-01
  3.154892e+01    8.536944e-01
  3.158067e+01    8.795367e-01
  3.161242e+01    9.013001e-01
  3.164418e+01    9.163441e-01
  3.167593e+01    9.782645e-01
  3.170768e+01    1.039544e+00
  3.173943e+01    1.096077e+00
  3.177118e+01    1.263364e+00
  3.180293e+01    1.490374e+00
  3.183468e+01    1.709602e+00
  3.186643e+01    2.008729e+00
  3.189818e+01    2.107243e+00
  3.192994e+01    2.053214e+00
  3.196169e+01    1.836779e+00
  3.199344e+01    1.555295e+00
  3.202519e+01    1.323674e+00
  3.205694e+01    1.169051e+00
  3.208869e+01    1.032034e+00
  3.212044e+01    9.743408e-01
  3.215219e+01    9.015692e-01
  3.218394e+01    9.002905e-01
  3.221570e+01    8.872648e-01
  3.224745e+01    8.136374e-01
  3.227920e+01    8.227058e-01
  3.231095e+01    7.824676e-01
  3.234270e+01    8.216905e-01
  3.237445e+01    7.891776e-01
  3.240620e+01    7.838765e-01
  3.243795e+01    7.825466e-01
  3.246970e+01    7.900051e-01
  3.250146e+01    7.783462e-01
  3.253321e+01    7.857103e-01
  3.254908e+01    7.652083e-01