File: XRD/Reaction conditions/2024-07-27_003_Ru-CGO-ex_Reaction_dwell_000023_data_000049.dat
# == pyFAI calibration ==
# Distance Sample to Detector: 0.4 m
# PONI: 9.750e-02, 1.135e-01 m
# Rotations: -0.000175 0.000000 -0.000000 rad
#
# == Fit2d calibration ==
# Distance Sample-beamCenter: 400.000 mm
# Center: x=1514.000, y=1300.000 pix
# Tilt: 0.010 deg  TiltPlanRot: 0.010 deg
#
# Detector Detector	 Spline= None	 PixelSize= 7.500e-05, 7.500e-05 m
#    Detector has a mask: False
#    Detector has a dark current: False
#    detector has a flat field: False
#
# Wavelength: 6.888e-11 m
# Mask applied: user provided
# Dark current applied: False
# Flat field applied: False
# Polarization factor: 0.99
# Normalization factor: 1.0
# --> /home/myspot/data/2024_07_Rosario/Ru-CGO-ex/2024-07-27_003_Ru-CGO-ex_Reaction_dwell_000023_data_000049.dat
#       q_nm^-1             I
  2.003187e-02    0.000000e+00
  5.178302e-02    9.529021e-02
  8.353417e-02    1.911546e-01
  1.152853e-01    3.773169e-02
  1.470365e-01    9.749673e-02
  1.787876e-01    0.000000e+00
  2.105388e-01    1.796762e-02
  2.422899e-01    4.236707e-02
  2.740411e-01    6.655701e-02
  3.057922e-01    4.780152e-02
  3.375433e-01    8.966815e-02
  3.692945e-01    1.331469e-02
  4.010456e-01    2.709769e-02
  4.327968e-01    3.144687e-02
  4.645479e-01    5.408330e-02
  4.962991e-01    5.182614e-02
  5.280502e-01    2.787120e-02
  5.598014e-01    3.455279e-02
  5.915525e-01    1.449059e-02
  6.233037e-01    5.828449e-02
  6.550548e-01    4.181829e-02
  6.868060e-01    4.332586e-02
  7.185571e-01    2.896849e-02
  7.503083e-01    3.926215e-02
  7.820594e-01    1.321237e-01
  8.138106e-01    2.069751e-01
  8.455617e-01    3.851414e-01
  8.773129e-01    4.968337e-01
  9.090640e-01    6.274291e-01
  9.408152e-01    8.378388e-01
  9.725663e-01    1.088828e+00
  1.004317e+00    1.130650e+00
  1.036069e+00    1.352035e+00
  1.067820e+00    1.615871e+00
  1.099571e+00    1.587958e+00
  1.131322e+00    1.618458e+00
  1.163073e+00    1.662747e+00
  1.194824e+00    1.793227e+00
  1.226575e+00    2.238964e+00
  1.258327e+00    2.488512e+00
  1.290078e+00    2.623797e+00
  1.321829e+00    2.680093e+00
  1.353580e+00    2.750916e+00
  1.385331e+00    2.899166e+00
  1.417082e+00    2.873669e+00
  1.448834e+00    2.967392e+00
  1.480585e+00    3.039603e+00
  1.512336e+00    3.151420e+00
  1.544087e+00    3.380936e+00
  1.575838e+00    3.185840e+00
  1.607589e+00    3.257085e+00
  1.639340e+00    3.025726e+00
  1.671092e+00    3.067821e+00
  1.702843e+00    3.160326e+00
  1.734594e+00    3.112811e+00
  1.766345e+00    3.034712e+00
  1.798096e+00    3.008143e+00
  1.829847e+00    3.222103e+00
  1.861598e+00    3.045064e+00
  1.893350e+00    3.021790e+00
  1.925101e+00    3.050123e+00
  1.956852e+00    3.128005e+00
  1.988603e+00    3.055737e+00
  2.020354e+00    3.118384e+00
  2.052105e+00    3.104897e+00
  2.083856e+00    3.177164e+00
  2.115608e+00    3.091773e+00
  2.147359e+00    3.070446e+00
  2.179110e+00    2.944840e+00
  2.210861e+00    3.098443e+00
  2.242612e+00    3.058796e+00
  2.274363e+00    3.074692e+00
  2.306115e+00    3.168689e+00
  2.337866e+00    3.164394e+00
  2.369617e+00    3.142039e+00
  2.401368e+00    3.137455e+00
  2.433119e+00    3.114224e+00
  2.464870e+00    3.216063e+00
  2.496621e+00    3.217691e+00
  2.528373e+00    3.194192e+00
  2.560124e+00    3.152647e+00
  2.591875e+00    3.215774e+00
  2.623626e+00    3.242860e+00
  2.655377e+00    3.158788e+00
  2.687128e+00    3.213355e+00
  2.718879e+00    3.203505e+00
  2.750631e+00    3.302232e+00
  2.782382e+00    3.289298e+00
  2.814133e+00    3.252569e+00
  2.845884e+00    3.287120e+00
  2.877635e+00    3.362917e+00
  2.909386e+00    3.253889e+00
  2.941137e+00    3.249002e+00
  2.972889e+00    3.290169e+00
  3.004640e+00    3.435114e+00
  3.036391e+00    3.338808e+00
  3.068142e+00    3.270962e+00
  3.099893e+00    3.400167e+00
  3.131644e+00    3.425030e+00
  3.163395e+00    3.412842e+00
  3.195147e+00    3.342480e+00
  3.226898e+00    3.308300e+00
  3.258649e+00    3.336681e+00
  3.290400e+00    3.367905e+00
  3.322151e+00    3.483485e+00
  3.353902e+00    3.389159e+00
  3.385654e+00    3.411576e+00
  3.417405e+00    3.419517e+00
  3.449156e+00    3.480431e+00
  3.480907e+00    3.462045e+00
  3.512658e+00    3.452082e+00
  3.544409e+00    3.454387e+00
  3.576160e+00    3.545308e+00
  3.607912e+00    3.510154e+00
  3.639663e+00    3.398208e+00
  3.671414e+00    3.502298e+00
  3.703165e+00    3.526057e+00
  3.734916e+00    3.485440e+00
  3.766667e+00    3.549918e+00
  3.798418e+00    3.473408e+00
  3.830170e+00    3.560102e+00
  3.861921e+00    3.510293e+00
  3.893672e+00    3.484123e+00
  3.925423e+00    3.509462e+00
  3.957174e+00    3.582293e+00
  3.988925e+00    3.562075e+00
  4.020676e+00    3.519422e+00
  4.052428e+00    3.550028e+00
  4.084179e+00    3.598579e+00
  4.115930e+00    3.570882e+00
  4.147681e+00    3.671010e+00
  4.179432e+00    3.607634e+00
  4.211183e+00    3.570328e+00
  4.242935e+00    3.525633e+00
  4.274686e+00    3.439134e+00
  4.306437e+00    3.547301e+00
  4.338188e+00    3.586100e+00
  4.369939e+00    3.604903e+00
  4.401690e+00    3.663854e+00
  4.433441e+00    3.653775e+00
  4.465193e+00    3.622027e+00
  4.496944e+00    3.546624e+00
  4.528695e+00    3.577945e+00
  4.560446e+00    3.517587e+00
  4.592197e+00    3.591850e+00
  4.623948e+00    3.591987e+00
  4.655699e+00    3.539752e+00
  4.687451e+00    3.581593e+00
  4.719202e+00    3.558808e+00
  4.750953e+00    3.682699e+00
  4.782704e+00    3.647360e+00
  4.814455e+00    3.661012e+00
  4.846206e+00    3.575294e+00
  4.877957e+00    3.635162e+00
  4.909709e+00    3.772565e+00
  4.941460e+00    3.636777e+00
  4.973211e+00    3.745499e+00
  5.004962e+00    3.677211e+00
  5.036713e+00    3.711210e+00
  5.068464e+00    3.628198e+00
  5.100216e+00    3.682712e+00
  5.131967e+00    3.649019e+00
  5.163718e+00    3.667493e+00
  5.195469e+00    3.663922e+00
  5.227220e+00    3.632413e+00
  5.258971e+00    3.590190e+00
  5.290722e+00    3.680158e+00
  5.322474e+00    3.722559e+00
  5.354225e+00    3.665471e+00
  5.385976e+00    3.699286e+00
  5.417727e+00    3.644313e+00
  5.449478e+00    3.630265e+00
  5.481229e+00    3.651450e+00
  5.512980e+00    3.622244e+00
  5.544732e+00    3.652087e+00
  5.576483e+00    3.612429e+00
  5.608234e+00    3.543806e+00
  5.639985e+00    3.586917e+00
  5.671736e+00    3.629396e+00
  5.703487e+00    3.675949e+00
  5.735238e+00    3.634831e+00
  5.766990e+00    3.553354e+00
  5.798741e+00    3.623902e+00
  5.830492e+00    3.556352e+00
  5.862243e+00    3.597672e+00
  5.893994e+00    3.583521e+00
  5.925745e+00    3.567742e+00
  5.957497e+00    3.472588e+00
  5.989248e+00    3.544816e+00
  6.020999e+00    3.501955e+00
  6.052750e+00    3.482414e+00
  6.084501e+00    3.598456e+00
  6.116252e+00    3.596147e+00
  6.148003e+00    3.603914e+00
  6.179755e+00    3.565855e+00
  6.211506e+00    3.532470e+00
  6.243257e+00    3.509160e+00
  6.275008e+00    3.624918e+00
  6.306759e+00    3.556548e+00
  6.338510e+00    3.531237e+00
  6.370261e+00    3.496816e+00
  6.402013e+00    3.506885e+00
  6.433764e+00    3.525150e+00
  6.465515e+00    3.549835e+00
  6.497266e+00    3.552166e+00
  6.529017e+00    3.504057e+00
  6.560768e+00    3.632460e+00
  6.592519e+00    3.581259e+00
  6.624271e+00    3.643211e+00
  6.656022e+00    3.581364e+00
  6.687773e+00    3.602630e+00
  6.719524e+00    3.574735e+00
  6.751275e+00    3.557819e+00
  6.783026e+00    3.582407e+00
  6.814777e+00    3.573711e+00
  6.846529e+00    3.573644e+00
  6.878280e+00    3.601293e+00
  6.910031e+00    3.487629e+00
  6.941782e+00    3.552233e+00
  6.973533e+00    3.423306e+00
  7.005284e+00    3.475369e+00
  7.037036e+00    3.527493e+00
  7.068787e+00    3.538927e+00
  7.100538e+00    3.513798e+00
  7.132289e+00    3.555235e+00
  7.164040e+00    3.515688e+00
  7.195791e+00    3.589472e+00
  7.227542e+00    3.485689e+00
  7.259294e+00    3.491955e+00
  7.291045e+00    3.492340e+00
  7.322796e+00    3.521014e+00
  7.354547e+00    3.491512e+00
  7.386298e+00    3.526630e+00
  7.418049e+00    3.521576e+00
  7.449800e+00    3.528378e+00
  7.481552e+00    3.548465e+00
  7.513303e+00    3.549858e+00
  7.545054e+00    3.389560e+00
  7.576805e+00    3.464891e+00
  7.608556e+00    3.551269e+00
  7.640307e+00    3.404621e+00
  7.672058e+00    3.474840e+00
  7.703810e+00    3.409075e+00
  7.735561e+00    3.475744e+00
  7.767312e+00    3.411991e+00
  7.799063e+00    3.439425e+00
  7.830814e+00    3.464459e+00
  7.862565e+00    3.505606e+00
  7.894317e+00    3.446180e+00
  7.926068e+00    3.353541e+00
  7.957819e+00    3.457852e+00
  7.989570e+00    3.493178e+00
  8.021321e+00    3.404671e+00
  8.053072e+00    3.445051e+00
  8.084823e+00    3.417533e+00
  8.116575e+00    3.546918e+00
  8.148326e+00    3.402358e+00
  8.180077e+00    3.482296e+00
  8.211828e+00    3.390890e+00
  8.243579e+00    3.473993e+00
  8.275330e+00    3.414716e+00
  8.307081e+00    3.469594e+00
  8.338833e+00    3.412647e+00
  8.370584e+00    3.406502e+00
  8.402335e+00    3.357546e+00
  8.434086e+00    3.350994e+00
  8.465837e+00    3.409100e+00
  8.497588e+00    3.358979e+00
  8.529339e+00    3.367939e+00
  8.561091e+00    3.351205e+00
  8.592842e+00    3.334803e+00
  8.624593e+00    3.377249e+00
  8.656344e+00    3.372230e+00
  8.688095e+00    3.272007e+00
  8.719846e+00    3.333513e+00
  8.751598e+00    3.333579e+00
  8.783349e+00    3.292141e+00
  8.815100e+00    3.304076e+00
  8.846851e+00    3.335776e+00
  8.878602e+00    3.304410e+00
  8.910353e+00    3.317378e+00
  8.942104e+00    3.357837e+00
  8.973856e+00    3.257303e+00
  9.005607e+00    3.219372e+00
  9.037358e+00    3.277459e+00
  9.069109e+00    3.279266e+00
  9.100860e+00    3.274707e+00
  9.132611e+00    3.272747e+00
  9.164362e+00    3.283009e+00
  9.196114e+00    3.328863e+00
  9.227865e+00    3.200400e+00
  9.259616e+00    3.258544e+00
  9.291367e+00    3.220695e+00
  9.323118e+00    3.225065e+00
  9.354869e+00    3.214774e+00
  9.386620e+00    3.230994e+00
  9.418372e+00    3.167513e+00
  9.450123e+00    3.221873e+00
  9.481874e+00    3.172399e+00
  9.513625e+00    3.217935e+00
  9.545376e+00    3.281299e+00
  9.577127e+00    3.159927e+00
  9.608878e+00    3.256644e+00
  9.640630e+00    3.219660e+00
  9.672381e+00    3.196077e+00
  9.704132e+00    3.216623e+00
  9.735883e+00    3.170825e+00
  9.767634e+00    3.206121e+00
  9.799385e+00    3.143376e+00
  9.831137e+00    3.149046e+00
  9.862888e+00    3.082879e+00
  9.894639e+00    3.115362e+00
  9.926390e+00    3.241176e+00
  9.958141e+00    3.118720e+00
  9.989892e+00    3.134152e+00
  1.002164e+01    3.185778e+00
  1.005339e+01    3.110685e+00
  1.008515e+01    3.139722e+00
  1.011690e+01    3.049660e+00
  1.014865e+01    3.080920e+00
  1.018040e+01    3.061277e+00
  1.021215e+01    3.128757e+00
  1.024390e+01    3.117115e+00
  1.027565e+01    3.058702e+00
  1.030740e+01    3.105385e+00
  1.033915e+01    3.029529e+00
  1.037091e+01    3.030991e+00
  1.040266e+01    2.976899e+00
  1.043441e+01    3.045462e+00
  1.046616e+01    3.054146e+00
  1.049791e+01    3.059666e+00
  1.052966e+01    2.979538e+00
  1.056141e+01    2.999921e+00
  1.059316e+01    2.985426e+00
  1.062492e+01    2.991408e+00
  1.065667e+01    3.012952e+00
  1.068842e+01    2.998043e+00
  1.072017e+01    3.061174e+00
  1.075192e+01    2.964072e+00
  1.078367e+01    2.955807e+00
  1.081542e+01    2.983504e+00
  1.084717e+01    2.966990e+00
  1.087892e+01    2.978475e+00
  1.091068e+01    2.914360e+00
  1.094243e+01    2.898189e+00
  1.097418e+01    2.810405e+00
  1.100593e+01    2.885437e+00
  1.103768e+01    2.914192e+00
  1.106943e+01    2.881041e+00
  1.110118e+01    2.896810e+00
  1.113293e+01    2.892869e+00
  1.116468e+01    2.837658e+00
  1.119644e+01    2.906070e+00
  1.122819e+01    2.869070e+00
  1.125994e+01    2.907719e+00
  1.129169e+01    2.832764e+00
  1.132344e+01    2.892326e+00
  1.135519e+01    2.767329e+00
  1.138694e+01    2.834297e+00
  1.141869e+01    2.847766e+00
  1.145045e+01    2.842966e+00
  1.148220e+01    2.811413e+00
  1.151395e+01    2.815502e+00
  1.154570e+01    2.762004e+00
  1.157745e+01    2.811233e+00
  1.160920e+01    2.749957e+00
  1.164095e+01    2.783252e+00
  1.167270e+01    2.782634e+00
  1.170445e+01    2.757636e+00
  1.173621e+01    2.791381e+00
  1.176796e+01    2.770191e+00
  1.179971e+01    2.762187e+00
  1.183146e+01    2.769773e+00
  1.186321e+01    2.707091e+00
  1.189496e+01    2.690687e+00
  1.192671e+01    2.753653e+00
  1.195846e+01    2.710591e+00
  1.199021e+01    2.731961e+00
  1.202197e+01    2.706570e+00
  1.205372e+01    2.684895e+00
  1.208547e+01    2.712094e+00
  1.211722e+01    2.736093e+00
  1.214897e+01    2.688132e+00
  1.218072e+01    2.677896e+00
  1.221247e+01    2.667703e+00
  1.224422e+01    2.724570e+00
  1.227597e+01    2.681620e+00
  1.230773e+01    2.739195e+00
  1.233948e+01    2.724647e+00
  1.237123e+01    2.701103e+00
  1.240298e+01    2.709394e+00
  1.243473e+01    2.704129e+00
  1.246648e+01    2.686198e+00
  1.249823e+01    2.668719e+00
  1.252998e+01    2.725791e+00
  1.256174e+01    2.728934e+00
  1.259349e+01    2.704254e+00
  1.262524e+01    2.787877e+00
  1.265699e+01    2.819850e+00
  1.268874e+01    2.832340e+00
  1.272049e+01    2.823993e+00
  1.275224e+01    2.906153e+00
  1.278399e+01    3.000278e+00
  1.281574e+01    3.019577e+00
  1.284750e+01    3.156642e+00
  1.287925e+01    3.398771e+00
  1.291100e+01    3.688978e+00
  1.294275e+01    4.045485e+00
  1.297450e+01    4.790233e+00
  1.300625e+01    5.857538e+00
  1.303800e+01    7.599833e+00
  1.306975e+01    1.022857e+01
  1.310150e+01    1.262640e+01
  1.313326e+01    1.473934e+01
  1.316501e+01    1.642698e+01
  1.319676e+01    1.563922e+01
  1.322851e+01    1.255839e+01
  1.326026e+01    9.027561e+00
  1.329201e+01    6.771581e+00
  1.332376e+01    5.347910e+00
  1.335551e+01    4.439256e+00
  1.338727e+01    3.838310e+00
  1.341902e+01    3.532317e+00
  1.345077e+01    3.201226e+00
  1.348252e+01    3.061389e+00
  1.351427e+01    2.863215e+00
  1.354602e+01    2.859556e+00
  1.357777e+01    2.720957e+00
  1.360952e+01    2.674592e+00
  1.364127e+01    2.649971e+00
  1.367303e+01    2.586651e+00
  1.370478e+01    2.576810e+00
  1.373653e+01    2.477799e+00
  1.376828e+01    2.487459e+00
  1.380003e+01    2.453124e+00
  1.383178e+01    2.443827e+00
  1.386353e+01    2.434105e+00
  1.389528e+01    2.454363e+00
  1.392703e+01    2.366059e+00
  1.395879e+01    2.413322e+00
  1.399054e+01    2.394290e+00
  1.402229e+01    2.360947e+00
  1.405404e+01    2.336057e+00
  1.408579e+01    2.298514e+00
  1.411754e+01    2.364694e+00
  1.414929e+01    2.335764e+00
  1.418104e+01    2.302975e+00
  1.421279e+01    2.318088e+00
  1.424455e+01    2.306497e+00
  1.427630e+01    2.280029e+00
  1.430805e+01    2.232331e+00
  1.433980e+01    2.267011e+00
  1.437155e+01    2.285915e+00
  1.440330e+01    2.250846e+00
  1.443505e+01    2.242273e+00
  1.446680e+01    2.237932e+00
  1.449856e+01    2.220293e+00
  1.453031e+01    2.246766e+00
  1.456206e+01    2.246293e+00
  1.459381e+01    2.208577e+00
  1.462556e+01    2.239286e+00
  1.465731e+01    2.190363e+00
  1.468906e+01    2.191420e+00
  1.472081e+01    2.195149e+00
  1.475256e+01    2.190970e+00
  1.478432e+01    2.191436e+00
  1.481607e+01    2.235044e+00
  1.484782e+01    2.197674e+00
  1.487957e+01    2.276106e+00
  1.491132e+01    2.261434e+00
  1.494307e+01    2.286144e+00
  1.497482e+01    2.346287e+00
  1.500657e+01    2.422136e+00
  1.503832e+01    2.609023e+00
  1.507008e+01    2.822492e+00
  1.510183e+01    3.159649e+00
  1.513358e+01    3.799723e+00
  1.516533e+01    4.529247e+00
  1.519708e+01    5.121079e+00
  1.522883e+01    5.560479e+00
  1.526058e+01    5.776164e+00
  1.529233e+01    5.464661e+00
  1.532409e+01    4.612120e+00
  1.535584e+01    3.769905e+00
  1.538759e+01    3.171844e+00
  1.541934e+01    2.772542e+00
  1.545109e+01    2.542189e+00
  1.548284e+01    2.388649e+00
  1.551459e+01    2.245003e+00
  1.554634e+01    2.162285e+00
  1.557809e+01    2.147776e+00
  1.560985e+01    2.071748e+00
  1.564160e+01    2.029248e+00
  1.567335e+01    2.025456e+00
  1.570510e+01    2.013160e+00
  1.573685e+01    1.986970e+00
  1.576860e+01    2.000217e+00
  1.580035e+01    1.973653e+00
  1.583210e+01    1.933589e+00
  1.586385e+01    1.954355e+00
  1.589561e+01    1.893046e+00
  1.592736e+01    1.888601e+00
  1.595911e+01    1.898514e+00
  1.599086e+01    1.886237e+00
  1.602261e+01    1.871047e+00
  1.605436e+01    1.878267e+00
  1.608611e+01    1.897837e+00
  1.611786e+01    1.866471e+00
  1.614961e+01    1.855192e+00
  1.618137e+01    1.835921e+00
  1.621312e+01    1.829883e+00
  1.624487e+01    1.856094e+00
  1.627662e+01    1.794574e+00
  1.630837e+01    1.823782e+00
  1.634012e+01    1.799170e+00
  1.637187e+01    1.813994e+00
  1.640362e+01    1.760064e+00
  1.643538e+01    1.770939e+00
  1.646713e+01    1.786781e+00
  1.649888e+01    1.788661e+00
  1.653063e+01    1.773257e+00
  1.656238e+01    1.763200e+00
  1.659413e+01    1.748389e+00
  1.662588e+01    1.730597e+00
  1.665763e+01    1.731517e+00
  1.668938e+01    1.738906e+00
  1.672114e+01    1.718570e+00
  1.675289e+01    1.710497e+00
  1.678464e+01    1.702336e+00
  1.681639e+01    1.711178e+00
  1.684814e+01    1.694925e+00
  1.687989e+01    1.714197e+00
  1.691164e+01    1.665284e+00
  1.694339e+01    1.670046e+00
  1.697514e+01    1.680165e+00
  1.700690e+01    1.643125e+00
  1.703865e+01    1.660152e+00
  1.707040e+01    1.671529e+00
  1.710215e+01    1.642852e+00
  1.713390e+01    1.637224e+00
  1.716565e+01    1.637754e+00
  1.719740e+01    1.639900e+00
  1.722915e+01    1.615059e+00
  1.726091e+01    1.649512e+00
  1.729266e+01    1.628502e+00
  1.732441e+01    1.613607e+00
  1.735616e+01    1.589005e+00
  1.738791e+01    1.629869e+00
  1.741966e+01    1.566171e+00
  1.745141e+01    1.578154e+00
  1.748316e+01    1.592841e+00
  1.751491e+01    1.528310e+00
  1.754667e+01    1.598694e+00
  1.757842e+01    1.554195e+00
  1.761017e+01    1.569833e+00
  1.764192e+01    1.539175e+00
  1.767367e+01    1.578213e+00
  1.770542e+01    1.566336e+00
  1.773717e+01    1.568622e+00
  1.776892e+01    1.526407e+00
  1.780067e+01    1.539685e+00
  1.783243e+01    1.546016e+00
  1.786418e+01    1.528950e+00
  1.789593e+01    1.527930e+00
  1.792768e+01    1.528225e+00
  1.795943e+01    1.494889e+00
  1.799118e+01    1.527663e+00
  1.802293e+01    1.521734e+00
  1.805468e+01    1.512754e+00
  1.808643e+01    1.509402e+00
  1.811819e+01    1.466199e+00
  1.814994e+01    1.516900e+00
  1.818169e+01    1.494601e+00
  1.821344e+01    1.483266e+00
  1.824519e+01    1.475519e+00
  1.827694e+01    1.484930e+00
  1.830869e+01    1.482459e+00
  1.834044e+01    1.479744e+00
  1.837220e+01    1.486839e+00
  1.840395e+01    1.460971e+00
  1.843570e+01    1.488803e+00
  1.846745e+01    1.420296e+00
  1.849920e+01    1.438866e+00
  1.853095e+01    1.443703e+00
  1.856270e+01    1.436610e+00
  1.859445e+01    1.428797e+00
  1.862620e+01    1.420742e+00
  1.865796e+01    1.421647e+00
  1.868971e+01    1.430149e+00
  1.872146e+01    1.411560e+00
  1.875321e+01    1.437978e+00
  1.878496e+01    1.414726e+00
  1.881671e+01    1.403278e+00
  1.884846e+01    1.400217e+00
  1.888021e+01    1.420736e+00
  1.891196e+01    1.388383e+00
  1.894372e+01    1.411620e+00
  1.897547e+01    1.399993e+00
  1.900722e+01    1.365836e+00
  1.903897e+01    1.379656e+00
  1.907072e+01    1.357178e+00
  1.910247e+01    1.341318e+00
  1.913422e+01    1.357569e+00
  1.916597e+01    1.361667e+00
  1.919773e+01    1.359127e+00
  1.922948e+01    1.356311e+00
  1.926123e+01    1.352880e+00
  1.929298e+01    1.332873e+00
  1.932473e+01    1.352898e+00
  1.935648e+01    1.389667e+00
  1.938823e+01    1.354447e+00
  1.941998e+01    1.338812e+00
  1.945173e+01    1.371270e+00
  1.948349e+01    1.329474e+00
  1.951524e+01    1.314839e+00
  1.954699e+01    1.348246e+00
  1.957874e+01    1.321125e+00
  1.961049e+01    1.323775e+00
  1.964224e+01    1.301769e+00
  1.967399e+01    1.304339e+00
  1.970574e+01    1.284420e+00
  1.973749e+01    1.293533e+00
  1.976925e+01    1.305608e+00
  1.980100e+01    1.271811e+00
  1.983275e+01    1.277027e+00
  1.986450e+01    1.286874e+00
  1.989625e+01    1.268006e+00
  1.992800e+01    1.273664e+00
  1.995975e+01    1.284844e+00
  1.999150e+01    1.281971e+00
  2.002325e+01    1.318131e+00
  2.005501e+01    1.262758e+00
  2.008676e+01    1.284409e+00
  2.011851e+01    1.281709e+00
  2.015026e+01    1.230462e+00
  2.018201e+01    1.279845e+00
  2.021376e+01    1.266147e+00
  2.024551e+01    1.252231e+00
  2.027726e+01    1.269197e+00
  2.030902e+01    1.238898e+00
  2.034077e+01    1.248079e+00
  2.037252e+01    1.216359e+00
  2.040427e+01    1.243539e+00
  2.043602e+01    1.238634e+00
  2.046777e+01    1.262984e+00
  2.049952e+01    1.245457e+00
  2.053127e+01    1.248589e+00
  2.056302e+01    1.225795e+00
  2.059478e+01    1.266366e+00
  2.062653e+01    1.232247e+00
  2.065828e+01    1.240917e+00
  2.069003e+01    1.241222e+00
  2.072178e+01    1.235540e+00
  2.075353e+01    1.240967e+00
  2.078528e+01    1.234476e+00
  2.081703e+01    1.234463e+00
  2.084878e+01    1.241163e+00
  2.088054e+01    1.218931e+00
  2.091229e+01    1.236785e+00
  2.094404e+01    1.224813e+00
  2.097579e+01    1.243806e+00
  2.100754e+01    1.233195e+00
  2.103929e+01    1.194781e+00
  2.107104e+01    1.217770e+00
  2.110279e+01    1.214939e+00
  2.113455e+01    1.221756e+00
  2.116630e+01    1.225104e+00
  2.119805e+01    1.240526e+00
  2.122980e+01    1.215541e+00
  2.126155e+01    1.258395e+00
  2.129330e+01    1.271515e+00
  2.132505e+01    1.282178e+00
  2.135680e+01    1.264527e+00
  2.138855e+01    1.293900e+00
  2.142031e+01    1.301423e+00
  2.145206e+01    1.363392e+00
  2.148381e+01    1.401434e+00
  2.151556e+01    1.458169e+00
  2.154731e+01    1.521299e+00
  2.157906e+01    1.590915e+00
  2.161081e+01    1.750700e+00
  2.164256e+01    1.964463e+00
  2.167431e+01    2.294676e+00
  2.170607e+01    2.769200e+00
  2.173782e+01    3.476342e+00
  2.176957e+01    4.512117e+00
  2.180132e+01    5.850866e+00
  2.183307e+01    7.093247e+00
  2.186482e+01    8.361467e+00
  2.189657e+01    8.920317e+00
  2.192832e+01    8.281389e+00
  2.196007e+01    6.618632e+00
  2.199183e+01    4.914104e+00
  2.202358e+01    3.636005e+00
  2.205533e+01    2.874329e+00
  2.208708e+01    2.339683e+00
  2.211883e+01    2.022334e+00
  2.215058e+01    1.759766e+00
  2.218233e+01    1.624275e+00
  2.221408e+01    1.524670e+00
  2.224584e+01    1.440542e+00
  2.227759e+01    1.317209e+00
  2.230934e+01    1.317082e+00
  2.234109e+01    1.266353e+00
  2.237284e+01    1.208065e+00
  2.240459e+01    1.187721e+00
  2.243634e+01    1.200943e+00
  2.246809e+01    1.158808e+00
  2.249984e+01    1.162344e+00
  2.253160e+01    1.120587e+00
  2.256335e+01    1.152352e+00
  2.259510e+01    1.110053e+00
  2.262685e+01    1.106658e+00
  2.265860e+01    1.096851e+00
  2.269035e+01    1.090502e+00
  2.272210e+01    1.079382e+00
  2.275385e+01    1.088738e+00
  2.278560e+01    1.093904e+00
  2.281736e+01    1.077501e+00
  2.284911e+01    1.053447e+00
  2.288086e+01    1.053042e+00
  2.291261e+01    1.016362e+00
  2.294436e+01    1.010626e+00
  2.297611e+01    1.026037e+00
  2.300786e+01    1.034376e+00
  2.303961e+01    1.010647e+00
  2.307137e+01    1.001140e+00
  2.310312e+01    1.015778e+00
  2.313487e+01    9.908217e-01
  2.316662e+01    9.850357e-01
  2.319837e+01    1.008449e+00
  2.323012e+01    9.934613e-01
  2.326187e+01    1.017045e+00
  2.329362e+01    9.912347e-01
  2.332537e+01    9.879156e-01
  2.335713e+01    9.856066e-01
  2.338888e+01    9.710552e-01
  2.342063e+01    9.868153e-01
  2.345238e+01    9.816451e-01
  2.348413e+01    9.720904e-01
  2.351588e+01    9.711021e-01
  2.354763e+01    9.539046e-01
  2.357938e+01    9.797414e-01
  2.361113e+01    9.747426e-01
  2.364289e+01    9.676209e-01
  2.367464e+01    9.436308e-01
  2.370639e+01    9.411265e-01
  2.373814e+01    9.306819e-01
  2.376989e+01    9.171761e-01
  2.380164e+01    9.280946e-01
  2.383339e+01    9.031651e-01
  2.386514e+01    9.286493e-01
  2.389689e+01    8.954822e-01
  2.392865e+01    9.047291e-01
  2.396040e+01    8.957323e-01
  2.399215e+01    8.980780e-01
  2.402390e+01    8.957589e-01
  2.405565e+01    9.022053e-01
  2.408740e+01    8.968146e-01
  2.411915e+01    8.788035e-01
  2.415090e+01    9.058154e-01
  2.418266e+01    8.797305e-01
  2.421441e+01    8.627849e-01
  2.424616e+01    8.898798e-01
  2.427791e+01    8.759637e-01
  2.430966e+01    8.884342e-01
  2.434141e+01    9.074889e-01
  2.437316e+01    8.832403e-01
  2.440491e+01    9.286910e-01
  2.443666e+01    9.074054e-01
  2.446842e+01    8.945109e-01
  2.450017e+01    8.902968e-01
  2.453192e+01    8.952028e-01
  2.456367e+01    8.969579e-01
  2.459542e+01    8.854125e-01
  2.462717e+01    8.894736e-01
  2.465892e+01    9.037296e-01
  2.469067e+01    8.873363e-01
  2.472242e+01    9.015000e-01
  2.475418e+01    8.944481e-01
  2.478593e+01    8.796262e-01
  2.481768e+01    8.944504e-01
  2.484943e+01    8.866326e-01
  2.488118e+01    8.965513e-01
  2.491293e+01    8.850846e-01
  2.494468e+01    8.820398e-01
  2.497643e+01    8.886307e-01
  2.500819e+01    8.962896e-01
  2.503994e+01    9.235340e-01
  2.507169e+01    9.037732e-01
  2.510344e+01    9.230607e-01
  2.513519e+01    9.018552e-01
  2.516694e+01    9.164619e-01
  2.519869e+01    9.222348e-01
  2.523044e+01    9.088452e-01
  2.526219e+01    9.390653e-01
  2.529395e+01    9.619533e-01
  2.532570e+01    9.572996e-01
  2.535745e+01    9.834093e-01
  2.538920e+01    9.809038e-01
  2.542095e+01    1.007782e+00
  2.545270e+01    1.024813e+00
  2.548445e+01    1.027297e+00
  2.551620e+01    1.064563e+00
  2.554795e+01    1.118392e+00
  2.557971e+01    1.144867e+00
  2.561146e+01    1.221278e+00
  2.564321e+01    1.300400e+00
  2.567496e+01    1.414135e+00
  2.570671e+01    1.589228e+00
  2.573846e+01    1.824993e+00
  2.577021e+01    2.206894e+00
  2.580196e+01    2.779624e+00
  2.583371e+01    3.599997e+00
  2.586547e+01    4.633204e+00
  2.589722e+01    5.741681e+00
  2.592897e+01    6.706503e+00
  2.596072e+01    7.139497e+00
  2.599247e+01    6.577282e+00
  2.602422e+01    5.310999e+00
  2.605597e+01    3.993079e+00
  2.608772e+01    3.022250e+00
  2.611948e+01    2.390022e+00
  2.615123e+01    1.970438e+00
  2.618298e+01    1.677974e+00
  2.621473e+01    1.472142e+00
  2.624648e+01    1.326301e+00
  2.627823e+01    1.232872e+00
  2.630998e+01    1.197224e+00
  2.634173e+01    1.143835e+00
  2.637348e+01    1.112370e+00
  2.640524e+01    1.058014e+00
  2.643699e+01    1.038140e+00
  2.646874e+01    1.028336e+00
  2.650049e+01    1.030247e+00
  2.653224e+01    9.883701e-01
  2.656399e+01    9.671743e-01
  2.659574e+01    9.862335e-01
  2.662749e+01    9.864090e-01
  2.665924e+01    9.717984e-01
  2.669100e+01    9.894212e-01
  2.672275e+01    9.898996e-01
  2.675450e+01    9.740911e-01
  2.678625e+01    9.529966e-01
  2.681800e+01    9.495479e-01
  2.684975e+01    9.874161e-01
  2.688150e+01    9.945804e-01
  2.691325e+01    9.997777e-01
  2.694501e+01    1.046797e+00
  2.697676e+01    1.025918e+00
  2.700851e+01    1.114799e+00
  2.704026e+01    1.209884e+00
  2.707201e+01    1.315607e+00
  2.710376e+01    1.493870e+00
  2.713551e+01    1.720538e+00
  2.716726e+01    1.938516e+00
  2.719901e+01    2.166540e+00
  2.723077e+01    2.165291e+00
  2.726252e+01    1.941768e+00
  2.729427e+01    1.718239e+00
  2.732602e+01    1.462188e+00
  2.735777e+01    1.276350e+00
  2.738952e+01    1.159286e+00
  2.742127e+01    1.102630e+00
  2.745302e+01    1.072261e+00
  2.748477e+01    1.004374e+00
  2.751653e+01    9.766415e-01
  2.754828e+01    9.628789e-01
  2.758003e+01    9.512456e-01
  2.761178e+01    9.276465e-01
  2.764353e+01    9.083832e-01
  2.767528e+01    8.910725e-01
  2.770703e+01    9.097745e-01
  2.773878e+01    9.030961e-01
  2.777054e+01    8.896607e-01
  2.780229e+01    8.841343e-01
  2.783404e+01    8.912854e-01
  2.786579e+01    8.893740e-01
  2.789754e+01    8.672345e-01
  2.792929e+01    8.770325e-01
  2.796104e+01    8.671563e-01
  2.799279e+01    8.793994e-01
  2.802454e+01    8.760048e-01
  2.805630e+01    8.942854e-01
  2.808805e+01    8.728248e-01
  2.811980e+01    8.487499e-01
  2.815155e+01    8.569545e-01
  2.818330e+01    8.489069e-01
  2.821505e+01    8.476528e-01
  2.824680e+01    8.642855e-01
  2.827855e+01    8.388862e-01
  2.831030e+01    8.517663e-01
  2.834206e+01    8.398867e-01
  2.837381e+01    8.388221e-01
  2.840556e+01    8.633753e-01
  2.843731e+01    8.524907e-01
  2.846906e+01    8.536037e-01
  2.850081e+01    8.335624e-01
  2.853256e+01    8.409331e-01
  2.856431e+01    8.578940e-01
  2.859606e+01    8.271120e-01
  2.862782e+01    8.277488e-01
  2.865957e+01    8.467165e-01
  2.869132e+01    8.384923e-01
  2.872307e+01    8.225607e-01
  2.875482e+01    8.343498e-01
  2.878657e+01    8.209333e-01
  2.881832e+01    8.291854e-01
  2.885007e+01    8.094525e-01
  2.888183e+01    8.256353e-01
  2.891358e+01    8.087528e-01
  2.894533e+01    8.372973e-01
  2.897708e+01    8.041076e-01
  2.900883e+01    8.026285e-01
  2.904058e+01    8.231161e-01
  2.907233e+01    8.018070e-01
  2.910408e+01    8.190142e-01
  2.913583e+01    8.337990e-01
  2.916759e+01    8.048929e-01
  2.919934e+01    8.228178e-01
  2.923109e+01    8.125486e-01
  2.926284e+01    8.213909e-01
  2.929459e+01    8.215339e-01
  2.932634e+01    8.198780e-01
  2.935809e+01    7.926333e-01
  2.938984e+01    7.970598e-01
  2.942159e+01    7.919225e-01
  2.945335e+01    7.967710e-01
  2.948510e+01    7.986670e-01
  2.951685e+01    7.895208e-01
  2.954860e+01    8.194419e-01
  2.958035e+01    7.927125e-01
  2.961210e+01    8.077329e-01
  2.964385e+01    8.109391e-01
  2.967560e+01    7.841660e-01
  2.970736e+01    7.854631e-01
  2.973911e+01    8.225569e-01
  2.977086e+01    8.154882e-01
  2.980261e+01    7.955971e-01
  2.983436e+01    8.263860e-01
  2.986611e+01    7.919019e-01
  2.989786e+01    7.821330e-01
  2.992961e+01    8.015099e-01
  2.996136e+01    7.779073e-01
  2.999312e+01    8.172265e-01
  3.002487e+01    8.062954e-01
  3.005662e+01    8.184801e-01
  3.008837e+01    8.226727e-01
  3.012012e+01    8.010895e-01
  3.015187e+01    7.854918e-01
  3.018362e+01    8.115195e-01
  3.021537e+01    8.202944e-01
  3.024712e+01    8.034257e-01
  3.027888e+01    7.863202e-01
  3.031063e+01    7.971348e-01
  3.034238e+01    7.940830e-01
  3.037413e+01    7.892665e-01
  3.040588e+01    7.700928e-01
  3.043763e+01    7.785856e-01
  3.046938e+01    7.510341e-01
  3.050113e+01    7.963386e-01
  3.053288e+01    7.836765e-01
  3.056464e+01    7.905648e-01
  3.059639e+01    7.770962e-01
  3.062814e+01    7.779910e-01
  3.065989e+01    7.744299e-01
  3.069164e+01    7.842993e-01
  3.072339e+01    7.944023e-01
  3.075514e+01    7.913128e-01
  3.078689e+01    7.773685e-01
  3.081865e+01    8.144889e-01
  3.085040e+01    7.976087e-01
  3.088215e+01    7.915046e-01
  3.091390e+01    7.857779e-01
  3.094565e+01    7.776816e-01
  3.097740e+01    7.977613e-01
  3.100915e+01    7.818198e-01
  3.104090e+01    7.726370e-01
  3.107265e+01    7.758790e-01
  3.110441e+01    7.964497e-01
  3.113616e+01    7.769545e-01
  3.116791e+01    7.884807e-01
  3.119966e+01    7.826079e-01
  3.123141e+01    8.007625e-01
  3.126316e+01    7.918258e-01
  3.129491e+01    8.088714e-01
  3.132666e+01    7.966661e-01
  3.135841e+01    8.019448e-01
  3.139017e+01    8.106261e-01
  3.142192e+01    7.872792e-01
  3.145367e+01    7.906852e-01
  3.148542e+01    8.255633e-01
  3.151717e+01    8.379954e-01
  3.154892e+01    8.353063e-01
  3.158067e+01    8.592977e-01
  3.161242e+01    8.948837e-01
  3.164418e+01    8.982361e-01
  3.167593e+01    9.698078e-01
  3.170768e+01    1.055442e+00
  3.173943e+01    1.114913e+00
  3.177118e+01    1.217429e+00
  3.180293e+01    1.439506e+00
  3.183468e+01    1.662351e+00
  3.186643e+01    1.947952e+00
  3.189818e+01    2.058720e+00
  3.192994e+01    2.044622e+00
  3.196169e+01    1.807330e+00
  3.199344e+01    1.551239e+00
  3.202519e+01    1.338373e+00
  3.205694e+01    1.206311e+00
  3.208869e+01    1.049635e+00
  3.212044e+01    9.707266e-01
  3.215219e+01    9.139185e-01
  3.218394e+01    8.777313e-01
  3.221570e+01    8.809544e-01
  3.224745e+01    8.371612e-01
  3.227920e+01    8.206173e-01
  3.231095e+01    8.044542e-01
  3.234270e+01    7.824755e-01
  3.237445e+01    8.162089e-01
  3.240620e+01    8.068956e-01
  3.243795e+01    7.749903e-01
  3.246970e+01    8.053778e-01
  3.250146e+01    7.830411e-01
  3.253321e+01    7.988397e-01
  3.254908e+01    7.884020e-01