File: XRD/Reaction conditions/2024-07-27_003_Ru-CGO-ex_Reaction_dwell_000023_data_000108.dat
# == pyFAI calibration ==
# Distance Sample to Detector: 0.4 m
# PONI: 9.750e-02, 1.135e-01 m
# Rotations: -0.000175 0.000000 -0.000000 rad
#
# == Fit2d calibration ==
# Distance Sample-beamCenter: 400.000 mm
# Center: x=1514.000, y=1300.000 pix
# Tilt: 0.010 deg  TiltPlanRot: 0.010 deg
#
# Detector Detector	 Spline= None	 PixelSize= 7.500e-05, 7.500e-05 m
#    Detector has a mask: False
#    Detector has a dark current: False
#    detector has a flat field: False
#
# Wavelength: 6.888e-11 m
# Mask applied: user provided
# Dark current applied: False
# Flat field applied: False
# Polarization factor: 0.99
# Normalization factor: 1.0
# --> /home/myspot/data/2024_07_Rosario/Ru-CGO-ex/2024-07-27_003_Ru-CGO-ex_Reaction_dwell_000023_data_000108.dat
#       q_nm^-1             I
  2.003187e-02    0.000000e+00
  5.178302e-02    9.699578e-02
  8.353417e-02    2.620536e-01
  1.152853e-01    6.172609e-02
  1.470365e-01    1.007690e-01
  1.787876e-01    9.188897e-02
  2.105388e-01    1.882331e-02
  2.422899e-01    2.396108e-02
  2.740411e-01    6.160801e-02
  3.057922e-01    3.847788e-02
  3.375433e-01    5.897681e-02
  3.692945e-01    4.056340e-02
  4.010456e-01    2.554990e-02
  4.327968e-01    8.664817e-02
  4.645479e-01    3.605326e-02
  4.962991e-01    3.404940e-02
  5.280502e-01    5.808177e-02
  5.598014e-01    3.158879e-02
  5.915525e-01    3.728937e-02
  6.233037e-01    4.315224e-02
  6.550548e-01    4.587618e-02
  6.868060e-01    3.988443e-02
  7.185571e-01    2.450083e-02
  7.503083e-01    3.702046e-02
  7.820594e-01    1.315479e-01
  8.138106e-01    2.052235e-01
  8.455617e-01    4.161927e-01
  8.773129e-01    4.919429e-01
  9.090640e-01    6.078683e-01
  9.408152e-01    9.900854e-01
  9.725663e-01    1.073587e+00
  1.004317e+00    1.175081e+00
  1.036069e+00    1.270922e+00
  1.067820e+00    1.350350e+00
  1.099571e+00    1.568553e+00
  1.131322e+00    1.622405e+00
  1.163073e+00    1.611013e+00
  1.194824e+00    1.926901e+00
  1.226575e+00    2.237189e+00
  1.258327e+00    2.580935e+00
  1.290078e+00    2.757932e+00
  1.321829e+00    2.775980e+00
  1.353580e+00    2.712662e+00
  1.385331e+00    2.748307e+00
  1.417082e+00    3.052933e+00
  1.448834e+00    2.912349e+00
  1.480585e+00    3.282268e+00
  1.512336e+00    3.054549e+00
  1.544087e+00    3.310064e+00
  1.575838e+00    3.176940e+00
  1.607589e+00    3.138929e+00
  1.639340e+00    3.134549e+00
  1.671092e+00    3.159482e+00
  1.702843e+00    3.118361e+00
  1.734594e+00    3.139738e+00
  1.766345e+00    3.160050e+00
  1.798096e+00    3.016009e+00
  1.829847e+00    3.201443e+00
  1.861598e+00    2.979809e+00
  1.893350e+00    3.028721e+00
  1.925101e+00    3.130534e+00
  1.956852e+00    3.018765e+00
  1.988603e+00    3.119782e+00
  2.020354e+00    3.098652e+00
  2.052105e+00    3.089297e+00
  2.083856e+00    2.976983e+00
  2.115608e+00    3.203750e+00
  2.147359e+00    3.223269e+00
  2.179110e+00    3.038205e+00
  2.210861e+00    3.125799e+00
  2.242612e+00    3.043268e+00
  2.274363e+00    3.130544e+00
  2.306115e+00    3.059251e+00
  2.337866e+00    3.201467e+00
  2.369617e+00    3.193745e+00
  2.401368e+00    3.158586e+00
  2.433119e+00    3.303317e+00
  2.464870e+00    3.087118e+00
  2.496621e+00    3.180617e+00
  2.528373e+00    3.263614e+00
  2.560124e+00    3.245113e+00
  2.591875e+00    3.326968e+00
  2.623626e+00    3.172416e+00
  2.655377e+00    3.278224e+00
  2.687128e+00    3.391963e+00
  2.718879e+00    3.256123e+00
  2.750631e+00    3.369185e+00
  2.782382e+00    3.275506e+00
  2.814133e+00    3.297126e+00
  2.845884e+00    3.324090e+00
  2.877635e+00    3.275577e+00
  2.909386e+00    3.337707e+00
  2.941137e+00    3.287445e+00
  2.972889e+00    3.424080e+00
  3.004640e+00    3.387185e+00
  3.036391e+00    3.303765e+00
  3.068142e+00    3.303549e+00
  3.099893e+00    3.265210e+00
  3.131644e+00    3.328427e+00
  3.163395e+00    3.491135e+00
  3.195147e+00    3.409309e+00
  3.226898e+00    3.456676e+00
  3.258649e+00    3.376374e+00
  3.290400e+00    3.456820e+00
  3.322151e+00    3.422905e+00
  3.353902e+00    3.383015e+00
  3.385654e+00    3.344992e+00
  3.417405e+00    3.454055e+00
  3.449156e+00    3.418376e+00
  3.480907e+00    3.395901e+00
  3.512658e+00    3.545098e+00
  3.544409e+00    3.525644e+00
  3.576160e+00    3.431481e+00
  3.607912e+00    3.399764e+00
  3.639663e+00    3.429445e+00
  3.671414e+00    3.484958e+00
  3.703165e+00    3.560886e+00
  3.734916e+00    3.587605e+00
  3.766667e+00    3.475670e+00
  3.798418e+00    3.479099e+00
  3.830170e+00    3.523585e+00
  3.861921e+00    3.509555e+00
  3.893672e+00    3.497778e+00
  3.925423e+00    3.450832e+00
  3.957174e+00    3.457926e+00
  3.988925e+00    3.643795e+00
  4.020676e+00    3.443529e+00
  4.052428e+00    3.555343e+00
  4.084179e+00    3.440002e+00
  4.115930e+00    3.590679e+00
  4.147681e+00    3.501322e+00
  4.179432e+00    3.610618e+00
  4.211183e+00    3.587259e+00
  4.242935e+00    3.551119e+00
  4.274686e+00    3.547079e+00
  4.306437e+00    3.673649e+00
  4.338188e+00    3.573035e+00
  4.369939e+00    3.564968e+00
  4.401690e+00    3.514194e+00
  4.433441e+00    3.559447e+00
  4.465193e+00    3.559820e+00
  4.496944e+00    3.577325e+00
  4.528695e+00    3.594829e+00
  4.560446e+00    3.760596e+00
  4.592197e+00    3.683148e+00
  4.623948e+00    3.659057e+00
  4.655699e+00    3.582238e+00
  4.687451e+00    3.696627e+00
  4.719202e+00    3.611001e+00
  4.750953e+00    3.644002e+00
  4.782704e+00    3.641807e+00
  4.814455e+00    3.649305e+00
  4.846206e+00    3.688051e+00
  4.877957e+00    3.630105e+00
  4.909709e+00    3.564752e+00
  4.941460e+00    3.649817e+00
  4.973211e+00    3.657589e+00
  5.004962e+00    3.596827e+00
  5.036713e+00    3.723363e+00
  5.068464e+00    3.650741e+00
  5.100216e+00    3.749142e+00
  5.131967e+00    3.617644e+00
  5.163718e+00    3.714653e+00
  5.195469e+00    3.737813e+00
  5.227220e+00    3.659926e+00
  5.258971e+00    3.592993e+00
  5.290722e+00    3.733371e+00
  5.322474e+00    3.564819e+00
  5.354225e+00    3.663809e+00
  5.385976e+00    3.752092e+00
  5.417727e+00    3.645036e+00
  5.449478e+00    3.534380e+00
  5.481229e+00    3.646456e+00
  5.512980e+00    3.704697e+00
  5.544732e+00    3.606560e+00
  5.576483e+00    3.679187e+00
  5.608234e+00    3.612092e+00
  5.639985e+00    3.573954e+00
  5.671736e+00    3.716898e+00
  5.703487e+00    3.678158e+00
  5.735238e+00    3.728302e+00
  5.766990e+00    3.487879e+00
  5.798741e+00    3.661672e+00
  5.830492e+00    3.516249e+00
  5.862243e+00    3.501785e+00
  5.893994e+00    3.518860e+00
  5.925745e+00    3.611845e+00
  5.957497e+00    3.560489e+00
  5.989248e+00    3.598081e+00
  6.020999e+00    3.520406e+00
  6.052750e+00    3.573538e+00
  6.084501e+00    3.672561e+00
  6.116252e+00    3.669150e+00
  6.148003e+00    3.635194e+00
  6.179755e+00    3.589334e+00
  6.211506e+00    3.581221e+00
  6.243257e+00    3.601270e+00
  6.275008e+00    3.502183e+00
  6.306759e+00    3.586285e+00
  6.338510e+00    3.500847e+00
  6.370261e+00    3.562585e+00
  6.402013e+00    3.534866e+00
  6.433764e+00    3.565192e+00
  6.465515e+00    3.526477e+00
  6.497266e+00    3.495382e+00
  6.529017e+00    3.585752e+00
  6.560768e+00    3.588152e+00
  6.592519e+00    3.549454e+00
  6.624271e+00    3.526756e+00
  6.656022e+00    3.493899e+00
  6.687773e+00    3.581599e+00
  6.719524e+00    3.585074e+00
  6.751275e+00    3.591390e+00
  6.783026e+00    3.598548e+00
  6.814777e+00    3.584181e+00
  6.846529e+00    3.540425e+00
  6.878280e+00    3.604708e+00
  6.910031e+00    3.523782e+00
  6.941782e+00    3.564197e+00
  6.973533e+00    3.469570e+00
  7.005284e+00    3.539720e+00
  7.037036e+00    3.610125e+00
  7.068787e+00    3.541486e+00
  7.100538e+00    3.523936e+00
  7.132289e+00    3.567939e+00
  7.164040e+00    3.436025e+00
  7.195791e+00    3.500499e+00
  7.227542e+00    3.538828e+00
  7.259294e+00    3.477087e+00
  7.291045e+00    3.469234e+00
  7.322796e+00    3.448285e+00
  7.354547e+00    3.542267e+00
  7.386298e+00    3.569571e+00
  7.418049e+00    3.536640e+00
  7.449800e+00    3.461029e+00
  7.481552e+00    3.479353e+00
  7.513303e+00    3.509933e+00
  7.545054e+00    3.611167e+00
  7.576805e+00    3.526074e+00
  7.608556e+00    3.434678e+00
  7.640307e+00    3.475856e+00
  7.672058e+00    3.480778e+00
  7.703810e+00    3.437346e+00
  7.735561e+00    3.469149e+00
  7.767312e+00    3.379067e+00
  7.799063e+00    3.469325e+00
  7.830814e+00    3.465789e+00
  7.862565e+00    3.490597e+00
  7.894317e+00    3.484751e+00
  7.926068e+00    3.464357e+00
  7.957819e+00    3.362837e+00
  7.989570e+00    3.499971e+00
  8.021321e+00    3.446975e+00
  8.053072e+00    3.424998e+00
  8.084823e+00    3.536041e+00
  8.116575e+00    3.434726e+00
  8.148326e+00    3.505295e+00
  8.180077e+00    3.528410e+00
  8.211828e+00    3.410267e+00
  8.243579e+00    3.498334e+00
  8.275330e+00    3.471245e+00
  8.307081e+00    3.463212e+00
  8.338833e+00    3.402207e+00
  8.370584e+00    3.448900e+00
  8.402335e+00    3.400844e+00
  8.434086e+00    3.429360e+00
  8.465837e+00    3.333622e+00
  8.497588e+00    3.311639e+00
  8.529339e+00    3.396480e+00
  8.561091e+00    3.335922e+00
  8.592842e+00    3.371284e+00
  8.624593e+00    3.359872e+00
  8.656344e+00    3.371533e+00
  8.688095e+00    3.357206e+00
  8.719846e+00    3.329392e+00
  8.751598e+00    3.274272e+00
  8.783349e+00    3.449973e+00
  8.815100e+00    3.400312e+00
  8.846851e+00    3.361970e+00
  8.878602e+00    3.358348e+00
  8.910353e+00    3.310832e+00
  8.942104e+00    3.355977e+00
  8.973856e+00    3.335580e+00
  9.005607e+00    3.292774e+00
  9.037358e+00    3.317884e+00
  9.069109e+00    3.262758e+00
  9.100860e+00    3.327963e+00
  9.132611e+00    3.276009e+00
  9.164362e+00    3.249827e+00
  9.196114e+00    3.304138e+00
  9.227865e+00    3.270842e+00
  9.259616e+00    3.276384e+00
  9.291367e+00    3.242983e+00
  9.323118e+00    3.290551e+00
  9.354869e+00    3.250268e+00
  9.386620e+00    3.278001e+00
  9.418372e+00    3.236142e+00
  9.450123e+00    3.259895e+00
  9.481874e+00    3.198110e+00
  9.513625e+00    3.203052e+00
  9.545376e+00    3.221863e+00
  9.577127e+00    3.292809e+00
  9.608878e+00    3.248641e+00
  9.640630e+00    3.292268e+00
  9.672381e+00    3.219329e+00
  9.704132e+00    3.162513e+00
  9.735883e+00    3.161903e+00
  9.767634e+00    3.162258e+00
  9.799385e+00    3.170645e+00
  9.831137e+00    3.189663e+00
  9.862888e+00    3.156426e+00
  9.894639e+00    3.088417e+00
  9.926390e+00    3.165128e+00
  9.958141e+00    3.169311e+00
  9.989892e+00    3.105993e+00
  1.002164e+01    3.145620e+00
  1.005339e+01    3.084498e+00
  1.008515e+01    3.142213e+00
  1.011690e+01    3.086866e+00
  1.014865e+01    3.137287e+00
  1.018040e+01    3.029897e+00
  1.021215e+01    3.109352e+00
  1.024390e+01    3.067152e+00
  1.027565e+01    3.097069e+00
  1.030740e+01    3.056506e+00
  1.033915e+01    3.068731e+00
  1.037091e+01    3.068379e+00
  1.040266e+01    3.081639e+00
  1.043441e+01    3.011266e+00
  1.046616e+01    3.068791e+00
  1.049791e+01    3.023124e+00
  1.052966e+01    3.042360e+00
  1.056141e+01    3.012108e+00
  1.059316e+01    3.032784e+00
  1.062492e+01    3.007177e+00
  1.065667e+01    2.991461e+00
  1.068842e+01    2.986382e+00
  1.072017e+01    2.995672e+00
  1.075192e+01    2.971189e+00
  1.078367e+01    2.946492e+00
  1.081542e+01    3.006999e+00
  1.084717e+01    2.956793e+00
  1.087892e+01    2.902597e+00
  1.091068e+01    2.936970e+00
  1.094243e+01    2.944407e+00
  1.097418e+01    2.922494e+00
  1.100593e+01    2.926792e+00
  1.103768e+01    2.975687e+00
  1.106943e+01    2.887157e+00
  1.110118e+01    2.935351e+00
  1.113293e+01    2.915263e+00
  1.116468e+01    2.892140e+00
  1.119644e+01    2.847246e+00
  1.122819e+01    2.900341e+00
  1.125994e+01    2.783511e+00
  1.129169e+01    2.829374e+00
  1.132344e+01    2.824509e+00
  1.135519e+01    2.839176e+00
  1.138694e+01    2.846442e+00
  1.141869e+01    2.797663e+00
  1.145045e+01    2.824460e+00
  1.148220e+01    2.853192e+00
  1.151395e+01    2.867317e+00
  1.154570e+01    2.837803e+00
  1.157745e+01    2.773782e+00
  1.160920e+01    2.847781e+00
  1.164095e+01    2.773299e+00
  1.167270e+01    2.787910e+00
  1.170445e+01    2.775658e+00
  1.173621e+01    2.774461e+00
  1.176796e+01    2.712103e+00
  1.179971e+01    2.768749e+00
  1.183146e+01    2.761947e+00
  1.186321e+01    2.729990e+00
  1.189496e+01    2.735949e+00
  1.192671e+01    2.704205e+00
  1.195846e+01    2.758748e+00
  1.199021e+01    2.749175e+00
  1.202197e+01    2.735763e+00
  1.205372e+01    2.686110e+00
  1.208547e+01    2.701641e+00
  1.211722e+01    2.758235e+00
  1.214897e+01    2.736665e+00
  1.218072e+01    2.711918e+00
  1.221247e+01    2.718214e+00
  1.224422e+01    2.704987e+00
  1.227597e+01    2.662876e+00
  1.230773e+01    2.689602e+00
  1.233948e+01    2.674283e+00
  1.237123e+01    2.685559e+00
  1.240298e+01    2.666160e+00
  1.243473e+01    2.755289e+00
  1.246648e+01    2.719615e+00
  1.249823e+01    2.714266e+00
  1.252998e+01    2.707752e+00
  1.256174e+01    2.732551e+00
  1.259349e+01    2.785944e+00
  1.262524e+01    2.747625e+00
  1.265699e+01    2.792499e+00
  1.268874e+01    2.842714e+00
  1.272049e+01    2.872698e+00
  1.275224e+01    2.892159e+00
  1.278399e+01    3.022246e+00
  1.281574e+01    3.055650e+00
  1.284750e+01    3.272676e+00
  1.287925e+01    3.426702e+00
  1.291100e+01    3.688463e+00
  1.294275e+01    4.113591e+00
  1.297450e+01    4.772639e+00
  1.300625e+01    5.949545e+00
  1.303800e+01    7.786752e+00
  1.306975e+01    1.017722e+01
  1.310150e+01    1.283856e+01
  1.313326e+01    1.494899e+01
  1.316501e+01    1.642745e+01
  1.319676e+01    1.575959e+01
  1.322851e+01    1.261613e+01
  1.326026e+01    9.138903e+00
  1.329201e+01    6.808355e+00
  1.332376e+01    5.337877e+00
  1.335551e+01    4.426445e+00
  1.338727e+01    3.875191e+00
  1.341902e+01    3.477099e+00
  1.345077e+01    3.251083e+00
  1.348252e+01    3.077789e+00
  1.351427e+01    2.912752e+00
  1.354602e+01    2.852018e+00
  1.357777e+01    2.737021e+00
  1.360952e+01    2.700663e+00
  1.364127e+01    2.634004e+00
  1.367303e+01    2.600676e+00
  1.370478e+01    2.543653e+00
  1.373653e+01    2.534980e+00
  1.376828e+01    2.496037e+00
  1.380003e+01    2.492023e+00
  1.383178e+01    2.435574e+00
  1.386353e+01    2.489178e+00
  1.389528e+01    2.425682e+00
  1.392703e+01    2.401699e+00
  1.395879e+01    2.385999e+00
  1.399054e+01    2.358344e+00
  1.402229e+01    2.363216e+00
  1.405404e+01    2.345209e+00
  1.408579e+01    2.315959e+00
  1.411754e+01    2.316754e+00
  1.414929e+01    2.346976e+00
  1.418104e+01    2.328389e+00
  1.421279e+01    2.293663e+00
  1.424455e+01    2.285003e+00
  1.427630e+01    2.323698e+00
  1.430805e+01    2.263350e+00
  1.433980e+01    2.288846e+00
  1.437155e+01    2.270429e+00
  1.440330e+01    2.309501e+00
  1.443505e+01    2.257873e+00
  1.446680e+01    2.233462e+00
  1.449856e+01    2.249140e+00
  1.453031e+01    2.224429e+00
  1.456206e+01    2.227201e+00
  1.459381e+01    2.251599e+00
  1.462556e+01    2.236865e+00
  1.465731e+01    2.243175e+00
  1.468906e+01    2.210711e+00
  1.472081e+01    2.236524e+00
  1.475256e+01    2.203513e+00
  1.478432e+01    2.218293e+00
  1.481607e+01    2.233061e+00
  1.484782e+01    2.205740e+00
  1.487957e+01    2.239052e+00
  1.491132e+01    2.267658e+00
  1.494307e+01    2.293074e+00
  1.497482e+01    2.361257e+00
  1.500657e+01    2.480781e+00
  1.503832e+01    2.589797e+00
  1.507008e+01    2.834348e+00
  1.510183e+01    3.237572e+00
  1.513358e+01    3.880816e+00
  1.516533e+01    4.545104e+00
  1.519708e+01    5.259087e+00
  1.522883e+01    5.586714e+00
  1.526058e+01    5.817967e+00
  1.529233e+01    5.557057e+00
  1.532409e+01    4.689431e+00
  1.535584e+01    3.758929e+00
  1.538759e+01    3.162275e+00
  1.541934e+01    2.815907e+00
  1.545109e+01    2.550522e+00
  1.548284e+01    2.371485e+00
  1.551459e+01    2.243320e+00
  1.554634e+01    2.222549e+00
  1.557809e+01    2.168945e+00
  1.560985e+01    2.116060e+00
  1.564160e+01    2.047849e+00
  1.567335e+01    2.024634e+00
  1.570510e+01    2.013353e+00
  1.573685e+01    1.970674e+00
  1.576860e+01    1.962688e+00
  1.580035e+01    1.938056e+00
  1.583210e+01    1.922471e+00
  1.586385e+01    1.936051e+00
  1.589561e+01    1.899412e+00
  1.592736e+01    1.885196e+00
  1.595911e+01    1.915928e+00
  1.599086e+01    1.891861e+00
  1.602261e+01    1.869683e+00
  1.605436e+01    1.895462e+00
  1.608611e+01    1.827779e+00
  1.611786e+01    1.871354e+00
  1.614961e+01    1.827196e+00
  1.618137e+01    1.839731e+00
  1.621312e+01    1.792643e+00
  1.624487e+01    1.829586e+00
  1.627662e+01    1.814696e+00
  1.630837e+01    1.801126e+00
  1.634012e+01    1.821166e+00
  1.637187e+01    1.803870e+00
  1.640362e+01    1.769393e+00
  1.643538e+01    1.769596e+00
  1.646713e+01    1.796479e+00
  1.649888e+01    1.757306e+00
  1.653063e+01    1.779393e+00
  1.656238e+01    1.792581e+00
  1.659413e+01    1.746776e+00
  1.662588e+01    1.733230e+00
  1.665763e+01    1.732705e+00
  1.668938e+01    1.740455e+00
  1.672114e+01    1.742525e+00
  1.675289e+01    1.720620e+00
  1.678464e+01    1.710576e+00
  1.681639e+01    1.738844e+00
  1.684814e+01    1.716954e+00
  1.687989e+01    1.703614e+00
  1.691164e+01    1.692898e+00
  1.694339e+01    1.714545e+00
  1.697514e+01    1.682289e+00
  1.700690e+01    1.682593e+00
  1.703865e+01    1.688024e+00
  1.707040e+01    1.677278e+00
  1.710215e+01    1.636153e+00
  1.713390e+01    1.654026e+00
  1.716565e+01    1.641565e+00
  1.719740e+01    1.620732e+00
  1.722915e+01    1.643292e+00
  1.726091e+01    1.646534e+00
  1.729266e+01    1.622782e+00
  1.732441e+01    1.619355e+00
  1.735616e+01    1.607049e+00
  1.738791e+01    1.634378e+00
  1.741966e+01    1.614254e+00
  1.745141e+01    1.588383e+00
  1.748316e+01    1.581178e+00
  1.751491e+01    1.604856e+00
  1.754667e+01    1.601053e+00
  1.757842e+01    1.568952e+00
  1.761017e+01    1.560998e+00
  1.764192e+01    1.547752e+00
  1.767367e+01    1.583689e+00
  1.770542e+01    1.557268e+00
  1.773717e+01    1.535592e+00
  1.776892e+01    1.561344e+00
  1.780067e+01    1.521609e+00
  1.783243e+01    1.571270e+00
  1.786418e+01    1.529417e+00
  1.789593e+01    1.535177e+00
  1.792768e+01    1.520403e+00
  1.795943e+01    1.530445e+00
  1.799118e+01    1.477837e+00
  1.802293e+01    1.521563e+00
  1.805468e+01    1.517375e+00
  1.808643e+01    1.531298e+00
  1.811819e+01    1.499304e+00
  1.814994e+01    1.485349e+00
  1.818169e+01    1.503188e+00
  1.821344e+01    1.480403e+00
  1.824519e+01    1.468689e+00
  1.827694e+01    1.505654e+00
  1.830869e+01    1.459848e+00
  1.834044e+01    1.480392e+00
  1.837220e+01    1.448622e+00
  1.840395e+01    1.505731e+00
  1.843570e+01    1.472963e+00
  1.846745e+01    1.429228e+00
  1.849920e+01    1.446977e+00
  1.853095e+01    1.417161e+00
  1.856270e+01    1.427168e+00
  1.859445e+01    1.437139e+00
  1.862620e+01    1.449613e+00
  1.865796e+01    1.446577e+00
  1.868971e+01    1.419660e+00
  1.872146e+01    1.430376e+00
  1.875321e+01    1.414222e+00
  1.878496e+01    1.388201e+00
  1.881671e+01    1.404326e+00
  1.884846e+01    1.431156e+00
  1.888021e+01    1.406394e+00
  1.891196e+01    1.402511e+00
  1.894372e+01    1.373659e+00
  1.897547e+01    1.373544e+00
  1.900722e+01    1.411502e+00
  1.903897e+01    1.406478e+00
  1.907072e+01    1.429643e+00
  1.910247e+01    1.352160e+00
  1.913422e+01    1.384350e+00
  1.916597e+01    1.372652e+00
  1.919773e+01    1.353585e+00
  1.922948e+01    1.333210e+00
  1.926123e+01    1.368142e+00
  1.929298e+01    1.359103e+00
  1.932473e+01    1.361406e+00
  1.935648e+01    1.367543e+00
  1.938823e+01    1.336602e+00
  1.941998e+01    1.362623e+00
  1.945173e+01    1.348078e+00
  1.948349e+01    1.349542e+00
  1.951524e+01    1.364398e+00
  1.954699e+01    1.328999e+00
  1.957874e+01    1.328975e+00
  1.961049e+01    1.349970e+00
  1.964224e+01    1.320125e+00
  1.967399e+01    1.348713e+00
  1.970574e+01    1.297891e+00
  1.973749e+01    1.327597e+00
  1.976925e+01    1.314997e+00
  1.980100e+01    1.313283e+00
  1.983275e+01    1.308278e+00
  1.986450e+01    1.313588e+00
  1.989625e+01    1.306017e+00
  1.992800e+01    1.262782e+00
  1.995975e+01    1.296802e+00
  1.999150e+01    1.278227e+00
  2.002325e+01    1.290499e+00
  2.005501e+01    1.278018e+00
  2.008676e+01    1.285872e+00
  2.011851e+01    1.274098e+00
  2.015026e+01    1.282066e+00
  2.018201e+01    1.298710e+00
  2.021376e+01    1.295667e+00
  2.024551e+01    1.272396e+00
  2.027726e+01    1.266577e+00
  2.030902e+01    1.268163e+00
  2.034077e+01    1.256321e+00
  2.037252e+01    1.266839e+00
  2.040427e+01    1.259900e+00
  2.043602e+01    1.242199e+00
  2.046777e+01    1.253453e+00
  2.049952e+01    1.263002e+00
  2.053127e+01    1.243704e+00
  2.056302e+01    1.218556e+00
  2.059478e+01    1.249689e+00
  2.062653e+01    1.235478e+00
  2.065828e+01    1.229309e+00
  2.069003e+01    1.232897e+00
  2.072178e+01    1.216014e+00
  2.075353e+01    1.200416e+00
  2.078528e+01    1.207121e+00
  2.081703e+01    1.253751e+00
  2.084878e+01    1.226606e+00
  2.088054e+01    1.216282e+00
  2.091229e+01    1.226513e+00
  2.094404e+01    1.237734e+00
  2.097579e+01    1.233954e+00
  2.100754e+01    1.217384e+00
  2.103929e+01    1.218935e+00
  2.107104e+01    1.235822e+00
  2.110279e+01    1.202732e+00
  2.113455e+01    1.239210e+00
  2.116630e+01    1.219251e+00
  2.119805e+01    1.250876e+00
  2.122980e+01    1.268840e+00
  2.126155e+01    1.283202e+00
  2.129330e+01    1.275919e+00
  2.132505e+01    1.278725e+00
  2.135680e+01    1.294387e+00
  2.138855e+01    1.322891e+00
  2.142031e+01    1.335248e+00
  2.145206e+01    1.382472e+00
  2.148381e+01    1.392191e+00
  2.151556e+01    1.460163e+00
  2.154731e+01    1.530901e+00
  2.157906e+01    1.608388e+00
  2.161081e+01    1.768914e+00
  2.164256e+01    1.974089e+00
  2.167431e+01    2.344692e+00
  2.170607e+01    2.848286e+00
  2.173782e+01    3.573742e+00
  2.176957e+01    4.640990e+00
  2.180132e+01    5.876373e+00
  2.183307e+01    7.270832e+00
  2.186482e+01    8.462812e+00
  2.189657e+01    8.995105e+00
  2.192832e+01    8.320083e+00
  2.196007e+01    6.621957e+00
  2.199183e+01    4.876849e+00
  2.202358e+01    3.647014e+00
  2.205533e+01    2.866586e+00
  2.208708e+01    2.344594e+00
  2.211883e+01    2.030205e+00
  2.215058e+01    1.781972e+00
  2.218233e+01    1.614304e+00
  2.221408e+01    1.492888e+00
  2.224584e+01    1.417945e+00
  2.227759e+01    1.368740e+00
  2.230934e+01    1.296039e+00
  2.234109e+01    1.281451e+00
  2.237284e+01    1.238657e+00
  2.240459e+01    1.226072e+00
  2.243634e+01    1.177372e+00
  2.246809e+01    1.178139e+00
  2.249984e+01    1.171807e+00
  2.253160e+01    1.139192e+00
  2.256335e+01    1.117008e+00
  2.259510e+01    1.116106e+00
  2.262685e+01    1.109108e+00
  2.265860e+01    1.112257e+00
  2.269035e+01    1.101472e+00
  2.272210e+01    1.073039e+00
  2.275385e+01    1.090599e+00
  2.278560e+01    1.073863e+00
  2.281736e+01    1.063476e+00
  2.284911e+01    1.042853e+00
  2.288086e+01    1.021593e+00
  2.291261e+01    1.035232e+00
  2.294436e+01    1.032940e+00
  2.297611e+01    1.015971e+00
  2.300786e+01    1.042455e+00
  2.303961e+01    9.914956e-01
  2.307137e+01    1.021065e+00
  2.310312e+01    1.010215e+00
  2.313487e+01    9.928673e-01
  2.316662e+01    9.903541e-01
  2.319837e+01    1.020971e+00
  2.323012e+01    9.960595e-01
  2.326187e+01    9.851058e-01
  2.329362e+01    1.009828e+00
  2.332537e+01    9.597011e-01
  2.335713e+01    9.852716e-01
  2.338888e+01    9.766628e-01
  2.342063e+01    9.916872e-01
  2.345238e+01    9.769532e-01
  2.348413e+01    9.605801e-01
  2.351588e+01    9.701537e-01
  2.354763e+01    9.699380e-01
  2.357938e+01    9.711673e-01
  2.361113e+01    9.638894e-01
  2.364289e+01    9.666471e-01
  2.367464e+01    9.614262e-01
  2.370639e+01    9.369661e-01
  2.373814e+01    9.417961e-01
  2.376989e+01    9.225712e-01
  2.380164e+01    9.241951e-01
  2.383339e+01    9.423410e-01
  2.386514e+01    9.125910e-01
  2.389689e+01    9.236469e-01
  2.392865e+01    9.272997e-01
  2.396040e+01    9.201330e-01
  2.399215e+01    9.105496e-01
  2.402390e+01    9.146824e-01
  2.405565e+01    9.271712e-01
  2.408740e+01    8.943595e-01
  2.411915e+01    9.039173e-01
  2.415090e+01    8.914224e-01
  2.418266e+01    8.748654e-01
  2.421441e+01    8.906980e-01
  2.424616e+01    8.819128e-01
  2.427791e+01    8.956106e-01
  2.430966e+01    8.998241e-01
  2.434141e+01    9.088513e-01
  2.437316e+01    8.945201e-01
  2.440491e+01    9.064928e-01
  2.443666e+01    8.954312e-01
  2.446842e+01    8.885102e-01
  2.450017e+01    8.945115e-01
  2.453192e+01    8.937096e-01
  2.456367e+01    8.906338e-01
  2.459542e+01    8.877984e-01
  2.462717e+01    8.859352e-01
  2.465892e+01    8.932040e-01
  2.469067e+01    9.054087e-01
  2.472242e+01    8.917641e-01
  2.475418e+01    9.081380e-01
  2.478593e+01    8.986721e-01
  2.481768e+01    8.922657e-01
  2.484943e+01    9.031888e-01
  2.488118e+01    9.144160e-01
  2.491293e+01    8.901830e-01
  2.494468e+01    9.017462e-01
  2.497643e+01    8.821883e-01
  2.500819e+01    8.876971e-01
  2.503994e+01    9.007534e-01
  2.507169e+01    9.064778e-01
  2.510344e+01    9.354445e-01
  2.513519e+01    9.274244e-01
  2.516694e+01    9.282443e-01
  2.519869e+01    9.455398e-01
  2.523044e+01    9.401490e-01
  2.526219e+01    9.660472e-01
  2.529395e+01    9.507532e-01
  2.532570e+01    9.945659e-01
  2.535745e+01    9.685609e-01
  2.538920e+01    9.900979e-01
  2.542095e+01    1.012391e+00
  2.545270e+01    1.014074e+00
  2.548445e+01    1.028492e+00
  2.551620e+01    1.066428e+00
  2.554795e+01    1.105568e+00
  2.557971e+01    1.185432e+00
  2.561146e+01    1.216587e+00
  2.564321e+01    1.302529e+00
  2.567496e+01    1.437051e+00
  2.570671e+01    1.603157e+00
  2.573846e+01    1.850274e+00
  2.577021e+01    2.219770e+00
  2.580196e+01    2.831617e+00
  2.583371e+01    3.703674e+00
  2.586547e+01    4.711381e+00
  2.589722e+01    5.854239e+00
  2.592897e+01    6.834707e+00
  2.596072e+01    7.158391e+00
  2.599247e+01    6.600037e+00
  2.602422e+01    5.272463e+00
  2.605597e+01    3.985704e+00
  2.608772e+01    2.984512e+00
  2.611948e+01    2.368740e+00
  2.615123e+01    1.975749e+00
  2.618298e+01    1.704546e+00
  2.621473e+01    1.474682e+00
  2.624648e+01    1.353454e+00
  2.627823e+01    1.287850e+00
  2.630998e+01    1.180513e+00
  2.634173e+01    1.139643e+00
  2.637348e+01    1.082193e+00
  2.640524e+01    1.049312e+00
  2.643699e+01    1.047418e+00
  2.646874e+01    1.024686e+00
  2.650049e+01    1.015183e+00
  2.653224e+01    9.864630e-01
  2.656399e+01    1.000599e+00
  2.659574e+01    1.001580e+00
  2.662749e+01    9.864457e-01
  2.665924e+01    9.900199e-01
  2.669100e+01    9.838574e-01
  2.672275e+01    9.662575e-01
  2.675450e+01    9.807913e-01
  2.678625e+01    9.679554e-01
  2.681800e+01    9.687116e-01
  2.684975e+01    9.945880e-01
  2.688150e+01    9.809701e-01
  2.691325e+01    1.006784e+00
  2.694501e+01    1.036939e+00
  2.697676e+01    1.058393e+00
  2.700851e+01    1.083121e+00
  2.704026e+01    1.203550e+00
  2.707201e+01    1.336768e+00
  2.710376e+01    1.512798e+00
  2.713551e+01    1.722385e+00
  2.716726e+01    1.983065e+00
  2.719901e+01    2.155663e+00
  2.723077e+01    2.178757e+00
  2.726252e+01    1.965343e+00
  2.729427e+01    1.708484e+00
  2.732602e+01    1.467330e+00
  2.735777e+01    1.291724e+00
  2.738952e+01    1.177175e+00
  2.742127e+01    1.117931e+00
  2.745302e+01    1.061687e+00
  2.748477e+01    9.942017e-01
  2.751653e+01    9.658737e-01
  2.754828e+01    9.730895e-01
  2.758003e+01    9.567151e-01
  2.761178e+01    9.317027e-01
  2.764353e+01    9.216527e-01
  2.767528e+01    9.127456e-01
  2.770703e+01    8.825890e-01
  2.773878e+01    8.932822e-01
  2.777054e+01    9.108178e-01
  2.780229e+01    8.882561e-01
  2.783404e+01    8.559077e-01
  2.786579e+01    8.962717e-01
  2.789754e+01    8.767330e-01
  2.792929e+01    8.730173e-01
  2.796104e+01    8.894351e-01
  2.799279e+01    8.668308e-01
  2.802454e+01    8.734865e-01
  2.805630e+01    8.743814e-01
  2.808805e+01    8.663508e-01
  2.811980e+01    8.412691e-01
  2.815155e+01    8.625063e-01
  2.818330e+01    8.509060e-01
  2.821505e+01    8.667400e-01
  2.824680e+01    8.503200e-01
  2.827855e+01    8.828872e-01
  2.831030e+01    8.689358e-01
  2.834206e+01    8.715057e-01
  2.837381e+01    8.324090e-01
  2.840556e+01    8.710699e-01
  2.843731e+01    8.395178e-01
  2.846906e+01    8.255368e-01
  2.850081e+01    8.389478e-01
  2.853256e+01    8.476839e-01
  2.856431e+01    8.274811e-01
  2.859606e+01    8.212221e-01
  2.862782e+01    8.276311e-01
  2.865957e+01    8.316113e-01
  2.869132e+01    8.331493e-01
  2.872307e+01    8.427107e-01
  2.875482e+01    8.193051e-01
  2.878657e+01    8.339709e-01
  2.881832e+01    8.337304e-01
  2.885007e+01    8.251823e-01
  2.888183e+01    8.420831e-01
  2.891358e+01    8.489199e-01
  2.894533e+01    8.360005e-01
  2.897708e+01    8.056929e-01
  2.900883e+01    8.149999e-01
  2.904058e+01    8.123661e-01
  2.907233e+01    8.173364e-01
  2.910408e+01    7.984121e-01
  2.913583e+01    8.184820e-01
  2.916759e+01    8.081937e-01
  2.919934e+01    8.003521e-01
  2.923109e+01    8.183339e-01
  2.926284e+01    8.237129e-01
  2.929459e+01    8.431966e-01
  2.932634e+01    8.265636e-01
  2.935809e+01    8.124095e-01
  2.938984e+01    8.066323e-01
  2.942159e+01    8.089215e-01
  2.945335e+01    8.084021e-01
  2.948510e+01    7.967216e-01
  2.951685e+01    8.112777e-01
  2.954860e+01    7.861534e-01
  2.958035e+01    8.046823e-01
  2.961210e+01    7.925348e-01
  2.964385e+01    8.105626e-01
  2.967560e+01    8.076764e-01
  2.970736e+01    7.998599e-01
  2.973911e+01    8.054510e-01
  2.977086e+01    7.882177e-01
  2.980261e+01    7.952999e-01
  2.983436e+01    8.130840e-01
  2.986611e+01    7.813905e-01
  2.989786e+01    8.011186e-01
  2.992961e+01    8.014171e-01
  2.996136e+01    7.986583e-01
  2.999312e+01    8.133112e-01
  3.002487e+01    8.028167e-01
  3.005662e+01    8.227148e-01
  3.008837e+01    8.124141e-01
  3.012012e+01    7.970674e-01
  3.015187e+01    7.876413e-01
  3.018362e+01    7.988578e-01
  3.021537e+01    7.937663e-01
  3.024712e+01    7.877026e-01
  3.027888e+01    7.881404e-01
  3.031063e+01    7.764587e-01
  3.034238e+01    7.869613e-01
  3.037413e+01    8.285186e-01
  3.040588e+01    7.988917e-01
  3.043763e+01    7.767642e-01
  3.046938e+01    7.899997e-01
  3.050113e+01    7.830417e-01
  3.053288e+01    7.936403e-01
  3.056464e+01    8.153526e-01
  3.059639e+01    7.723142e-01
  3.062814e+01    7.936566e-01
  3.065989e+01    7.873150e-01
  3.069164e+01    7.814738e-01
  3.072339e+01    7.723520e-01
  3.075514e+01    8.133399e-01
  3.078689e+01    7.873414e-01
  3.081865e+01    7.972736e-01
  3.085040e+01    8.008926e-01
  3.088215e+01    7.837095e-01
  3.091390e+01    7.932278e-01
  3.094565e+01    7.773083e-01
  3.097740e+01    7.972525e-01
  3.100915e+01    7.954890e-01
  3.104090e+01    7.904800e-01
  3.107265e+01    7.757093e-01
  3.110441e+01    8.064795e-01
  3.113616e+01    7.864412e-01
  3.116791e+01    7.992952e-01
  3.119966e+01    8.059089e-01
  3.123141e+01    8.042609e-01
  3.126316e+01    7.893862e-01
  3.129491e+01    8.171282e-01
  3.132666e+01    7.992848e-01
  3.135841e+01    8.000610e-01
  3.139017e+01    8.125365e-01
  3.142192e+01    8.174271e-01
  3.145367e+01    8.064274e-01
  3.148542e+01    8.190811e-01
  3.151717e+01    8.527471e-01
  3.154892e+01    8.658645e-01
  3.158067e+01    8.579348e-01
  3.161242e+01    8.967166e-01
  3.164418e+01    9.206177e-01
  3.167593e+01    9.785544e-01
  3.170768e+01    1.042128e+00
  3.173943e+01    1.124225e+00
  3.177118e+01    1.262678e+00
  3.180293e+01    1.470569e+00
  3.183468e+01    1.725108e+00
  3.186643e+01    1.969806e+00
  3.189818e+01    2.105090e+00
  3.192994e+01    2.034773e+00
  3.196169e+01    1.812658e+00
  3.199344e+01    1.540776e+00
  3.202519e+01    1.316521e+00
  3.205694e+01    1.129687e+00
  3.208869e+01    1.015092e+00
  3.212044e+01    9.694704e-01
  3.215219e+01    9.255658e-01
  3.218394e+01    8.853113e-01
  3.221570e+01    8.533457e-01
  3.224745e+01    8.379453e-01
  3.227920e+01    8.489540e-01
  3.231095e+01    8.057839e-01
  3.234270e+01    7.976515e-01
  3.237445e+01    8.093999e-01
  3.240620e+01    8.079330e-01
  3.243795e+01    7.850977e-01
  3.246970e+01    8.096174e-01
  3.250146e+01    7.891215e-01
  3.253321e+01    7.909811e-01
  3.254908e+01    7.562506e-01