File: XRD/Reaction conditions/2024-07-27_003_Ru-CGO-ex_Reaction_dwell_000023_data_000123.dat
# == pyFAI calibration ==
# Distance Sample to Detector: 0.4 m
# PONI: 9.750e-02, 1.135e-01 m
# Rotations: -0.000175 0.000000 -0.000000 rad
#
# == Fit2d calibration ==
# Distance Sample-beamCenter: 400.000 mm
# Center: x=1514.000, y=1300.000 pix
# Tilt: 0.010 deg  TiltPlanRot: 0.010 deg
#
# Detector Detector	 Spline= None	 PixelSize= 7.500e-05, 7.500e-05 m
#    Detector has a mask: False
#    Detector has a dark current: False
#    detector has a flat field: False
#
# Wavelength: 6.888e-11 m
# Mask applied: user provided
# Dark current applied: False
# Flat field applied: False
# Polarization factor: 0.99
# Normalization factor: 1.0
# --> /home/myspot/data/2024_07_Rosario/Ru-CGO-ex/2024-07-27_003_Ru-CGO-ex_Reaction_dwell_000023_data_000123.dat
#       q_nm^-1             I
  2.003187e-02    1.647358e-01
  5.178302e-02    3.725950e-01
  8.353417e-02    1.421381e-01
  1.152853e-01    6.151071e-02
  1.470365e-01    3.046248e-02
  1.787876e-01    3.018821e-02
  2.105388e-01    3.429716e-02
  2.422899e-01    2.251531e-02
  2.740411e-01    4.202576e-02
  3.057922e-01    3.371226e-02
  3.375433e-01    5.762443e-02
  3.692945e-01    2.722839e-02
  4.010456e-01    3.270103e-02
  4.327968e-01    4.868593e-02
  4.645479e-01    3.697453e-02
  4.962991e-01    3.300384e-02
  5.280502e-01    2.678121e-02
  5.598014e-01    3.193238e-02
  5.915525e-01    6.170924e-02
  6.233037e-01    2.476353e-02
  6.550548e-01    3.616142e-02
  6.868060e-01    2.810264e-02
  7.185571e-01    7.870169e-02
  7.503083e-01    6.414664e-02
  7.820594e-01    9.557277e-02
  8.138106e-01    2.738124e-01
  8.455617e-01    3.323556e-01
  8.773129e-01    6.073575e-01
  9.090640e-01    6.446331e-01
  9.408152e-01    8.560125e-01
  9.725663e-01    9.931516e-01
  1.004317e+00    1.153596e+00
  1.036069e+00    1.423549e+00
  1.067820e+00    1.582178e+00
  1.099571e+00    1.667848e+00
  1.131322e+00    1.669259e+00
  1.163073e+00    1.573352e+00
  1.194824e+00    1.779644e+00
  1.226575e+00    2.183218e+00
  1.258327e+00    2.482424e+00
  1.290078e+00    2.537804e+00
  1.321829e+00    2.919766e+00
  1.353580e+00    2.816068e+00
  1.385331e+00    2.675178e+00
  1.417082e+00    2.825346e+00
  1.448834e+00    2.977089e+00
  1.480585e+00    3.172101e+00
  1.512336e+00    3.170442e+00
  1.544087e+00    3.298964e+00
  1.575838e+00    3.191088e+00
  1.607589e+00    3.135581e+00
  1.639340e+00    3.033429e+00
  1.671092e+00    2.980853e+00
  1.702843e+00    3.125247e+00
  1.734594e+00    3.143455e+00
  1.766345e+00    3.222306e+00
  1.798096e+00    3.025165e+00
  1.829847e+00    2.869152e+00
  1.861598e+00    2.989178e+00
  1.893350e+00    3.011269e+00
  1.925101e+00    2.956555e+00
  1.956852e+00    2.995521e+00
  1.988603e+00    3.151071e+00
  2.020354e+00    2.998359e+00
  2.052105e+00    3.037604e+00
  2.083856e+00    3.052459e+00
  2.115608e+00    3.188854e+00
  2.147359e+00    3.105456e+00
  2.179110e+00    3.040288e+00
  2.210861e+00    3.162867e+00
  2.242612e+00    3.193377e+00
  2.274363e+00    2.987975e+00
  2.306115e+00    3.117928e+00
  2.337866e+00    3.138140e+00
  2.369617e+00    3.139028e+00
  2.401368e+00    3.221683e+00
  2.433119e+00    3.261297e+00
  2.464870e+00    3.136168e+00
  2.496621e+00    3.305436e+00
  2.528373e+00    3.244322e+00
  2.560124e+00    3.128614e+00
  2.591875e+00    3.294309e+00
  2.623626e+00    3.272447e+00
  2.655377e+00    3.257127e+00
  2.687128e+00    3.263977e+00
  2.718879e+00    3.298093e+00
  2.750631e+00    3.325863e+00
  2.782382e+00    3.286261e+00
  2.814133e+00    3.369593e+00
  2.845884e+00    3.186527e+00
  2.877635e+00    3.301655e+00
  2.909386e+00    3.230074e+00
  2.941137e+00    3.444478e+00
  2.972889e+00    3.283592e+00
  3.004640e+00    3.348545e+00
  3.036391e+00    3.331041e+00
  3.068142e+00    3.371571e+00
  3.099893e+00    3.303827e+00
  3.131644e+00    3.356010e+00
  3.163395e+00    3.449859e+00
  3.195147e+00    3.310814e+00
  3.226898e+00    3.451806e+00
  3.258649e+00    3.458040e+00
  3.290400e+00    3.397237e+00
  3.322151e+00    3.359663e+00
  3.353902e+00    3.401148e+00
  3.385654e+00    3.405769e+00
  3.417405e+00    3.341601e+00
  3.449156e+00    3.489812e+00
  3.480907e+00    3.461902e+00
  3.512658e+00    3.404371e+00
  3.544409e+00    3.499513e+00
  3.576160e+00    3.486660e+00
  3.607912e+00    3.489766e+00
  3.639663e+00    3.372926e+00
  3.671414e+00    3.556048e+00
  3.703165e+00    3.491552e+00
  3.734916e+00    3.463337e+00
  3.766667e+00    3.452577e+00
  3.798418e+00    3.429293e+00
  3.830170e+00    3.486930e+00
  3.861921e+00    3.510006e+00
  3.893672e+00    3.466027e+00
  3.925423e+00    3.454363e+00
  3.957174e+00    3.580199e+00
  3.988925e+00    3.581189e+00
  4.020676e+00    3.564699e+00
  4.052428e+00    3.552025e+00
  4.084179e+00    3.521420e+00
  4.115930e+00    3.589986e+00
  4.147681e+00    3.559968e+00
  4.179432e+00    3.490333e+00
  4.211183e+00    3.549081e+00
  4.242935e+00    3.517485e+00
  4.274686e+00    3.571636e+00
  4.306437e+00    3.619312e+00
  4.338188e+00    3.502176e+00
  4.369939e+00    3.524471e+00
  4.401690e+00    3.583426e+00
  4.433441e+00    3.636943e+00
  4.465193e+00    3.603085e+00
  4.496944e+00    3.613800e+00
  4.528695e+00    3.635564e+00
  4.560446e+00    3.632569e+00
  4.592197e+00    3.576557e+00
  4.623948e+00    3.614251e+00
  4.655699e+00    3.576615e+00
  4.687451e+00    3.565214e+00
  4.719202e+00    3.615793e+00
  4.750953e+00    3.624163e+00
  4.782704e+00    3.522704e+00
  4.814455e+00    3.680853e+00
  4.846206e+00    3.727515e+00
  4.877957e+00    3.547876e+00
  4.909709e+00    3.588674e+00
  4.941460e+00    3.589347e+00
  4.973211e+00    3.684671e+00
  5.004962e+00    3.608531e+00
  5.036713e+00    3.642665e+00
  5.068464e+00    3.641398e+00
  5.100216e+00    3.648415e+00
  5.131967e+00    3.688658e+00
  5.163718e+00    3.650623e+00
  5.195469e+00    3.690235e+00
  5.227220e+00    3.689239e+00
  5.258971e+00    3.747449e+00
  5.290722e+00    3.653193e+00
  5.322474e+00    3.636362e+00
  5.354225e+00    3.678602e+00
  5.385976e+00    3.638821e+00
  5.417727e+00    3.648044e+00
  5.449478e+00    3.606278e+00
  5.481229e+00    3.685001e+00
  5.512980e+00    3.553704e+00
  5.544732e+00    3.560655e+00
  5.576483e+00    3.569546e+00
  5.608234e+00    3.626561e+00
  5.639985e+00    3.602513e+00
  5.671736e+00    3.637316e+00
  5.703487e+00    3.614366e+00
  5.735238e+00    3.555358e+00
  5.766990e+00    3.662908e+00
  5.798741e+00    3.533919e+00
  5.830492e+00    3.541173e+00
  5.862243e+00    3.569410e+00
  5.893994e+00    3.600429e+00
  5.925745e+00    3.555015e+00
  5.957497e+00    3.569488e+00
  5.989248e+00    3.550558e+00
  6.020999e+00    3.531927e+00
  6.052750e+00    3.590299e+00
  6.084501e+00    3.544072e+00
  6.116252e+00    3.594552e+00
  6.148003e+00    3.579326e+00
  6.179755e+00    3.548751e+00
  6.211506e+00    3.581542e+00
  6.243257e+00    3.595499e+00
  6.275008e+00    3.668210e+00
  6.306759e+00    3.515098e+00
  6.338510e+00    3.651732e+00
  6.370261e+00    3.482482e+00
  6.402013e+00    3.545636e+00
  6.433764e+00    3.576546e+00
  6.465515e+00    3.593826e+00
  6.497266e+00    3.500434e+00
  6.529017e+00    3.591985e+00
  6.560768e+00    3.567163e+00
  6.592519e+00    3.518106e+00
  6.624271e+00    3.527467e+00
  6.656022e+00    3.622215e+00
  6.687773e+00    3.524281e+00
  6.719524e+00    3.569431e+00
  6.751275e+00    3.562085e+00
  6.783026e+00    3.570827e+00
  6.814777e+00    3.513649e+00
  6.846529e+00    3.543441e+00
  6.878280e+00    3.558340e+00
  6.910031e+00    3.497267e+00
  6.941782e+00    3.479956e+00
  6.973533e+00    3.661489e+00
  7.005284e+00    3.502893e+00
  7.037036e+00    3.520515e+00
  7.068787e+00    3.521708e+00
  7.100538e+00    3.540372e+00
  7.132289e+00    3.502643e+00
  7.164040e+00    3.546118e+00
  7.195791e+00    3.632278e+00
  7.227542e+00    3.484328e+00
  7.259294e+00    3.466140e+00
  7.291045e+00    3.487580e+00
  7.322796e+00    3.492288e+00
  7.354547e+00    3.485641e+00
  7.386298e+00    3.508114e+00
  7.418049e+00    3.492393e+00
  7.449800e+00    3.447222e+00
  7.481552e+00    3.499166e+00
  7.513303e+00    3.465287e+00
  7.545054e+00    3.445956e+00
  7.576805e+00    3.490841e+00
  7.608556e+00    3.429083e+00
  7.640307e+00    3.499368e+00
  7.672058e+00    3.366650e+00
  7.703810e+00    3.487546e+00
  7.735561e+00    3.476206e+00
  7.767312e+00    3.468420e+00
  7.799063e+00    3.458662e+00
  7.830814e+00    3.468389e+00
  7.862565e+00    3.503552e+00
  7.894317e+00    3.414805e+00
  7.926068e+00    3.454691e+00
  7.957819e+00    3.408582e+00
  7.989570e+00    3.469330e+00
  8.021321e+00    3.458804e+00
  8.053072e+00    3.474733e+00
  8.084823e+00    3.457069e+00
  8.116575e+00    3.406217e+00
  8.148326e+00    3.457992e+00
  8.180077e+00    3.471422e+00
  8.211828e+00    3.437810e+00
  8.243579e+00    3.450290e+00
  8.275330e+00    3.384908e+00
  8.307081e+00    3.433613e+00
  8.338833e+00    3.413413e+00
  8.370584e+00    3.360833e+00
  8.402335e+00    3.336846e+00
  8.434086e+00    3.408277e+00
  8.465837e+00    3.389114e+00
  8.497588e+00    3.316024e+00
  8.529339e+00    3.351175e+00
  8.561091e+00    3.342671e+00
  8.592842e+00    3.376771e+00
  8.624593e+00    3.322577e+00
  8.656344e+00    3.388932e+00
  8.688095e+00    3.320281e+00
  8.719846e+00    3.294407e+00
  8.751598e+00    3.315646e+00
  8.783349e+00    3.338720e+00
  8.815100e+00    3.238485e+00
  8.846851e+00    3.310024e+00
  8.878602e+00    3.290357e+00
  8.910353e+00    3.298798e+00
  8.942104e+00    3.285640e+00
  8.973856e+00    3.368007e+00
  9.005607e+00    3.353621e+00
  9.037358e+00    3.312052e+00
  9.069109e+00    3.290818e+00
  9.100860e+00    3.325848e+00
  9.132611e+00    3.256785e+00
  9.164362e+00    3.285787e+00
  9.196114e+00    3.222396e+00
  9.227865e+00    3.198691e+00
  9.259616e+00    3.250839e+00
  9.291367e+00    3.304101e+00
  9.323118e+00    3.225580e+00
  9.354869e+00    3.237248e+00
  9.386620e+00    3.264599e+00
  9.418372e+00    3.251815e+00
  9.450123e+00    3.196832e+00
  9.481874e+00    3.212400e+00
  9.513625e+00    3.250440e+00
  9.545376e+00    3.233512e+00
  9.577127e+00    3.208018e+00
  9.608878e+00    3.229714e+00
  9.640630e+00    3.228131e+00
  9.672381e+00    3.228386e+00
  9.704132e+00    3.151145e+00
  9.735883e+00    3.220685e+00
  9.767634e+00    3.181997e+00
  9.799385e+00    3.125442e+00
  9.831137e+00    3.131488e+00
  9.862888e+00    3.110272e+00
  9.894639e+00    3.118933e+00
  9.926390e+00    3.144738e+00
  9.958141e+00    3.091260e+00
  9.989892e+00    3.095551e+00
  1.002164e+01    3.094178e+00
  1.005339e+01    3.102132e+00
  1.008515e+01    3.105217e+00
  1.011690e+01    3.096225e+00
  1.014865e+01    3.042789e+00
  1.018040e+01    3.024729e+00
  1.021215e+01    3.070525e+00
  1.024390e+01    3.069607e+00
  1.027565e+01    3.102651e+00
  1.030740e+01    3.050278e+00
  1.033915e+01    3.054226e+00
  1.037091e+01    2.986290e+00
  1.040266e+01    3.004559e+00
  1.043441e+01    3.067514e+00
  1.046616e+01    3.024304e+00
  1.049791e+01    2.966628e+00
  1.052966e+01    3.003532e+00
  1.056141e+01    3.029994e+00
  1.059316e+01    3.034560e+00
  1.062492e+01    2.975508e+00
  1.065667e+01    2.967445e+00
  1.068842e+01    2.979839e+00
  1.072017e+01    2.967063e+00
  1.075192e+01    2.980199e+00
  1.078367e+01    2.947167e+00
  1.081542e+01    2.938019e+00
  1.084717e+01    2.957747e+00
  1.087892e+01    2.967386e+00
  1.091068e+01    2.973080e+00
  1.094243e+01    2.899388e+00
  1.097418e+01    2.927506e+00
  1.100593e+01    2.917678e+00
  1.103768e+01    2.939662e+00
  1.106943e+01    2.903911e+00
  1.110118e+01    2.893025e+00
  1.113293e+01    2.879545e+00
  1.116468e+01    2.842014e+00
  1.119644e+01    2.864532e+00
  1.122819e+01    2.917967e+00
  1.125994e+01    2.872591e+00
  1.129169e+01    2.794244e+00
  1.132344e+01    2.830049e+00
  1.135519e+01    2.828077e+00
  1.138694e+01    2.820293e+00
  1.141869e+01    2.835290e+00
  1.145045e+01    2.759650e+00
  1.148220e+01    2.738215e+00
  1.151395e+01    2.771579e+00
  1.154570e+01    2.848565e+00
  1.157745e+01    2.769886e+00
  1.160920e+01    2.820828e+00
  1.164095e+01    2.763446e+00
  1.167270e+01    2.756985e+00
  1.170445e+01    2.746307e+00
  1.173621e+01    2.777504e+00
  1.176796e+01    2.747286e+00
  1.179971e+01    2.796317e+00
  1.183146e+01    2.754978e+00
  1.186321e+01    2.758454e+00
  1.189496e+01    2.738183e+00
  1.192671e+01    2.729957e+00
  1.195846e+01    2.743706e+00
  1.199021e+01    2.723567e+00
  1.202197e+01    2.723984e+00
  1.205372e+01    2.728832e+00
  1.208547e+01    2.756511e+00
  1.211722e+01    2.721291e+00
  1.214897e+01    2.686696e+00
  1.218072e+01    2.675831e+00
  1.221247e+01    2.704887e+00
  1.224422e+01    2.719661e+00
  1.227597e+01    2.709035e+00
  1.230773e+01    2.666736e+00
  1.233948e+01    2.701505e+00
  1.237123e+01    2.688343e+00
  1.240298e+01    2.681305e+00
  1.243473e+01    2.683599e+00
  1.246648e+01    2.698148e+00
  1.249823e+01    2.754357e+00
  1.252998e+01    2.704201e+00
  1.256174e+01    2.746735e+00
  1.259349e+01    2.717046e+00
  1.262524e+01    2.750584e+00
  1.265699e+01    2.788844e+00
  1.268874e+01    2.785803e+00
  1.272049e+01    2.834052e+00
  1.275224e+01    2.891009e+00
  1.278399e+01    2.961875e+00
  1.281574e+01    3.061614e+00
  1.284750e+01    3.205288e+00
  1.287925e+01    3.346999e+00
  1.291100e+01    3.644672e+00
  1.294275e+01    4.084806e+00
  1.297450e+01    4.689705e+00
  1.300625e+01    5.839400e+00
  1.303800e+01    7.600677e+00
  1.306975e+01    1.010856e+01
  1.310150e+01    1.256254e+01
  1.313326e+01    1.483553e+01
  1.316501e+01    1.622691e+01
  1.319676e+01    1.559749e+01
  1.322851e+01    1.251500e+01
  1.326026e+01    9.018483e+00
  1.329201e+01    6.759274e+00
  1.332376e+01    5.344094e+00
  1.335551e+01    4.454271e+00
  1.338727e+01    3.896718e+00
  1.341902e+01    3.476179e+00
  1.345077e+01    3.246741e+00
  1.348252e+01    3.109577e+00
  1.351427e+01    2.914997e+00
  1.354602e+01    2.784196e+00
  1.357777e+01    2.766156e+00
  1.360952e+01    2.678524e+00
  1.364127e+01    2.608439e+00
  1.367303e+01    2.563212e+00
  1.370478e+01    2.539956e+00
  1.373653e+01    2.538044e+00
  1.376828e+01    2.513676e+00
  1.380003e+01    2.463389e+00
  1.383178e+01    2.466652e+00
  1.386353e+01    2.446846e+00
  1.389528e+01    2.432324e+00
  1.392703e+01    2.416166e+00
  1.395879e+01    2.388064e+00
  1.399054e+01    2.349230e+00
  1.402229e+01    2.336715e+00
  1.405404e+01    2.328932e+00
  1.408579e+01    2.325030e+00
  1.411754e+01    2.296529e+00
  1.414929e+01    2.305102e+00
  1.418104e+01    2.306959e+00
  1.421279e+01    2.278995e+00
  1.424455e+01    2.267640e+00
  1.427630e+01    2.273072e+00
  1.430805e+01    2.231125e+00
  1.433980e+01    2.275986e+00
  1.437155e+01    2.230584e+00
  1.440330e+01    2.236406e+00
  1.443505e+01    2.258427e+00
  1.446680e+01    2.239320e+00
  1.449856e+01    2.250626e+00
  1.453031e+01    2.198405e+00
  1.456206e+01    2.228640e+00
  1.459381e+01    2.216154e+00
  1.462556e+01    2.210413e+00
  1.465731e+01    2.238469e+00
  1.468906e+01    2.208270e+00
  1.472081e+01    2.210838e+00
  1.475256e+01    2.177589e+00
  1.478432e+01    2.230876e+00
  1.481607e+01    2.218227e+00
  1.484782e+01    2.219348e+00
  1.487957e+01    2.236025e+00
  1.491132e+01    2.238325e+00
  1.494307e+01    2.281677e+00
  1.497482e+01    2.315448e+00
  1.500657e+01    2.432320e+00
  1.503832e+01    2.633217e+00
  1.507008e+01    2.803798e+00
  1.510183e+01    3.146729e+00
  1.513358e+01    3.812003e+00
  1.516533e+01    4.463628e+00
  1.519708e+01    5.120322e+00
  1.522883e+01    5.577011e+00
  1.526058e+01    5.764524e+00
  1.529233e+01    5.484915e+00
  1.532409e+01    4.680666e+00
  1.535584e+01    3.790262e+00
  1.538759e+01    3.160473e+00
  1.541934e+01    2.806613e+00
  1.545109e+01    2.528571e+00
  1.548284e+01    2.411474e+00
  1.551459e+01    2.212583e+00
  1.554634e+01    2.149257e+00
  1.557809e+01    2.151111e+00
  1.560985e+01    2.071203e+00
  1.564160e+01    2.069961e+00
  1.567335e+01    1.987318e+00
  1.570510e+01    2.006278e+00
  1.573685e+01    2.012496e+00
  1.576860e+01    1.982600e+00
  1.580035e+01    1.979647e+00
  1.583210e+01    1.942139e+00
  1.586385e+01    1.913121e+00
  1.589561e+01    1.896742e+00
  1.592736e+01    1.876094e+00
  1.595911e+01    1.859483e+00
  1.599086e+01    1.863907e+00
  1.602261e+01    1.895406e+00
  1.605436e+01    1.849019e+00
  1.608611e+01    1.868069e+00
  1.611786e+01    1.846990e+00
  1.614961e+01    1.853337e+00
  1.618137e+01    1.829955e+00
  1.621312e+01    1.879986e+00
  1.624487e+01    1.813628e+00
  1.627662e+01    1.769893e+00
  1.630837e+01    1.793718e+00
  1.634012e+01    1.760991e+00
  1.637187e+01    1.818933e+00
  1.640362e+01    1.758768e+00
  1.643538e+01    1.759948e+00
  1.646713e+01    1.760934e+00
  1.649888e+01    1.762159e+00
  1.653063e+01    1.771259e+00
  1.656238e+01    1.760450e+00
  1.659413e+01    1.782391e+00
  1.662588e+01    1.747844e+00
  1.665763e+01    1.720596e+00
  1.668938e+01    1.708874e+00
  1.672114e+01    1.716379e+00
  1.675289e+01    1.748166e+00
  1.678464e+01    1.709782e+00
  1.681639e+01    1.671346e+00
  1.684814e+01    1.718146e+00
  1.687989e+01    1.680904e+00
  1.691164e+01    1.692768e+00
  1.694339e+01    1.694802e+00
  1.697514e+01    1.659549e+00
  1.700690e+01    1.659805e+00
  1.703865e+01    1.673936e+00
  1.707040e+01    1.666666e+00
  1.710215e+01    1.687817e+00
  1.713390e+01    1.651863e+00
  1.716565e+01    1.669392e+00
  1.719740e+01    1.663368e+00
  1.722915e+01    1.648126e+00
  1.726091e+01    1.599122e+00
  1.729266e+01    1.595447e+00
  1.732441e+01    1.609129e+00
  1.735616e+01    1.643098e+00
  1.738791e+01    1.590194e+00
  1.741966e+01    1.578828e+00
  1.745141e+01    1.606132e+00
  1.748316e+01    1.572867e+00
  1.751491e+01    1.573517e+00
  1.754667e+01    1.548697e+00
  1.757842e+01    1.573782e+00
  1.761017e+01    1.564669e+00
  1.764192e+01    1.582118e+00
  1.767367e+01    1.586203e+00
  1.770542e+01    1.566645e+00
  1.773717e+01    1.560691e+00
  1.776892e+01    1.536916e+00
  1.780067e+01    1.512957e+00
  1.783243e+01    1.504155e+00
  1.786418e+01    1.519163e+00
  1.789593e+01    1.536583e+00
  1.792768e+01    1.508895e+00
  1.795943e+01    1.508844e+00
  1.799118e+01    1.512766e+00
  1.802293e+01    1.482841e+00
  1.805468e+01    1.502723e+00
  1.808643e+01    1.503789e+00
  1.811819e+01    1.515810e+00
  1.814994e+01    1.496765e+00
  1.818169e+01    1.492961e+00
  1.821344e+01    1.485598e+00
  1.824519e+01    1.462244e+00
  1.827694e+01    1.440231e+00
  1.830869e+01    1.474627e+00
  1.834044e+01    1.473906e+00
  1.837220e+01    1.438146e+00
  1.840395e+01    1.486370e+00
  1.843570e+01    1.451905e+00
  1.846745e+01    1.454527e+00
  1.849920e+01    1.433144e+00
  1.853095e+01    1.436420e+00
  1.856270e+01    1.422265e+00
  1.859445e+01    1.433925e+00
  1.862620e+01    1.406944e+00
  1.865796e+01    1.417667e+00
  1.868971e+01    1.410436e+00
  1.872146e+01    1.414847e+00
  1.875321e+01    1.421057e+00
  1.878496e+01    1.421328e+00
  1.881671e+01    1.416284e+00
  1.884846e+01    1.399435e+00
  1.888021e+01    1.384733e+00
  1.891196e+01    1.400940e+00
  1.894372e+01    1.364214e+00
  1.897547e+01    1.403043e+00
  1.900722e+01    1.371877e+00
  1.903897e+01    1.383934e+00
  1.907072e+01    1.383431e+00
  1.910247e+01    1.363250e+00
  1.913422e+01    1.375047e+00
  1.916597e+01    1.366098e+00
  1.919773e+01    1.351819e+00
  1.922948e+01    1.366893e+00
  1.926123e+01    1.352062e+00
  1.929298e+01    1.355784e+00
  1.932473e+01    1.341284e+00
  1.935648e+01    1.361512e+00
  1.938823e+01    1.333758e+00
  1.941998e+01    1.327454e+00
  1.945173e+01    1.340493e+00
  1.948349e+01    1.326070e+00
  1.951524e+01    1.333013e+00
  1.954699e+01    1.333986e+00
  1.957874e+01    1.317974e+00
  1.961049e+01    1.293237e+00
  1.964224e+01    1.331654e+00
  1.967399e+01    1.292131e+00
  1.970574e+01    1.310111e+00
  1.973749e+01    1.316714e+00
  1.976925e+01    1.319244e+00
  1.980100e+01    1.286111e+00
  1.983275e+01    1.305678e+00
  1.986450e+01    1.297435e+00
  1.989625e+01    1.291257e+00
  1.992800e+01    1.307020e+00
  1.995975e+01    1.307909e+00
  1.999150e+01    1.282993e+00
  2.002325e+01    1.265715e+00
  2.005501e+01    1.279170e+00
  2.008676e+01    1.255578e+00
  2.011851e+01    1.280964e+00
  2.015026e+01    1.273330e+00
  2.018201e+01    1.255438e+00
  2.021376e+01    1.256312e+00
  2.024551e+01    1.243541e+00
  2.027726e+01    1.252807e+00
  2.030902e+01    1.240938e+00
  2.034077e+01    1.264684e+00
  2.037252e+01    1.241807e+00
  2.040427e+01    1.226157e+00
  2.043602e+01    1.279539e+00
  2.046777e+01    1.243014e+00
  2.049952e+01    1.248994e+00
  2.053127e+01    1.232136e+00
  2.056302e+01    1.226788e+00
  2.059478e+01    1.212610e+00
  2.062653e+01    1.264187e+00
  2.065828e+01    1.249478e+00
  2.069003e+01    1.231189e+00
  2.072178e+01    1.251061e+00
  2.075353e+01    1.250979e+00
  2.078528e+01    1.209238e+00
  2.081703e+01    1.234689e+00
  2.084878e+01    1.228148e+00
  2.088054e+01    1.207144e+00
  2.091229e+01    1.222557e+00
  2.094404e+01    1.213704e+00
  2.097579e+01    1.235498e+00
  2.100754e+01    1.222317e+00
  2.103929e+01    1.241074e+00
  2.107104e+01    1.228904e+00
  2.110279e+01    1.237202e+00
  2.113455e+01    1.227982e+00
  2.116630e+01    1.225781e+00
  2.119805e+01    1.208755e+00
  2.122980e+01    1.234202e+00
  2.126155e+01    1.240366e+00
  2.129330e+01    1.255688e+00
  2.132505e+01    1.266552e+00
  2.135680e+01    1.304252e+00
  2.138855e+01    1.315564e+00
  2.142031e+01    1.315193e+00
  2.145206e+01    1.321399e+00
  2.148381e+01    1.378380e+00
  2.151556e+01    1.476190e+00
  2.154731e+01    1.513304e+00
  2.157906e+01    1.612512e+00
  2.161081e+01    1.722530e+00
  2.164256e+01    1.973550e+00
  2.167431e+01    2.300386e+00
  2.170607e+01    2.799615e+00
  2.173782e+01    3.492198e+00
  2.176957e+01    4.563272e+00
  2.180132e+01    5.804056e+00
  2.183307e+01    7.114694e+00
  2.186482e+01    8.298435e+00
  2.189657e+01    8.895373e+00
  2.192832e+01    8.279055e+00
  2.196007e+01    6.625898e+00
  2.199183e+01    4.893631e+00
  2.202358e+01    3.605529e+00
  2.205533e+01    2.869825e+00
  2.208708e+01    2.294128e+00
  2.211883e+01    1.962028e+00
  2.215058e+01    1.790580e+00
  2.218233e+01    1.590286e+00
  2.221408e+01    1.495738e+00
  2.224584e+01    1.440800e+00
  2.227759e+01    1.337857e+00
  2.230934e+01    1.267806e+00
  2.234109e+01    1.267497e+00
  2.237284e+01    1.227949e+00
  2.240459e+01    1.202742e+00
  2.243634e+01    1.172037e+00
  2.246809e+01    1.158845e+00
  2.249984e+01    1.151136e+00
  2.253160e+01    1.109594e+00
  2.256335e+01    1.142086e+00
  2.259510e+01    1.104398e+00
  2.262685e+01    1.100266e+00
  2.265860e+01    1.104517e+00
  2.269035e+01    1.061060e+00
  2.272210e+01    1.092965e+00
  2.275385e+01    1.042688e+00
  2.278560e+01    1.057246e+00
  2.281736e+01    1.046670e+00
  2.284911e+01    1.056539e+00
  2.288086e+01    1.020432e+00
  2.291261e+01    1.032982e+00
  2.294436e+01    1.068163e+00
  2.297611e+01    1.041959e+00
  2.300786e+01    1.039159e+00
  2.303961e+01    1.022539e+00
  2.307137e+01    1.022225e+00
  2.310312e+01    1.001722e+00
  2.313487e+01    1.009793e+00
  2.316662e+01    9.799265e-01
  2.319837e+01    9.689773e-01
  2.323012e+01    9.871961e-01
  2.326187e+01    9.524264e-01
  2.329362e+01    9.580528e-01
  2.332537e+01    9.749123e-01
  2.335713e+01    9.801987e-01
  2.338888e+01    9.648129e-01
  2.342063e+01    9.669756e-01
  2.345238e+01    9.625373e-01
  2.348413e+01    9.689145e-01
  2.351588e+01    9.607671e-01
  2.354763e+01    9.603092e-01
  2.357938e+01    9.606944e-01
  2.361113e+01    9.654920e-01
  2.364289e+01    9.784575e-01
  2.367464e+01    9.503983e-01
  2.370639e+01    9.508792e-01
  2.373814e+01    9.469569e-01
  2.376989e+01    9.383956e-01
  2.380164e+01    9.227277e-01
  2.383339e+01    9.002914e-01
  2.386514e+01    9.132164e-01
  2.389689e+01    9.152166e-01
  2.392865e+01    9.034268e-01
  2.396040e+01    9.028105e-01
  2.399215e+01    8.993822e-01
  2.402390e+01    8.757310e-01
  2.405565e+01    8.965532e-01
  2.408740e+01    8.815865e-01
  2.411915e+01    8.948871e-01
  2.415090e+01    8.718109e-01
  2.418266e+01    8.728101e-01
  2.421441e+01    8.866699e-01
  2.424616e+01    8.767948e-01
  2.427791e+01    8.979520e-01
  2.430966e+01    8.728893e-01
  2.434141e+01    8.814707e-01
  2.437316e+01    8.852435e-01
  2.440491e+01    8.743058e-01
  2.443666e+01    8.829398e-01
  2.446842e+01    8.928804e-01
  2.450017e+01    8.851780e-01
  2.453192e+01    8.854193e-01
  2.456367e+01    8.676021e-01
  2.459542e+01    9.119123e-01
  2.462717e+01    8.961741e-01
  2.465892e+01    9.023986e-01
  2.469067e+01    8.859171e-01
  2.472242e+01    8.779635e-01
  2.475418e+01    8.841788e-01
  2.478593e+01    9.059303e-01
  2.481768e+01    8.880919e-01
  2.484943e+01    8.956243e-01
  2.488118e+01    9.054388e-01
  2.491293e+01    8.994418e-01
  2.494468e+01    9.187679e-01
  2.497643e+01    8.851003e-01
  2.500819e+01    8.916666e-01
  2.503994e+01    8.929227e-01
  2.507169e+01    9.033422e-01
  2.510344e+01    9.117891e-01
  2.513519e+01    9.060135e-01
  2.516694e+01    9.196766e-01
  2.519869e+01    9.296071e-01
  2.523044e+01    9.455417e-01
  2.526219e+01    9.669144e-01
  2.529395e+01    9.664219e-01
  2.532570e+01    9.640003e-01
  2.535745e+01    9.519302e-01
  2.538920e+01    9.749260e-01
  2.542095e+01    9.912964e-01
  2.545270e+01    1.026972e+00
  2.548445e+01    1.048179e+00
  2.551620e+01    1.057658e+00
  2.554795e+01    1.098901e+00
  2.557971e+01    1.174995e+00
  2.561146e+01    1.224113e+00
  2.564321e+01    1.306181e+00
  2.567496e+01    1.416542e+00
  2.570671e+01    1.601470e+00
  2.573846e+01    1.803032e+00
  2.577021e+01    2.198483e+00
  2.580196e+01    2.761385e+00
  2.583371e+01    3.597531e+00
  2.586547e+01    4.662940e+00
  2.589722e+01    5.771475e+00
  2.592897e+01    6.723727e+00
  2.596072e+01    7.052742e+00
  2.599247e+01    6.587009e+00
  2.602422e+01    5.277184e+00
  2.605597e+01    3.988371e+00
  2.608772e+01    3.024918e+00
  2.611948e+01    2.341140e+00
  2.615123e+01    1.944596e+00
  2.618298e+01    1.665954e+00
  2.621473e+01    1.482548e+00
  2.624648e+01    1.332047e+00
  2.627823e+01    1.273368e+00
  2.630998e+01    1.188469e+00
  2.634173e+01    1.116690e+00
  2.637348e+01    1.082072e+00
  2.640524e+01    1.083455e+00
  2.643699e+01    1.044741e+00
  2.646874e+01    9.992803e-01
  2.650049e+01    9.895208e-01
  2.653224e+01    1.008848e+00
  2.656399e+01    9.767334e-01
  2.659574e+01    9.914218e-01
  2.662749e+01    9.807575e-01
  2.665924e+01    9.807770e-01
  2.669100e+01    9.718156e-01
  2.672275e+01    9.567410e-01
  2.675450e+01    9.678933e-01
  2.678625e+01    9.762589e-01
  2.681800e+01    9.588404e-01
  2.684975e+01    9.770252e-01
  2.688150e+01    9.968426e-01
  2.691325e+01    1.022714e+00
  2.694501e+01    1.019040e+00
  2.697676e+01    1.056797e+00
  2.700851e+01    1.100124e+00
  2.704026e+01    1.181155e+00
  2.707201e+01    1.309812e+00
  2.710376e+01    1.498441e+00
  2.713551e+01    1.707995e+00
  2.716726e+01    1.915225e+00
  2.719901e+01    2.133114e+00
  2.723077e+01    2.145690e+00
  2.726252e+01    1.979920e+00
  2.729427e+01    1.722447e+00
  2.732602e+01    1.474134e+00
  2.735777e+01    1.295978e+00
  2.738952e+01    1.172356e+00
  2.742127e+01    1.092479e+00
  2.745302e+01    1.032203e+00
  2.748477e+01    9.796906e-01
  2.751653e+01    9.947848e-01
  2.754828e+01    9.585996e-01
  2.758003e+01    9.386758e-01
  2.761178e+01    9.408244e-01
  2.764353e+01    9.056664e-01
  2.767528e+01    9.077969e-01
  2.770703e+01    9.070092e-01
  2.773878e+01    8.988576e-01
  2.777054e+01    8.891913e-01
  2.780229e+01    9.001128e-01
  2.783404e+01    8.561956e-01
  2.786579e+01    8.621323e-01
  2.789754e+01    8.651523e-01
  2.792929e+01    8.794629e-01
  2.796104e+01    8.971583e-01
  2.799279e+01    8.656453e-01
  2.802454e+01    8.706254e-01
  2.805630e+01    8.571092e-01
  2.808805e+01    8.671359e-01
  2.811980e+01    8.662788e-01
  2.815155e+01    8.612853e-01
  2.818330e+01    8.461056e-01
  2.821505e+01    8.639427e-01
  2.824680e+01    8.349667e-01
  2.827855e+01    8.513155e-01
  2.831030e+01    8.450404e-01
  2.834206e+01    8.499215e-01
  2.837381e+01    8.544529e-01
  2.840556e+01    8.526876e-01
  2.843731e+01    8.262135e-01
  2.846906e+01    8.676607e-01
  2.850081e+01    8.332013e-01
  2.853256e+01    8.236699e-01
  2.856431e+01    8.314203e-01
  2.859606e+01    8.272491e-01
  2.862782e+01    8.279684e-01
  2.865957e+01    8.519546e-01
  2.869132e+01    8.196483e-01
  2.872307e+01    8.560638e-01
  2.875482e+01    8.351486e-01
  2.878657e+01    8.235039e-01
  2.881832e+01    8.183593e-01
  2.885007e+01    8.313614e-01
  2.888183e+01    8.225505e-01
  2.891358e+01    8.152975e-01
  2.894533e+01    8.041897e-01
  2.897708e+01    8.192679e-01
  2.900883e+01    8.094018e-01
  2.904058e+01    8.256255e-01
  2.907233e+01    8.110107e-01
  2.910408e+01    8.107951e-01
  2.913583e+01    7.903287e-01
  2.916759e+01    8.248258e-01
  2.919934e+01    8.368344e-01
  2.923109e+01    8.110977e-01
  2.926284e+01    7.902219e-01
  2.929459e+01    8.137797e-01
  2.932634e+01    8.141065e-01
  2.935809e+01    7.891384e-01
  2.938984e+01    8.182711e-01
  2.942159e+01    8.070136e-01
  2.945335e+01    8.049997e-01
  2.948510e+01    7.924712e-01
  2.951685e+01    8.012791e-01
  2.954860e+01    7.815327e-01
  2.958035e+01    7.932363e-01
  2.961210e+01    7.959865e-01
  2.964385e+01    7.945458e-01
  2.967560e+01    8.112026e-01
  2.970736e+01    7.753041e-01
  2.973911e+01    7.904767e-01
  2.977086e+01    8.064310e-01
  2.980261e+01    7.970731e-01
  2.983436e+01    8.013965e-01
  2.986611e+01    8.092046e-01
  2.989786e+01    7.847173e-01
  2.992961e+01    7.998312e-01
  2.996136e+01    7.778560e-01
  2.999312e+01    8.164417e-01
  3.002487e+01    7.822980e-01
  3.005662e+01    7.990281e-01
  3.008837e+01    8.041295e-01
  3.012012e+01    7.937607e-01
  3.015187e+01    7.943299e-01
  3.018362e+01    7.913230e-01
  3.021537e+01    7.815157e-01
  3.024712e+01    7.682637e-01
  3.027888e+01    7.739064e-01
  3.031063e+01    7.806551e-01
  3.034238e+01    7.723416e-01
  3.037413e+01    7.709691e-01
  3.040588e+01    7.562327e-01
  3.043763e+01    8.039387e-01
  3.046938e+01    8.079914e-01
  3.050113e+01    7.716309e-01
  3.053288e+01    7.714227e-01
  3.056464e+01    7.943805e-01
  3.059639e+01    7.895243e-01
  3.062814e+01    7.718211e-01
  3.065989e+01    7.730615e-01
  3.069164e+01    7.750043e-01
  3.072339e+01    7.673926e-01
  3.075514e+01    7.888759e-01
  3.078689e+01    7.836995e-01
  3.081865e+01    7.698694e-01
  3.085040e+01    7.889841e-01
  3.088215e+01    7.931324e-01
  3.091390e+01    7.754197e-01
  3.094565e+01    7.738948e-01
  3.097740e+01    7.782714e-01
  3.100915e+01    7.943754e-01
  3.104090e+01    7.860926e-01
  3.107265e+01    7.880148e-01
  3.110441e+01    8.040037e-01
  3.113616e+01    7.749810e-01
  3.116791e+01    8.208332e-01
  3.119966e+01    7.849914e-01
  3.123141e+01    7.934697e-01
  3.126316e+01    7.659929e-01
  3.129491e+01    7.985290e-01
  3.132666e+01    8.093269e-01
  3.135841e+01    8.044294e-01
  3.139017e+01    7.893892e-01
  3.142192e+01    8.183591e-01
  3.145367e+01    8.179184e-01
  3.148542e+01    8.162023e-01
  3.151717e+01    8.299654e-01
  3.154892e+01    8.411732e-01
  3.158067e+01    8.647202e-01
  3.161242e+01    8.949959e-01
  3.164418e+01    9.001402e-01
  3.167593e+01    9.479771e-01
  3.170768e+01    1.015576e+00
  3.173943e+01    1.118874e+00
  3.177118e+01    1.241596e+00
  3.180293e+01    1.452635e+00
  3.183468e+01    1.680542e+00
  3.186643e+01    1.940145e+00
  3.189818e+01    2.023444e+00
  3.192994e+01    2.011474e+00
  3.196169e+01    1.848554e+00
  3.199344e+01    1.571145e+00
  3.202519e+01    1.305060e+00
  3.205694e+01    1.190246e+00
  3.208869e+01    1.031031e+00
  3.212044e+01    9.724861e-01
  3.215219e+01    9.291258e-01
  3.218394e+01    8.731141e-01
  3.221570e+01    8.515204e-01
  3.224745e+01    8.274533e-01
  3.227920e+01    8.268290e-01
  3.231095e+01    8.092337e-01
  3.234270e+01    7.892861e-01
  3.237445e+01    7.845525e-01
  3.240620e+01    7.732735e-01
  3.243795e+01    8.004948e-01
  3.246970e+01    7.846398e-01
  3.250146e+01    7.905842e-01
  3.253321e+01    7.661911e-01
  3.254908e+01    7.763645e-01