File: XRD/Reaction conditions/2024-07-27_003_Ru-CGO-ex_Reaction_dwell_000023_data_000065.dat
# == pyFAI calibration ==
# Distance Sample to Detector: 0.4 m
# PONI: 9.750e-02, 1.135e-01 m
# Rotations: -0.000175 0.000000 -0.000000 rad
#
# == Fit2d calibration ==
# Distance Sample-beamCenter: 400.000 mm
# Center: x=1514.000, y=1300.000 pix
# Tilt: 0.010 deg  TiltPlanRot: 0.010 deg
#
# Detector Detector	 Spline= None	 PixelSize= 7.500e-05, 7.500e-05 m
#    Detector has a mask: False
#    Detector has a dark current: False
#    detector has a flat field: False
#
# Wavelength: 6.888e-11 m
# Mask applied: user provided
# Dark current applied: False
# Flat field applied: False
# Polarization factor: 0.99
# Normalization factor: 1.0
# --> /home/myspot/data/2024_07_Rosario/Ru-CGO-ex/2024-07-27_003_Ru-CGO-ex_Reaction_dwell_000023_data_000065.dat
#       q_nm^-1             I
  2.003187e-02    0.000000e+00
  5.178302e-02    4.981178e-02
  8.353417e-02    9.614360e-02
  1.152853e-01    2.962971e-02
  1.470365e-01    6.204870e-02
  1.787876e-01    3.974181e-02
  2.105388e-01    6.395774e-02
  2.422899e-01    2.255077e-02
  2.740411e-01    3.548089e-02
  3.057922e-01    3.571282e-02
  3.375433e-01    4.137821e-02
  3.692945e-01    3.130971e-02
  4.010456e-01    3.380761e-02
  4.327968e-01    4.282283e-02
  4.645479e-01    6.144942e-02
  4.962991e-01    2.003500e-02
  5.280502e-01    4.971093e-02
  5.598014e-01    2.836602e-02
  5.915525e-01    2.614184e-02
  6.233037e-01    4.856738e-02
  6.550548e-01    3.199260e-02
  6.868060e-01    3.329689e-02
  7.185571e-01    5.062342e-02
  7.503083e-01    3.411858e-02
  7.820594e-01    1.267315e-01
  8.138106e-01    2.069054e-01
  8.455617e-01    3.547116e-01
  8.773129e-01    5.382047e-01
  9.090640e-01    6.416314e-01
  9.408152e-01    8.368952e-01
  9.725663e-01    1.021338e+00
  1.004317e+00    1.064539e+00
  1.036069e+00    1.281786e+00
  1.067820e+00    1.345250e+00
  1.099571e+00    1.536732e+00
  1.131322e+00    1.673413e+00
  1.163073e+00    1.705178e+00
  1.194824e+00    1.847035e+00
  1.226575e+00    2.197317e+00
  1.258327e+00    2.362046e+00
  1.290078e+00    2.622091e+00
  1.321829e+00    2.721193e+00
  1.353580e+00    2.875166e+00
  1.385331e+00    2.719173e+00
  1.417082e+00    2.780460e+00
  1.448834e+00    2.865843e+00
  1.480585e+00    3.020875e+00
  1.512336e+00    3.206542e+00
  1.544087e+00    3.296938e+00
  1.575838e+00    3.070707e+00
  1.607589e+00    3.204062e+00
  1.639340e+00    3.119840e+00
  1.671092e+00    3.130398e+00
  1.702843e+00    3.026201e+00
  1.734594e+00    3.110026e+00
  1.766345e+00    3.060366e+00
  1.798096e+00    3.114731e+00
  1.829847e+00    3.141580e+00
  1.861598e+00    3.289528e+00
  1.893350e+00    2.942098e+00
  1.925101e+00    3.067220e+00
  1.956852e+00    3.077635e+00
  1.988603e+00    3.139305e+00
  2.020354e+00    3.003300e+00
  2.052105e+00    3.067783e+00
  2.083856e+00    3.194151e+00
  2.115608e+00    3.323866e+00
  2.147359e+00    3.076943e+00
  2.179110e+00    3.121322e+00
  2.210861e+00    2.979897e+00
  2.242612e+00    3.265597e+00
  2.274363e+00    3.023388e+00
  2.306115e+00    3.122818e+00
  2.337866e+00    3.139296e+00
  2.369617e+00    3.105473e+00
  2.401368e+00    3.284389e+00
  2.433119e+00    3.224859e+00
  2.464870e+00    3.193184e+00
  2.496621e+00    3.116695e+00
  2.528373e+00    3.134250e+00
  2.560124e+00    3.172117e+00
  2.591875e+00    3.223314e+00
  2.623626e+00    3.142021e+00
  2.655377e+00    3.247170e+00
  2.687128e+00    3.330353e+00
  2.718879e+00    3.279803e+00
  2.750631e+00    3.315459e+00
  2.782382e+00    3.334147e+00
  2.814133e+00    3.262563e+00
  2.845884e+00    3.276310e+00
  2.877635e+00    3.260098e+00
  2.909386e+00    3.384020e+00
  2.941137e+00    3.337435e+00
  2.972889e+00    3.259051e+00
  3.004640e+00    3.283670e+00
  3.036391e+00    3.310227e+00
  3.068142e+00    3.452333e+00
  3.099893e+00    3.315981e+00
  3.131644e+00    3.391989e+00
  3.163395e+00    3.341566e+00
  3.195147e+00    3.448303e+00
  3.226898e+00    3.391646e+00
  3.258649e+00    3.289135e+00
  3.290400e+00    3.338787e+00
  3.322151e+00    3.407821e+00
  3.353902e+00    3.507236e+00
  3.385654e+00    3.487985e+00
  3.417405e+00    3.469539e+00
  3.449156e+00    3.438939e+00
  3.480907e+00    3.396919e+00
  3.512658e+00    3.562477e+00
  3.544409e+00    3.403749e+00
  3.576160e+00    3.502993e+00
  3.607912e+00    3.503707e+00
  3.639663e+00    3.490788e+00
  3.671414e+00    3.510172e+00
  3.703165e+00    3.573313e+00
  3.734916e+00    3.431522e+00
  3.766667e+00    3.495546e+00
  3.798418e+00    3.572750e+00
  3.830170e+00    3.467018e+00
  3.861921e+00    3.482177e+00
  3.893672e+00    3.489534e+00
  3.925423e+00    3.566615e+00
  3.957174e+00    3.493723e+00
  3.988925e+00    3.550770e+00
  4.020676e+00    3.482044e+00
  4.052428e+00    3.605068e+00
  4.084179e+00    3.535051e+00
  4.115930e+00    3.587747e+00
  4.147681e+00    3.527618e+00
  4.179432e+00    3.524817e+00
  4.211183e+00    3.478194e+00
  4.242935e+00    3.553015e+00
  4.274686e+00    3.517540e+00
  4.306437e+00    3.572128e+00
  4.338188e+00    3.665949e+00
  4.369939e+00    3.599481e+00
  4.401690e+00    3.487672e+00
  4.433441e+00    3.528301e+00
  4.465193e+00    3.554880e+00
  4.496944e+00    3.653413e+00
  4.528695e+00    3.627839e+00
  4.560446e+00    3.565005e+00
  4.592197e+00    3.643220e+00
  4.623948e+00    3.569506e+00
  4.655699e+00    3.596800e+00
  4.687451e+00    3.661385e+00
  4.719202e+00    3.576392e+00
  4.750953e+00    3.677008e+00
  4.782704e+00    3.593056e+00
  4.814455e+00    3.518813e+00
  4.846206e+00    3.689320e+00
  4.877957e+00    3.579100e+00
  4.909709e+00    3.693474e+00
  4.941460e+00    3.733027e+00
  4.973211e+00    3.752510e+00
  5.004962e+00    3.680430e+00
  5.036713e+00    3.631681e+00
  5.068464e+00    3.722651e+00
  5.100216e+00    3.673245e+00
  5.131967e+00    3.673825e+00
  5.163718e+00    3.598202e+00
  5.195469e+00    3.684049e+00
  5.227220e+00    3.578187e+00
  5.258971e+00    3.682928e+00
  5.290722e+00    3.733321e+00
  5.322474e+00    3.698594e+00
  5.354225e+00    3.628078e+00
  5.385976e+00    3.573401e+00
  5.417727e+00    3.583640e+00
  5.449478e+00    3.630703e+00
  5.481229e+00    3.556157e+00
  5.512980e+00    3.618527e+00
  5.544732e+00    3.612537e+00
  5.576483e+00    3.613221e+00
  5.608234e+00    3.609346e+00
  5.639985e+00    3.534175e+00
  5.671736e+00    3.526271e+00
  5.703487e+00    3.647671e+00
  5.735238e+00    3.568791e+00
  5.766990e+00    3.630040e+00
  5.798741e+00    3.609033e+00
  5.830492e+00    3.545356e+00
  5.862243e+00    3.502186e+00
  5.893994e+00    3.548590e+00
  5.925745e+00    3.551707e+00
  5.957497e+00    3.585431e+00
  5.989248e+00    3.669669e+00
  6.020999e+00    3.529828e+00
  6.052750e+00    3.628541e+00
  6.084501e+00    3.540604e+00
  6.116252e+00    3.629424e+00
  6.148003e+00    3.641900e+00
  6.179755e+00    3.671534e+00
  6.211506e+00    3.590368e+00
  6.243257e+00    3.599109e+00
  6.275008e+00    3.551770e+00
  6.306759e+00    3.586919e+00
  6.338510e+00    3.628118e+00
  6.370261e+00    3.584373e+00
  6.402013e+00    3.591412e+00
  6.433764e+00    3.537102e+00
  6.465515e+00    3.523782e+00
  6.497266e+00    3.573645e+00
  6.529017e+00    3.568332e+00
  6.560768e+00    3.568473e+00
  6.592519e+00    3.544888e+00
  6.624271e+00    3.535072e+00
  6.656022e+00    3.640203e+00
  6.687773e+00    3.552952e+00
  6.719524e+00    3.554491e+00
  6.751275e+00    3.571372e+00
  6.783026e+00    3.550554e+00
  6.814777e+00    3.525881e+00
  6.846529e+00    3.520725e+00
  6.878280e+00    3.663248e+00
  6.910031e+00    3.519707e+00
  6.941782e+00    3.576624e+00
  6.973533e+00    3.454651e+00
  7.005284e+00    3.537123e+00
  7.037036e+00    3.476810e+00
  7.068787e+00    3.573412e+00
  7.100538e+00    3.508480e+00
  7.132289e+00    3.556315e+00
  7.164040e+00    3.532640e+00
  7.195791e+00    3.428399e+00
  7.227542e+00    3.522779e+00
  7.259294e+00    3.542982e+00
  7.291045e+00    3.570209e+00
  7.322796e+00    3.613317e+00
  7.354547e+00    3.601434e+00
  7.386298e+00    3.492252e+00
  7.418049e+00    3.461640e+00
  7.449800e+00    3.517945e+00
  7.481552e+00    3.523675e+00
  7.513303e+00    3.544171e+00
  7.545054e+00    3.457896e+00
  7.576805e+00    3.449850e+00
  7.608556e+00    3.471287e+00
  7.640307e+00    3.416926e+00
  7.672058e+00    3.440989e+00
  7.703810e+00    3.473116e+00
  7.735561e+00    3.512201e+00
  7.767312e+00    3.483552e+00
  7.799063e+00    3.472384e+00
  7.830814e+00    3.462980e+00
  7.862565e+00    3.408670e+00
  7.894317e+00    3.470662e+00
  7.926068e+00    3.417238e+00
  7.957819e+00    3.369253e+00
  7.989570e+00    3.418241e+00
  8.021321e+00    3.460980e+00
  8.053072e+00    3.384216e+00
  8.084823e+00    3.511591e+00
  8.116575e+00    3.430496e+00
  8.148326e+00    3.495985e+00
  8.180077e+00    3.489308e+00
  8.211828e+00    3.551974e+00
  8.243579e+00    3.486529e+00
  8.275330e+00    3.474226e+00
  8.307081e+00    3.428889e+00
  8.338833e+00    3.430644e+00
  8.370584e+00    3.493681e+00
  8.402335e+00    3.415307e+00
  8.434086e+00    3.359138e+00
  8.465837e+00    3.342781e+00
  8.497588e+00    3.392067e+00
  8.529339e+00    3.454557e+00
  8.561091e+00    3.374399e+00
  8.592842e+00    3.342383e+00
  8.624593e+00    3.445748e+00
  8.656344e+00    3.400419e+00
  8.688095e+00    3.283710e+00
  8.719846e+00    3.305433e+00
  8.751598e+00    3.358503e+00
  8.783349e+00    3.392445e+00
  8.815100e+00    3.317930e+00
  8.846851e+00    3.348430e+00
  8.878602e+00    3.366439e+00
  8.910353e+00    3.388670e+00
  8.942104e+00    3.290493e+00
  8.973856e+00    3.297952e+00
  9.005607e+00    3.270324e+00
  9.037358e+00    3.288835e+00
  9.069109e+00    3.332433e+00
  9.100860e+00    3.314134e+00
  9.132611e+00    3.226628e+00
  9.164362e+00    3.267513e+00
  9.196114e+00    3.236501e+00
  9.227865e+00    3.294374e+00
  9.259616e+00    3.212685e+00
  9.291367e+00    3.296024e+00
  9.323118e+00    3.244780e+00
  9.354869e+00    3.252209e+00
  9.386620e+00    3.286964e+00
  9.418372e+00    3.239442e+00
  9.450123e+00    3.207983e+00
  9.481874e+00    3.266148e+00
  9.513625e+00    3.235822e+00
  9.545376e+00    3.243112e+00
  9.577127e+00    3.254341e+00
  9.608878e+00    3.223555e+00
  9.640630e+00    3.165548e+00
  9.672381e+00    3.208594e+00
  9.704132e+00    3.211210e+00
  9.735883e+00    3.205337e+00
  9.767634e+00    3.158540e+00
  9.799385e+00    3.160577e+00
  9.831137e+00    3.156334e+00
  9.862888e+00    3.241762e+00
  9.894639e+00    3.156730e+00
  9.926390e+00    3.115671e+00
  9.958141e+00    3.163748e+00
  9.989892e+00    3.109922e+00
  1.002164e+01    3.142170e+00
  1.005339e+01    3.109939e+00
  1.008515e+01    3.094750e+00
  1.011690e+01    3.107778e+00
  1.014865e+01    3.144163e+00
  1.018040e+01    3.084512e+00
  1.021215e+01    3.146476e+00
  1.024390e+01    3.122610e+00
  1.027565e+01    3.105758e+00
  1.030740e+01    3.006848e+00
  1.033915e+01    3.055005e+00
  1.037091e+01    3.103526e+00
  1.040266e+01    2.996813e+00
  1.043441e+01    3.033749e+00
  1.046616e+01    3.033646e+00
  1.049791e+01    3.016410e+00
  1.052966e+01    3.049142e+00
  1.056141e+01    2.967568e+00
  1.059316e+01    2.977514e+00
  1.062492e+01    2.987942e+00
  1.065667e+01    3.055273e+00
  1.068842e+01    2.993540e+00
  1.072017e+01    2.940922e+00
  1.075192e+01    3.030176e+00
  1.078367e+01    3.008635e+00
  1.081542e+01    2.966176e+00
  1.084717e+01    2.934969e+00
  1.087892e+01    2.964295e+00
  1.091068e+01    2.944231e+00
  1.094243e+01    2.937333e+00
  1.097418e+01    2.950840e+00
  1.100593e+01    2.905217e+00
  1.103768e+01    2.908126e+00
  1.106943e+01    2.885777e+00
  1.110118e+01    2.872772e+00
  1.113293e+01    2.892034e+00
  1.116468e+01    2.873579e+00
  1.119644e+01    2.860903e+00
  1.122819e+01    2.820235e+00
  1.125994e+01    2.841274e+00
  1.129169e+01    2.894729e+00
  1.132344e+01    2.860091e+00
  1.135519e+01    2.892998e+00
  1.138694e+01    2.896418e+00
  1.141869e+01    2.840513e+00
  1.145045e+01    2.839755e+00
  1.148220e+01    2.743420e+00
  1.151395e+01    2.830347e+00
  1.154570e+01    2.749153e+00
  1.157745e+01    2.777182e+00
  1.160920e+01    2.798368e+00
  1.164095e+01    2.791754e+00
  1.167270e+01    2.775252e+00
  1.170445e+01    2.758082e+00
  1.173621e+01    2.746180e+00
  1.176796e+01    2.789674e+00
  1.179971e+01    2.793812e+00
  1.183146e+01    2.794411e+00
  1.186321e+01    2.715317e+00
  1.189496e+01    2.712832e+00
  1.192671e+01    2.730957e+00
  1.195846e+01    2.762615e+00
  1.199021e+01    2.709693e+00
  1.202197e+01    2.733443e+00
  1.205372e+01    2.684058e+00
  1.208547e+01    2.771843e+00
  1.211722e+01    2.696278e+00
  1.214897e+01    2.746819e+00
  1.218072e+01    2.665868e+00
  1.221247e+01    2.649929e+00
  1.224422e+01    2.752728e+00
  1.227597e+01    2.679090e+00
  1.230773e+01    2.672122e+00
  1.233948e+01    2.682349e+00
  1.237123e+01    2.680152e+00
  1.240298e+01    2.691331e+00
  1.243473e+01    2.709490e+00
  1.246648e+01    2.666428e+00
  1.249823e+01    2.714573e+00
  1.252998e+01    2.632682e+00
  1.256174e+01    2.700755e+00
  1.259349e+01    2.757200e+00
  1.262524e+01    2.735225e+00
  1.265699e+01    2.782305e+00
  1.268874e+01    2.782487e+00
  1.272049e+01    2.864446e+00
  1.275224e+01    2.908110e+00
  1.278399e+01    2.987033e+00
  1.281574e+01    3.036549e+00
  1.284750e+01    3.199383e+00
  1.287925e+01    3.374019e+00
  1.291100e+01    3.693223e+00
  1.294275e+01    4.057400e+00
  1.297450e+01    4.787876e+00
  1.300625e+01    5.905118e+00
  1.303800e+01    7.727139e+00
  1.306975e+01    1.010254e+01
  1.310150e+01    1.272055e+01
  1.313326e+01    1.492740e+01
  1.316501e+01    1.624791e+01
  1.319676e+01    1.566827e+01
  1.322851e+01    1.255293e+01
  1.326026e+01    9.040510e+00
  1.329201e+01    6.739588e+00
  1.332376e+01    5.315053e+00
  1.335551e+01    4.456033e+00
  1.338727e+01    3.839883e+00
  1.341902e+01    3.479471e+00
  1.345077e+01    3.267633e+00
  1.348252e+01    3.055341e+00
  1.351427e+01    2.929083e+00
  1.354602e+01    2.856174e+00
  1.357777e+01    2.775663e+00
  1.360952e+01    2.704087e+00
  1.364127e+01    2.614342e+00
  1.367303e+01    2.556475e+00
  1.370478e+01    2.527892e+00
  1.373653e+01    2.522472e+00
  1.376828e+01    2.514159e+00
  1.380003e+01    2.456407e+00
  1.383178e+01    2.451719e+00
  1.386353e+01    2.402186e+00
  1.389528e+01    2.381221e+00
  1.392703e+01    2.404025e+00
  1.395879e+01    2.383883e+00
  1.399054e+01    2.342368e+00
  1.402229e+01    2.360307e+00
  1.405404e+01    2.362210e+00
  1.408579e+01    2.329653e+00
  1.411754e+01    2.309338e+00
  1.414929e+01    2.330369e+00
  1.418104e+01    2.299402e+00
  1.421279e+01    2.312646e+00
  1.424455e+01    2.304177e+00
  1.427630e+01    2.248902e+00
  1.430805e+01    2.263192e+00
  1.433980e+01    2.207668e+00
  1.437155e+01    2.254454e+00
  1.440330e+01    2.291185e+00
  1.443505e+01    2.259472e+00
  1.446680e+01    2.241300e+00
  1.449856e+01    2.219961e+00
  1.453031e+01    2.229082e+00
  1.456206e+01    2.237159e+00
  1.459381e+01    2.254233e+00
  1.462556e+01    2.218397e+00
  1.465731e+01    2.250658e+00
  1.468906e+01    2.195097e+00
  1.472081e+01    2.207816e+00
  1.475256e+01    2.198315e+00
  1.478432e+01    2.217145e+00
  1.481607e+01    2.201997e+00
  1.484782e+01    2.207752e+00
  1.487957e+01    2.260450e+00
  1.491132e+01    2.292331e+00
  1.494307e+01    2.302228e+00
  1.497482e+01    2.405940e+00
  1.500657e+01    2.443743e+00
  1.503832e+01    2.604542e+00
  1.507008e+01    2.824292e+00
  1.510183e+01    3.212600e+00
  1.513358e+01    3.796333e+00
  1.516533e+01    4.556919e+00
  1.519708e+01    5.140361e+00
  1.522883e+01    5.577904e+00
  1.526058e+01    5.752109e+00
  1.529233e+01    5.460675e+00
  1.532409e+01    4.665731e+00
  1.535584e+01    3.831602e+00
  1.538759e+01    3.194737e+00
  1.541934e+01    2.793351e+00
  1.545109e+01    2.504150e+00
  1.548284e+01    2.387558e+00
  1.551459e+01    2.260992e+00
  1.554634e+01    2.226210e+00
  1.557809e+01    2.115251e+00
  1.560985e+01    2.098499e+00
  1.564160e+01    2.062021e+00
  1.567335e+01    2.043795e+00
  1.570510e+01    1.960341e+00
  1.573685e+01    1.990888e+00
  1.576860e+01    1.940037e+00
  1.580035e+01    1.924990e+00
  1.583210e+01    1.962637e+00
  1.586385e+01    1.945175e+00
  1.589561e+01    1.881607e+00
  1.592736e+01    1.893645e+00
  1.595911e+01    1.895100e+00
  1.599086e+01    1.902666e+00
  1.602261e+01    1.868672e+00
  1.605436e+01    1.865153e+00
  1.608611e+01    1.849092e+00
  1.611786e+01    1.861973e+00
  1.614961e+01    1.844064e+00
  1.618137e+01    1.818932e+00
  1.621312e+01    1.802292e+00
  1.624487e+01    1.834563e+00
  1.627662e+01    1.803849e+00
  1.630837e+01    1.818137e+00
  1.634012e+01    1.805897e+00
  1.637187e+01    1.782843e+00
  1.640362e+01    1.797410e+00
  1.643538e+01    1.780496e+00
  1.646713e+01    1.789799e+00
  1.649888e+01    1.759716e+00
  1.653063e+01    1.766019e+00
  1.656238e+01    1.741508e+00
  1.659413e+01    1.771493e+00
  1.662588e+01    1.746898e+00
  1.665763e+01    1.725182e+00
  1.668938e+01    1.695904e+00
  1.672114e+01    1.710984e+00
  1.675289e+01    1.674424e+00
  1.678464e+01    1.721608e+00
  1.681639e+01    1.732694e+00
  1.684814e+01    1.707501e+00
  1.687989e+01    1.723097e+00
  1.691164e+01    1.661741e+00
  1.694339e+01    1.709387e+00
  1.697514e+01    1.672824e+00
  1.700690e+01    1.718328e+00
  1.703865e+01    1.657928e+00
  1.707040e+01    1.650493e+00
  1.710215e+01    1.640645e+00
  1.713390e+01    1.635835e+00
  1.716565e+01    1.663658e+00
  1.719740e+01    1.633360e+00
  1.722915e+01    1.637151e+00
  1.726091e+01    1.660714e+00
  1.729266e+01    1.599404e+00
  1.732441e+01    1.638168e+00
  1.735616e+01    1.605085e+00
  1.738791e+01    1.589076e+00
  1.741966e+01    1.586477e+00
  1.745141e+01    1.609215e+00
  1.748316e+01    1.568426e+00
  1.751491e+01    1.598767e+00
  1.754667e+01    1.573637e+00
  1.757842e+01    1.597873e+00
  1.761017e+01    1.629070e+00
  1.764192e+01    1.595536e+00
  1.767367e+01    1.543920e+00
  1.770542e+01    1.546564e+00
  1.773717e+01    1.554291e+00
  1.776892e+01    1.547541e+00
  1.780067e+01    1.556477e+00
  1.783243e+01    1.540037e+00
  1.786418e+01    1.554536e+00
  1.789593e+01    1.539968e+00
  1.792768e+01    1.518980e+00
  1.795943e+01    1.561131e+00
  1.799118e+01    1.532168e+00
  1.802293e+01    1.487901e+00
  1.805468e+01    1.482235e+00
  1.808643e+01    1.507278e+00
  1.811819e+01    1.503942e+00
  1.814994e+01    1.510329e+00
  1.818169e+01    1.485096e+00
  1.821344e+01    1.499856e+00
  1.824519e+01    1.493590e+00
  1.827694e+01    1.498637e+00
  1.830869e+01    1.493224e+00
  1.834044e+01    1.468558e+00
  1.837220e+01    1.450940e+00
  1.840395e+01    1.432767e+00
  1.843570e+01    1.455956e+00
  1.846745e+01    1.422059e+00
  1.849920e+01    1.469539e+00
  1.853095e+01    1.458362e+00
  1.856270e+01    1.444754e+00
  1.859445e+01    1.425671e+00
  1.862620e+01    1.480702e+00
  1.865796e+01    1.425507e+00
  1.868971e+01    1.421458e+00
  1.872146e+01    1.420211e+00
  1.875321e+01    1.413382e+00
  1.878496e+01    1.417766e+00
  1.881671e+01    1.425269e+00
  1.884846e+01    1.408740e+00
  1.888021e+01    1.386248e+00
  1.891196e+01    1.377312e+00
  1.894372e+01    1.398732e+00
  1.897547e+01    1.391959e+00
  1.900722e+01    1.380820e+00
  1.903897e+01    1.400487e+00
  1.907072e+01    1.382799e+00
  1.910247e+01    1.347280e+00
  1.913422e+01    1.364547e+00
  1.916597e+01    1.368690e+00
  1.919773e+01    1.354062e+00
  1.922948e+01    1.370225e+00
  1.926123e+01    1.354372e+00
  1.929298e+01    1.347489e+00
  1.932473e+01    1.378340e+00
  1.935648e+01    1.322022e+00
  1.938823e+01    1.334317e+00
  1.941998e+01    1.361014e+00
  1.945173e+01    1.312176e+00
  1.948349e+01    1.306311e+00
  1.951524e+01    1.348420e+00
  1.954699e+01    1.342278e+00
  1.957874e+01    1.310165e+00
  1.961049e+01    1.335665e+00
  1.964224e+01    1.315003e+00
  1.967399e+01    1.323168e+00
  1.970574e+01    1.323666e+00
  1.973749e+01    1.281175e+00
  1.976925e+01    1.311614e+00
  1.980100e+01    1.316705e+00
  1.983275e+01    1.283190e+00
  1.986450e+01    1.303205e+00
  1.989625e+01    1.301130e+00
  1.992800e+01    1.297909e+00
  1.995975e+01    1.288190e+00
  1.999150e+01    1.291555e+00
  2.002325e+01    1.277948e+00
  2.005501e+01    1.279851e+00
  2.008676e+01    1.294893e+00
  2.011851e+01    1.273535e+00
  2.015026e+01    1.282050e+00
  2.018201e+01    1.278161e+00
  2.021376e+01    1.270097e+00
  2.024551e+01    1.258891e+00
  2.027726e+01    1.260979e+00
  2.030902e+01    1.269031e+00
  2.034077e+01    1.220417e+00
  2.037252e+01    1.268995e+00
  2.040427e+01    1.272761e+00
  2.043602e+01    1.222399e+00
  2.046777e+01    1.251859e+00
  2.049952e+01    1.244053e+00
  2.053127e+01    1.265893e+00
  2.056302e+01    1.227740e+00
  2.059478e+01    1.247480e+00
  2.062653e+01    1.245288e+00
  2.065828e+01    1.223774e+00
  2.069003e+01    1.226929e+00
  2.072178e+01    1.265073e+00
  2.075353e+01    1.234648e+00
  2.078528e+01    1.222192e+00
  2.081703e+01    1.241367e+00
  2.084878e+01    1.203292e+00
  2.088054e+01    1.204103e+00
  2.091229e+01    1.227490e+00
  2.094404e+01    1.223964e+00
  2.097579e+01    1.238835e+00
  2.100754e+01    1.263467e+00
  2.103929e+01    1.210525e+00
  2.107104e+01    1.208819e+00
  2.110279e+01    1.209845e+00
  2.113455e+01    1.237824e+00
  2.116630e+01    1.270979e+00
  2.119805e+01    1.240180e+00
  2.122980e+01    1.253234e+00
  2.126155e+01    1.257517e+00
  2.129330e+01    1.241878e+00
  2.132505e+01    1.285418e+00
  2.135680e+01    1.288673e+00
  2.138855e+01    1.315717e+00
  2.142031e+01    1.299901e+00
  2.145206e+01    1.354154e+00
  2.148381e+01    1.402889e+00
  2.151556e+01    1.427005e+00
  2.154731e+01    1.522210e+00
  2.157906e+01    1.605397e+00
  2.161081e+01    1.805463e+00
  2.164256e+01    1.994152e+00
  2.167431e+01    2.320669e+00
  2.170607e+01    2.734788e+00
  2.173782e+01    3.496354e+00
  2.176957e+01    4.576088e+00
  2.180132e+01    5.861228e+00
  2.183307e+01    7.161525e+00
  2.186482e+01    8.350457e+00
  2.189657e+01    8.896055e+00
  2.192832e+01    8.282600e+00
  2.196007e+01    6.563512e+00
  2.199183e+01    4.876460e+00
  2.202358e+01    3.650076e+00
  2.205533e+01    2.859653e+00
  2.208708e+01    2.364661e+00
  2.211883e+01    1.996305e+00
  2.215058e+01    1.773328e+00
  2.218233e+01    1.632161e+00
  2.221408e+01    1.468814e+00
  2.224584e+01    1.420092e+00
  2.227759e+01    1.338902e+00
  2.230934e+01    1.314160e+00
  2.234109e+01    1.291061e+00
  2.237284e+01    1.239561e+00
  2.240459e+01    1.183540e+00
  2.243634e+01    1.189148e+00
  2.246809e+01    1.173976e+00
  2.249984e+01    1.152121e+00
  2.253160e+01    1.144713e+00
  2.256335e+01    1.107016e+00
  2.259510e+01    1.123607e+00
  2.262685e+01    1.083673e+00
  2.265860e+01    1.096637e+00
  2.269035e+01    1.092290e+00
  2.272210e+01    1.066427e+00
  2.275385e+01    1.057393e+00
  2.278560e+01    1.034492e+00
  2.281736e+01    1.042091e+00
  2.284911e+01    1.041602e+00
  2.288086e+01    1.044964e+00
  2.291261e+01    1.043768e+00
  2.294436e+01    1.028313e+00
  2.297611e+01    1.044864e+00
  2.300786e+01    1.024749e+00
  2.303961e+01    1.000959e+00
  2.307137e+01    1.012393e+00
  2.310312e+01    9.993464e-01
  2.313487e+01    1.008213e+00
  2.316662e+01    1.023218e+00
  2.319837e+01    1.013439e+00
  2.323012e+01    9.878944e-01
  2.326187e+01    9.912804e-01
  2.329362e+01    9.917507e-01
  2.332537e+01    9.784279e-01
  2.335713e+01    9.799439e-01
  2.338888e+01    9.878082e-01
  2.342063e+01    9.764044e-01
  2.345238e+01    9.771348e-01
  2.348413e+01    9.592507e-01
  2.351588e+01    9.636130e-01
  2.354763e+01    9.471520e-01
  2.357938e+01    9.737047e-01
  2.361113e+01    9.677671e-01
  2.364289e+01    9.648513e-01
  2.367464e+01    9.444211e-01
  2.370639e+01    9.681714e-01
  2.373814e+01    9.459246e-01
  2.376989e+01    9.012941e-01
  2.380164e+01    9.454961e-01
  2.383339e+01    9.371369e-01
  2.386514e+01    9.275890e-01
  2.389689e+01    9.168784e-01
  2.392865e+01    9.141502e-01
  2.396040e+01    8.954886e-01
  2.399215e+01    8.808513e-01
  2.402390e+01    8.988593e-01
  2.405565e+01    9.082772e-01
  2.408740e+01    8.860011e-01
  2.411915e+01    8.853006e-01
  2.415090e+01    8.752161e-01
  2.418266e+01    8.838628e-01
  2.421441e+01    8.788829e-01
  2.424616e+01    9.097074e-01
  2.427791e+01    8.949612e-01
  2.430966e+01    8.977820e-01
  2.434141e+01    9.079058e-01
  2.437316e+01    8.902858e-01
  2.440491e+01    9.102471e-01
  2.443666e+01    9.067891e-01
  2.446842e+01    9.071930e-01
  2.450017e+01    8.806534e-01
  2.453192e+01    8.874216e-01
  2.456367e+01    8.922783e-01
  2.459542e+01    8.982087e-01
  2.462717e+01    8.855897e-01
  2.465892e+01    9.049047e-01
  2.469067e+01    8.992221e-01
  2.472242e+01    8.995085e-01
  2.475418e+01    8.854918e-01
  2.478593e+01    8.833784e-01
  2.481768e+01    8.990517e-01
  2.484943e+01    8.859304e-01
  2.488118e+01    9.157434e-01
  2.491293e+01    8.987521e-01
  2.494468e+01    8.857549e-01
  2.497643e+01    9.076107e-01
  2.500819e+01    8.994384e-01
  2.503994e+01    9.002125e-01
  2.507169e+01    9.235390e-01
  2.510344e+01    9.065852e-01
  2.513519e+01    9.109948e-01
  2.516694e+01    9.053637e-01
  2.519869e+01    9.262376e-01
  2.523044e+01    9.336204e-01
  2.526219e+01    9.399370e-01
  2.529395e+01    9.573299e-01
  2.532570e+01    9.499051e-01
  2.535745e+01    9.547436e-01
  2.538920e+01    9.802995e-01
  2.542095e+01    1.010874e+00
  2.545270e+01    1.033382e+00
  2.548445e+01    1.030361e+00
  2.551620e+01    1.081885e+00
  2.554795e+01    1.101852e+00
  2.557971e+01    1.158840e+00
  2.561146e+01    1.214863e+00
  2.564321e+01    1.304803e+00
  2.567496e+01    1.431297e+00
  2.570671e+01    1.595358e+00
  2.573846e+01    1.846096e+00
  2.577021e+01    2.215461e+00
  2.580196e+01    2.814326e+00
  2.583371e+01    3.647090e+00
  2.586547e+01    4.636211e+00
  2.589722e+01    5.793427e+00
  2.592897e+01    6.752117e+00
  2.596072e+01    7.075094e+00
  2.599247e+01    6.612062e+00
  2.602422e+01    5.315310e+00
  2.605597e+01    3.982838e+00
  2.608772e+01    3.000975e+00
  2.611948e+01    2.379380e+00
  2.615123e+01    1.953196e+00
  2.618298e+01    1.667268e+00
  2.621473e+01    1.487058e+00
  2.624648e+01    1.351788e+00
  2.627823e+01    1.263242e+00
  2.630998e+01    1.187448e+00
  2.634173e+01    1.123468e+00
  2.637348e+01    1.095629e+00
  2.640524e+01    1.048265e+00
  2.643699e+01    1.045574e+00
  2.646874e+01    1.017639e+00
  2.650049e+01    1.008563e+00
  2.653224e+01    9.873267e-01
  2.656399e+01    9.925919e-01
  2.659574e+01    9.995960e-01
  2.662749e+01    9.793473e-01
  2.665924e+01    9.692219e-01
  2.669100e+01    9.642810e-01
  2.672275e+01    9.739757e-01
  2.675450e+01    9.662859e-01
  2.678625e+01    9.673412e-01
  2.681800e+01    9.734656e-01
  2.684975e+01    9.926506e-01
  2.688150e+01    9.899856e-01
  2.691325e+01    1.016694e+00
  2.694501e+01    1.034558e+00
  2.697676e+01    1.048645e+00
  2.700851e+01    1.099761e+00
  2.704026e+01    1.188344e+00
  2.707201e+01    1.319153e+00
  2.710376e+01    1.519309e+00
  2.713551e+01    1.721312e+00
  2.716726e+01    1.997445e+00
  2.719901e+01    2.123217e+00
  2.723077e+01    2.148835e+00
  2.726252e+01    1.990820e+00
  2.729427e+01    1.729334e+00
  2.732602e+01    1.453341e+00
  2.735777e+01    1.288863e+00
  2.738952e+01    1.167268e+00
  2.742127e+01    1.088254e+00
  2.745302e+01    1.043581e+00
  2.748477e+01    1.001968e+00
  2.751653e+01    9.586765e-01
  2.754828e+01    9.643201e-01
  2.758003e+01    9.474649e-01
  2.761178e+01    9.265676e-01
  2.764353e+01    9.087117e-01
  2.767528e+01    9.261535e-01
  2.770703e+01    9.057366e-01
  2.773878e+01    9.043928e-01
  2.777054e+01    9.111929e-01
  2.780229e+01    8.811661e-01
  2.783404e+01    8.860217e-01
  2.786579e+01    8.930414e-01
  2.789754e+01    8.715829e-01
  2.792929e+01    8.494312e-01
  2.796104e+01    8.747012e-01
  2.799279e+01    8.444908e-01
  2.802454e+01    8.623510e-01
  2.805630e+01    8.669943e-01
  2.808805e+01    8.579559e-01
  2.811980e+01    8.474841e-01
  2.815155e+01    8.644768e-01
  2.818330e+01    8.828012e-01
  2.821505e+01    8.545453e-01
  2.824680e+01    8.737758e-01
  2.827855e+01    8.337979e-01
  2.831030e+01    8.548595e-01
  2.834206e+01    8.599254e-01
  2.837381e+01    8.706182e-01
  2.840556e+01    8.197296e-01
  2.843731e+01    8.319120e-01
  2.846906e+01    8.386953e-01
  2.850081e+01    8.439792e-01
  2.853256e+01    8.474861e-01
  2.856431e+01    8.374791e-01
  2.859606e+01    8.433265e-01
  2.862782e+01    8.601143e-01
  2.865957e+01    8.374487e-01
  2.869132e+01    8.331804e-01
  2.872307e+01    8.271359e-01
  2.875482e+01    8.123716e-01
  2.878657e+01    8.433635e-01
  2.881832e+01    8.225612e-01
  2.885007e+01    8.401046e-01
  2.888183e+01    8.061021e-01
  2.891358e+01    8.188661e-01
  2.894533e+01    8.125618e-01
  2.897708e+01    8.283817e-01
  2.900883e+01    8.118939e-01
  2.904058e+01    8.150776e-01
  2.907233e+01    7.967885e-01
  2.910408e+01    8.167264e-01
  2.913583e+01    8.383100e-01
  2.916759e+01    8.160411e-01
  2.919934e+01    8.036060e-01
  2.923109e+01    7.950667e-01
  2.926284e+01    8.242035e-01
  2.929459e+01    8.199286e-01
  2.932634e+01    8.120514e-01
  2.935809e+01    8.128167e-01
  2.938984e+01    7.962407e-01
  2.942159e+01    7.936756e-01
  2.945335e+01    8.172297e-01
  2.948510e+01    8.176606e-01
  2.951685e+01    7.988554e-01
  2.954860e+01    8.037472e-01
  2.958035e+01    8.050669e-01
  2.961210e+01    7.852740e-01
  2.964385e+01    8.066421e-01
  2.967560e+01    8.092016e-01
  2.970736e+01    7.854638e-01
  2.973911e+01    8.165869e-01
  2.977086e+01    7.947068e-01
  2.980261e+01    8.052324e-01
  2.983436e+01    7.997746e-01
  2.986611e+01    7.992705e-01
  2.989786e+01    7.907033e-01
  2.992961e+01    8.246160e-01
  2.996136e+01    7.959970e-01
  2.999312e+01    8.143124e-01
  3.002487e+01    7.934039e-01
  3.005662e+01    8.171051e-01
  3.008837e+01    7.932478e-01
  3.012012e+01    8.026884e-01
  3.015187e+01    7.962573e-01
  3.018362e+01    7.970600e-01
  3.021537e+01    8.093186e-01
  3.024712e+01    7.848291e-01
  3.027888e+01    8.083901e-01
  3.031063e+01    7.636595e-01
  3.034238e+01    8.015600e-01
  3.037413e+01    7.921493e-01
  3.040588e+01    7.746522e-01
  3.043763e+01    7.952912e-01
  3.046938e+01    7.830098e-01
  3.050113e+01    7.812995e-01
  3.053288e+01    7.892037e-01
  3.056464e+01    7.804651e-01
  3.059639e+01    7.736284e-01
  3.062814e+01    7.774639e-01
  3.065989e+01    7.808346e-01
  3.069164e+01    7.894705e-01
  3.072339e+01    7.955090e-01
  3.075514e+01    7.777830e-01
  3.078689e+01    8.094696e-01
  3.081865e+01    7.575533e-01
  3.085040e+01    7.946398e-01
  3.088215e+01    7.727528e-01
  3.091390e+01    7.728398e-01
  3.094565e+01    7.815327e-01
  3.097740e+01    7.712131e-01
  3.100915e+01    7.851182e-01
  3.104090e+01    7.762955e-01
  3.107265e+01    7.798069e-01
  3.110441e+01    8.024569e-01
  3.113616e+01    8.141344e-01
  3.116791e+01    7.946334e-01
  3.119966e+01    8.153429e-01
  3.123141e+01    7.805507e-01
  3.126316e+01    7.890698e-01
  3.129491e+01    8.036313e-01
  3.132666e+01    8.027788e-01
  3.135841e+01    7.892650e-01
  3.139017e+01    8.102550e-01
  3.142192e+01    8.363717e-01
  3.145367e+01    8.181835e-01
  3.148542e+01    8.155817e-01
  3.151717e+01    8.406033e-01
  3.154892e+01    8.508518e-01
  3.158067e+01    8.391331e-01
  3.161242e+01    8.737978e-01
  3.164418e+01    9.031069e-01
  3.167593e+01    9.598054e-01
  3.170768e+01    1.062053e+00
  3.173943e+01    1.099041e+00
  3.177118e+01    1.271941e+00
  3.180293e+01    1.442491e+00
  3.183468e+01    1.690908e+00
  3.186643e+01    1.923276e+00
  3.189818e+01    2.094773e+00
  3.192994e+01    2.053777e+00
  3.196169e+01    1.781092e+00
  3.199344e+01    1.574551e+00
  3.202519e+01    1.316905e+00
  3.205694e+01    1.172662e+00
  3.208869e+01    1.044548e+00
  3.212044e+01    9.873099e-01
  3.215219e+01    9.050869e-01
  3.218394e+01    8.861113e-01
  3.221570e+01    8.647946e-01
  3.224745e+01    8.317925e-01
  3.227920e+01    8.290478e-01
  3.231095e+01    8.322132e-01
  3.234270e+01    7.886027e-01
  3.237445e+01    7.717577e-01
  3.240620e+01    7.774533e-01
  3.243795e+01    7.825080e-01
  3.246970e+01    7.749817e-01
  3.250146e+01    7.648882e-01
  3.253321e+01    7.866504e-01
  3.254908e+01    7.794672e-01