File: XRD/Reaction conditions/2024-07-27_003_Ru-CGO-ex_Reaction_dwell_000023_data_000093.dat
# == pyFAI calibration ==
# Distance Sample to Detector: 0.4 m
# PONI: 9.750e-02, 1.135e-01 m
# Rotations: -0.000175 0.000000 -0.000000 rad
#
# == Fit2d calibration ==
# Distance Sample-beamCenter: 400.000 mm
# Center: x=1514.000, y=1300.000 pix
# Tilt: 0.010 deg  TiltPlanRot: 0.010 deg
#
# Detector Detector	 Spline= None	 PixelSize= 7.500e-05, 7.500e-05 m
#    Detector has a mask: False
#    Detector has a dark current: False
#    detector has a flat field: False
#
# Wavelength: 6.888e-11 m
# Mask applied: user provided
# Dark current applied: False
# Flat field applied: False
# Polarization factor: 0.99
# Normalization factor: 1.0
# --> /home/myspot/data/2024_07_Rosario/Ru-CGO-ex/2024-07-27_003_Ru-CGO-ex_Reaction_dwell_000023_data_000093.dat
#       q_nm^-1             I
  2.003187e-02    7.711996e-02
  5.178302e-02    1.157592e-01
  8.353417e-02    2.039787e-01
  1.152853e-01    1.028266e-01
  1.470365e-01    2.545125e-02
  1.787876e-01    0.000000e+00
  2.105388e-01    5.802346e-02
  2.422899e-01    1.889470e-02
  2.740411e-01    1.382613e-02
  3.057922e-01    8.837247e-02
  3.375433e-01    2.894203e-02
  3.692945e-01    2.289954e-02
  4.010456e-01    2.944169e-02
  4.327968e-01    6.885438e-02
  4.645479e-01    5.402063e-02
  4.962991e-01    7.612873e-02
  5.280502e-01    2.869974e-02
  5.598014e-01    4.972783e-02
  5.915525e-01    4.938235e-02
  6.233037e-01    3.259259e-02
  6.550548e-01    3.139285e-02
  6.868060e-01    5.942941e-02
  7.185571e-01    4.279272e-02
  7.503083e-01    4.881113e-02
  7.820594e-01    1.727710e-01
  8.138106e-01    1.971407e-01
  8.455617e-01    4.161201e-01
  8.773129e-01    5.334257e-01
  9.090640e-01    5.919526e-01
  9.408152e-01    7.763484e-01
  9.725663e-01    1.042850e+00
  1.004317e+00    1.148912e+00
  1.036069e+00    1.277537e+00
  1.067820e+00    1.548373e+00
  1.099571e+00    1.625816e+00
  1.131322e+00    1.565275e+00
  1.163073e+00    1.558141e+00
  1.194824e+00    1.877075e+00
  1.226575e+00    2.217785e+00
  1.258327e+00    2.438031e+00
  1.290078e+00    2.427618e+00
  1.321829e+00    2.526718e+00
  1.353580e+00    2.718916e+00
  1.385331e+00    2.804822e+00
  1.417082e+00    2.934267e+00
  1.448834e+00    3.076229e+00
  1.480585e+00    2.997072e+00
  1.512336e+00    3.113375e+00
  1.544087e+00    3.159265e+00
  1.575838e+00    3.226843e+00
  1.607589e+00    3.060381e+00
  1.639340e+00    3.037996e+00
  1.671092e+00    3.059294e+00
  1.702843e+00    3.023458e+00
  1.734594e+00    3.068321e+00
  1.766345e+00    3.056269e+00
  1.798096e+00    3.086628e+00
  1.829847e+00    3.175883e+00
  1.861598e+00    2.990954e+00
  1.893350e+00    3.051767e+00
  1.925101e+00    3.132397e+00
  1.956852e+00    3.092391e+00
  1.988603e+00    3.028589e+00
  2.020354e+00    3.048138e+00
  2.052105e+00    3.089498e+00
  2.083856e+00    3.175685e+00
  2.115608e+00    3.057642e+00
  2.147359e+00    3.103638e+00
  2.179110e+00    3.174959e+00
  2.210861e+00    3.150727e+00
  2.242612e+00    3.099246e+00
  2.274363e+00    3.077760e+00
  2.306115e+00    3.134923e+00
  2.337866e+00    3.167857e+00
  2.369617e+00    3.081845e+00
  2.401368e+00    3.218224e+00
  2.433119e+00    3.183984e+00
  2.464870e+00    3.140336e+00
  2.496621e+00    3.188061e+00
  2.528373e+00    3.204967e+00
  2.560124e+00    3.220158e+00
  2.591875e+00    3.255832e+00
  2.623626e+00    3.172021e+00
  2.655377e+00    3.366918e+00
  2.687128e+00    3.212086e+00
  2.718879e+00    3.187932e+00
  2.750631e+00    3.193170e+00
  2.782382e+00    3.196736e+00
  2.814133e+00    3.259618e+00
  2.845884e+00    3.217477e+00
  2.877635e+00    3.261151e+00
  2.909386e+00    3.301562e+00
  2.941137e+00    3.356643e+00
  2.972889e+00    3.249431e+00
  3.004640e+00    3.287067e+00
  3.036391e+00    3.283206e+00
  3.068142e+00    3.238951e+00
  3.099893e+00    3.421056e+00
  3.131644e+00    3.334393e+00
  3.163395e+00    3.386034e+00
  3.195147e+00    3.441972e+00
  3.226898e+00    3.400680e+00
  3.258649e+00    3.376484e+00
  3.290400e+00    3.434862e+00
  3.322151e+00    3.284313e+00
  3.353902e+00    3.436167e+00
  3.385654e+00    3.312389e+00
  3.417405e+00    3.440542e+00
  3.449156e+00    3.359076e+00
  3.480907e+00    3.506747e+00
  3.512658e+00    3.488454e+00
  3.544409e+00    3.415881e+00
  3.576160e+00    3.548924e+00
  3.607912e+00    3.535688e+00
  3.639663e+00    3.461762e+00
  3.671414e+00    3.485216e+00
  3.703165e+00    3.495113e+00
  3.734916e+00    3.616528e+00
  3.766667e+00    3.481224e+00
  3.798418e+00    3.535471e+00
  3.830170e+00    3.542436e+00
  3.861921e+00    3.511907e+00
  3.893672e+00    3.558893e+00
  3.925423e+00    3.514025e+00
  3.957174e+00    3.465850e+00
  3.988925e+00    3.520442e+00
  4.020676e+00    3.519136e+00
  4.052428e+00    3.683947e+00
  4.084179e+00    3.458246e+00
  4.115930e+00    3.556329e+00
  4.147681e+00    3.579491e+00
  4.179432e+00    3.545749e+00
  4.211183e+00    3.561884e+00
  4.242935e+00    3.566736e+00
  4.274686e+00    3.565397e+00
  4.306437e+00    3.538549e+00
  4.338188e+00    3.563820e+00
  4.369939e+00    3.559445e+00
  4.401690e+00    3.600737e+00
  4.433441e+00    3.586062e+00
  4.465193e+00    3.543722e+00
  4.496944e+00    3.553101e+00
  4.528695e+00    3.606423e+00
  4.560446e+00    3.626918e+00
  4.592197e+00    3.531813e+00
  4.623948e+00    3.615754e+00
  4.655699e+00    3.648573e+00
  4.687451e+00    3.633642e+00
  4.719202e+00    3.683716e+00
  4.750953e+00    3.683408e+00
  4.782704e+00    3.568051e+00
  4.814455e+00    3.692441e+00
  4.846206e+00    3.635651e+00
  4.877957e+00    3.704260e+00
  4.909709e+00    3.636688e+00
  4.941460e+00    3.593544e+00
  4.973211e+00    3.651209e+00
  5.004962e+00    3.605282e+00
  5.036713e+00    3.687662e+00
  5.068464e+00    3.606657e+00
  5.100216e+00    3.717212e+00
  5.131967e+00    3.641536e+00
  5.163718e+00    3.611990e+00
  5.195469e+00    3.672117e+00
  5.227220e+00    3.660347e+00
  5.258971e+00    3.631406e+00
  5.290722e+00    3.585079e+00
  5.322474e+00    3.722095e+00
  5.354225e+00    3.680081e+00
  5.385976e+00    3.666547e+00
  5.417727e+00    3.654699e+00
  5.449478e+00    3.555658e+00
  5.481229e+00    3.470448e+00
  5.512980e+00    3.554949e+00
  5.544732e+00    3.614955e+00
  5.576483e+00    3.529170e+00
  5.608234e+00    3.638013e+00
  5.639985e+00    3.651583e+00
  5.671736e+00    3.608193e+00
  5.703487e+00    3.576483e+00
  5.735238e+00    3.562643e+00
  5.766990e+00    3.616780e+00
  5.798741e+00    3.526573e+00
  5.830492e+00    3.560978e+00
  5.862243e+00    3.566953e+00
  5.893994e+00    3.532259e+00
  5.925745e+00    3.462005e+00
  5.957497e+00    3.571891e+00
  5.989248e+00    3.555269e+00
  6.020999e+00    3.600412e+00
  6.052750e+00    3.558788e+00
  6.084501e+00    3.486372e+00
  6.116252e+00    3.602144e+00
  6.148003e+00    3.572767e+00
  6.179755e+00    3.538344e+00
  6.211506e+00    3.575419e+00
  6.243257e+00    3.536280e+00
  6.275008e+00    3.445719e+00
  6.306759e+00    3.559626e+00
  6.338510e+00    3.630967e+00
  6.370261e+00    3.579749e+00
  6.402013e+00    3.564472e+00
  6.433764e+00    3.550881e+00
  6.465515e+00    3.584086e+00
  6.497266e+00    3.599172e+00
  6.529017e+00    3.554563e+00
  6.560768e+00    3.537638e+00
  6.592519e+00    3.527340e+00
  6.624271e+00    3.552376e+00
  6.656022e+00    3.615847e+00
  6.687773e+00    3.576452e+00
  6.719524e+00    3.523602e+00
  6.751275e+00    3.636693e+00
  6.783026e+00    3.534724e+00
  6.814777e+00    3.660316e+00
  6.846529e+00    3.536667e+00
  6.878280e+00    3.683643e+00
  6.910031e+00    3.515646e+00
  6.941782e+00    3.517572e+00
  6.973533e+00    3.582883e+00
  7.005284e+00    3.518354e+00
  7.037036e+00    3.563383e+00
  7.068787e+00    3.467274e+00
  7.100538e+00    3.548516e+00
  7.132289e+00    3.570899e+00
  7.164040e+00    3.510310e+00
  7.195791e+00    3.567046e+00
  7.227542e+00    3.546321e+00
  7.259294e+00    3.513941e+00
  7.291045e+00    3.580725e+00
  7.322796e+00    3.499153e+00
  7.354547e+00    3.545693e+00
  7.386298e+00    3.500567e+00
  7.418049e+00    3.513696e+00
  7.449800e+00    3.522081e+00
  7.481552e+00    3.460007e+00
  7.513303e+00    3.455163e+00
  7.545054e+00    3.477264e+00
  7.576805e+00    3.489158e+00
  7.608556e+00    3.493591e+00
  7.640307e+00    3.495286e+00
  7.672058e+00    3.461446e+00
  7.703810e+00    3.469178e+00
  7.735561e+00    3.462848e+00
  7.767312e+00    3.469246e+00
  7.799063e+00    3.477688e+00
  7.830814e+00    3.426967e+00
  7.862565e+00    3.440542e+00
  7.894317e+00    3.422656e+00
  7.926068e+00    3.455627e+00
  7.957819e+00    3.458381e+00
  7.989570e+00    3.403130e+00
  8.021321e+00    3.393353e+00
  8.053072e+00    3.425532e+00
  8.084823e+00    3.493631e+00
  8.116575e+00    3.559787e+00
  8.148326e+00    3.462323e+00
  8.180077e+00    3.448573e+00
  8.211828e+00    3.493334e+00
  8.243579e+00    3.425601e+00
  8.275330e+00    3.394076e+00
  8.307081e+00    3.361984e+00
  8.338833e+00    3.473627e+00
  8.370584e+00    3.344058e+00
  8.402335e+00    3.448649e+00
  8.434086e+00    3.343954e+00
  8.465837e+00    3.401205e+00
  8.497588e+00    3.331688e+00
  8.529339e+00    3.306854e+00
  8.561091e+00    3.347915e+00
  8.592842e+00    3.351972e+00
  8.624593e+00    3.336548e+00
  8.656344e+00    3.365221e+00
  8.688095e+00    3.317380e+00
  8.719846e+00    3.340809e+00
  8.751598e+00    3.349995e+00
  8.783349e+00    3.276902e+00
  8.815100e+00    3.275290e+00
  8.846851e+00    3.323662e+00
  8.878602e+00    3.339501e+00
  8.910353e+00    3.342710e+00
  8.942104e+00    3.365426e+00
  8.973856e+00    3.302197e+00
  9.005607e+00    3.340510e+00
  9.037358e+00    3.298816e+00
  9.069109e+00    3.274050e+00
  9.100860e+00    3.244303e+00
  9.132611e+00    3.342282e+00
  9.164362e+00    3.302384e+00
  9.196114e+00    3.291920e+00
  9.227865e+00    3.331907e+00
  9.259616e+00    3.273959e+00
  9.291367e+00    3.248582e+00
  9.323118e+00    3.213733e+00
  9.354869e+00    3.256155e+00
  9.386620e+00    3.186581e+00
  9.418372e+00    3.188945e+00
  9.450123e+00    3.209123e+00
  9.481874e+00    3.299577e+00
  9.513625e+00    3.178206e+00
  9.545376e+00    3.218298e+00
  9.577127e+00    3.216931e+00
  9.608878e+00    3.216458e+00
  9.640630e+00    3.169932e+00
  9.672381e+00    3.199533e+00
  9.704132e+00    3.140853e+00
  9.735883e+00    3.166401e+00
  9.767634e+00    3.172076e+00
  9.799385e+00    3.191970e+00
  9.831137e+00    3.165920e+00
  9.862888e+00    3.238900e+00
  9.894639e+00    3.145015e+00
  9.926390e+00    3.181165e+00
  9.958141e+00    3.130895e+00
  9.989892e+00    3.115619e+00
  1.002164e+01    3.087466e+00
  1.005339e+01    3.075411e+00
  1.008515e+01    3.129582e+00
  1.011690e+01    3.140309e+00
  1.014865e+01    3.116213e+00
  1.018040e+01    3.018403e+00
  1.021215e+01    3.032828e+00
  1.024390e+01    3.116707e+00
  1.027565e+01    3.068295e+00
  1.030740e+01    2.997415e+00
  1.033915e+01    3.032093e+00
  1.037091e+01    2.977250e+00
  1.040266e+01    3.089011e+00
  1.043441e+01    2.974435e+00
  1.046616e+01    3.011596e+00
  1.049791e+01    3.016991e+00
  1.052966e+01    3.031170e+00
  1.056141e+01    2.972791e+00
  1.059316e+01    3.035226e+00
  1.062492e+01    3.009703e+00
  1.065667e+01    2.996564e+00
  1.068842e+01    2.970965e+00
  1.072017e+01    2.965901e+00
  1.075192e+01    2.941119e+00
  1.078367e+01    2.909809e+00
  1.081542e+01    2.921422e+00
  1.084717e+01    2.948748e+00
  1.087892e+01    2.936509e+00
  1.091068e+01    2.974834e+00
  1.094243e+01    2.902352e+00
  1.097418e+01    2.915280e+00
  1.100593e+01    2.930853e+00
  1.103768e+01    2.903622e+00
  1.106943e+01    2.920968e+00
  1.110118e+01    2.863414e+00
  1.113293e+01    2.848967e+00
  1.116468e+01    2.867405e+00
  1.119644e+01    2.888203e+00
  1.122819e+01    2.893138e+00
  1.125994e+01    2.833807e+00
  1.129169e+01    2.929781e+00
  1.132344e+01    2.849457e+00
  1.135519e+01    2.861165e+00
  1.138694e+01    2.817498e+00
  1.141869e+01    2.776247e+00
  1.145045e+01    2.818323e+00
  1.148220e+01    2.801607e+00
  1.151395e+01    2.800436e+00
  1.154570e+01    2.817469e+00
  1.157745e+01    2.812978e+00
  1.160920e+01    2.791198e+00
  1.164095e+01    2.785096e+00
  1.167270e+01    2.825922e+00
  1.170445e+01    2.762847e+00
  1.173621e+01    2.762998e+00
  1.176796e+01    2.722549e+00
  1.179971e+01    2.728260e+00
  1.183146e+01    2.748164e+00
  1.186321e+01    2.757865e+00
  1.189496e+01    2.759916e+00
  1.192671e+01    2.735203e+00
  1.195846e+01    2.751982e+00
  1.199021e+01    2.717463e+00
  1.202197e+01    2.736421e+00
  1.205372e+01    2.656027e+00
  1.208547e+01    2.650142e+00
  1.211722e+01    2.682220e+00
  1.214897e+01    2.663108e+00
  1.218072e+01    2.717068e+00
  1.221247e+01    2.665172e+00
  1.224422e+01    2.700618e+00
  1.227597e+01    2.667000e+00
  1.230773e+01    2.710833e+00
  1.233948e+01    2.706102e+00
  1.237123e+01    2.665509e+00
  1.240298e+01    2.671727e+00
  1.243473e+01    2.681537e+00
  1.246648e+01    2.698789e+00
  1.249823e+01    2.754990e+00
  1.252998e+01    2.740855e+00
  1.256174e+01    2.719006e+00
  1.259349e+01    2.724501e+00
  1.262524e+01    2.740962e+00
  1.265699e+01    2.761065e+00
  1.268874e+01    2.797008e+00
  1.272049e+01    2.884946e+00
  1.275224e+01    2.853697e+00
  1.278399e+01    2.960521e+00
  1.281574e+01    3.098098e+00
  1.284750e+01    3.209268e+00
  1.287925e+01    3.324906e+00
  1.291100e+01    3.660660e+00
  1.294275e+01    4.116185e+00
  1.297450e+01    4.786373e+00
  1.300625e+01    5.919542e+00
  1.303800e+01    7.583506e+00
  1.306975e+01    1.003128e+01
  1.310150e+01    1.252401e+01
  1.313326e+01    1.485352e+01
  1.316501e+01    1.623929e+01
  1.319676e+01    1.575851e+01
  1.322851e+01    1.259466e+01
  1.326026e+01    9.141092e+00
  1.329201e+01    6.713483e+00
  1.332376e+01    5.315061e+00
  1.335551e+01    4.475144e+00
  1.338727e+01    3.832242e+00
  1.341902e+01    3.500432e+00
  1.345077e+01    3.239184e+00
  1.348252e+01    3.080673e+00
  1.351427e+01    2.901858e+00
  1.354602e+01    2.791641e+00
  1.357777e+01    2.762121e+00
  1.360952e+01    2.671452e+00
  1.364127e+01    2.615781e+00
  1.367303e+01    2.605139e+00
  1.370478e+01    2.570186e+00
  1.373653e+01    2.539695e+00
  1.376828e+01    2.554295e+00
  1.380003e+01    2.497159e+00
  1.383178e+01    2.426669e+00
  1.386353e+01    2.390718e+00
  1.389528e+01    2.436501e+00
  1.392703e+01    2.394204e+00
  1.395879e+01    2.379783e+00
  1.399054e+01    2.363295e+00
  1.402229e+01    2.341369e+00
  1.405404e+01    2.342549e+00
  1.408579e+01    2.347831e+00
  1.411754e+01    2.347133e+00
  1.414929e+01    2.332075e+00
  1.418104e+01    2.273673e+00
  1.421279e+01    2.295875e+00
  1.424455e+01    2.304220e+00
  1.427630e+01    2.275771e+00
  1.430805e+01    2.264683e+00
  1.433980e+01    2.292531e+00
  1.437155e+01    2.249060e+00
  1.440330e+01    2.258618e+00
  1.443505e+01    2.258779e+00
  1.446680e+01    2.213853e+00
  1.449856e+01    2.234775e+00
  1.453031e+01    2.229782e+00
  1.456206e+01    2.243437e+00
  1.459381e+01    2.238795e+00
  1.462556e+01    2.187234e+00
  1.465731e+01    2.207259e+00
  1.468906e+01    2.232027e+00
  1.472081e+01    2.236040e+00
  1.475256e+01    2.222466e+00
  1.478432e+01    2.218992e+00
  1.481607e+01    2.182341e+00
  1.484782e+01    2.209706e+00
  1.487957e+01    2.182225e+00
  1.491132e+01    2.246701e+00
  1.494307e+01    2.319231e+00
  1.497482e+01    2.362491e+00
  1.500657e+01    2.439720e+00
  1.503832e+01    2.533499e+00
  1.507008e+01    2.836804e+00
  1.510183e+01    3.219925e+00
  1.513358e+01    3.771387e+00
  1.516533e+01    4.564620e+00
  1.519708e+01    5.185743e+00
  1.522883e+01    5.668920e+00
  1.526058e+01    5.830369e+00
  1.529233e+01    5.429985e+00
  1.532409e+01    4.734096e+00
  1.535584e+01    3.781633e+00
  1.538759e+01    3.201569e+00
  1.541934e+01    2.754297e+00
  1.545109e+01    2.555089e+00
  1.548284e+01    2.357672e+00
  1.551459e+01    2.264057e+00
  1.554634e+01    2.154720e+00
  1.557809e+01    2.124418e+00
  1.560985e+01    2.086913e+00
  1.564160e+01    2.029056e+00
  1.567335e+01    2.047065e+00
  1.570510e+01    1.992668e+00
  1.573685e+01    1.962572e+00
  1.576860e+01    1.981861e+00
  1.580035e+01    1.907301e+00
  1.583210e+01    1.949950e+00
  1.586385e+01    1.917164e+00
  1.589561e+01    1.909208e+00
  1.592736e+01    1.916818e+00
  1.595911e+01    1.896709e+00
  1.599086e+01    1.884544e+00
  1.602261e+01    1.880344e+00
  1.605436e+01    1.840186e+00
  1.608611e+01    1.884774e+00
  1.611786e+01    1.848194e+00
  1.614961e+01    1.828410e+00
  1.618137e+01    1.836617e+00
  1.621312e+01    1.861571e+00
  1.624487e+01    1.818545e+00
  1.627662e+01    1.813463e+00
  1.630837e+01    1.777123e+00
  1.634012e+01    1.798145e+00
  1.637187e+01    1.794583e+00
  1.640362e+01    1.788134e+00
  1.643538e+01    1.769106e+00
  1.646713e+01    1.738315e+00
  1.649888e+01    1.749242e+00
  1.653063e+01    1.753325e+00
  1.656238e+01    1.755517e+00
  1.659413e+01    1.755018e+00
  1.662588e+01    1.745604e+00
  1.665763e+01    1.739311e+00
  1.668938e+01    1.722504e+00
  1.672114e+01    1.707838e+00
  1.675289e+01    1.725233e+00
  1.678464e+01    1.712735e+00
  1.681639e+01    1.723631e+00
  1.684814e+01    1.713187e+00
  1.687989e+01    1.696881e+00
  1.691164e+01    1.687836e+00
  1.694339e+01    1.684731e+00
  1.697514e+01    1.668370e+00
  1.700690e+01    1.704124e+00
  1.703865e+01    1.686960e+00
  1.707040e+01    1.656741e+00
  1.710215e+01    1.660541e+00
  1.713390e+01    1.629643e+00
  1.716565e+01    1.652405e+00
  1.719740e+01    1.644184e+00
  1.722915e+01    1.613667e+00
  1.726091e+01    1.620853e+00
  1.729266e+01    1.622869e+00
  1.732441e+01    1.608904e+00
  1.735616e+01    1.619473e+00
  1.738791e+01    1.609239e+00
  1.741966e+01    1.622896e+00
  1.745141e+01    1.584841e+00
  1.748316e+01    1.603511e+00
  1.751491e+01    1.584681e+00
  1.754667e+01    1.583898e+00
  1.757842e+01    1.558280e+00
  1.761017e+01    1.574662e+00
  1.764192e+01    1.567831e+00
  1.767367e+01    1.572888e+00
  1.770542e+01    1.540130e+00
  1.773717e+01    1.566070e+00
  1.776892e+01    1.574688e+00
  1.780067e+01    1.524104e+00
  1.783243e+01    1.545690e+00
  1.786418e+01    1.480108e+00
  1.789593e+01    1.528889e+00
  1.792768e+01    1.512088e+00
  1.795943e+01    1.503779e+00
  1.799118e+01    1.504573e+00
  1.802293e+01    1.511678e+00
  1.805468e+01    1.487506e+00
  1.808643e+01    1.486763e+00
  1.811819e+01    1.495432e+00
  1.814994e+01    1.490899e+00
  1.818169e+01    1.477465e+00
  1.821344e+01    1.485051e+00
  1.824519e+01    1.459955e+00
  1.827694e+01    1.501058e+00
  1.830869e+01    1.492081e+00
  1.834044e+01    1.475973e+00
  1.837220e+01    1.481618e+00
  1.840395e+01    1.483177e+00
  1.843570e+01    1.446193e+00
  1.846745e+01    1.432975e+00
  1.849920e+01    1.431563e+00
  1.853095e+01    1.446858e+00
  1.856270e+01    1.410188e+00
  1.859445e+01    1.463594e+00
  1.862620e+01    1.404332e+00
  1.865796e+01    1.428492e+00
  1.868971e+01    1.407497e+00
  1.872146e+01    1.402814e+00
  1.875321e+01    1.426880e+00
  1.878496e+01    1.427167e+00
  1.881671e+01    1.426628e+00
  1.884846e+01    1.401583e+00
  1.888021e+01    1.412755e+00
  1.891196e+01    1.394726e+00
  1.894372e+01    1.428994e+00
  1.897547e+01    1.360293e+00
  1.900722e+01    1.351907e+00
  1.903897e+01    1.402855e+00
  1.907072e+01    1.373311e+00
  1.910247e+01    1.366524e+00
  1.913422e+01    1.381650e+00
  1.916597e+01    1.364720e+00
  1.919773e+01    1.365523e+00
  1.922948e+01    1.334393e+00
  1.926123e+01    1.365031e+00
  1.929298e+01    1.349921e+00
  1.932473e+01    1.368575e+00
  1.935648e+01    1.347125e+00
  1.938823e+01    1.341704e+00
  1.941998e+01    1.329215e+00
  1.945173e+01    1.359456e+00
  1.948349e+01    1.357062e+00
  1.951524e+01    1.342243e+00
  1.954699e+01    1.334022e+00
  1.957874e+01    1.318599e+00
  1.961049e+01    1.351668e+00
  1.964224e+01    1.327430e+00
  1.967399e+01    1.318628e+00
  1.970574e+01    1.300495e+00
  1.973749e+01    1.307383e+00
  1.976925e+01    1.297833e+00
  1.980100e+01    1.316229e+00
  1.983275e+01    1.294835e+00
  1.986450e+01    1.307539e+00
  1.989625e+01    1.302958e+00
  1.992800e+01    1.271142e+00
  1.995975e+01    1.276125e+00
  1.999150e+01    1.309508e+00
  2.002325e+01    1.285699e+00
  2.005501e+01    1.242194e+00
  2.008676e+01    1.259200e+00
  2.011851e+01    1.257743e+00
  2.015026e+01    1.275400e+00
  2.018201e+01    1.277093e+00
  2.021376e+01    1.259619e+00
  2.024551e+01    1.244927e+00
  2.027726e+01    1.251691e+00
  2.030902e+01    1.260365e+00
  2.034077e+01    1.237167e+00
  2.037252e+01    1.239534e+00
  2.040427e+01    1.248862e+00
  2.043602e+01    1.234971e+00
  2.046777e+01    1.254313e+00
  2.049952e+01    1.250866e+00
  2.053127e+01    1.236917e+00
  2.056302e+01    1.227540e+00
  2.059478e+01    1.227969e+00
  2.062653e+01    1.221857e+00
  2.065828e+01    1.230706e+00
  2.069003e+01    1.234562e+00
  2.072178e+01    1.230255e+00
  2.075353e+01    1.208362e+00
  2.078528e+01    1.250901e+00
  2.081703e+01    1.205370e+00
  2.084878e+01    1.208958e+00
  2.088054e+01    1.228685e+00
  2.091229e+01    1.196876e+00
  2.094404e+01    1.218916e+00
  2.097579e+01    1.199768e+00
  2.100754e+01    1.239177e+00
  2.103929e+01    1.239740e+00
  2.107104e+01    1.211465e+00
  2.110279e+01    1.218560e+00
  2.113455e+01    1.223439e+00
  2.116630e+01    1.229519e+00
  2.119805e+01    1.241011e+00
  2.122980e+01    1.244048e+00
  2.126155e+01    1.249546e+00
  2.129330e+01    1.262600e+00
  2.132505e+01    1.292934e+00
  2.135680e+01    1.284251e+00
  2.138855e+01    1.313668e+00
  2.142031e+01    1.343009e+00
  2.145206e+01    1.345466e+00
  2.148381e+01    1.404771e+00
  2.151556e+01    1.485535e+00
  2.154731e+01    1.528311e+00
  2.157906e+01    1.572762e+00
  2.161081e+01    1.744551e+00
  2.164256e+01    1.975205e+00
  2.167431e+01    2.259545e+00
  2.170607e+01    2.750680e+00
  2.173782e+01    3.477241e+00
  2.176957e+01    4.497092e+00
  2.180132e+01    5.819276e+00
  2.183307e+01    7.123647e+00
  2.186482e+01    8.326588e+00
  2.189657e+01    8.937291e+00
  2.192832e+01    8.342841e+00
  2.196007e+01    6.668377e+00
  2.199183e+01    4.898435e+00
  2.202358e+01    3.666169e+00
  2.205533e+01    2.839967e+00
  2.208708e+01    2.347667e+00
  2.211883e+01    1.997764e+00
  2.215058e+01    1.752760e+00
  2.218233e+01    1.608028e+00
  2.221408e+01    1.505534e+00
  2.224584e+01    1.422516e+00
  2.227759e+01    1.318216e+00
  2.230934e+01    1.290743e+00
  2.234109e+01    1.271865e+00
  2.237284e+01    1.238160e+00
  2.240459e+01    1.204115e+00
  2.243634e+01    1.178695e+00
  2.246809e+01    1.145692e+00
  2.249984e+01    1.135375e+00
  2.253160e+01    1.149232e+00
  2.256335e+01    1.127586e+00
  2.259510e+01    1.104768e+00
  2.262685e+01    1.099643e+00
  2.265860e+01    1.100048e+00
  2.269035e+01    1.090615e+00
  2.272210e+01    1.092153e+00
  2.275385e+01    1.055324e+00
  2.278560e+01    1.070426e+00
  2.281736e+01    1.052121e+00
  2.284911e+01    1.058211e+00
  2.288086e+01    1.046307e+00
  2.291261e+01    1.046888e+00
  2.294436e+01    1.046377e+00
  2.297611e+01    1.014569e+00
  2.300786e+01    1.025447e+00
  2.303961e+01    1.019156e+00
  2.307137e+01    1.019803e+00
  2.310312e+01    1.029891e+00
  2.313487e+01    9.953446e-01
  2.316662e+01    1.013478e+00
  2.319837e+01    1.002346e+00
  2.323012e+01    9.826724e-01
  2.326187e+01    1.004128e+00
  2.329362e+01    9.838127e-01
  2.332537e+01    9.986619e-01
  2.335713e+01    9.770045e-01
  2.338888e+01    9.850019e-01
  2.342063e+01    9.339497e-01
  2.345238e+01    9.970149e-01
  2.348413e+01    9.601385e-01
  2.351588e+01    9.608917e-01
  2.354763e+01    9.541083e-01
  2.357938e+01    9.577125e-01
  2.361113e+01    9.829118e-01
  2.364289e+01    9.579005e-01
  2.367464e+01    9.486174e-01
  2.370639e+01    9.395838e-01
  2.373814e+01    9.382297e-01
  2.376989e+01    9.387557e-01
  2.380164e+01    9.345325e-01
  2.383339e+01    8.989258e-01
  2.386514e+01    9.141628e-01
  2.389689e+01    8.982359e-01
  2.392865e+01    9.068666e-01
  2.396040e+01    9.094164e-01
  2.399215e+01    8.990797e-01
  2.402390e+01    9.211155e-01
  2.405565e+01    8.936402e-01
  2.408740e+01    8.815358e-01
  2.411915e+01    8.796930e-01
  2.415090e+01    8.792453e-01
  2.418266e+01    8.790339e-01
  2.421441e+01    8.938638e-01
  2.424616e+01    8.889271e-01
  2.427791e+01    8.998708e-01
  2.430966e+01    8.974289e-01
  2.434141e+01    8.933534e-01
  2.437316e+01    9.052867e-01
  2.440491e+01    8.971314e-01
  2.443666e+01    8.898100e-01
  2.446842e+01    8.926130e-01
  2.450017e+01    9.130781e-01
  2.453192e+01    8.966585e-01
  2.456367e+01    8.858756e-01
  2.459542e+01    8.855422e-01
  2.462717e+01    9.015995e-01
  2.465892e+01    9.055486e-01
  2.469067e+01    8.758068e-01
  2.472242e+01    8.877616e-01
  2.475418e+01    8.874297e-01
  2.478593e+01    9.133443e-01
  2.481768e+01    8.914161e-01
  2.484943e+01    8.866593e-01
  2.488118e+01    8.761731e-01
  2.491293e+01    9.029616e-01
  2.494468e+01    8.898489e-01
  2.497643e+01    9.176357e-01
  2.500819e+01    9.077691e-01
  2.503994e+01    9.092372e-01
  2.507169e+01    9.090905e-01
  2.510344e+01    8.979158e-01
  2.513519e+01    9.137467e-01
  2.516694e+01    9.178339e-01
  2.519869e+01    9.133817e-01
  2.523044e+01    9.342400e-01
  2.526219e+01    9.439328e-01
  2.529395e+01    9.575369e-01
  2.532570e+01    9.486053e-01
  2.535745e+01    9.862618e-01
  2.538920e+01    9.775646e-01
  2.542095e+01    1.014452e+00
  2.545270e+01    1.014480e+00
  2.548445e+01    1.035617e+00
  2.551620e+01    1.059603e+00
  2.554795e+01    1.123672e+00
  2.557971e+01    1.156433e+00
  2.561146e+01    1.216969e+00
  2.564321e+01    1.294216e+00
  2.567496e+01    1.412178e+00
  2.570671e+01    1.579609e+00
  2.573846e+01    1.852152e+00
  2.577021e+01    2.215545e+00
  2.580196e+01    2.761059e+00
  2.583371e+01    3.586173e+00
  2.586547e+01    4.619705e+00
  2.589722e+01    5.777214e+00
  2.592897e+01    6.760260e+00
  2.596072e+01    7.133604e+00
  2.599247e+01    6.603979e+00
  2.602422e+01    5.356607e+00
  2.605597e+01    4.062199e+00
  2.608772e+01    3.016849e+00
  2.611948e+01    2.394146e+00
  2.615123e+01    1.977874e+00
  2.618298e+01    1.687142e+00
  2.621473e+01    1.500201e+00
  2.624648e+01    1.328557e+00
  2.627823e+01    1.252870e+00
  2.630998e+01    1.181277e+00
  2.634173e+01    1.148247e+00
  2.637348e+01    1.104947e+00
  2.640524e+01    1.071183e+00
  2.643699e+01    1.042742e+00
  2.646874e+01    1.043959e+00
  2.650049e+01    1.002267e+00
  2.653224e+01    1.003618e+00
  2.656399e+01    9.779230e-01
  2.659574e+01    1.002438e+00
  2.662749e+01    9.917662e-01
  2.665924e+01    9.806241e-01
  2.669100e+01    9.896071e-01
  2.672275e+01    9.543251e-01
  2.675450e+01    9.824260e-01
  2.678625e+01    9.622808e-01
  2.681800e+01    9.722364e-01
  2.684975e+01    9.812208e-01
  2.688150e+01    1.001209e+00
  2.691325e+01    9.848605e-01
  2.694501e+01    1.034924e+00
  2.697676e+01    1.063470e+00
  2.700851e+01    1.127013e+00
  2.704026e+01    1.168218e+00
  2.707201e+01    1.296498e+00
  2.710376e+01    1.471168e+00
  2.713551e+01    1.702300e+00
  2.716726e+01    1.941335e+00
  2.719901e+01    2.145710e+00
  2.723077e+01    2.124469e+00
  2.726252e+01    1.966872e+00
  2.729427e+01    1.680033e+00
  2.732602e+01    1.455387e+00
  2.735777e+01    1.284194e+00
  2.738952e+01    1.167832e+00
  2.742127e+01    1.089082e+00
  2.745302e+01    1.038474e+00
  2.748477e+01    9.946663e-01
  2.751653e+01    9.658508e-01
  2.754828e+01    9.732143e-01
  2.758003e+01    9.449587e-01
  2.761178e+01    9.430023e-01
  2.764353e+01    9.171141e-01
  2.767528e+01    9.101683e-01
  2.770703e+01    9.105318e-01
  2.773878e+01    8.922831e-01
  2.777054e+01    8.802214e-01
  2.780229e+01    9.072344e-01
  2.783404e+01    8.875377e-01
  2.786579e+01    8.755292e-01
  2.789754e+01    8.774706e-01
  2.792929e+01    8.914378e-01
  2.796104e+01    8.533854e-01
  2.799279e+01    8.727142e-01
  2.802454e+01    8.626204e-01
  2.805630e+01    8.734815e-01
  2.808805e+01    8.772108e-01
  2.811980e+01    8.687938e-01
  2.815155e+01    8.622653e-01
  2.818330e+01    8.576878e-01
  2.821505e+01    8.538603e-01
  2.824680e+01    8.531060e-01
  2.827855e+01    8.216571e-01
  2.831030e+01    8.400728e-01
  2.834206e+01    8.239460e-01
  2.837381e+01    8.521780e-01
  2.840556e+01    8.478307e-01
  2.843731e+01    8.575621e-01
  2.846906e+01    8.256175e-01
  2.850081e+01    8.385032e-01
  2.853256e+01    8.478067e-01
  2.856431e+01    8.431953e-01
  2.859606e+01    8.383384e-01
  2.862782e+01    8.493484e-01
  2.865957e+01    8.136506e-01
  2.869132e+01    8.342114e-01
  2.872307e+01    8.216076e-01
  2.875482e+01    8.104887e-01
  2.878657e+01    8.219339e-01
  2.881832e+01    8.140740e-01
  2.885007e+01    8.250373e-01
  2.888183e+01    8.105183e-01
  2.891358e+01    8.165001e-01
  2.894533e+01    8.157439e-01
  2.897708e+01    8.384185e-01
  2.900883e+01    8.304780e-01
  2.904058e+01    8.402341e-01
  2.907233e+01    8.129213e-01
  2.910408e+01    8.440534e-01
  2.913583e+01    8.075740e-01
  2.916759e+01    8.057714e-01
  2.919934e+01    8.050801e-01
  2.923109e+01    8.120391e-01
  2.926284e+01    8.097227e-01
  2.929459e+01    8.117791e-01
  2.932634e+01    8.052050e-01
  2.935809e+01    8.023498e-01
  2.938984e+01    8.094969e-01
  2.942159e+01    8.172427e-01
  2.945335e+01    7.817618e-01
  2.948510e+01    8.353447e-01
  2.951685e+01    7.985745e-01
  2.954860e+01    8.077233e-01
  2.958035e+01    7.941544e-01
  2.961210e+01    8.137135e-01
  2.964385e+01    7.911311e-01
  2.967560e+01    8.357124e-01
  2.970736e+01    7.912533e-01
  2.973911e+01    8.250950e-01
  2.977086e+01    8.145709e-01
  2.980261e+01    8.068588e-01
  2.983436e+01    7.918375e-01
  2.986611e+01    7.889102e-01
  2.989786e+01    7.967217e-01
  2.992961e+01    8.152758e-01
  2.996136e+01    7.941110e-01
  2.999312e+01    8.073599e-01
  3.002487e+01    8.035464e-01
  3.005662e+01    8.158323e-01
  3.008837e+01    8.097594e-01
  3.012012e+01    8.192454e-01
  3.015187e+01    8.008222e-01
  3.018362e+01    7.831339e-01
  3.021537e+01    7.898158e-01
  3.024712e+01    7.963989e-01
  3.027888e+01    7.837375e-01
  3.031063e+01    8.157832e-01
  3.034238e+01    7.930676e-01
  3.037413e+01    7.787881e-01
  3.040588e+01    7.902371e-01
  3.043763e+01    8.005733e-01
  3.046938e+01    7.792562e-01
  3.050113e+01    7.872120e-01
  3.053288e+01    7.694757e-01
  3.056464e+01    7.868072e-01
  3.059639e+01    7.946928e-01
  3.062814e+01    7.929959e-01
  3.065989e+01    7.689800e-01
  3.069164e+01    8.062853e-01
  3.072339e+01    7.898789e-01
  3.075514e+01    7.794057e-01
  3.078689e+01    7.736700e-01
  3.081865e+01    8.076534e-01
  3.085040e+01    7.876171e-01
  3.088215e+01    7.670476e-01
  3.091390e+01    7.767914e-01
  3.094565e+01    7.801340e-01
  3.097740e+01    7.726388e-01
  3.100915e+01    7.984166e-01
  3.104090e+01    7.721974e-01
  3.107265e+01    7.841858e-01
  3.110441e+01    7.787163e-01
  3.113616e+01    7.890934e-01
  3.116791e+01    7.999891e-01
  3.119966e+01    7.998961e-01
  3.123141e+01    8.051432e-01
  3.126316e+01    8.105115e-01
  3.129491e+01    8.029576e-01
  3.132666e+01    7.973343e-01
  3.135841e+01    8.300149e-01
  3.139017e+01    7.973796e-01
  3.142192e+01    8.271454e-01
  3.145367e+01    8.140283e-01
  3.148542e+01    8.098316e-01
  3.151717e+01    8.398060e-01
  3.154892e+01    8.317302e-01
  3.158067e+01    8.493613e-01
  3.161242e+01    8.896165e-01
  3.164418e+01    9.071286e-01
  3.167593e+01    9.538103e-01
  3.170768e+01    1.036510e+00
  3.173943e+01    1.114029e+00
  3.177118e+01    1.256565e+00
  3.180293e+01    1.462282e+00
  3.183468e+01    1.705125e+00
  3.186643e+01    1.939730e+00
  3.189818e+01    2.081558e+00
  3.192994e+01    2.062132e+00
  3.196169e+01    1.829125e+00
  3.199344e+01    1.579842e+00
  3.202519e+01    1.306071e+00
  3.205694e+01    1.183504e+00
  3.208869e+01    1.060005e+00
  3.212044e+01    9.660617e-01
  3.215219e+01    9.098426e-01
  3.218394e+01    8.790804e-01
  3.221570e+01    8.565134e-01
  3.224745e+01    8.511752e-01
  3.227920e+01    8.318161e-01
  3.231095e+01    8.309013e-01
  3.234270e+01    7.993472e-01
  3.237445e+01    8.031276e-01
  3.240620e+01    8.087845e-01
  3.243795e+01    7.871417e-01
  3.246970e+01    7.931851e-01
  3.250146e+01    7.778968e-01
  3.253321e+01    7.674844e-01
  3.254908e+01    7.737899e-01