File: XRD/Reaction conditions/2024-07-27_003_Ru-CGO-ex_Reaction_dwell_000023_data_000019.dat
# == pyFAI calibration ==
# Distance Sample to Detector: 0.4 m
# PONI: 9.750e-02, 1.135e-01 m
# Rotations: -0.000175 0.000000 -0.000000 rad
#
# == Fit2d calibration ==
# Distance Sample-beamCenter: 400.000 mm
# Center: x=1514.000, y=1300.000 pix
# Tilt: 0.010 deg  TiltPlanRot: 0.010 deg
#
# Detector Detector	 Spline= None	 PixelSize= 7.500e-05, 7.500e-05 m
#    Detector has a mask: False
#    Detector has a dark current: False
#    detector has a flat field: False
#
# Wavelength: 6.888e-11 m
# Mask applied: user provided
# Dark current applied: False
# Flat field applied: False
# Polarization factor: 0.99
# Normalization factor: 1.0
# --> /home/myspot/data/2024_07_Rosario/Ru-CGO-ex/2024-07-27_003_Ru-CGO-ex_Reaction_dwell_000023_data_000019.dat
#       q_nm^-1             I
  2.003187e-02    1.424646e-01
  5.178302e-02    7.387542e-02
  8.353417e-02    1.105485e-01
  1.152853e-01    1.798372e-02
  1.470365e-01    7.820536e-04
  1.787876e-01    7.229120e-02
  2.105388e-01    5.871871e-02
  2.422899e-01    2.354378e-02
  2.740411e-01    2.760511e-02
  3.057922e-01    4.222368e-02
  3.375433e-01    4.111500e-02
  3.692945e-01    4.993211e-02
  4.010456e-01    4.597088e-02
  4.327968e-01    6.055608e-02
  4.645479e-01    1.752217e-02
  4.962991e-01    5.132931e-02
  5.280502e-01    5.196423e-02
  5.598014e-01    3.405720e-02
  5.915525e-01    3.119192e-02
  6.233037e-01    2.910671e-02
  6.550548e-01    2.541246e-02
  6.868060e-01    2.627142e-02
  7.185571e-01    3.090899e-02
  7.503083e-01    5.505852e-02
  7.820594e-01    1.274186e-01
  8.138106e-01    2.065671e-01
  8.455617e-01    3.708844e-01
  8.773129e-01    5.418401e-01
  9.090640e-01    6.183788e-01
  9.408152e-01    7.385384e-01
  9.725663e-01    9.619129e-01
  1.004317e+00    1.206235e+00
  1.036069e+00    1.376764e+00
  1.067820e+00    1.486441e+00
  1.099571e+00    1.572969e+00
  1.131322e+00    1.622291e+00
  1.163073e+00    1.529476e+00
  1.194824e+00    1.870149e+00
  1.226575e+00    2.134515e+00
  1.258327e+00    2.626345e+00
  1.290078e+00    2.577095e+00
  1.321829e+00    2.687606e+00
  1.353580e+00    2.702287e+00
  1.385331e+00    2.832582e+00
  1.417082e+00    2.860126e+00
  1.448834e+00    2.991646e+00
  1.480585e+00    2.962718e+00
  1.512336e+00    2.975622e+00
  1.544087e+00    3.243283e+00
  1.575838e+00    3.253237e+00
  1.607589e+00    3.232504e+00
  1.639340e+00    3.263736e+00
  1.671092e+00    3.139938e+00
  1.702843e+00    3.008895e+00
  1.734594e+00    3.028423e+00
  1.766345e+00    3.257600e+00
  1.798096e+00    3.183914e+00
  1.829847e+00    3.186424e+00
  1.861598e+00    3.256274e+00
  1.893350e+00    3.279983e+00
  1.925101e+00    3.194367e+00
  1.956852e+00    3.135292e+00
  1.988603e+00    3.183270e+00
  2.020354e+00    3.013564e+00
  2.052105e+00    3.055493e+00
  2.083856e+00    3.130398e+00
  2.115608e+00    3.146709e+00
  2.147359e+00    3.114797e+00
  2.179110e+00    3.102857e+00
  2.210861e+00    3.029681e+00
  2.242612e+00    3.015086e+00
  2.274363e+00    3.075857e+00
  2.306115e+00    3.190223e+00
  2.337866e+00    3.142936e+00
  2.369617e+00    3.103596e+00
  2.401368e+00    3.152140e+00
  2.433119e+00    3.098500e+00
  2.464870e+00    3.110693e+00
  2.496621e+00    3.177781e+00
  2.528373e+00    3.326111e+00
  2.560124e+00    3.222010e+00
  2.591875e+00    3.224361e+00
  2.623626e+00    3.334860e+00
  2.655377e+00    3.268592e+00
  2.687128e+00    3.236979e+00
  2.718879e+00    3.299075e+00
  2.750631e+00    3.220648e+00
  2.782382e+00    3.374566e+00
  2.814133e+00    3.340147e+00
  2.845884e+00    3.338170e+00
  2.877635e+00    3.325767e+00
  2.909386e+00    3.296562e+00
  2.941137e+00    3.359997e+00
  2.972889e+00    3.317483e+00
  3.004640e+00    3.336709e+00
  3.036391e+00    3.418893e+00
  3.068142e+00    3.400434e+00
  3.099893e+00    3.373689e+00
  3.131644e+00    3.520502e+00
  3.163395e+00    3.395565e+00
  3.195147e+00    3.388849e+00
  3.226898e+00    3.385426e+00
  3.258649e+00    3.373684e+00
  3.290400e+00    3.371716e+00
  3.322151e+00    3.470558e+00
  3.353902e+00    3.522420e+00
  3.385654e+00    3.397467e+00
  3.417405e+00    3.390706e+00
  3.449156e+00    3.380776e+00
  3.480907e+00    3.455421e+00
  3.512658e+00    3.471442e+00
  3.544409e+00    3.404757e+00
  3.576160e+00    3.503662e+00
  3.607912e+00    3.529286e+00
  3.639663e+00    3.515269e+00
  3.671414e+00    3.414117e+00
  3.703165e+00    3.538606e+00
  3.734916e+00    3.450092e+00
  3.766667e+00    3.490534e+00
  3.798418e+00    3.493269e+00
  3.830170e+00    3.461863e+00
  3.861921e+00    3.441386e+00
  3.893672e+00    3.635641e+00
  3.925423e+00    3.634694e+00
  3.957174e+00    3.558216e+00
  3.988925e+00    3.480589e+00
  4.020676e+00    3.434946e+00
  4.052428e+00    3.557073e+00
  4.084179e+00    3.675761e+00
  4.115930e+00    3.531518e+00
  4.147681e+00    3.541455e+00
  4.179432e+00    3.648823e+00
  4.211183e+00    3.623197e+00
  4.242935e+00    3.644418e+00
  4.274686e+00    3.567408e+00
  4.306437e+00    3.562821e+00
  4.338188e+00    3.614907e+00
  4.369939e+00    3.670521e+00
  4.401690e+00    3.682956e+00
  4.433441e+00    3.588464e+00
  4.465193e+00    3.636353e+00
  4.496944e+00    3.738193e+00
  4.528695e+00    3.578242e+00
  4.560446e+00    3.593788e+00
  4.592197e+00    3.543995e+00
  4.623948e+00    3.649001e+00
  4.655699e+00    3.670923e+00
  4.687451e+00    3.680517e+00
  4.719202e+00    3.641698e+00
  4.750953e+00    3.664955e+00
  4.782704e+00    3.685207e+00
  4.814455e+00    3.680436e+00
  4.846206e+00    3.645702e+00
  4.877957e+00    3.645806e+00
  4.909709e+00    3.700173e+00
  4.941460e+00    3.715436e+00
  4.973211e+00    3.621962e+00
  5.004962e+00    3.647467e+00
  5.036713e+00    3.670684e+00
  5.068464e+00    3.657041e+00
  5.100216e+00    3.722016e+00
  5.131967e+00    3.651205e+00
  5.163718e+00    3.607956e+00
  5.195469e+00    3.717003e+00
  5.227220e+00    3.691367e+00
  5.258971e+00    3.720207e+00
  5.290722e+00    3.670376e+00
  5.322474e+00    3.664870e+00
  5.354225e+00    3.663873e+00
  5.385976e+00    3.690689e+00
  5.417727e+00    3.726926e+00
  5.449478e+00    3.547241e+00
  5.481229e+00    3.731663e+00
  5.512980e+00    3.610167e+00
  5.544732e+00    3.570851e+00
  5.576483e+00    3.702729e+00
  5.608234e+00    3.614403e+00
  5.639985e+00    3.709878e+00
  5.671736e+00    3.595164e+00
  5.703487e+00    3.733163e+00
  5.735238e+00    3.625508e+00
  5.766990e+00    3.569411e+00
  5.798741e+00    3.636457e+00
  5.830492e+00    3.626445e+00
  5.862243e+00    3.618160e+00
  5.893994e+00    3.549477e+00
  5.925745e+00    3.571599e+00
  5.957497e+00    3.540918e+00
  5.989248e+00    3.610546e+00
  6.020999e+00    3.492836e+00
  6.052750e+00    3.577184e+00
  6.084501e+00    3.626808e+00
  6.116252e+00    3.643350e+00
  6.148003e+00    3.609256e+00
  6.179755e+00    3.548793e+00
  6.211506e+00    3.630058e+00
  6.243257e+00    3.638306e+00
  6.275008e+00    3.506845e+00
  6.306759e+00    3.608176e+00
  6.338510e+00    3.559528e+00
  6.370261e+00    3.652896e+00
  6.402013e+00    3.598045e+00
  6.433764e+00    3.611919e+00
  6.465515e+00    3.499188e+00
  6.497266e+00    3.574672e+00
  6.529017e+00    3.642822e+00
  6.560768e+00    3.546534e+00
  6.592519e+00    3.611686e+00
  6.624271e+00    3.518260e+00
  6.656022e+00    3.545590e+00
  6.687773e+00    3.521356e+00
  6.719524e+00    3.574362e+00
  6.751275e+00    3.510962e+00
  6.783026e+00    3.533648e+00
  6.814777e+00    3.530208e+00
  6.846529e+00    3.618257e+00
  6.878280e+00    3.554797e+00
  6.910031e+00    3.545859e+00
  6.941782e+00    3.610468e+00
  6.973533e+00    3.561733e+00
  7.005284e+00    3.531123e+00
  7.037036e+00    3.571181e+00
  7.068787e+00    3.526808e+00
  7.100538e+00    3.574548e+00
  7.132289e+00    3.504469e+00
  7.164040e+00    3.461480e+00
  7.195791e+00    3.422699e+00
  7.227542e+00    3.500815e+00
  7.259294e+00    3.552533e+00
  7.291045e+00    3.446137e+00
  7.322796e+00    3.572094e+00
  7.354547e+00    3.498484e+00
  7.386298e+00    3.602630e+00
  7.418049e+00    3.485567e+00
  7.449800e+00    3.547419e+00
  7.481552e+00    3.560945e+00
  7.513303e+00    3.438734e+00
  7.545054e+00    3.445891e+00
  7.576805e+00    3.411929e+00
  7.608556e+00    3.433163e+00
  7.640307e+00    3.435031e+00
  7.672058e+00    3.516785e+00
  7.703810e+00    3.532350e+00
  7.735561e+00    3.491452e+00
  7.767312e+00    3.429830e+00
  7.799063e+00    3.486131e+00
  7.830814e+00    3.434618e+00
  7.862565e+00    3.439269e+00
  7.894317e+00    3.470800e+00
  7.926068e+00    3.465963e+00
  7.957819e+00    3.450136e+00
  7.989570e+00    3.356044e+00
  8.021321e+00    3.388287e+00
  8.053072e+00    3.412623e+00
  8.084823e+00    3.428827e+00
  8.116575e+00    3.457260e+00
  8.148326e+00    3.477405e+00
  8.180077e+00    3.454961e+00
  8.211828e+00    3.504213e+00
  8.243579e+00    3.507079e+00
  8.275330e+00    3.459008e+00
  8.307081e+00    3.429395e+00
  8.338833e+00    3.462320e+00
  8.370584e+00    3.459130e+00
  8.402335e+00    3.336791e+00
  8.434086e+00    3.400391e+00
  8.465837e+00    3.353746e+00
  8.497588e+00    3.351386e+00
  8.529339e+00    3.358113e+00
  8.561091e+00    3.367260e+00
  8.592842e+00    3.328944e+00
  8.624593e+00    3.396615e+00
  8.656344e+00    3.428992e+00
  8.688095e+00    3.418793e+00
  8.719846e+00    3.327634e+00
  8.751598e+00    3.354339e+00
  8.783349e+00    3.346394e+00
  8.815100e+00    3.300062e+00
  8.846851e+00    3.341043e+00
  8.878602e+00    3.360421e+00
  8.910353e+00    3.318014e+00
  8.942104e+00    3.294193e+00
  8.973856e+00    3.320213e+00
  9.005607e+00    3.266150e+00
  9.037358e+00    3.285720e+00
  9.069109e+00    3.317817e+00
  9.100860e+00    3.276697e+00
  9.132611e+00    3.254920e+00
  9.164362e+00    3.277411e+00
  9.196114e+00    3.255722e+00
  9.227865e+00    3.298970e+00
  9.259616e+00    3.266334e+00
  9.291367e+00    3.294056e+00
  9.323118e+00    3.220226e+00
  9.354869e+00    3.185821e+00
  9.386620e+00    3.262828e+00
  9.418372e+00    3.206543e+00
  9.450123e+00    3.284266e+00
  9.481874e+00    3.305929e+00
  9.513625e+00    3.226641e+00
  9.545376e+00    3.284915e+00
  9.577127e+00    3.180802e+00
  9.608878e+00    3.260298e+00
  9.640630e+00    3.199613e+00
  9.672381e+00    3.236204e+00
  9.704132e+00    3.198429e+00
  9.735883e+00    3.187670e+00
  9.767634e+00    3.214566e+00
  9.799385e+00    3.174137e+00
  9.831137e+00    3.157230e+00
  9.862888e+00    3.182113e+00
  9.894639e+00    3.137284e+00
  9.926390e+00    3.102477e+00
  9.958141e+00    3.172163e+00
  9.989892e+00    3.147260e+00
  1.002164e+01    3.090177e+00
  1.005339e+01    3.116473e+00
  1.008515e+01    3.120100e+00
  1.011690e+01    3.069794e+00
  1.014865e+01    3.079515e+00
  1.018040e+01    3.137013e+00
  1.021215e+01    3.075686e+00
  1.024390e+01    3.088303e+00
  1.027565e+01    3.022799e+00
  1.030740e+01    3.031286e+00
  1.033915e+01    3.005191e+00
  1.037091e+01    3.054663e+00
  1.040266e+01    3.075343e+00
  1.043441e+01    3.051281e+00
  1.046616e+01    3.070870e+00
  1.049791e+01    2.982327e+00
  1.052966e+01    3.000902e+00
  1.056141e+01    3.007690e+00
  1.059316e+01    3.031586e+00
  1.062492e+01    2.978062e+00
  1.065667e+01    2.971997e+00
  1.068842e+01    2.998998e+00
  1.072017e+01    2.971984e+00
  1.075192e+01    3.003531e+00
  1.078367e+01    2.945425e+00
  1.081542e+01    2.920628e+00
  1.084717e+01    2.976494e+00
  1.087892e+01    2.973125e+00
  1.091068e+01    3.001385e+00
  1.094243e+01    2.858186e+00
  1.097418e+01    2.907987e+00
  1.100593e+01    2.905097e+00
  1.103768e+01    2.911915e+00
  1.106943e+01    2.922020e+00
  1.110118e+01    2.926098e+00
  1.113293e+01    2.876242e+00
  1.116468e+01    2.830028e+00
  1.119644e+01    2.898526e+00
  1.122819e+01    2.828693e+00
  1.125994e+01    2.911235e+00
  1.129169e+01    2.845865e+00
  1.132344e+01    2.898479e+00
  1.135519e+01    2.833651e+00
  1.138694e+01    2.847731e+00
  1.141869e+01    2.767195e+00
  1.145045e+01    2.831922e+00
  1.148220e+01    2.862746e+00
  1.151395e+01    2.774668e+00
  1.154570e+01    2.789473e+00
  1.157745e+01    2.803205e+00
  1.160920e+01    2.813036e+00
  1.164095e+01    2.768061e+00
  1.167270e+01    2.740536e+00
  1.170445e+01    2.737640e+00
  1.173621e+01    2.804919e+00
  1.176796e+01    2.754881e+00
  1.179971e+01    2.737830e+00
  1.183146e+01    2.748305e+00
  1.186321e+01    2.755296e+00
  1.189496e+01    2.762931e+00
  1.192671e+01    2.716714e+00
  1.195846e+01    2.784031e+00
  1.199021e+01    2.692165e+00
  1.202197e+01    2.725582e+00
  1.205372e+01    2.746376e+00
  1.208547e+01    2.755399e+00
  1.211722e+01    2.722588e+00
  1.214897e+01    2.655286e+00
  1.218072e+01    2.727831e+00
  1.221247e+01    2.666026e+00
  1.224422e+01    2.710692e+00
  1.227597e+01    2.682442e+00
  1.230773e+01    2.677101e+00
  1.233948e+01    2.709146e+00
  1.237123e+01    2.678550e+00
  1.240298e+01    2.737213e+00
  1.243473e+01    2.689670e+00
  1.246648e+01    2.730169e+00
  1.249823e+01    2.691832e+00
  1.252998e+01    2.701039e+00
  1.256174e+01    2.787817e+00
  1.259349e+01    2.767456e+00
  1.262524e+01    2.793274e+00
  1.265699e+01    2.810528e+00
  1.268874e+01    2.812816e+00
  1.272049e+01    2.849166e+00
  1.275224e+01    2.906146e+00
  1.278399e+01    2.987594e+00
  1.281574e+01    3.067495e+00
  1.284750e+01    3.194560e+00
  1.287925e+01    3.383051e+00
  1.291100e+01    3.643185e+00
  1.294275e+01    4.134199e+00
  1.297450e+01    4.830308e+00
  1.300625e+01    5.977188e+00
  1.303800e+01    7.871831e+00
  1.306975e+01    1.038271e+01
  1.310150e+01    1.279323e+01
  1.313326e+01    1.499529e+01
  1.316501e+01    1.646534e+01
  1.319676e+01    1.566115e+01
  1.322851e+01    1.255430e+01
  1.326026e+01    9.103270e+00
  1.329201e+01    6.714659e+00
  1.332376e+01    5.353040e+00
  1.335551e+01    4.428394e+00
  1.338727e+01    3.827766e+00
  1.341902e+01    3.495612e+00
  1.345077e+01    3.226015e+00
  1.348252e+01    3.086727e+00
  1.351427e+01    2.956095e+00
  1.354602e+01    2.829026e+00
  1.357777e+01    2.728386e+00
  1.360952e+01    2.685754e+00
  1.364127e+01    2.638335e+00
  1.367303e+01    2.598460e+00
  1.370478e+01    2.556212e+00
  1.373653e+01    2.549451e+00
  1.376828e+01    2.528033e+00
  1.380003e+01    2.477848e+00
  1.383178e+01    2.458729e+00
  1.386353e+01    2.465474e+00
  1.389528e+01    2.459588e+00
  1.392703e+01    2.421899e+00
  1.395879e+01    2.380061e+00
  1.399054e+01    2.383372e+00
  1.402229e+01    2.353799e+00
  1.405404e+01    2.391789e+00
  1.408579e+01    2.320670e+00
  1.411754e+01    2.313453e+00
  1.414929e+01    2.321190e+00
  1.418104e+01    2.306612e+00
  1.421279e+01    2.326375e+00
  1.424455e+01    2.324574e+00
  1.427630e+01    2.266016e+00
  1.430805e+01    2.262868e+00
  1.433980e+01    2.329328e+00
  1.437155e+01    2.255001e+00
  1.440330e+01    2.320362e+00
  1.443505e+01    2.275444e+00
  1.446680e+01    2.220519e+00
  1.449856e+01    2.242628e+00
  1.453031e+01    2.235719e+00
  1.456206e+01    2.231403e+00
  1.459381e+01    2.196660e+00
  1.462556e+01    2.193063e+00
  1.465731e+01    2.232676e+00
  1.468906e+01    2.212547e+00
  1.472081e+01    2.232574e+00
  1.475256e+01    2.180662e+00
  1.478432e+01    2.178632e+00
  1.481607e+01    2.208828e+00
  1.484782e+01    2.211342e+00
  1.487957e+01    2.192892e+00
  1.491132e+01    2.275596e+00
  1.494307e+01    2.331491e+00
  1.497482e+01    2.384974e+00
  1.500657e+01    2.416097e+00
  1.503832e+01    2.579725e+00
  1.507008e+01    2.895999e+00
  1.510183e+01    3.228739e+00
  1.513358e+01    3.848554e+00
  1.516533e+01    4.546883e+00
  1.519708e+01    5.199588e+00
  1.522883e+01    5.644421e+00
  1.526058e+01    5.856993e+00
  1.529233e+01    5.516796e+00
  1.532409e+01    4.655518e+00
  1.535584e+01    3.789597e+00
  1.538759e+01    3.152262e+00
  1.541934e+01    2.835812e+00
  1.545109e+01    2.509330e+00
  1.548284e+01    2.404429e+00
  1.551459e+01    2.264913e+00
  1.554634e+01    2.205080e+00
  1.557809e+01    2.107661e+00
  1.560985e+01    2.092108e+00
  1.564160e+01    2.082755e+00
  1.567335e+01    2.036862e+00
  1.570510e+01    1.991745e+00
  1.573685e+01    1.992130e+00
  1.576860e+01    1.963246e+00
  1.580035e+01    1.944617e+00
  1.583210e+01    1.919495e+00
  1.586385e+01    1.902280e+00
  1.589561e+01    1.916541e+00
  1.592736e+01    1.881988e+00
  1.595911e+01    1.907411e+00
  1.599086e+01    1.881021e+00
  1.602261e+01    1.864898e+00
  1.605436e+01    1.883709e+00
  1.608611e+01    1.853488e+00
  1.611786e+01    1.856962e+00
  1.614961e+01    1.885214e+00
  1.618137e+01    1.843346e+00
  1.621312e+01    1.825646e+00
  1.624487e+01    1.825389e+00
  1.627662e+01    1.802559e+00
  1.630837e+01    1.807329e+00
  1.634012e+01    1.802541e+00
  1.637187e+01    1.806469e+00
  1.640362e+01    1.788492e+00
  1.643538e+01    1.795468e+00
  1.646713e+01    1.779422e+00
  1.649888e+01    1.804035e+00
  1.653063e+01    1.756944e+00
  1.656238e+01    1.750762e+00
  1.659413e+01    1.740739e+00
  1.662588e+01    1.736477e+00
  1.665763e+01    1.743372e+00
  1.668938e+01    1.773029e+00
  1.672114e+01    1.712566e+00
  1.675289e+01    1.727623e+00
  1.678464e+01    1.728990e+00
  1.681639e+01    1.720167e+00
  1.684814e+01    1.717413e+00
  1.687989e+01    1.681349e+00
  1.691164e+01    1.657142e+00
  1.694339e+01    1.666383e+00
  1.697514e+01    1.679705e+00
  1.700690e+01    1.665735e+00
  1.703865e+01    1.691856e+00
  1.707040e+01    1.655068e+00
  1.710215e+01    1.652681e+00
  1.713390e+01    1.652334e+00
  1.716565e+01    1.658940e+00
  1.719740e+01    1.614291e+00
  1.722915e+01    1.630454e+00
  1.726091e+01    1.614868e+00
  1.729266e+01    1.618351e+00
  1.732441e+01    1.620636e+00
  1.735616e+01    1.584216e+00
  1.738791e+01    1.626932e+00
  1.741966e+01    1.623717e+00
  1.745141e+01    1.615625e+00
  1.748316e+01    1.572215e+00
  1.751491e+01    1.602152e+00
  1.754667e+01    1.570560e+00
  1.757842e+01    1.543195e+00
  1.761017e+01    1.564359e+00
  1.764192e+01    1.523708e+00
  1.767367e+01    1.583368e+00
  1.770542e+01    1.582506e+00
  1.773717e+01    1.539614e+00
  1.776892e+01    1.519474e+00
  1.780067e+01    1.569915e+00
  1.783243e+01    1.541706e+00
  1.786418e+01    1.542655e+00
  1.789593e+01    1.496908e+00
  1.792768e+01    1.515814e+00
  1.795943e+01    1.522811e+00
  1.799118e+01    1.501378e+00
  1.802293e+01    1.537422e+00
  1.805468e+01    1.500620e+00
  1.808643e+01    1.488592e+00
  1.811819e+01    1.505721e+00
  1.814994e+01    1.491818e+00
  1.818169e+01    1.505682e+00
  1.821344e+01    1.470979e+00
  1.824519e+01    1.491331e+00
  1.827694e+01    1.469492e+00
  1.830869e+01    1.461264e+00
  1.834044e+01    1.478215e+00
  1.837220e+01    1.460682e+00
  1.840395e+01    1.471950e+00
  1.843570e+01    1.460457e+00
  1.846745e+01    1.444026e+00
  1.849920e+01    1.429824e+00
  1.853095e+01    1.454227e+00
  1.856270e+01    1.451111e+00
  1.859445e+01    1.422789e+00
  1.862620e+01    1.415004e+00
  1.865796e+01    1.422621e+00
  1.868971e+01    1.421318e+00
  1.872146e+01    1.412712e+00
  1.875321e+01    1.437298e+00
  1.878496e+01    1.423318e+00
  1.881671e+01    1.434694e+00
  1.884846e+01    1.403722e+00
  1.888021e+01    1.416084e+00
  1.891196e+01    1.393851e+00
  1.894372e+01    1.380972e+00
  1.897547e+01    1.373475e+00
  1.900722e+01    1.390747e+00
  1.903897e+01    1.367028e+00
  1.907072e+01    1.413867e+00
  1.910247e+01    1.387057e+00
  1.913422e+01    1.376964e+00
  1.916597e+01    1.347024e+00
  1.919773e+01    1.385060e+00
  1.922948e+01    1.382093e+00
  1.926123e+01    1.350234e+00
  1.929298e+01    1.365592e+00
  1.932473e+01    1.357702e+00
  1.935648e+01    1.362447e+00
  1.938823e+01    1.343931e+00
  1.941998e+01    1.334190e+00
  1.945173e+01    1.368618e+00
  1.948349e+01    1.346268e+00
  1.951524e+01    1.322954e+00
  1.954699e+01    1.332868e+00
  1.957874e+01    1.331286e+00
  1.961049e+01    1.310753e+00
  1.964224e+01    1.329885e+00
  1.967399e+01    1.317223e+00
  1.970574e+01    1.285934e+00
  1.973749e+01    1.317877e+00
  1.976925e+01    1.317919e+00
  1.980100e+01    1.303363e+00
  1.983275e+01    1.307129e+00
  1.986450e+01    1.280006e+00
  1.989625e+01    1.274396e+00
  1.992800e+01    1.282688e+00
  1.995975e+01    1.263460e+00
  1.999150e+01    1.274862e+00
  2.002325e+01    1.308298e+00
  2.005501e+01    1.316946e+00
  2.008676e+01    1.267508e+00
  2.011851e+01    1.246095e+00
  2.015026e+01    1.295378e+00
  2.018201e+01    1.262444e+00
  2.021376e+01    1.289462e+00
  2.024551e+01    1.253416e+00
  2.027726e+01    1.253341e+00
  2.030902e+01    1.262285e+00
  2.034077e+01    1.270918e+00
  2.037252e+01    1.230224e+00
  2.040427e+01    1.280401e+00
  2.043602e+01    1.254933e+00
  2.046777e+01    1.248986e+00
  2.049952e+01    1.246876e+00
  2.053127e+01    1.249127e+00
  2.056302e+01    1.244358e+00
  2.059478e+01    1.254201e+00
  2.062653e+01    1.248769e+00
  2.065828e+01    1.238805e+00
  2.069003e+01    1.226041e+00
  2.072178e+01    1.228186e+00
  2.075353e+01    1.223740e+00
  2.078528e+01    1.229753e+00
  2.081703e+01    1.219837e+00
  2.084878e+01    1.223377e+00
  2.088054e+01    1.213800e+00
  2.091229e+01    1.234771e+00
  2.094404e+01    1.226540e+00
  2.097579e+01    1.257879e+00
  2.100754e+01    1.198703e+00
  2.103929e+01    1.225193e+00
  2.107104e+01    1.239215e+00
  2.110279e+01    1.218405e+00
  2.113455e+01    1.206123e+00
  2.116630e+01    1.242770e+00
  2.119805e+01    1.225207e+00
  2.122980e+01    1.257370e+00
  2.126155e+01    1.257149e+00
  2.129330e+01    1.263213e+00
  2.132505e+01    1.242300e+00
  2.135680e+01    1.273310e+00
  2.138855e+01    1.324162e+00
  2.142031e+01    1.341750e+00
  2.145206e+01    1.364052e+00
  2.148381e+01    1.385656e+00
  2.151556e+01    1.429090e+00
  2.154731e+01    1.523886e+00
  2.157906e+01    1.613482e+00
  2.161081e+01    1.798117e+00
  2.164256e+01    2.005358e+00
  2.167431e+01    2.293949e+00
  2.170607e+01    2.808860e+00
  2.173782e+01    3.597646e+00
  2.176957e+01    4.640430e+00
  2.180132e+01    5.949192e+00
  2.183307e+01    7.258410e+00
  2.186482e+01    8.442163e+00
  2.189657e+01    8.973083e+00
  2.192832e+01    8.300342e+00
  2.196007e+01    6.626118e+00
  2.199183e+01    4.843946e+00
  2.202358e+01    3.626078e+00
  2.205533e+01    2.825016e+00
  2.208708e+01    2.332625e+00
  2.211883e+01    1.961689e+00
  2.215058e+01    1.769768e+00
  2.218233e+01    1.606113e+00
  2.221408e+01    1.484558e+00
  2.224584e+01    1.438629e+00
  2.227759e+01    1.354542e+00
  2.230934e+01    1.309423e+00
  2.234109e+01    1.260140e+00
  2.237284e+01    1.219589e+00
  2.240459e+01    1.216237e+00
  2.243634e+01    1.187970e+00
  2.246809e+01    1.141560e+00
  2.249984e+01    1.172021e+00
  2.253160e+01    1.105644e+00
  2.256335e+01    1.110870e+00
  2.259510e+01    1.108102e+00
  2.262685e+01    1.085705e+00
  2.265860e+01    1.081746e+00
  2.269035e+01    1.104763e+00
  2.272210e+01    1.104126e+00
  2.275385e+01    1.052662e+00
  2.278560e+01    1.070352e+00
  2.281736e+01    1.060667e+00
  2.284911e+01    1.021233e+00
  2.288086e+01    1.060416e+00
  2.291261e+01    1.045984e+00
  2.294436e+01    1.049720e+00
  2.297611e+01    1.033876e+00
  2.300786e+01    1.029677e+00
  2.303961e+01    1.025485e+00
  2.307137e+01    1.011084e+00
  2.310312e+01    1.014725e+00
  2.313487e+01    1.019458e+00
  2.316662e+01    9.820958e-01
  2.319837e+01    9.976731e-01
  2.323012e+01    9.793797e-01
  2.326187e+01    1.003774e+00
  2.329362e+01    9.918342e-01
  2.332537e+01    9.608534e-01
  2.335713e+01    9.842241e-01
  2.338888e+01    9.790494e-01
  2.342063e+01    9.565587e-01
  2.345238e+01    9.734714e-01
  2.348413e+01    9.759588e-01
  2.351588e+01    9.741783e-01
  2.354763e+01    9.599971e-01
  2.357938e+01    9.702817e-01
  2.361113e+01    9.366214e-01
  2.364289e+01    9.651893e-01
  2.367464e+01    9.372883e-01
  2.370639e+01    9.194944e-01
  2.373814e+01    9.242548e-01
  2.376989e+01    9.114512e-01
  2.380164e+01    9.458675e-01
  2.383339e+01    9.341295e-01
  2.386514e+01    9.209753e-01
  2.389689e+01    9.088176e-01
  2.392865e+01    9.129242e-01
  2.396040e+01    8.866326e-01
  2.399215e+01    9.201907e-01
  2.402390e+01    9.058849e-01
  2.405565e+01    9.027605e-01
  2.408740e+01    9.140070e-01
  2.411915e+01    9.039609e-01
  2.415090e+01    8.804767e-01
  2.418266e+01    8.827276e-01
  2.421441e+01    8.875372e-01
  2.424616e+01    8.807910e-01
  2.427791e+01    8.909642e-01
  2.430966e+01    8.836125e-01
  2.434141e+01    9.032150e-01
  2.437316e+01    8.759521e-01
  2.440491e+01    9.070715e-01
  2.443666e+01    9.220206e-01
  2.446842e+01    8.841448e-01
  2.450017e+01    8.978249e-01
  2.453192e+01    8.879450e-01
  2.456367e+01    8.937317e-01
  2.459542e+01    8.791214e-01
  2.462717e+01    8.860383e-01
  2.465892e+01    8.814070e-01
  2.469067e+01    8.943650e-01
  2.472242e+01    8.774787e-01
  2.475418e+01    8.878892e-01
  2.478593e+01    8.828005e-01
  2.481768e+01    8.884991e-01
  2.484943e+01    8.903171e-01
  2.488118e+01    8.919793e-01
  2.491293e+01    8.710834e-01
  2.494468e+01    8.995136e-01
  2.497643e+01    8.925350e-01
  2.500819e+01    9.206524e-01
  2.503994e+01    9.018512e-01
  2.507169e+01    9.107500e-01
  2.510344e+01    8.958704e-01
  2.513519e+01    9.163157e-01
  2.516694e+01    9.133818e-01
  2.519869e+01    9.509175e-01
  2.523044e+01    9.320476e-01
  2.526219e+01    9.428806e-01
  2.529395e+01    9.701801e-01
  2.532570e+01    9.722165e-01
  2.535745e+01    9.700407e-01
  2.538920e+01    9.885486e-01
  2.542095e+01    1.005785e+00
  2.545270e+01    1.036575e+00
  2.548445e+01    1.048862e+00
  2.551620e+01    1.099998e+00
  2.554795e+01    1.105307e+00
  2.557971e+01    1.176834e+00
  2.561146e+01    1.200003e+00
  2.564321e+01    1.305022e+00
  2.567496e+01    1.431695e+00
  2.570671e+01    1.624884e+00
  2.573846e+01    1.863922e+00
  2.577021e+01    2.271657e+00
  2.580196e+01    2.858546e+00
  2.583371e+01    3.666864e+00
  2.586547e+01    4.731842e+00
  2.589722e+01    5.899243e+00
  2.592897e+01    6.838795e+00
  2.596072e+01    7.221562e+00
  2.599247e+01    6.605377e+00
  2.602422e+01    5.290267e+00
  2.605597e+01    3.984238e+00
  2.608772e+01    3.027079e+00
  2.611948e+01    2.328105e+00
  2.615123e+01    1.958447e+00
  2.618298e+01    1.658630e+00
  2.621473e+01    1.487247e+00
  2.624648e+01    1.339983e+00
  2.627823e+01    1.252136e+00
  2.630998e+01    1.175566e+00
  2.634173e+01    1.131863e+00
  2.637348e+01    1.106447e+00
  2.640524e+01    1.062182e+00
  2.643699e+01    1.056696e+00
  2.646874e+01    1.047583e+00
  2.650049e+01    1.024932e+00
  2.653224e+01    1.026217e+00
  2.656399e+01    9.974970e-01
  2.659574e+01    9.762366e-01
  2.662749e+01    1.002296e+00
  2.665924e+01    9.724453e-01
  2.669100e+01    9.894813e-01
  2.672275e+01    9.765180e-01
  2.675450e+01    9.900713e-01
  2.678625e+01    9.696151e-01
  2.681800e+01    9.880803e-01
  2.684975e+01    9.770746e-01
  2.688150e+01    1.005893e+00
  2.691325e+01    1.002244e+00
  2.694501e+01    1.046188e+00
  2.697676e+01    1.068606e+00
  2.700851e+01    1.119345e+00
  2.704026e+01    1.213243e+00
  2.707201e+01    1.352764e+00
  2.710376e+01    1.502543e+00
  2.713551e+01    1.735090e+00
  2.716726e+01    2.016140e+00
  2.719901e+01    2.157278e+00
  2.723077e+01    2.171540e+00
  2.726252e+01    1.997700e+00
  2.729427e+01    1.711356e+00
  2.732602e+01    1.454548e+00
  2.735777e+01    1.309541e+00
  2.738952e+01    1.161569e+00
  2.742127e+01    1.099026e+00
  2.745302e+01    1.030246e+00
  2.748477e+01    1.031636e+00
  2.751653e+01    9.811452e-01
  2.754828e+01    9.547989e-01
  2.758003e+01    9.362109e-01
  2.761178e+01    9.290307e-01
  2.764353e+01    9.369955e-01
  2.767528e+01    9.237548e-01
  2.770703e+01    9.183713e-01
  2.773878e+01    9.032919e-01
  2.777054e+01    8.973184e-01
  2.780229e+01    8.989782e-01
  2.783404e+01    8.964368e-01
  2.786579e+01    8.855152e-01
  2.789754e+01    8.863139e-01
  2.792929e+01    8.525022e-01
  2.796104e+01    8.612069e-01
  2.799279e+01    8.579099e-01
  2.802454e+01    8.769262e-01
  2.805630e+01    8.677340e-01
  2.808805e+01    8.557791e-01
  2.811980e+01    8.714551e-01
  2.815155e+01    8.518039e-01
  2.818330e+01    8.544707e-01
  2.821505e+01    8.510457e-01
  2.824680e+01    8.673813e-01
  2.827855e+01    8.690319e-01
  2.831030e+01    8.568209e-01
  2.834206e+01    8.518612e-01
  2.837381e+01    8.403242e-01
  2.840556e+01    8.233429e-01
  2.843731e+01    8.533568e-01
  2.846906e+01    8.549216e-01
  2.850081e+01    8.591111e-01
  2.853256e+01    8.522987e-01
  2.856431e+01    8.356977e-01
  2.859606e+01    8.313689e-01
  2.862782e+01    8.315863e-01
  2.865957e+01    8.555109e-01
  2.869132e+01    8.307570e-01
  2.872307e+01    8.431348e-01
  2.875482e+01    8.394312e-01
  2.878657e+01    8.340648e-01
  2.881832e+01    8.371434e-01
  2.885007e+01    8.392059e-01
  2.888183e+01    8.371125e-01
  2.891358e+01    8.228899e-01
  2.894533e+01    8.397091e-01
  2.897708e+01    8.278786e-01
  2.900883e+01    8.154531e-01
  2.904058e+01    8.185456e-01
  2.907233e+01    8.057843e-01
  2.910408e+01    8.129959e-01
  2.913583e+01    8.295267e-01
  2.916759e+01    8.195342e-01
  2.919934e+01    8.009405e-01
  2.923109e+01    8.184364e-01
  2.926284e+01    8.115194e-01
  2.929459e+01    8.363619e-01
  2.932634e+01    8.036358e-01
  2.935809e+01    8.221088e-01
  2.938984e+01    7.984025e-01
  2.942159e+01    8.228549e-01
  2.945335e+01    8.076808e-01
  2.948510e+01    8.139461e-01
  2.951685e+01    8.243830e-01
  2.954860e+01    7.987602e-01
  2.958035e+01    8.048185e-01
  2.961210e+01    7.922071e-01
  2.964385e+01    8.087320e-01
  2.967560e+01    8.164607e-01
  2.970736e+01    7.999250e-01
  2.973911e+01    7.934846e-01
  2.977086e+01    8.023728e-01
  2.980261e+01    7.986369e-01
  2.983436e+01    8.090634e-01
  2.986611e+01    7.878076e-01
  2.989786e+01    7.959278e-01
  2.992961e+01    8.155019e-01
  2.996136e+01    8.187340e-01
  2.999312e+01    8.225796e-01
  3.002487e+01    8.190787e-01
  3.005662e+01    8.354563e-01
  3.008837e+01    7.855225e-01
  3.012012e+01    7.766848e-01
  3.015187e+01    7.803663e-01
  3.018362e+01    7.841631e-01
  3.021537e+01    7.984551e-01
  3.024712e+01    7.757829e-01
  3.027888e+01    7.810575e-01
  3.031063e+01    7.799904e-01
  3.034238e+01    7.967829e-01
  3.037413e+01    7.718323e-01
  3.040588e+01    7.807254e-01
  3.043763e+01    7.857435e-01
  3.046938e+01    7.716130e-01
  3.050113e+01    7.958348e-01
  3.053288e+01    7.503460e-01
  3.056464e+01    7.784566e-01
  3.059639e+01    7.812036e-01
  3.062814e+01    7.988293e-01
  3.065989e+01    7.508748e-01
  3.069164e+01    7.950266e-01
  3.072339e+01    7.858369e-01
  3.075514e+01    7.747881e-01
  3.078689e+01    7.882026e-01
  3.081865e+01    7.990534e-01
  3.085040e+01    7.917123e-01
  3.088215e+01    8.139904e-01
  3.091390e+01    7.905592e-01
  3.094565e+01    7.705980e-01
  3.097740e+01    8.035491e-01
  3.100915e+01    7.740657e-01
  3.104090e+01    7.831333e-01
  3.107265e+01    7.938488e-01
  3.110441e+01    7.949240e-01
  3.113616e+01    8.112161e-01
  3.116791e+01    7.909395e-01
  3.119966e+01    8.091363e-01
  3.123141e+01    8.019400e-01
  3.126316e+01    8.030989e-01
  3.129491e+01    8.092300e-01
  3.132666e+01    7.990298e-01
  3.135841e+01    7.876315e-01
  3.139017e+01    8.287647e-01
  3.142192e+01    8.188215e-01
  3.145367e+01    8.033029e-01
  3.148542e+01    8.215312e-01
  3.151717e+01    8.285049e-01
  3.154892e+01    8.798963e-01
  3.158067e+01    8.478329e-01
  3.161242e+01    8.977402e-01
  3.164418e+01    9.266075e-01
  3.167593e+01    9.859051e-01
  3.170768e+01    1.004024e+00
  3.173943e+01    1.129329e+00
  3.177118e+01    1.303213e+00
  3.180293e+01    1.489975e+00
  3.183468e+01    1.735689e+00
  3.186643e+01    1.961974e+00
  3.189818e+01    2.120188e+00
  3.192994e+01    2.031191e+00
  3.196169e+01    1.810470e+00
  3.199344e+01    1.589716e+00
  3.202519e+01    1.320001e+00
  3.205694e+01    1.167077e+00
  3.208869e+01    1.023960e+00
  3.212044e+01    9.865586e-01
  3.215219e+01    9.171314e-01
  3.218394e+01    9.075884e-01
  3.221570e+01    8.685406e-01
  3.224745e+01    8.341083e-01
  3.227920e+01    8.356477e-01
  3.231095e+01    8.294346e-01
  3.234270e+01    7.870988e-01
  3.237445e+01    8.035784e-01
  3.240620e+01    8.166417e-01
  3.243795e+01    7.864218e-01
  3.246970e+01    7.704456e-01
  3.250146e+01    8.042250e-01
  3.253321e+01    7.751119e-01
  3.254908e+01    7.693431e-01