File: XRD/Reaction conditions/2024-07-27_003_Ru-CGO-ex_Reaction_dwell_000023_data_000034.dat
# == pyFAI calibration ==
# Distance Sample to Detector: 0.4 m
# PONI: 9.750e-02, 1.135e-01 m
# Rotations: -0.000175 0.000000 -0.000000 rad
#
# == Fit2d calibration ==
# Distance Sample-beamCenter: 400.000 mm
# Center: x=1514.000, y=1300.000 pix
# Tilt: 0.010 deg  TiltPlanRot: 0.010 deg
#
# Detector Detector	 Spline= None	 PixelSize= 7.500e-05, 7.500e-05 m
#    Detector has a mask: False
#    Detector has a dark current: False
#    detector has a flat field: False
#
# Wavelength: 6.888e-11 m
# Mask applied: user provided
# Dark current applied: False
# Flat field applied: False
# Polarization factor: 0.99
# Normalization factor: 1.0
# --> /home/myspot/data/2024_07_Rosario/Ru-CGO-ex/2024-07-27_003_Ru-CGO-ex_Reaction_dwell_000023_data_000034.dat
#       q_nm^-1             I
  2.003187e-02    3.738268e-01
  5.178302e-02    2.670345e-02
  8.353417e-02    1.361938e-01
  1.152853e-01    9.909888e-02
  1.470365e-01    8.433086e-02
  1.787876e-01    7.730617e-02
  2.105388e-01    3.794065e-02
  2.422899e-01    1.623676e-02
  2.740411e-01    5.873539e-02
  3.057922e-01    1.608736e-02
  3.375433e-01    6.528747e-02
  3.692945e-01    5.072136e-02
  4.010456e-01    4.201955e-02
  4.327968e-01    1.539123e-02
  4.645479e-01    2.822948e-02
  4.962991e-01    3.830597e-02
  5.280502e-01    1.697679e-02
  5.598014e-01    6.706263e-02
  5.915525e-01    4.736206e-02
  6.233037e-01    9.743117e-02
  6.550548e-01    2.513757e-02
  6.868060e-01    1.795938e-02
  7.185571e-01    7.311378e-02
  7.503083e-01    7.128236e-02
  7.820594e-01    1.232737e-01
  8.138106e-01    1.886926e-01
  8.455617e-01    3.239949e-01
  8.773129e-01    4.390052e-01
  9.090640e-01    6.755572e-01
  9.408152e-01    7.428691e-01
  9.725663e-01    1.002860e+00
  1.004317e+00    1.125755e+00
  1.036069e+00    1.390098e+00
  1.067820e+00    1.498785e+00
  1.099571e+00    1.562916e+00
  1.131322e+00    1.627754e+00
  1.163073e+00    1.750873e+00
  1.194824e+00    1.806336e+00
  1.226575e+00    2.229393e+00
  1.258327e+00    2.346781e+00
  1.290078e+00    2.561587e+00
  1.321829e+00    2.729010e+00
  1.353580e+00    2.868247e+00
  1.385331e+00    2.803344e+00
  1.417082e+00    2.795072e+00
  1.448834e+00    2.974818e+00
  1.480585e+00    3.142634e+00
  1.512336e+00    3.137216e+00
  1.544087e+00    3.203354e+00
  1.575838e+00    3.164948e+00
  1.607589e+00    3.039630e+00
  1.639340e+00    3.231105e+00
  1.671092e+00    3.172046e+00
  1.702843e+00    3.010946e+00
  1.734594e+00    3.075905e+00
  1.766345e+00    3.203250e+00
  1.798096e+00    3.178923e+00
  1.829847e+00    3.113910e+00
  1.861598e+00    3.176455e+00
  1.893350e+00    3.107472e+00
  1.925101e+00    3.104136e+00
  1.956852e+00    2.979630e+00
  1.988603e+00    3.079006e+00
  2.020354e+00    3.032494e+00
  2.052105e+00    3.046224e+00
  2.083856e+00    3.063240e+00
  2.115608e+00    3.152375e+00
  2.147359e+00    3.362470e+00
  2.179110e+00    3.116688e+00
  2.210861e+00    3.132125e+00
  2.242612e+00    3.134618e+00
  2.274363e+00    3.103292e+00
  2.306115e+00    3.093514e+00
  2.337866e+00    3.251593e+00
  2.369617e+00    3.151947e+00
  2.401368e+00    3.088073e+00
  2.433119e+00    3.298869e+00
  2.464870e+00    3.135578e+00
  2.496621e+00    3.162867e+00
  2.528373e+00    3.112476e+00
  2.560124e+00    3.169664e+00
  2.591875e+00    3.301029e+00
  2.623626e+00    3.232291e+00
  2.655377e+00    3.226933e+00
  2.687128e+00    3.278377e+00
  2.718879e+00    3.379821e+00
  2.750631e+00    3.298033e+00
  2.782382e+00    3.255965e+00
  2.814133e+00    3.351707e+00
  2.845884e+00    3.242974e+00
  2.877635e+00    3.299358e+00
  2.909386e+00    3.216250e+00
  2.941137e+00    3.274527e+00
  2.972889e+00    3.424203e+00
  3.004640e+00    3.373328e+00
  3.036391e+00    3.351789e+00
  3.068142e+00    3.361689e+00
  3.099893e+00    3.350078e+00
  3.131644e+00    3.393814e+00
  3.163395e+00    3.439092e+00
  3.195147e+00    3.371499e+00
  3.226898e+00    3.409214e+00
  3.258649e+00    3.471822e+00
  3.290400e+00    3.423873e+00
  3.322151e+00    3.362037e+00
  3.353902e+00    3.240561e+00
  3.385654e+00    3.478686e+00
  3.417405e+00    3.312243e+00
  3.449156e+00    3.358165e+00
  3.480907e+00    3.483124e+00
  3.512658e+00    3.424869e+00
  3.544409e+00    3.421158e+00
  3.576160e+00    3.461989e+00
  3.607912e+00    3.446336e+00
  3.639663e+00    3.522910e+00
  3.671414e+00    3.447535e+00
  3.703165e+00    3.434200e+00
  3.734916e+00    3.473374e+00
  3.766667e+00    3.567726e+00
  3.798418e+00    3.537078e+00
  3.830170e+00    3.484505e+00
  3.861921e+00    3.554289e+00
  3.893672e+00    3.468354e+00
  3.925423e+00    3.500990e+00
  3.957174e+00    3.479963e+00
  3.988925e+00    3.522648e+00
  4.020676e+00    3.596469e+00
  4.052428e+00    3.581979e+00
  4.084179e+00    3.611011e+00
  4.115930e+00    3.549744e+00
  4.147681e+00    3.566534e+00
  4.179432e+00    3.555441e+00
  4.211183e+00    3.678518e+00
  4.242935e+00    3.544783e+00
  4.274686e+00    3.506955e+00
  4.306437e+00    3.525299e+00
  4.338188e+00    3.524797e+00
  4.369939e+00    3.676518e+00
  4.401690e+00    3.547455e+00
  4.433441e+00    3.535714e+00
  4.465193e+00    3.601892e+00
  4.496944e+00    3.593407e+00
  4.528695e+00    3.540524e+00
  4.560446e+00    3.622416e+00
  4.592197e+00    3.603756e+00
  4.623948e+00    3.641190e+00
  4.655699e+00    3.637290e+00
  4.687451e+00    3.631956e+00
  4.719202e+00    3.563585e+00
  4.750953e+00    3.622548e+00
  4.782704e+00    3.631282e+00
  4.814455e+00    3.743199e+00
  4.846206e+00    3.630629e+00
  4.877957e+00    3.636598e+00
  4.909709e+00    3.593071e+00
  4.941460e+00    3.612842e+00
  4.973211e+00    3.644768e+00
  5.004962e+00    3.656507e+00
  5.036713e+00    3.632725e+00
  5.068464e+00    3.685284e+00
  5.100216e+00    3.692633e+00
  5.131967e+00    3.581371e+00
  5.163718e+00    3.680498e+00
  5.195469e+00    3.686177e+00
  5.227220e+00    3.668042e+00
  5.258971e+00    3.704278e+00
  5.290722e+00    3.647239e+00
  5.322474e+00    3.683672e+00
  5.354225e+00    3.700674e+00
  5.385976e+00    3.661011e+00
  5.417727e+00    3.661783e+00
  5.449478e+00    3.608894e+00
  5.481229e+00    3.552161e+00
  5.512980e+00    3.662225e+00
  5.544732e+00    3.582625e+00
  5.576483e+00    3.611018e+00
  5.608234e+00    3.621443e+00
  5.639985e+00    3.635547e+00
  5.671736e+00    3.582455e+00
  5.703487e+00    3.599400e+00
  5.735238e+00    3.566627e+00
  5.766990e+00    3.556111e+00
  5.798741e+00    3.571038e+00
  5.830492e+00    3.574587e+00
  5.862243e+00    3.577704e+00
  5.893994e+00    3.573749e+00
  5.925745e+00    3.559841e+00
  5.957497e+00    3.477014e+00
  5.989248e+00    3.533243e+00
  6.020999e+00    3.447368e+00
  6.052750e+00    3.530524e+00
  6.084501e+00    3.555933e+00
  6.116252e+00    3.643884e+00
  6.148003e+00    3.616846e+00
  6.179755e+00    3.524678e+00
  6.211506e+00    3.594361e+00
  6.243257e+00    3.557986e+00
  6.275008e+00    3.531687e+00
  6.306759e+00    3.622454e+00
  6.338510e+00    3.486797e+00
  6.370261e+00    3.549324e+00
  6.402013e+00    3.572173e+00
  6.433764e+00    3.492948e+00
  6.465515e+00    3.580210e+00
  6.497266e+00    3.490123e+00
  6.529017e+00    3.559014e+00
  6.560768e+00    3.565086e+00
  6.592519e+00    3.506126e+00
  6.624271e+00    3.555169e+00
  6.656022e+00    3.576284e+00
  6.687773e+00    3.532991e+00
  6.719524e+00    3.610862e+00
  6.751275e+00    3.578473e+00
  6.783026e+00    3.529313e+00
  6.814777e+00    3.659662e+00
  6.846529e+00    3.568003e+00
  6.878280e+00    3.634184e+00
  6.910031e+00    3.531159e+00
  6.941782e+00    3.579979e+00
  6.973533e+00    3.556055e+00
  7.005284e+00    3.487820e+00
  7.037036e+00    3.596669e+00
  7.068787e+00    3.574726e+00
  7.100538e+00    3.487190e+00
  7.132289e+00    3.499611e+00
  7.164040e+00    3.454258e+00
  7.195791e+00    3.527593e+00
  7.227542e+00    3.438785e+00
  7.259294e+00    3.524445e+00
  7.291045e+00    3.547040e+00
  7.322796e+00    3.517815e+00
  7.354547e+00    3.539927e+00
  7.386298e+00    3.586976e+00
  7.418049e+00    3.576181e+00
  7.449800e+00    3.455343e+00
  7.481552e+00    3.434602e+00
  7.513303e+00    3.459695e+00
  7.545054e+00    3.404400e+00
  7.576805e+00    3.504771e+00
  7.608556e+00    3.540243e+00
  7.640307e+00    3.477084e+00
  7.672058e+00    3.481916e+00
  7.703810e+00    3.427210e+00
  7.735561e+00    3.336910e+00
  7.767312e+00    3.403806e+00
  7.799063e+00    3.372725e+00
  7.830814e+00    3.406549e+00
  7.862565e+00    3.501945e+00
  7.894317e+00    3.383026e+00
  7.926068e+00    3.460101e+00
  7.957819e+00    3.425564e+00
  7.989570e+00    3.444772e+00
  8.021321e+00    3.409220e+00
  8.053072e+00    3.384780e+00
  8.084823e+00    3.376146e+00
  8.116575e+00    3.487861e+00
  8.148326e+00    3.440837e+00
  8.180077e+00    3.441161e+00
  8.211828e+00    3.445993e+00
  8.243579e+00    3.416799e+00
  8.275330e+00    3.318025e+00
  8.307081e+00    3.416716e+00
  8.338833e+00    3.345630e+00
  8.370584e+00    3.417829e+00
  8.402335e+00    3.360137e+00
  8.434086e+00    3.351290e+00
  8.465837e+00    3.395035e+00
  8.497588e+00    3.362386e+00
  8.529339e+00    3.292967e+00
  8.561091e+00    3.377757e+00
  8.592842e+00    3.374771e+00
  8.624593e+00    3.402216e+00
  8.656344e+00    3.364120e+00
  8.688095e+00    3.368436e+00
  8.719846e+00    3.352915e+00
  8.751598e+00    3.371728e+00
  8.783349e+00    3.344928e+00
  8.815100e+00    3.360155e+00
  8.846851e+00    3.353595e+00
  8.878602e+00    3.297084e+00
  8.910353e+00    3.249849e+00
  8.942104e+00    3.199080e+00
  8.973856e+00    3.254438e+00
  9.005607e+00    3.282143e+00
  9.037358e+00    3.345686e+00
  9.069109e+00    3.275519e+00
  9.100860e+00    3.303986e+00
  9.132611e+00    3.219896e+00
  9.164362e+00    3.286730e+00
  9.196114e+00    3.274354e+00
  9.227865e+00    3.288565e+00
  9.259616e+00    3.208241e+00
  9.291367e+00    3.242152e+00
  9.323118e+00    3.199495e+00
  9.354869e+00    3.205291e+00
  9.386620e+00    3.251470e+00
  9.418372e+00    3.244930e+00
  9.450123e+00    3.229425e+00
  9.481874e+00    3.248036e+00
  9.513625e+00    3.246821e+00
  9.545376e+00    3.200670e+00
  9.577127e+00    3.191124e+00
  9.608878e+00    3.246917e+00
  9.640630e+00    3.233248e+00
  9.672381e+00    3.209983e+00
  9.704132e+00    3.223711e+00
  9.735883e+00    3.197500e+00
  9.767634e+00    3.184037e+00
  9.799385e+00    3.155418e+00
  9.831137e+00    3.122921e+00
  9.862888e+00    3.167021e+00
  9.894639e+00    3.135640e+00
  9.926390e+00    3.128444e+00
  9.958141e+00    3.155108e+00
  9.989892e+00    3.129398e+00
  1.002164e+01    3.090001e+00
  1.005339e+01    3.116224e+00
  1.008515e+01    3.054002e+00
  1.011690e+01    3.048003e+00
  1.014865e+01    3.113159e+00
  1.018040e+01    3.066203e+00
  1.021215e+01    3.080173e+00
  1.024390e+01    3.078142e+00
  1.027565e+01    3.047252e+00
  1.030740e+01    3.047706e+00
  1.033915e+01    3.016863e+00
  1.037091e+01    3.023635e+00
  1.040266e+01    3.066321e+00
  1.043441e+01    3.054169e+00
  1.046616e+01    3.017641e+00
  1.049791e+01    3.028371e+00
  1.052966e+01    2.925677e+00
  1.056141e+01    3.060359e+00
  1.059316e+01    2.978376e+00
  1.062492e+01    2.993464e+00
  1.065667e+01    2.962238e+00
  1.068842e+01    2.965800e+00
  1.072017e+01    2.978204e+00
  1.075192e+01    2.964457e+00
  1.078367e+01    2.963842e+00
  1.081542e+01    2.930643e+00
  1.084717e+01    2.978606e+00
  1.087892e+01    2.967241e+00
  1.091068e+01    2.951847e+00
  1.094243e+01    2.929582e+00
  1.097418e+01    2.927389e+00
  1.100593e+01    2.917097e+00
  1.103768e+01    2.885160e+00
  1.106943e+01    2.898451e+00
  1.110118e+01    2.892910e+00
  1.113293e+01    2.825451e+00
  1.116468e+01    2.864203e+00
  1.119644e+01    2.882077e+00
  1.122819e+01    2.908262e+00
  1.125994e+01    2.838123e+00
  1.129169e+01    2.849957e+00
  1.132344e+01    2.833112e+00
  1.135519e+01    2.828360e+00
  1.138694e+01    2.820514e+00
  1.141869e+01    2.785384e+00
  1.145045e+01    2.822568e+00
  1.148220e+01    2.806030e+00
  1.151395e+01    2.819319e+00
  1.154570e+01    2.781431e+00
  1.157745e+01    2.809604e+00
  1.160920e+01    2.802228e+00
  1.164095e+01    2.795269e+00
  1.167270e+01    2.793664e+00
  1.170445e+01    2.751914e+00
  1.173621e+01    2.726519e+00
  1.176796e+01    2.805439e+00
  1.179971e+01    2.694875e+00
  1.183146e+01    2.735438e+00
  1.186321e+01    2.754114e+00
  1.189496e+01    2.746297e+00
  1.192671e+01    2.725293e+00
  1.195846e+01    2.754672e+00
  1.199021e+01    2.703202e+00
  1.202197e+01    2.682516e+00
  1.205372e+01    2.697290e+00
  1.208547e+01    2.694285e+00
  1.211722e+01    2.668109e+00
  1.214897e+01    2.644588e+00
  1.218072e+01    2.697037e+00
  1.221247e+01    2.708694e+00
  1.224422e+01    2.660274e+00
  1.227597e+01    2.679961e+00
  1.230773e+01    2.653835e+00
  1.233948e+01    2.700484e+00
  1.237123e+01    2.679863e+00
  1.240298e+01    2.686575e+00
  1.243473e+01    2.699972e+00
  1.246648e+01    2.683966e+00
  1.249823e+01    2.749711e+00
  1.252998e+01    2.698080e+00
  1.256174e+01    2.737496e+00
  1.259349e+01    2.722357e+00
  1.262524e+01    2.790337e+00
  1.265699e+01    2.805246e+00
  1.268874e+01    2.820397e+00
  1.272049e+01    2.846824e+00
  1.275224e+01    2.932138e+00
  1.278399e+01    2.902946e+00
  1.281574e+01    3.061735e+00
  1.284750e+01    3.170467e+00
  1.287925e+01    3.363530e+00
  1.291100e+01    3.686261e+00
  1.294275e+01    4.060244e+00
  1.297450e+01    4.805120e+00
  1.300625e+01    5.870752e+00
  1.303800e+01    7.756246e+00
  1.306975e+01    1.030140e+01
  1.310150e+01    1.270473e+01
  1.313326e+01    1.484727e+01
  1.316501e+01    1.642245e+01
  1.319676e+01    1.572070e+01
  1.322851e+01    1.259186e+01
  1.326026e+01    9.159282e+00
  1.329201e+01    6.708704e+00
  1.332376e+01    5.342854e+00
  1.335551e+01    4.425433e+00
  1.338727e+01    3.852054e+00
  1.341902e+01    3.434500e+00
  1.345077e+01    3.175467e+00
  1.348252e+01    3.037434e+00
  1.351427e+01    2.935548e+00
  1.354602e+01    2.806619e+00
  1.357777e+01    2.707920e+00
  1.360952e+01    2.719535e+00
  1.364127e+01    2.608559e+00
  1.367303e+01    2.574405e+00
  1.370478e+01    2.559645e+00
  1.373653e+01    2.527025e+00
  1.376828e+01    2.511422e+00
  1.380003e+01    2.496563e+00
  1.383178e+01    2.492898e+00
  1.386353e+01    2.468693e+00
  1.389528e+01    2.399262e+00
  1.392703e+01    2.444328e+00
  1.395879e+01    2.371593e+00
  1.399054e+01    2.359471e+00
  1.402229e+01    2.346333e+00
  1.405404e+01    2.348636e+00
  1.408579e+01    2.336565e+00
  1.411754e+01    2.334510e+00
  1.414929e+01    2.330566e+00
  1.418104e+01    2.277882e+00
  1.421279e+01    2.300341e+00
  1.424455e+01    2.282637e+00
  1.427630e+01    2.317047e+00
  1.430805e+01    2.280700e+00
  1.433980e+01    2.220891e+00
  1.437155e+01    2.249610e+00
  1.440330e+01    2.229937e+00
  1.443505e+01    2.238104e+00
  1.446680e+01    2.234864e+00
  1.449856e+01    2.297797e+00
  1.453031e+01    2.218576e+00
  1.456206e+01    2.222909e+00
  1.459381e+01    2.237139e+00
  1.462556e+01    2.230199e+00
  1.465731e+01    2.211330e+00
  1.468906e+01    2.218736e+00
  1.472081e+01    2.201159e+00
  1.475256e+01    2.209350e+00
  1.478432e+01    2.185689e+00
  1.481607e+01    2.184426e+00
  1.484782e+01    2.182173e+00
  1.487957e+01    2.251746e+00
  1.491132e+01    2.254119e+00
  1.494307e+01    2.271610e+00
  1.497482e+01    2.372104e+00
  1.500657e+01    2.450058e+00
  1.503832e+01    2.607517e+00
  1.507008e+01    2.826410e+00
  1.510183e+01    3.190004e+00
  1.513358e+01    3.828064e+00
  1.516533e+01    4.511547e+00
  1.519708e+01    5.171340e+00
  1.522883e+01    5.663393e+00
  1.526058e+01    5.843289e+00
  1.529233e+01    5.442554e+00
  1.532409e+01    4.673661e+00
  1.535584e+01    3.768808e+00
  1.538759e+01    3.105045e+00
  1.541934e+01    2.725421e+00
  1.545109e+01    2.499408e+00
  1.548284e+01    2.351524e+00
  1.551459e+01    2.260353e+00
  1.554634e+01    2.200742e+00
  1.557809e+01    2.153235e+00
  1.560985e+01    2.073036e+00
  1.564160e+01    2.019867e+00
  1.567335e+01    2.051573e+00
  1.570510e+01    2.021096e+00
  1.573685e+01    2.003059e+00
  1.576860e+01    1.958934e+00
  1.580035e+01    1.887900e+00
  1.583210e+01    1.927846e+00
  1.586385e+01    1.904282e+00
  1.589561e+01    1.912117e+00
  1.592736e+01    1.880673e+00
  1.595911e+01    1.880304e+00
  1.599086e+01    1.879879e+00
  1.602261e+01    1.862548e+00
  1.605436e+01    1.861947e+00
  1.608611e+01    1.837778e+00
  1.611786e+01    1.846352e+00
  1.614961e+01    1.851101e+00
  1.618137e+01    1.825080e+00
  1.621312e+01    1.808802e+00
  1.624487e+01    1.845808e+00
  1.627662e+01    1.792759e+00
  1.630837e+01    1.788980e+00
  1.634012e+01    1.805548e+00
  1.637187e+01    1.817280e+00
  1.640362e+01    1.799535e+00
  1.643538e+01    1.732330e+00
  1.646713e+01    1.775549e+00
  1.649888e+01    1.733081e+00
  1.653063e+01    1.762129e+00
  1.656238e+01    1.729025e+00
  1.659413e+01    1.740606e+00
  1.662588e+01    1.764833e+00
  1.665763e+01    1.717645e+00
  1.668938e+01    1.719287e+00
  1.672114e+01    1.693648e+00
  1.675289e+01    1.703512e+00
  1.678464e+01    1.721057e+00
  1.681639e+01    1.682814e+00
  1.684814e+01    1.687119e+00
  1.687989e+01    1.717170e+00
  1.691164e+01    1.663946e+00
  1.694339e+01    1.663550e+00
  1.697514e+01    1.667022e+00
  1.700690e+01    1.681121e+00
  1.703865e+01    1.680718e+00
  1.707040e+01    1.652564e+00
  1.710215e+01    1.662774e+00
  1.713390e+01    1.659972e+00
  1.716565e+01    1.669806e+00
  1.719740e+01    1.655211e+00
  1.722915e+01    1.666612e+00
  1.726091e+01    1.627573e+00
  1.729266e+01    1.620052e+00
  1.732441e+01    1.622416e+00
  1.735616e+01    1.641245e+00
  1.738791e+01    1.626550e+00
  1.741966e+01    1.580862e+00
  1.745141e+01    1.608404e+00
  1.748316e+01    1.581182e+00
  1.751491e+01    1.571510e+00
  1.754667e+01    1.579466e+00
  1.757842e+01    1.602880e+00
  1.761017e+01    1.591916e+00
  1.764192e+01    1.550788e+00
  1.767367e+01    1.562964e+00
  1.770542e+01    1.542061e+00
  1.773717e+01    1.521255e+00
  1.776892e+01    1.554505e+00
  1.780067e+01    1.542605e+00
  1.783243e+01    1.550362e+00
  1.786418e+01    1.545161e+00
  1.789593e+01    1.553936e+00
  1.792768e+01    1.513813e+00
  1.795943e+01    1.495559e+00
  1.799118e+01    1.495349e+00
  1.802293e+01    1.534296e+00
  1.805468e+01    1.493835e+00
  1.808643e+01    1.486313e+00
  1.811819e+01    1.451820e+00
  1.814994e+01    1.474356e+00
  1.818169e+01    1.487396e+00
  1.821344e+01    1.463570e+00
  1.824519e+01    1.478599e+00
  1.827694e+01    1.515593e+00
  1.830869e+01    1.478097e+00
  1.834044e+01    1.500948e+00
  1.837220e+01    1.479879e+00
  1.840395e+01    1.472133e+00
  1.843570e+01    1.448990e+00
  1.846745e+01    1.475164e+00
  1.849920e+01    1.464436e+00
  1.853095e+01    1.438262e+00
  1.856270e+01    1.432094e+00
  1.859445e+01    1.425764e+00
  1.862620e+01    1.439473e+00
  1.865796e+01    1.448922e+00
  1.868971e+01    1.428815e+00
  1.872146e+01    1.424441e+00
  1.875321e+01    1.374407e+00
  1.878496e+01    1.413590e+00
  1.881671e+01    1.418471e+00
  1.884846e+01    1.408722e+00
  1.888021e+01    1.408287e+00
  1.891196e+01    1.400568e+00
  1.894372e+01    1.400155e+00
  1.897547e+01    1.391500e+00
  1.900722e+01    1.392384e+00
  1.903897e+01    1.386142e+00
  1.907072e+01    1.367219e+00
  1.910247e+01    1.349081e+00
  1.913422e+01    1.378816e+00
  1.916597e+01    1.365296e+00
  1.919773e+01    1.375114e+00
  1.922948e+01    1.358439e+00
  1.926123e+01    1.350101e+00
  1.929298e+01    1.352715e+00
  1.932473e+01    1.344067e+00
  1.935648e+01    1.363186e+00
  1.938823e+01    1.346684e+00
  1.941998e+01    1.362571e+00
  1.945173e+01    1.365340e+00
  1.948349e+01    1.316718e+00
  1.951524e+01    1.333658e+00
  1.954699e+01    1.334498e+00
  1.957874e+01    1.328480e+00
  1.961049e+01    1.303888e+00
  1.964224e+01    1.335458e+00
  1.967399e+01    1.295795e+00
  1.970574e+01    1.294478e+00
  1.973749e+01    1.335126e+00
  1.976925e+01    1.305062e+00
  1.980100e+01    1.297037e+00
  1.983275e+01    1.316680e+00
  1.986450e+01    1.271160e+00
  1.989625e+01    1.284632e+00
  1.992800e+01    1.276860e+00
  1.995975e+01    1.283686e+00
  1.999150e+01    1.290998e+00
  2.002325e+01    1.295687e+00
  2.005501e+01    1.270232e+00
  2.008676e+01    1.279830e+00
  2.011851e+01    1.292141e+00
  2.015026e+01    1.270121e+00
  2.018201e+01    1.267884e+00
  2.021376e+01    1.237381e+00
  2.024551e+01    1.276575e+00
  2.027726e+01    1.224487e+00
  2.030902e+01    1.242257e+00
  2.034077e+01    1.236009e+00
  2.037252e+01    1.246913e+00
  2.040427e+01    1.240703e+00
  2.043602e+01    1.233586e+00
  2.046777e+01    1.271535e+00
  2.049952e+01    1.241536e+00
  2.053127e+01    1.226996e+00
  2.056302e+01    1.237458e+00
  2.059478e+01    1.233888e+00
  2.062653e+01    1.238683e+00
  2.065828e+01    1.242024e+00
  2.069003e+01    1.238006e+00
  2.072178e+01    1.226278e+00
  2.075353e+01    1.249391e+00
  2.078528e+01    1.233065e+00
  2.081703e+01    1.225342e+00
  2.084878e+01    1.222299e+00
  2.088054e+01    1.237218e+00
  2.091229e+01    1.227240e+00
  2.094404e+01    1.247084e+00
  2.097579e+01    1.250231e+00
  2.100754e+01    1.228301e+00
  2.103929e+01    1.206235e+00
  2.107104e+01    1.241657e+00
  2.110279e+01    1.222808e+00
  2.113455e+01    1.202692e+00
  2.116630e+01    1.238119e+00
  2.119805e+01    1.228244e+00
  2.122980e+01    1.258614e+00
  2.126155e+01    1.253301e+00
  2.129330e+01    1.263956e+00
  2.132505e+01    1.247341e+00
  2.135680e+01    1.308770e+00
  2.138855e+01    1.304909e+00
  2.142031e+01    1.316059e+00
  2.145206e+01    1.363834e+00
  2.148381e+01    1.397173e+00
  2.151556e+01    1.452984e+00
  2.154731e+01    1.486755e+00
  2.157906e+01    1.628799e+00
  2.161081e+01    1.757676e+00
  2.164256e+01    1.991057e+00
  2.167431e+01    2.295025e+00
  2.170607e+01    2.787959e+00
  2.173782e+01    3.539928e+00
  2.176957e+01    4.619442e+00
  2.180132e+01    5.880781e+00
  2.183307e+01    7.156387e+00
  2.186482e+01    8.415003e+00
  2.189657e+01    8.998865e+00
  2.192832e+01    8.268090e+00
  2.196007e+01    6.540155e+00
  2.199183e+01    4.866585e+00
  2.202358e+01    3.602166e+00
  2.205533e+01    2.845662e+00
  2.208708e+01    2.309276e+00
  2.211883e+01    2.015142e+00
  2.215058e+01    1.767285e+00
  2.218233e+01    1.602977e+00
  2.221408e+01    1.488572e+00
  2.224584e+01    1.435770e+00
  2.227759e+01    1.321775e+00
  2.230934e+01    1.283744e+00
  2.234109e+01    1.252241e+00
  2.237284e+01    1.221738e+00
  2.240459e+01    1.211682e+00
  2.243634e+01    1.201282e+00
  2.246809e+01    1.149632e+00
  2.249984e+01    1.153982e+00
  2.253160e+01    1.121908e+00
  2.256335e+01    1.105787e+00
  2.259510e+01    1.116642e+00
  2.262685e+01    1.110097e+00
  2.265860e+01    1.089199e+00
  2.269035e+01    1.085750e+00
  2.272210e+01    1.082238e+00
  2.275385e+01    1.076885e+00
  2.278560e+01    1.046234e+00
  2.281736e+01    1.054124e+00
  2.284911e+01    1.027737e+00
  2.288086e+01    1.018685e+00
  2.291261e+01    1.039777e+00
  2.294436e+01    1.026169e+00
  2.297611e+01    1.011569e+00
  2.300786e+01    1.030941e+00
  2.303961e+01    1.003974e+00
  2.307137e+01    9.958631e-01
  2.310312e+01    1.024665e+00
  2.313487e+01    1.015613e+00
  2.316662e+01    9.962028e-01
  2.319837e+01    9.943488e-01
  2.323012e+01    9.967616e-01
  2.326187e+01    1.007389e+00
  2.329362e+01    9.803416e-01
  2.332537e+01    9.593075e-01
  2.335713e+01    9.753922e-01
  2.338888e+01    9.757124e-01
  2.342063e+01    9.665191e-01
  2.345238e+01    9.600295e-01
  2.348413e+01    9.322522e-01
  2.351588e+01    9.729855e-01
  2.354763e+01    9.564234e-01
  2.357938e+01    9.505825e-01
  2.361113e+01    9.802694e-01
  2.364289e+01    9.537907e-01
  2.367464e+01    9.622934e-01
  2.370639e+01    9.288024e-01
  2.373814e+01    9.392974e-01
  2.376989e+01    9.291084e-01
  2.380164e+01    9.422327e-01
  2.383339e+01    9.106675e-01
  2.386514e+01    9.161670e-01
  2.389689e+01    9.056782e-01
  2.392865e+01    9.019700e-01
  2.396040e+01    8.934028e-01
  2.399215e+01    9.113773e-01
  2.402390e+01    8.712461e-01
  2.405565e+01    8.978629e-01
  2.408740e+01    9.022626e-01
  2.411915e+01    8.730180e-01
  2.415090e+01    8.740630e-01
  2.418266e+01    8.721566e-01
  2.421441e+01    8.752203e-01
  2.424616e+01    9.015417e-01
  2.427791e+01    8.872254e-01
  2.430966e+01    8.753235e-01
  2.434141e+01    9.085305e-01
  2.437316e+01    9.006422e-01
  2.440491e+01    8.846306e-01
  2.443666e+01    8.766062e-01
  2.446842e+01    8.866227e-01
  2.450017e+01    8.989719e-01
  2.453192e+01    9.000457e-01
  2.456367e+01    8.839570e-01
  2.459542e+01    8.985390e-01
  2.462717e+01    8.859556e-01
  2.465892e+01    8.898268e-01
  2.469067e+01    8.687410e-01
  2.472242e+01    9.102657e-01
  2.475418e+01    8.931985e-01
  2.478593e+01    8.843158e-01
  2.481768e+01    9.017501e-01
  2.484943e+01    9.096428e-01
  2.488118e+01    8.912271e-01
  2.491293e+01    8.747675e-01
  2.494468e+01    9.006611e-01
  2.497643e+01    8.971848e-01
  2.500819e+01    8.940948e-01
  2.503994e+01    9.080862e-01
  2.507169e+01    9.210606e-01
  2.510344e+01    8.955978e-01
  2.513519e+01    9.029549e-01
  2.516694e+01    9.189446e-01
  2.519869e+01    9.297889e-01
  2.523044e+01    9.435332e-01
  2.526219e+01    9.451826e-01
  2.529395e+01    9.596704e-01
  2.532570e+01    9.609345e-01
  2.535745e+01    9.891416e-01
  2.538920e+01    9.732127e-01
  2.542095e+01    9.994040e-01
  2.545270e+01    1.038895e+00
  2.548445e+01    1.037132e+00
  2.551620e+01    1.071192e+00
  2.554795e+01    1.104655e+00
  2.557971e+01    1.159927e+00
  2.561146e+01    1.242372e+00
  2.564321e+01    1.325910e+00
  2.567496e+01    1.404213e+00
  2.570671e+01    1.651178e+00
  2.573846e+01    1.890228e+00
  2.577021e+01    2.249585e+00
  2.580196e+01    2.818191e+00
  2.583371e+01    3.669264e+00
  2.586547e+01    4.757038e+00
  2.589722e+01    5.917346e+00
  2.592897e+01    6.833296e+00
  2.596072e+01    7.151396e+00
  2.599247e+01    6.566695e+00
  2.602422e+01    5.278756e+00
  2.605597e+01    3.958907e+00
  2.608772e+01    3.003718e+00
  2.611948e+01    2.351322e+00
  2.615123e+01    1.938941e+00
  2.618298e+01    1.675207e+00
  2.621473e+01    1.485690e+00
  2.624648e+01    1.335316e+00
  2.627823e+01    1.265984e+00
  2.630998e+01    1.190083e+00
  2.634173e+01    1.122311e+00
  2.637348e+01    1.101216e+00
  2.640524e+01    1.028812e+00
  2.643699e+01    1.040208e+00
  2.646874e+01    1.004955e+00
  2.650049e+01    1.018687e+00
  2.653224e+01    1.008609e+00
  2.656399e+01    9.967671e-01
  2.659574e+01    9.772090e-01
  2.662749e+01    9.628474e-01
  2.665924e+01    9.957533e-01
  2.669100e+01    1.005591e+00
  2.672275e+01    9.673384e-01
  2.675450e+01    9.553833e-01
  2.678625e+01    9.867297e-01
  2.681800e+01    9.713611e-01
  2.684975e+01    1.012096e+00
  2.688150e+01    9.833326e-01
  2.691325e+01    9.805242e-01
  2.694501e+01    9.983370e-01
  2.697676e+01    1.061762e+00
  2.700851e+01    1.113393e+00
  2.704026e+01    1.194953e+00
  2.707201e+01    1.290962e+00
  2.710376e+01    1.495338e+00
  2.713551e+01    1.743887e+00
  2.716726e+01    2.014433e+00
  2.719901e+01    2.190940e+00
  2.723077e+01    2.153060e+00
  2.726252e+01    1.951565e+00
  2.729427e+01    1.690838e+00
  2.732602e+01    1.431661e+00
  2.735777e+01    1.296836e+00
  2.738952e+01    1.189099e+00
  2.742127e+01    1.100006e+00
  2.745302e+01    1.050197e+00
  2.748477e+01    1.022520e+00
  2.751653e+01    9.629887e-01
  2.754828e+01    9.343253e-01
  2.758003e+01    9.585232e-01
  2.761178e+01    9.209398e-01
  2.764353e+01    9.053586e-01
  2.767528e+01    9.076463e-01
  2.770703e+01    9.273729e-01
  2.773878e+01    8.931605e-01
  2.777054e+01    9.079444e-01
  2.780229e+01    8.865066e-01
  2.783404e+01    9.025484e-01
  2.786579e+01    8.786958e-01
  2.789754e+01    8.961521e-01
  2.792929e+01    8.866889e-01
  2.796104e+01    8.588024e-01
  2.799279e+01    8.713698e-01
  2.802454e+01    8.479250e-01
  2.805630e+01    8.628364e-01
  2.808805e+01    8.654841e-01
  2.811980e+01    8.542398e-01
  2.815155e+01    8.458941e-01
  2.818330e+01    8.634610e-01
  2.821505e+01    8.586037e-01
  2.824680e+01    8.483324e-01
  2.827855e+01    8.696093e-01
  2.831030e+01    8.601514e-01
  2.834206e+01    8.455682e-01
  2.837381e+01    8.548003e-01
  2.840556e+01    8.294593e-01
  2.843731e+01    8.449211e-01
  2.846906e+01    8.707161e-01
  2.850081e+01    8.339731e-01
  2.853256e+01    8.404674e-01
  2.856431e+01    8.643407e-01
  2.859606e+01    8.488027e-01
  2.862782e+01    8.455883e-01
  2.865957e+01    8.507866e-01
  2.869132e+01    8.430632e-01
  2.872307e+01    8.214156e-01
  2.875482e+01    8.350156e-01
  2.878657e+01    8.210649e-01
  2.881832e+01    8.197507e-01
  2.885007e+01    8.097181e-01
  2.888183e+01    8.164163e-01
  2.891358e+01    8.065372e-01
  2.894533e+01    8.109241e-01
  2.897708e+01    8.047384e-01
  2.900883e+01    8.173317e-01
  2.904058e+01    8.037006e-01
  2.907233e+01    8.070647e-01
  2.910408e+01    7.974815e-01
  2.913583e+01    8.025165e-01
  2.916759e+01    8.030258e-01
  2.919934e+01    8.171631e-01
  2.923109e+01    8.147001e-01
  2.926284e+01    8.029214e-01
  2.929459e+01    8.121042e-01
  2.932634e+01    8.065432e-01
  2.935809e+01    7.908965e-01
  2.938984e+01    7.940596e-01
  2.942159e+01    7.943763e-01
  2.945335e+01    8.337525e-01
  2.948510e+01    8.075945e-01
  2.951685e+01    8.107483e-01
  2.954860e+01    8.023136e-01
  2.958035e+01    8.035091e-01
  2.961210e+01    7.907425e-01
  2.964385e+01    8.035386e-01
  2.967560e+01    7.895775e-01
  2.970736e+01    8.040814e-01
  2.973911e+01    8.193796e-01
  2.977086e+01    8.074595e-01
  2.980261e+01    7.929091e-01
  2.983436e+01    8.080970e-01
  2.986611e+01    7.982579e-01
  2.989786e+01    7.905585e-01
  2.992961e+01    8.109045e-01
  2.996136e+01    8.181280e-01
  2.999312e+01    7.996013e-01
  3.002487e+01    8.314388e-01
  3.005662e+01    8.160608e-01
  3.008837e+01    8.289737e-01
  3.012012e+01    8.033324e-01
  3.015187e+01    7.913755e-01
  3.018362e+01    8.049611e-01
  3.021537e+01    8.004218e-01
  3.024712e+01    7.833321e-01
  3.027888e+01    7.961698e-01
  3.031063e+01    7.814484e-01
  3.034238e+01    7.932895e-01
  3.037413e+01    7.817158e-01
  3.040588e+01    7.692574e-01
  3.043763e+01    7.747621e-01
  3.046938e+01    8.175072e-01
  3.050113e+01    7.838951e-01
  3.053288e+01    8.039467e-01
  3.056464e+01    7.683000e-01
  3.059639e+01    7.942568e-01
  3.062814e+01    7.964247e-01
  3.065989e+01    7.832296e-01
  3.069164e+01    8.034064e-01
  3.072339e+01    8.013970e-01
  3.075514e+01    7.835891e-01
  3.078689e+01    7.653000e-01
  3.081865e+01    7.709333e-01
  3.085040e+01    7.973744e-01
  3.088215e+01    7.964694e-01
  3.091390e+01    7.858777e-01
  3.094565e+01    7.854247e-01
  3.097740e+01    7.793919e-01
  3.100915e+01    7.749499e-01
  3.104090e+01    7.890095e-01
  3.107265e+01    7.926308e-01
  3.110441e+01    7.930123e-01
  3.113616e+01    7.919083e-01
  3.116791e+01    8.198171e-01
  3.119966e+01    7.847209e-01
  3.123141e+01    8.015068e-01
  3.126316e+01    7.924471e-01
  3.129491e+01    7.984654e-01
  3.132666e+01    8.006967e-01
  3.135841e+01    8.035024e-01
  3.139017e+01    8.139219e-01
  3.142192e+01    7.771581e-01
  3.145367e+01    8.121393e-01
  3.148542e+01    8.057284e-01
  3.151717e+01    8.448523e-01
  3.154892e+01    8.228423e-01
  3.158067e+01    8.640712e-01
  3.161242e+01    8.801130e-01
  3.164418e+01    9.233994e-01
  3.167593e+01    9.766563e-01
  3.170768e+01    1.034425e+00
  3.173943e+01    1.127626e+00
  3.177118e+01    1.247937e+00
  3.180293e+01    1.472907e+00
  3.183468e+01    1.735191e+00
  3.186643e+01    1.937469e+00
  3.189818e+01    2.101832e+00
  3.192994e+01    2.095343e+00
  3.196169e+01    1.817636e+00
  3.199344e+01    1.567367e+00
  3.202519e+01    1.326955e+00
  3.205694e+01    1.169753e+00
  3.208869e+01    1.046162e+00
  3.212044e+01    9.461550e-01
  3.215219e+01    9.169596e-01
  3.218394e+01    8.737066e-01
  3.221570e+01    8.351724e-01
  3.224745e+01    8.587633e-01
  3.227920e+01    7.773600e-01
  3.231095e+01    8.084439e-01
  3.234270e+01    7.956093e-01
  3.237445e+01    7.779725e-01
  3.240620e+01    7.945479e-01
  3.243795e+01    7.995042e-01
  3.246970e+01    8.074381e-01
  3.250146e+01    8.054679e-01
  3.253321e+01    7.895391e-01
  3.254908e+01    7.895463e-01