File: XRD/Reaction conditions/2024-07-27_003_Ru-CGO-ex_Reaction_dwell_000023_data_000107.dat
# == pyFAI calibration ==
# Distance Sample to Detector: 0.4 m
# PONI: 9.750e-02, 1.135e-01 m
# Rotations: -0.000175 0.000000 -0.000000 rad
#
# == Fit2d calibration ==
# Distance Sample-beamCenter: 400.000 mm
# Center: x=1514.000, y=1300.000 pix
# Tilt: 0.010 deg  TiltPlanRot: 0.010 deg
#
# Detector Detector	 Spline= None	 PixelSize= 7.500e-05, 7.500e-05 m
#    Detector has a mask: False
#    Detector has a dark current: False
#    detector has a flat field: False
#
# Wavelength: 6.888e-11 m
# Mask applied: user provided
# Dark current applied: False
# Flat field applied: False
# Polarization factor: 0.99
# Normalization factor: 1.0
# --> /home/myspot/data/2024_07_Rosario/Ru-CGO-ex/2024-07-27_003_Ru-CGO-ex_Reaction_dwell_000023_data_000107.dat
#       q_nm^-1             I
  2.003187e-02    0.000000e+00
  5.178302e-02    0.000000e+00
  8.353417e-02    2.284011e-01
  1.152853e-01    9.254890e-02
  1.470365e-01    9.037384e-02
  1.787876e-01    6.275775e-02
  2.105388e-01    1.308084e-01
  2.422899e-01    5.632868e-02
  2.740411e-01    5.166668e-02
  3.057922e-01    5.268404e-02
  3.375433e-01    7.351380e-02
  3.692945e-01    5.214862e-02
  4.010456e-01    3.687262e-02
  4.327968e-01    6.663619e-02
  4.645479e-01    3.674290e-02
  4.962991e-01    3.769340e-02
  5.280502e-01    3.282274e-02
  5.598014e-01    5.739176e-02
  5.915525e-01    6.666946e-02
  6.233037e-01    5.793632e-02
  6.550548e-01    4.807414e-02
  6.868060e-01    6.341021e-02
  7.185571e-01    6.201689e-02
  7.503083e-01    3.394798e-02
  7.820594e-01    1.017290e-01
  8.138106e-01    2.208693e-01
  8.455617e-01    2.690791e-01
  8.773129e-01    5.274014e-01
  9.090640e-01    6.511860e-01
  9.408152e-01    7.080927e-01
  9.725663e-01    9.834761e-01
  1.004317e+00    1.213183e+00
  1.036069e+00    1.416136e+00
  1.067820e+00    1.429513e+00
  1.099571e+00    1.511289e+00
  1.131322e+00    1.727114e+00
  1.163073e+00    1.615476e+00
  1.194824e+00    1.867335e+00
  1.226575e+00    2.173360e+00
  1.258327e+00    2.548627e+00
  1.290078e+00    2.693011e+00
  1.321829e+00    2.677096e+00
  1.353580e+00    2.857138e+00
  1.385331e+00    2.820053e+00
  1.417082e+00    2.991161e+00
  1.448834e+00    3.021395e+00
  1.480585e+00    3.067147e+00
  1.512336e+00    3.206986e+00
  1.544087e+00    3.316866e+00
  1.575838e+00    3.115085e+00
  1.607589e+00    2.992599e+00
  1.639340e+00    3.212535e+00
  1.671092e+00    3.103409e+00
  1.702843e+00    3.006156e+00
  1.734594e+00    3.132653e+00
  1.766345e+00    3.250686e+00
  1.798096e+00    3.258877e+00
  1.829847e+00    3.089899e+00
  1.861598e+00    3.288533e+00
  1.893350e+00    3.060965e+00
  1.925101e+00    3.028418e+00
  1.956852e+00    3.048407e+00
  1.988603e+00    3.066725e+00
  2.020354e+00    3.003395e+00
  2.052105e+00    3.126467e+00
  2.083856e+00    3.097028e+00
  2.115608e+00    3.096323e+00
  2.147359e+00    3.109012e+00
  2.179110e+00    2.993194e+00
  2.210861e+00    3.116617e+00
  2.242612e+00    3.240830e+00
  2.274363e+00    2.944936e+00
  2.306115e+00    3.043842e+00
  2.337866e+00    3.065793e+00
  2.369617e+00    3.034534e+00
  2.401368e+00    3.055870e+00
  2.433119e+00    3.220413e+00
  2.464870e+00    3.132624e+00
  2.496621e+00    3.333055e+00
  2.528373e+00    3.346934e+00
  2.560124e+00    3.260421e+00
  2.591875e+00    3.292387e+00
  2.623626e+00    3.100518e+00
  2.655377e+00    3.200227e+00
  2.687128e+00    3.246794e+00
  2.718879e+00    3.362178e+00
  2.750631e+00    3.391647e+00
  2.782382e+00    3.245365e+00
  2.814133e+00    3.399594e+00
  2.845884e+00    3.408897e+00
  2.877635e+00    3.247095e+00
  2.909386e+00    3.265310e+00
  2.941137e+00    3.341059e+00
  2.972889e+00    3.385844e+00
  3.004640e+00    3.379353e+00
  3.036391e+00    3.320394e+00
  3.068142e+00    3.407582e+00
  3.099893e+00    3.430408e+00
  3.131644e+00    3.430966e+00
  3.163395e+00    3.320037e+00
  3.195147e+00    3.449787e+00
  3.226898e+00    3.447124e+00
  3.258649e+00    3.368521e+00
  3.290400e+00    3.403290e+00
  3.322151e+00    3.398618e+00
  3.353902e+00    3.450882e+00
  3.385654e+00    3.542983e+00
  3.417405e+00    3.474408e+00
  3.449156e+00    3.445416e+00
  3.480907e+00    3.481568e+00
  3.512658e+00    3.424791e+00
  3.544409e+00    3.546805e+00
  3.576160e+00    3.515728e+00
  3.607912e+00    3.419836e+00
  3.639663e+00    3.493901e+00
  3.671414e+00    3.564572e+00
  3.703165e+00    3.416121e+00
  3.734916e+00    3.413715e+00
  3.766667e+00    3.518119e+00
  3.798418e+00    3.485386e+00
  3.830170e+00    3.560358e+00
  3.861921e+00    3.518971e+00
  3.893672e+00    3.579093e+00
  3.925423e+00    3.583422e+00
  3.957174e+00    3.517882e+00
  3.988925e+00    3.508101e+00
  4.020676e+00    3.532333e+00
  4.052428e+00    3.604336e+00
  4.084179e+00    3.579790e+00
  4.115930e+00    3.537813e+00
  4.147681e+00    3.500460e+00
  4.179432e+00    3.681443e+00
  4.211183e+00    3.565184e+00
  4.242935e+00    3.552671e+00
  4.274686e+00    3.537645e+00
  4.306437e+00    3.547011e+00
  4.338188e+00    3.562479e+00
  4.369939e+00    3.564552e+00
  4.401690e+00    3.628307e+00
  4.433441e+00    3.660319e+00
  4.465193e+00    3.654996e+00
  4.496944e+00    3.609014e+00
  4.528695e+00    3.599553e+00
  4.560446e+00    3.606467e+00
  4.592197e+00    3.620302e+00
  4.623948e+00    3.666528e+00
  4.655699e+00    3.613094e+00
  4.687451e+00    3.612938e+00
  4.719202e+00    3.622469e+00
  4.750953e+00    3.682008e+00
  4.782704e+00    3.717852e+00
  4.814455e+00    3.586419e+00
  4.846206e+00    3.641995e+00
  4.877957e+00    3.636704e+00
  4.909709e+00    3.724458e+00
  4.941460e+00    3.671418e+00
  4.973211e+00    3.646973e+00
  5.004962e+00    3.681773e+00
  5.036713e+00    3.654604e+00
  5.068464e+00    3.734325e+00
  5.100216e+00    3.713869e+00
  5.131967e+00    3.722087e+00
  5.163718e+00    3.723276e+00
  5.195469e+00    3.681197e+00
  5.227220e+00    3.665205e+00
  5.258971e+00    3.662681e+00
  5.290722e+00    3.604197e+00
  5.322474e+00    3.679382e+00
  5.354225e+00    3.639667e+00
  5.385976e+00    3.683720e+00
  5.417727e+00    3.649988e+00
  5.449478e+00    3.625157e+00
  5.481229e+00    3.652186e+00
  5.512980e+00    3.711771e+00
  5.544732e+00    3.645434e+00
  5.576483e+00    3.561025e+00
  5.608234e+00    3.578031e+00
  5.639985e+00    3.633253e+00
  5.671736e+00    3.641555e+00
  5.703487e+00    3.651463e+00
  5.735238e+00    3.571066e+00
  5.766990e+00    3.588199e+00
  5.798741e+00    3.575883e+00
  5.830492e+00    3.580349e+00
  5.862243e+00    3.561804e+00
  5.893994e+00    3.581305e+00
  5.925745e+00    3.550372e+00
  5.957497e+00    3.590223e+00
  5.989248e+00    3.598228e+00
  6.020999e+00    3.525511e+00
  6.052750e+00    3.660105e+00
  6.084501e+00    3.592674e+00
  6.116252e+00    3.613956e+00
  6.148003e+00    3.600441e+00
  6.179755e+00    3.646346e+00
  6.211506e+00    3.620997e+00
  6.243257e+00    3.517346e+00
  6.275008e+00    3.670496e+00
  6.306759e+00    3.619124e+00
  6.338510e+00    3.606719e+00
  6.370261e+00    3.524044e+00
  6.402013e+00    3.556716e+00
  6.433764e+00    3.651757e+00
  6.465515e+00    3.608183e+00
  6.497266e+00    3.615224e+00
  6.529017e+00    3.544665e+00
  6.560768e+00    3.516964e+00
  6.592519e+00    3.569591e+00
  6.624271e+00    3.468322e+00
  6.656022e+00    3.558592e+00
  6.687773e+00    3.545826e+00
  6.719524e+00    3.555229e+00
  6.751275e+00    3.600069e+00
  6.783026e+00    3.627614e+00
  6.814777e+00    3.479433e+00
  6.846529e+00    3.510401e+00
  6.878280e+00    3.549289e+00
  6.910031e+00    3.544308e+00
  6.941782e+00    3.519993e+00
  6.973533e+00    3.574139e+00
  7.005284e+00    3.557361e+00
  7.037036e+00    3.527878e+00
  7.068787e+00    3.635187e+00
  7.100538e+00    3.571505e+00
  7.132289e+00    3.524814e+00
  7.164040e+00    3.588086e+00
  7.195791e+00    3.540907e+00
  7.227542e+00    3.556845e+00
  7.259294e+00    3.484977e+00
  7.291045e+00    3.539370e+00
  7.322796e+00    3.529039e+00
  7.354547e+00    3.529100e+00
  7.386298e+00    3.424053e+00
  7.418049e+00    3.532883e+00
  7.449800e+00    3.492016e+00
  7.481552e+00    3.539962e+00
  7.513303e+00    3.513466e+00
  7.545054e+00    3.557288e+00
  7.576805e+00    3.491186e+00
  7.608556e+00    3.454809e+00
  7.640307e+00    3.464583e+00
  7.672058e+00    3.515296e+00
  7.703810e+00    3.477010e+00
  7.735561e+00    3.518485e+00
  7.767312e+00    3.448799e+00
  7.799063e+00    3.397668e+00
  7.830814e+00    3.478302e+00
  7.862565e+00    3.394674e+00
  7.894317e+00    3.407735e+00
  7.926068e+00    3.451410e+00
  7.957819e+00    3.446309e+00
  7.989570e+00    3.427083e+00
  8.021321e+00    3.464112e+00
  8.053072e+00    3.418334e+00
  8.084823e+00    3.445595e+00
  8.116575e+00    3.430095e+00
  8.148326e+00    3.516324e+00
  8.180077e+00    3.432218e+00
  8.211828e+00    3.505218e+00
  8.243579e+00    3.486830e+00
  8.275330e+00    3.439245e+00
  8.307081e+00    3.499011e+00
  8.338833e+00    3.372451e+00
  8.370584e+00    3.438347e+00
  8.402335e+00    3.346491e+00
  8.434086e+00    3.400016e+00
  8.465837e+00    3.381788e+00
  8.497588e+00    3.421833e+00
  8.529339e+00    3.372935e+00
  8.561091e+00    3.433211e+00
  8.592842e+00    3.366839e+00
  8.624593e+00    3.357120e+00
  8.656344e+00    3.337178e+00
  8.688095e+00    3.358901e+00
  8.719846e+00    3.320533e+00
  8.751598e+00    3.339025e+00
  8.783349e+00    3.266461e+00
  8.815100e+00    3.364993e+00
  8.846851e+00    3.328786e+00
  8.878602e+00    3.273625e+00
  8.910353e+00    3.295769e+00
  8.942104e+00    3.278636e+00
  8.973856e+00    3.329799e+00
  9.005607e+00    3.343185e+00
  9.037358e+00    3.259518e+00
  9.069109e+00    3.311288e+00
  9.100860e+00    3.301096e+00
  9.132611e+00    3.304501e+00
  9.164362e+00    3.326147e+00
  9.196114e+00    3.233827e+00
  9.227865e+00    3.242405e+00
  9.259616e+00    3.216833e+00
  9.291367e+00    3.292765e+00
  9.323118e+00    3.279531e+00
  9.354869e+00    3.215739e+00
  9.386620e+00    3.264735e+00
  9.418372e+00    3.164931e+00
  9.450123e+00    3.263662e+00
  9.481874e+00    3.266826e+00
  9.513625e+00    3.203411e+00
  9.545376e+00    3.368898e+00
  9.577127e+00    3.228259e+00
  9.608878e+00    3.285877e+00
  9.640630e+00    3.185304e+00
  9.672381e+00    3.169568e+00
  9.704132e+00    3.142843e+00
  9.735883e+00    3.145166e+00
  9.767634e+00    3.229515e+00
  9.799385e+00    3.211845e+00
  9.831137e+00    3.151934e+00
  9.862888e+00    3.150289e+00
  9.894639e+00    3.138832e+00
  9.926390e+00    3.201066e+00
  9.958141e+00    3.161628e+00
  9.989892e+00    3.139107e+00
  1.002164e+01    3.166448e+00
  1.005339e+01    3.108110e+00
  1.008515e+01    3.079943e+00
  1.011690e+01    3.080423e+00
  1.014865e+01    3.176976e+00
  1.018040e+01    3.101966e+00
  1.021215e+01    3.056875e+00
  1.024390e+01    3.045809e+00
  1.027565e+01    3.058046e+00
  1.030740e+01    3.108241e+00
  1.033915e+01    3.077963e+00
  1.037091e+01    3.119364e+00
  1.040266e+01    3.105841e+00
  1.043441e+01    3.106853e+00
  1.046616e+01    3.082515e+00
  1.049791e+01    3.047480e+00
  1.052966e+01    3.005028e+00
  1.056141e+01    2.987083e+00
  1.059316e+01    3.046046e+00
  1.062492e+01    3.035896e+00
  1.065667e+01    3.004943e+00
  1.068842e+01    3.070678e+00
  1.072017e+01    2.998609e+00
  1.075192e+01    2.954473e+00
  1.078367e+01    2.955918e+00
  1.081542e+01    2.961715e+00
  1.084717e+01    2.929779e+00
  1.087892e+01    2.959733e+00
  1.091068e+01    2.937262e+00
  1.094243e+01    2.920167e+00
  1.097418e+01    2.952030e+00
  1.100593e+01    2.897038e+00
  1.103768e+01    2.877263e+00
  1.106943e+01    2.888443e+00
  1.110118e+01    2.882996e+00
  1.113293e+01    2.918083e+00
  1.116468e+01    2.853426e+00
  1.119644e+01    2.876894e+00
  1.122819e+01    2.875138e+00
  1.125994e+01    2.825593e+00
  1.129169e+01    2.911182e+00
  1.132344e+01    2.847690e+00
  1.135519e+01    2.820960e+00
  1.138694e+01    2.847025e+00
  1.141869e+01    2.826840e+00
  1.145045e+01    2.817224e+00
  1.148220e+01    2.867491e+00
  1.151395e+01    2.838828e+00
  1.154570e+01    2.817905e+00
  1.157745e+01    2.780475e+00
  1.160920e+01    2.781464e+00
  1.164095e+01    2.755828e+00
  1.167270e+01    2.765594e+00
  1.170445e+01    2.763050e+00
  1.173621e+01    2.730325e+00
  1.176796e+01    2.727459e+00
  1.179971e+01    2.698842e+00
  1.183146e+01    2.752407e+00
  1.186321e+01    2.715954e+00
  1.189496e+01    2.741209e+00
  1.192671e+01    2.743571e+00
  1.195846e+01    2.756166e+00
  1.199021e+01    2.747457e+00
  1.202197e+01    2.727364e+00
  1.205372e+01    2.771555e+00
  1.208547e+01    2.704994e+00
  1.211722e+01    2.736666e+00
  1.214897e+01    2.720908e+00
  1.218072e+01    2.682305e+00
  1.221247e+01    2.706234e+00
  1.224422e+01    2.677766e+00
  1.227597e+01    2.746854e+00
  1.230773e+01    2.662797e+00
  1.233948e+01    2.704702e+00
  1.237123e+01    2.674873e+00
  1.240298e+01    2.724657e+00
  1.243473e+01    2.705411e+00
  1.246648e+01    2.721680e+00
  1.249823e+01    2.755686e+00
  1.252998e+01    2.714475e+00
  1.256174e+01    2.683824e+00
  1.259349e+01    2.765562e+00
  1.262524e+01    2.781874e+00
  1.265699e+01    2.755853e+00
  1.268874e+01    2.859825e+00
  1.272049e+01    2.872603e+00
  1.275224e+01    2.885909e+00
  1.278399e+01    2.993615e+00
  1.281574e+01    3.104273e+00
  1.284750e+01    3.224468e+00
  1.287925e+01    3.378558e+00
  1.291100e+01    3.709777e+00
  1.294275e+01    4.084953e+00
  1.297450e+01    4.839270e+00
  1.300625e+01    5.875040e+00
  1.303800e+01    7.661368e+00
  1.306975e+01    1.024321e+01
  1.310150e+01    1.275264e+01
  1.313326e+01    1.480097e+01
  1.316501e+01    1.630141e+01
  1.319676e+01    1.589507e+01
  1.322851e+01    1.263773e+01
  1.326026e+01    9.136549e+00
  1.329201e+01    6.792212e+00
  1.332376e+01    5.366161e+00
  1.335551e+01    4.464408e+00
  1.338727e+01    3.825379e+00
  1.341902e+01    3.544627e+00
  1.345077e+01    3.231095e+00
  1.348252e+01    3.024669e+00
  1.351427e+01    2.949076e+00
  1.354602e+01    2.901775e+00
  1.357777e+01    2.770232e+00
  1.360952e+01    2.688003e+00
  1.364127e+01    2.664403e+00
  1.367303e+01    2.620953e+00
  1.370478e+01    2.579032e+00
  1.373653e+01    2.563328e+00
  1.376828e+01    2.514456e+00
  1.380003e+01    2.445309e+00
  1.383178e+01    2.448660e+00
  1.386353e+01    2.445061e+00
  1.389528e+01    2.429002e+00
  1.392703e+01    2.441712e+00
  1.395879e+01    2.389558e+00
  1.399054e+01    2.424913e+00
  1.402229e+01    2.366489e+00
  1.405404e+01    2.372272e+00
  1.408579e+01    2.352136e+00
  1.411754e+01    2.293725e+00
  1.414929e+01    2.342582e+00
  1.418104e+01    2.326924e+00
  1.421279e+01    2.313905e+00
  1.424455e+01    2.266498e+00
  1.427630e+01    2.265468e+00
  1.430805e+01    2.278097e+00
  1.433980e+01    2.265097e+00
  1.437155e+01    2.243927e+00
  1.440330e+01    2.252258e+00
  1.443505e+01    2.279608e+00
  1.446680e+01    2.268681e+00
  1.449856e+01    2.273693e+00
  1.453031e+01    2.253807e+00
  1.456206e+01    2.215208e+00
  1.459381e+01    2.225292e+00
  1.462556e+01    2.223462e+00
  1.465731e+01    2.215877e+00
  1.468906e+01    2.220131e+00
  1.472081e+01    2.212743e+00
  1.475256e+01    2.196246e+00
  1.478432e+01    2.221997e+00
  1.481607e+01    2.167961e+00
  1.484782e+01    2.233677e+00
  1.487957e+01    2.239601e+00
  1.491132e+01    2.257895e+00
  1.494307e+01    2.261739e+00
  1.497482e+01    2.380269e+00
  1.500657e+01    2.484808e+00
  1.503832e+01    2.623891e+00
  1.507008e+01    2.797576e+00
  1.510183e+01    3.223283e+00
  1.513358e+01    3.808751e+00
  1.516533e+01    4.531845e+00
  1.519708e+01    5.197947e+00
  1.522883e+01    5.716415e+00
  1.526058e+01    5.822007e+00
  1.529233e+01    5.518872e+00
  1.532409e+01    4.692962e+00
  1.535584e+01    3.757794e+00
  1.538759e+01    3.146754e+00
  1.541934e+01    2.788946e+00
  1.545109e+01    2.558310e+00
  1.548284e+01    2.381020e+00
  1.551459e+01    2.268322e+00
  1.554634e+01    2.202312e+00
  1.557809e+01    2.176695e+00
  1.560985e+01    2.058564e+00
  1.564160e+01    2.054329e+00
  1.567335e+01    2.031626e+00
  1.570510e+01    1.965879e+00
  1.573685e+01    1.965038e+00
  1.576860e+01    1.965073e+00
  1.580035e+01    1.921569e+00
  1.583210e+01    1.933264e+00
  1.586385e+01    1.926447e+00
  1.589561e+01    1.861161e+00
  1.592736e+01    1.916926e+00
  1.595911e+01    1.883713e+00
  1.599086e+01    1.867245e+00
  1.602261e+01    1.885609e+00
  1.605436e+01    1.892535e+00
  1.608611e+01    1.877470e+00
  1.611786e+01    1.826603e+00
  1.614961e+01    1.833226e+00
  1.618137e+01    1.874230e+00
  1.621312e+01    1.834808e+00
  1.624487e+01    1.840247e+00
  1.627662e+01    1.795611e+00
  1.630837e+01    1.803386e+00
  1.634012e+01    1.826032e+00
  1.637187e+01    1.810775e+00
  1.640362e+01    1.792634e+00
  1.643538e+01    1.800611e+00
  1.646713e+01    1.756858e+00
  1.649888e+01    1.798049e+00
  1.653063e+01    1.759783e+00
  1.656238e+01    1.744019e+00
  1.659413e+01    1.771561e+00
  1.662588e+01    1.728297e+00
  1.665763e+01    1.754886e+00
  1.668938e+01    1.759832e+00
  1.672114e+01    1.678885e+00
  1.675289e+01    1.726091e+00
  1.678464e+01    1.743836e+00
  1.681639e+01    1.690153e+00
  1.684814e+01    1.723787e+00
  1.687989e+01    1.714596e+00
  1.691164e+01    1.732130e+00
  1.694339e+01    1.647961e+00
  1.697514e+01    1.681920e+00
  1.700690e+01    1.690607e+00
  1.703865e+01    1.674794e+00
  1.707040e+01    1.660250e+00
  1.710215e+01    1.672831e+00
  1.713390e+01    1.689572e+00
  1.716565e+01    1.636017e+00
  1.719740e+01    1.641923e+00
  1.722915e+01    1.618697e+00
  1.726091e+01    1.627431e+00
  1.729266e+01    1.618533e+00
  1.732441e+01    1.651160e+00
  1.735616e+01    1.650151e+00
  1.738791e+01    1.568192e+00
  1.741966e+01    1.588573e+00
  1.745141e+01    1.625064e+00
  1.748316e+01    1.625560e+00
  1.751491e+01    1.584460e+00
  1.754667e+01    1.564963e+00
  1.757842e+01    1.609783e+00
  1.761017e+01    1.567851e+00
  1.764192e+01    1.572122e+00
  1.767367e+01    1.551806e+00
  1.770542e+01    1.570420e+00
  1.773717e+01    1.563803e+00
  1.776892e+01    1.560366e+00
  1.780067e+01    1.570965e+00
  1.783243e+01    1.589965e+00
  1.786418e+01    1.520533e+00
  1.789593e+01    1.557389e+00
  1.792768e+01    1.557475e+00
  1.795943e+01    1.520046e+00
  1.799118e+01    1.512792e+00
  1.802293e+01    1.500561e+00
  1.805468e+01    1.512386e+00
  1.808643e+01    1.501249e+00
  1.811819e+01    1.539130e+00
  1.814994e+01    1.485724e+00
  1.818169e+01    1.485201e+00
  1.821344e+01    1.473884e+00
  1.824519e+01    1.445890e+00
  1.827694e+01    1.472358e+00
  1.830869e+01    1.474524e+00
  1.834044e+01    1.481284e+00
  1.837220e+01    1.460330e+00
  1.840395e+01    1.453542e+00
  1.843570e+01    1.449247e+00
  1.846745e+01    1.452189e+00
  1.849920e+01    1.450502e+00
  1.853095e+01    1.435108e+00
  1.856270e+01    1.463726e+00
  1.859445e+01    1.474934e+00
  1.862620e+01    1.423403e+00
  1.865796e+01    1.424606e+00
  1.868971e+01    1.416736e+00
  1.872146e+01    1.439181e+00
  1.875321e+01    1.433308e+00
  1.878496e+01    1.419720e+00
  1.881671e+01    1.418265e+00
  1.884846e+01    1.419118e+00
  1.888021e+01    1.391476e+00
  1.891196e+01    1.401603e+00
  1.894372e+01    1.400753e+00
  1.897547e+01    1.376273e+00
  1.900722e+01    1.416172e+00
  1.903897e+01    1.393201e+00
  1.907072e+01    1.381129e+00
  1.910247e+01    1.360172e+00
  1.913422e+01    1.388671e+00
  1.916597e+01    1.375524e+00
  1.919773e+01    1.358612e+00
  1.922948e+01    1.418014e+00
  1.926123e+01    1.361825e+00
  1.929298e+01    1.353673e+00
  1.932473e+01    1.377408e+00
  1.935648e+01    1.366492e+00
  1.938823e+01    1.326602e+00
  1.941998e+01    1.334313e+00
  1.945173e+01    1.344794e+00
  1.948349e+01    1.348149e+00
  1.951524e+01    1.328199e+00
  1.954699e+01    1.328549e+00
  1.957874e+01    1.346834e+00
  1.961049e+01    1.319069e+00
  1.964224e+01    1.340013e+00
  1.967399e+01    1.322547e+00
  1.970574e+01    1.319631e+00
  1.973749e+01    1.324019e+00
  1.976925e+01    1.317944e+00
  1.980100e+01    1.312504e+00
  1.983275e+01    1.330453e+00
  1.986450e+01    1.271149e+00
  1.989625e+01    1.302687e+00
  1.992800e+01    1.296680e+00
  1.995975e+01    1.264032e+00
  1.999150e+01    1.296327e+00
  2.002325e+01    1.270333e+00
  2.005501e+01    1.305500e+00
  2.008676e+01    1.271707e+00
  2.011851e+01    1.301317e+00
  2.015026e+01    1.271225e+00
  2.018201e+01    1.259835e+00
  2.021376e+01    1.284076e+00
  2.024551e+01    1.277778e+00
  2.027726e+01    1.273596e+00
  2.030902e+01    1.269321e+00
  2.034077e+01    1.284590e+00
  2.037252e+01    1.245779e+00
  2.040427e+01    1.259606e+00
  2.043602e+01    1.240756e+00
  2.046777e+01    1.259820e+00
  2.049952e+01    1.257969e+00
  2.053127e+01    1.249591e+00
  2.056302e+01    1.236265e+00
  2.059478e+01    1.205726e+00
  2.062653e+01    1.266625e+00
  2.065828e+01    1.254091e+00
  2.069003e+01    1.236884e+00
  2.072178e+01    1.239456e+00
  2.075353e+01    1.241128e+00
  2.078528e+01    1.247030e+00
  2.081703e+01    1.237454e+00
  2.084878e+01    1.238747e+00
  2.088054e+01    1.220332e+00
  2.091229e+01    1.238623e+00
  2.094404e+01    1.194532e+00
  2.097579e+01    1.226836e+00
  2.100754e+01    1.237724e+00
  2.103929e+01    1.220780e+00
  2.107104e+01    1.243448e+00
  2.110279e+01    1.244596e+00
  2.113455e+01    1.231636e+00
  2.116630e+01    1.247080e+00
  2.119805e+01    1.221253e+00
  2.122980e+01    1.227037e+00
  2.126155e+01    1.239934e+00
  2.129330e+01    1.266521e+00
  2.132505e+01    1.279481e+00
  2.135680e+01    1.294778e+00
  2.138855e+01    1.293176e+00
  2.142031e+01    1.366047e+00
  2.145206e+01    1.345994e+00
  2.148381e+01    1.411321e+00
  2.151556e+01    1.471430e+00
  2.154731e+01    1.548373e+00
  2.157906e+01    1.619431e+00
  2.161081e+01    1.766481e+00
  2.164256e+01    1.987799e+00
  2.167431e+01    2.250147e+00
  2.170607e+01    2.785369e+00
  2.173782e+01    3.588511e+00
  2.176957e+01    4.640176e+00
  2.180132e+01    5.901527e+00
  2.183307e+01    7.221118e+00
  2.186482e+01    8.457196e+00
  2.189657e+01    9.026316e+00
  2.192832e+01    8.367212e+00
  2.196007e+01    6.632759e+00
  2.199183e+01    4.910530e+00
  2.202358e+01    3.607839e+00
  2.205533e+01    2.876543e+00
  2.208708e+01    2.339112e+00
  2.211883e+01    2.008457e+00
  2.215058e+01    1.769512e+00
  2.218233e+01    1.654891e+00
  2.221408e+01    1.499431e+00
  2.224584e+01    1.421027e+00
  2.227759e+01    1.359841e+00
  2.230934e+01    1.304313e+00
  2.234109e+01    1.277300e+00
  2.237284e+01    1.265335e+00
  2.240459e+01    1.225108e+00
  2.243634e+01    1.180475e+00
  2.246809e+01    1.166086e+00
  2.249984e+01    1.157203e+00
  2.253160e+01    1.155318e+00
  2.256335e+01    1.116143e+00
  2.259510e+01    1.118418e+00
  2.262685e+01    1.117145e+00
  2.265860e+01    1.092690e+00
  2.269035e+01    1.078310e+00
  2.272210e+01    1.085686e+00
  2.275385e+01    1.052622e+00
  2.278560e+01    1.053428e+00
  2.281736e+01    1.062344e+00
  2.284911e+01    1.042838e+00
  2.288086e+01    1.066282e+00
  2.291261e+01    1.028718e+00
  2.294436e+01    1.024094e+00
  2.297611e+01    1.049294e+00
  2.300786e+01    1.041486e+00
  2.303961e+01    1.002125e+00
  2.307137e+01    1.043292e+00
  2.310312e+01    1.004169e+00
  2.313487e+01    1.005409e+00
  2.316662e+01    1.015350e+00
  2.319837e+01    9.805202e-01
  2.323012e+01    9.861320e-01
  2.326187e+01    9.937884e-01
  2.329362e+01    1.007304e+00
  2.332537e+01    1.021470e+00
  2.335713e+01    1.005148e+00
  2.338888e+01    9.756488e-01
  2.342063e+01    9.732726e-01
  2.345238e+01    9.648961e-01
  2.348413e+01    1.003147e+00
  2.351588e+01    1.001625e+00
  2.354763e+01    9.503679e-01
  2.357938e+01    9.648204e-01
  2.361113e+01    9.817469e-01
  2.364289e+01    9.846816e-01
  2.367464e+01    9.677940e-01
  2.370639e+01    9.156144e-01
  2.373814e+01    9.309179e-01
  2.376989e+01    9.232393e-01
  2.380164e+01    9.136489e-01
  2.383339e+01    9.219224e-01
  2.386514e+01    9.140894e-01
  2.389689e+01    9.088817e-01
  2.392865e+01    9.349618e-01
  2.396040e+01    8.887146e-01
  2.399215e+01    9.039729e-01
  2.402390e+01    9.080638e-01
  2.405565e+01    9.147191e-01
  2.408740e+01    9.072656e-01
  2.411915e+01    9.113446e-01
  2.415090e+01    8.831622e-01
  2.418266e+01    8.708785e-01
  2.421441e+01    8.891024e-01
  2.424616e+01    8.662643e-01
  2.427791e+01    8.777093e-01
  2.430966e+01    8.913224e-01
  2.434141e+01    8.992592e-01
  2.437316e+01    8.900931e-01
  2.440491e+01    9.044788e-01
  2.443666e+01    8.845672e-01
  2.446842e+01    8.945126e-01
  2.450017e+01    8.900357e-01
  2.453192e+01    8.776887e-01
  2.456367e+01    8.963836e-01
  2.459542e+01    8.893151e-01
  2.462717e+01    8.976402e-01
  2.465892e+01    8.892618e-01
  2.469067e+01    9.116465e-01
  2.472242e+01    9.059973e-01
  2.475418e+01    8.964532e-01
  2.478593e+01    9.073825e-01
  2.481768e+01    8.936846e-01
  2.484943e+01    9.022165e-01
  2.488118e+01    8.973436e-01
  2.491293e+01    8.995457e-01
  2.494468e+01    9.323643e-01
  2.497643e+01    8.887584e-01
  2.500819e+01    9.100903e-01
  2.503994e+01    9.000294e-01
  2.507169e+01    9.108142e-01
  2.510344e+01    8.983038e-01
  2.513519e+01    9.063858e-01
  2.516694e+01    9.135602e-01
  2.519869e+01    9.041733e-01
  2.523044e+01    9.383227e-01
  2.526219e+01    9.553390e-01
  2.529395e+01    9.422984e-01
  2.532570e+01    9.496108e-01
  2.535745e+01    9.924188e-01
  2.538920e+01    9.745454e-01
  2.542095e+01    1.003308e+00
  2.545270e+01    1.018043e+00
  2.548445e+01    1.033955e+00
  2.551620e+01    1.067772e+00
  2.554795e+01    1.115514e+00
  2.557971e+01    1.168413e+00
  2.561146e+01    1.231080e+00
  2.564321e+01    1.283905e+00
  2.567496e+01    1.418533e+00
  2.570671e+01    1.608044e+00
  2.573846e+01    1.857453e+00
  2.577021e+01    2.249965e+00
  2.580196e+01    2.798783e+00
  2.583371e+01    3.614733e+00
  2.586547e+01    4.746362e+00
  2.589722e+01    5.852954e+00
  2.592897e+01    6.833167e+00
  2.596072e+01    7.169637e+00
  2.599247e+01    6.596202e+00
  2.602422e+01    5.344470e+00
  2.605597e+01    4.029188e+00
  2.608772e+01    3.004545e+00
  2.611948e+01    2.331081e+00
  2.615123e+01    1.963774e+00
  2.618298e+01    1.714440e+00
  2.621473e+01    1.508812e+00
  2.624648e+01    1.370973e+00
  2.627823e+01    1.259011e+00
  2.630998e+01    1.176866e+00
  2.634173e+01    1.136226e+00
  2.637348e+01    1.059092e+00
  2.640524e+01    1.043080e+00
  2.643699e+01    1.043322e+00
  2.646874e+01    1.045498e+00
  2.650049e+01    9.945335e-01
  2.653224e+01    9.997048e-01
  2.656399e+01    9.972030e-01
  2.659574e+01    9.929339e-01
  2.662749e+01    9.948607e-01
  2.665924e+01    9.842186e-01
  2.669100e+01    9.575962e-01
  2.672275e+01    9.886604e-01
  2.675450e+01    9.989848e-01
  2.678625e+01    9.883887e-01
  2.681800e+01    9.751729e-01
  2.684975e+01    1.000345e+00
  2.688150e+01    1.008009e+00
  2.691325e+01    1.023063e+00
  2.694501e+01    1.061800e+00
  2.697676e+01    1.065715e+00
  2.700851e+01    1.118798e+00
  2.704026e+01    1.211082e+00
  2.707201e+01    1.288050e+00
  2.710376e+01    1.491005e+00
  2.713551e+01    1.702906e+00
  2.716726e+01    1.966481e+00
  2.719901e+01    2.159652e+00
  2.723077e+01    2.164250e+00
  2.726252e+01    1.995454e+00
  2.729427e+01    1.720124e+00
  2.732602e+01    1.453847e+00
  2.735777e+01    1.281770e+00
  2.738952e+01    1.181929e+00
  2.742127e+01    1.098363e+00
  2.745302e+01    1.044496e+00
  2.748477e+01    9.973608e-01
  2.751653e+01    9.676676e-01
  2.754828e+01    9.355998e-01
  2.758003e+01    9.538774e-01
  2.761178e+01    9.245882e-01
  2.764353e+01    9.365255e-01
  2.767528e+01    9.101424e-01
  2.770703e+01    9.483848e-01
  2.773878e+01    8.953376e-01
  2.777054e+01    8.925810e-01
  2.780229e+01    8.923840e-01
  2.783404e+01    8.892974e-01
  2.786579e+01    8.951919e-01
  2.789754e+01    8.658990e-01
  2.792929e+01    8.482054e-01
  2.796104e+01    8.853223e-01
  2.799279e+01    9.023210e-01
  2.802454e+01    8.866017e-01
  2.805630e+01    8.690655e-01
  2.808805e+01    8.586124e-01
  2.811980e+01    8.640881e-01
  2.815155e+01    8.438700e-01
  2.818330e+01    8.822325e-01
  2.821505e+01    8.533545e-01
  2.824680e+01    8.475345e-01
  2.827855e+01    8.476578e-01
  2.831030e+01    8.739092e-01
  2.834206e+01    8.502364e-01
  2.837381e+01    8.723840e-01
  2.840556e+01    8.546480e-01
  2.843731e+01    8.343287e-01
  2.846906e+01    8.741801e-01
  2.850081e+01    8.451103e-01
  2.853256e+01    8.465164e-01
  2.856431e+01    8.295954e-01
  2.859606e+01    8.336710e-01
  2.862782e+01    8.701808e-01
  2.865957e+01    8.044144e-01
  2.869132e+01    8.328531e-01
  2.872307e+01    8.158582e-01
  2.875482e+01    8.382598e-01
  2.878657e+01    8.301316e-01
  2.881832e+01    8.381913e-01
  2.885007e+01    8.196981e-01
  2.888183e+01    8.160945e-01
  2.891358e+01    8.162695e-01
  2.894533e+01    8.321964e-01
  2.897708e+01    8.448968e-01
  2.900883e+01    8.057946e-01
  2.904058e+01    8.138434e-01
  2.907233e+01    8.337246e-01
  2.910408e+01    8.125983e-01
  2.913583e+01    8.359559e-01
  2.916759e+01    8.007121e-01
  2.919934e+01    8.249550e-01
  2.923109e+01    8.205910e-01
  2.926284e+01    8.098184e-01
  2.929459e+01    8.185871e-01
  2.932634e+01    7.875912e-01
  2.935809e+01    8.238101e-01
  2.938984e+01    8.298426e-01
  2.942159e+01    8.276904e-01
  2.945335e+01    8.093451e-01
  2.948510e+01    8.023843e-01
  2.951685e+01    8.029202e-01
  2.954860e+01    7.834420e-01
  2.958035e+01    8.094993e-01
  2.961210e+01    8.020636e-01
  2.964385e+01    8.310015e-01
  2.967560e+01    8.025202e-01
  2.970736e+01    8.079094e-01
  2.973911e+01    8.027851e-01
  2.977086e+01    8.219079e-01
  2.980261e+01    8.162349e-01
  2.983436e+01    7.965677e-01
  2.986611e+01    8.036920e-01
  2.989786e+01    7.894689e-01
  2.992961e+01    7.985105e-01
  2.996136e+01    7.983997e-01
  2.999312e+01    7.958167e-01
  3.002487e+01    8.187892e-01
  3.005662e+01    8.044109e-01
  3.008837e+01    8.364810e-01
  3.012012e+01    8.102164e-01
  3.015187e+01    7.982151e-01
  3.018362e+01    7.955220e-01
  3.021537e+01    8.016989e-01
  3.024712e+01    7.988252e-01
  3.027888e+01    8.087379e-01
  3.031063e+01    8.101048e-01
  3.034238e+01    7.715279e-01
  3.037413e+01    7.822923e-01
  3.040588e+01    7.915455e-01
  3.043763e+01    8.151608e-01
  3.046938e+01    7.929256e-01
  3.050113e+01    7.779773e-01
  3.053288e+01    7.834876e-01
  3.056464e+01    7.865927e-01
  3.059639e+01    7.853037e-01
  3.062814e+01    7.984506e-01
  3.065989e+01    7.997741e-01
  3.069164e+01    7.669477e-01
  3.072339e+01    7.922562e-01
  3.075514e+01    7.993308e-01
  3.078689e+01    7.954903e-01
  3.081865e+01    7.988015e-01
  3.085040e+01    7.845578e-01
  3.088215e+01    7.802646e-01
  3.091390e+01    7.924054e-01
  3.094565e+01    8.063159e-01
  3.097740e+01    7.883769e-01
  3.100915e+01    7.713853e-01
  3.104090e+01    8.225073e-01
  3.107265e+01    7.883401e-01
  3.110441e+01    7.788067e-01
  3.113616e+01    7.961042e-01
  3.116791e+01    7.847195e-01
  3.119966e+01    7.669981e-01
  3.123141e+01    7.856241e-01
  3.126316e+01    8.025237e-01
  3.129491e+01    8.104216e-01
  3.132666e+01    7.915457e-01
  3.135841e+01    8.101153e-01
  3.139017e+01    8.186265e-01
  3.142192e+01    8.138528e-01
  3.145367e+01    8.151839e-01
  3.148542e+01    8.306852e-01
  3.151717e+01    8.352133e-01
  3.154892e+01    8.536464e-01
  3.158067e+01    8.744726e-01
  3.161242e+01    8.877884e-01
  3.164418e+01    9.447147e-01
  3.167593e+01    9.497099e-01
  3.170768e+01    1.048987e+00
  3.173943e+01    1.130226e+00
  3.177118e+01    1.269175e+00
  3.180293e+01    1.468019e+00
  3.183468e+01    1.719631e+00
  3.186643e+01    1.983983e+00
  3.189818e+01    2.126975e+00
  3.192994e+01    2.049773e+00
  3.196169e+01    1.840204e+00
  3.199344e+01    1.556414e+00
  3.202519e+01    1.311574e+00
  3.205694e+01    1.155416e+00
  3.208869e+01    1.053432e+00
  3.212044e+01    9.489352e-01
  3.215219e+01    9.529919e-01
  3.218394e+01    8.764323e-01
  3.221570e+01    8.756692e-01
  3.224745e+01    8.573153e-01
  3.227920e+01    8.606091e-01
  3.231095e+01    8.166715e-01
  3.234270e+01    7.880631e-01
  3.237445e+01    8.249981e-01
  3.240620e+01    7.766344e-01
  3.243795e+01    7.826290e-01
  3.246970e+01    8.109468e-01
  3.250146e+01    7.952833e-01
  3.253321e+01    7.565885e-01
  3.254908e+01    7.696913e-01