File: XRD/Reaction conditions/2024-07-27_003_Ru-CGO-ex_Reaction_dwell_000023_data_000021.dat
# == pyFAI calibration ==
# Distance Sample to Detector: 0.4 m
# PONI: 9.750e-02, 1.135e-01 m
# Rotations: -0.000175 0.000000 -0.000000 rad
#
# == Fit2d calibration ==
# Distance Sample-beamCenter: 400.000 mm
# Center: x=1514.000, y=1300.000 pix
# Tilt: 0.010 deg  TiltPlanRot: 0.010 deg
#
# Detector Detector	 Spline= None	 PixelSize= 7.500e-05, 7.500e-05 m
#    Detector has a mask: False
#    Detector has a dark current: False
#    detector has a flat field: False
#
# Wavelength: 6.888e-11 m
# Mask applied: user provided
# Dark current applied: False
# Flat field applied: False
# Polarization factor: 0.99
# Normalization factor: 1.0
# --> /home/myspot/data/2024_07_Rosario/Ru-CGO-ex/2024-07-27_003_Ru-CGO-ex_Reaction_dwell_000023_data_000021.dat
#       q_nm^-1             I
  2.003187e-02    0.000000e+00
  5.178302e-02    1.005825e-01
  8.353417e-02    2.629366e-01
  1.152853e-01    3.694987e-02
  1.470365e-01    8.933559e-02
  1.787876e-01    2.384047e-02
  2.105388e-01    3.246967e-02
  2.422899e-01    1.117665e-02
  2.740411e-01    9.173698e-02
  3.057922e-01    5.711841e-02
  3.375433e-01    4.027314e-02
  3.692945e-01    3.571279e-02
  4.010456e-01    6.952637e-02
  4.327968e-01    4.501554e-02
  4.645479e-01    5.027073e-02
  4.962991e-01    2.717724e-02
  5.280502e-01    2.644878e-02
  5.598014e-01    7.135759e-02
  5.915525e-01    7.508262e-02
  6.233037e-01    5.903590e-02
  6.550548e-01    4.153334e-02
  6.868060e-01    4.196272e-02
  7.185571e-01    3.719640e-02
  7.503083e-01    6.336571e-02
  7.820594e-01    9.188819e-02
  8.138106e-01    2.099564e-01
  8.455617e-01    3.374336e-01
  8.773129e-01    5.200786e-01
  9.090640e-01    6.859257e-01
  9.408152e-01    9.557895e-01
  9.725663e-01    9.445052e-01
  1.004317e+00    1.150663e+00
  1.036069e+00    1.311246e+00
  1.067820e+00    1.577374e+00
  1.099571e+00    1.598668e+00
  1.131322e+00    1.596408e+00
  1.163073e+00    1.622436e+00
  1.194824e+00    1.767935e+00
  1.226575e+00    2.184286e+00
  1.258327e+00    2.377201e+00
  1.290078e+00    2.711189e+00
  1.321829e+00    2.841336e+00
  1.353580e+00    2.800839e+00
  1.385331e+00    2.953986e+00
  1.417082e+00    2.824732e+00
  1.448834e+00    3.002309e+00
  1.480585e+00    3.051419e+00
  1.512336e+00    3.237176e+00
  1.544087e+00    3.301643e+00
  1.575838e+00    3.256073e+00
  1.607589e+00    3.221015e+00
  1.639340e+00    3.206956e+00
  1.671092e+00    3.173234e+00
  1.702843e+00    3.028582e+00
  1.734594e+00    3.078370e+00
  1.766345e+00    3.026866e+00
  1.798096e+00    3.018815e+00
  1.829847e+00    2.995129e+00
  1.861598e+00    3.032549e+00
  1.893350e+00    3.056437e+00
  1.925101e+00    3.113607e+00
  1.956852e+00    3.123270e+00
  1.988603e+00    3.034872e+00
  2.020354e+00    3.039786e+00
  2.052105e+00    3.037219e+00
  2.083856e+00    3.144252e+00
  2.115608e+00    3.147763e+00
  2.147359e+00    3.146683e+00
  2.179110e+00    3.076226e+00
  2.210861e+00    3.071547e+00
  2.242612e+00    3.142903e+00
  2.274363e+00    3.048943e+00
  2.306115e+00    3.165011e+00
  2.337866e+00    3.198119e+00
  2.369617e+00    3.151324e+00
  2.401368e+00    3.263062e+00
  2.433119e+00    3.174046e+00
  2.464870e+00    3.187144e+00
  2.496621e+00    3.199576e+00
  2.528373e+00    3.156551e+00
  2.560124e+00    3.216318e+00
  2.591875e+00    3.211637e+00
  2.623626e+00    3.223064e+00
  2.655377e+00    3.267074e+00
  2.687128e+00    3.217304e+00
  2.718879e+00    3.285829e+00
  2.750631e+00    3.294074e+00
  2.782382e+00    3.357766e+00
  2.814133e+00    3.325322e+00
  2.845884e+00    3.337084e+00
  2.877635e+00    3.303463e+00
  2.909386e+00    3.299597e+00
  2.941137e+00    3.417115e+00
  2.972889e+00    3.321848e+00
  3.004640e+00    3.304745e+00
  3.036391e+00    3.287310e+00
  3.068142e+00    3.313234e+00
  3.099893e+00    3.331783e+00
  3.131644e+00    3.329673e+00
  3.163395e+00    3.294766e+00
  3.195147e+00    3.298759e+00
  3.226898e+00    3.324072e+00
  3.258649e+00    3.425694e+00
  3.290400e+00    3.453555e+00
  3.322151e+00    3.528094e+00
  3.353902e+00    3.512572e+00
  3.385654e+00    3.470395e+00
  3.417405e+00    3.442508e+00
  3.449156e+00    3.421251e+00
  3.480907e+00    3.537873e+00
  3.512658e+00    3.459030e+00
  3.544409e+00    3.418618e+00
  3.576160e+00    3.467354e+00
  3.607912e+00    3.532371e+00
  3.639663e+00    3.511246e+00
  3.671414e+00    3.571043e+00
  3.703165e+00    3.617091e+00
  3.734916e+00    3.504037e+00
  3.766667e+00    3.498809e+00
  3.798418e+00    3.511158e+00
  3.830170e+00    3.597470e+00
  3.861921e+00    3.402901e+00
  3.893672e+00    3.594219e+00
  3.925423e+00    3.543647e+00
  3.957174e+00    3.601195e+00
  3.988925e+00    3.613318e+00
  4.020676e+00    3.605787e+00
  4.052428e+00    3.609182e+00
  4.084179e+00    3.494842e+00
  4.115930e+00    3.640534e+00
  4.147681e+00    3.660103e+00
  4.179432e+00    3.526780e+00
  4.211183e+00    3.606396e+00
  4.242935e+00    3.582468e+00
  4.274686e+00    3.588193e+00
  4.306437e+00    3.617974e+00
  4.338188e+00    3.571146e+00
  4.369939e+00    3.595128e+00
  4.401690e+00    3.583616e+00
  4.433441e+00    3.632820e+00
  4.465193e+00    3.710093e+00
  4.496944e+00    3.628635e+00
  4.528695e+00    3.583379e+00
  4.560446e+00    3.620642e+00
  4.592197e+00    3.488284e+00
  4.623948e+00    3.669659e+00
  4.655699e+00    3.597749e+00
  4.687451e+00    3.735330e+00
  4.719202e+00    3.641073e+00
  4.750953e+00    3.579404e+00
  4.782704e+00    3.686797e+00
  4.814455e+00    3.644233e+00
  4.846206e+00    3.713395e+00
  4.877957e+00    3.668232e+00
  4.909709e+00    3.777246e+00
  4.941460e+00    3.702431e+00
  4.973211e+00    3.588475e+00
  5.004962e+00    3.657504e+00
  5.036713e+00    3.770371e+00
  5.068464e+00    3.650738e+00
  5.100216e+00    3.641018e+00
  5.131967e+00    3.697249e+00
  5.163718e+00    3.671877e+00
  5.195469e+00    3.683429e+00
  5.227220e+00    3.737070e+00
  5.258971e+00    3.680695e+00
  5.290722e+00    3.755834e+00
  5.322474e+00    3.625687e+00
  5.354225e+00    3.710598e+00
  5.385976e+00    3.669939e+00
  5.417727e+00    3.614305e+00
  5.449478e+00    3.622518e+00
  5.481229e+00    3.554569e+00
  5.512980e+00    3.582558e+00
  5.544732e+00    3.593184e+00
  5.576483e+00    3.613820e+00
  5.608234e+00    3.624547e+00
  5.639985e+00    3.569243e+00
  5.671736e+00    3.606695e+00
  5.703487e+00    3.545000e+00
  5.735238e+00    3.516308e+00
  5.766990e+00    3.574790e+00
  5.798741e+00    3.603320e+00
  5.830492e+00    3.525648e+00
  5.862243e+00    3.577340e+00
  5.893994e+00    3.536609e+00
  5.925745e+00    3.481213e+00
  5.957497e+00    3.574276e+00
  5.989248e+00    3.556968e+00
  6.020999e+00    3.509822e+00
  6.052750e+00    3.607302e+00
  6.084501e+00    3.610609e+00
  6.116252e+00    3.641226e+00
  6.148003e+00    3.559400e+00
  6.179755e+00    3.596821e+00
  6.211506e+00    3.598123e+00
  6.243257e+00    3.563433e+00
  6.275008e+00    3.560345e+00
  6.306759e+00    3.557033e+00
  6.338510e+00    3.575092e+00
  6.370261e+00    3.539024e+00
  6.402013e+00    3.574208e+00
  6.433764e+00    3.625791e+00
  6.465515e+00    3.516140e+00
  6.497266e+00    3.541911e+00
  6.529017e+00    3.645721e+00
  6.560768e+00    3.572819e+00
  6.592519e+00    3.599132e+00
  6.624271e+00    3.630330e+00
  6.656022e+00    3.524290e+00
  6.687773e+00    3.649840e+00
  6.719524e+00    3.540812e+00
  6.751275e+00    3.517273e+00
  6.783026e+00    3.580451e+00
  6.814777e+00    3.554459e+00
  6.846529e+00    3.574223e+00
  6.878280e+00    3.591029e+00
  6.910031e+00    3.560409e+00
  6.941782e+00    3.569312e+00
  6.973533e+00    3.529060e+00
  7.005284e+00    3.499156e+00
  7.037036e+00    3.605978e+00
  7.068787e+00    3.537843e+00
  7.100538e+00    3.528003e+00
  7.132289e+00    3.545796e+00
  7.164040e+00    3.467900e+00
  7.195791e+00    3.508506e+00
  7.227542e+00    3.554209e+00
  7.259294e+00    3.522015e+00
  7.291045e+00    3.505414e+00
  7.322796e+00    3.490729e+00
  7.354547e+00    3.494076e+00
  7.386298e+00    3.576306e+00
  7.418049e+00    3.502269e+00
  7.449800e+00    3.510912e+00
  7.481552e+00    3.543675e+00
  7.513303e+00    3.430675e+00
  7.545054e+00    3.554228e+00
  7.576805e+00    3.588492e+00
  7.608556e+00    3.507856e+00
  7.640307e+00    3.478312e+00
  7.672058e+00    3.459465e+00
  7.703810e+00    3.530755e+00
  7.735561e+00    3.489217e+00
  7.767312e+00    3.555968e+00
  7.799063e+00    3.449494e+00
  7.830814e+00    3.419486e+00
  7.862565e+00    3.432400e+00
  7.894317e+00    3.452105e+00
  7.926068e+00    3.485852e+00
  7.957819e+00    3.363350e+00
  7.989570e+00    3.433932e+00
  8.021321e+00    3.379254e+00
  8.053072e+00    3.488199e+00
  8.084823e+00    3.482940e+00
  8.116575e+00    3.498939e+00
  8.148326e+00    3.512438e+00
  8.180077e+00    3.549785e+00
  8.211828e+00    3.446424e+00
  8.243579e+00    3.437150e+00
  8.275330e+00    3.374103e+00
  8.307081e+00    3.419638e+00
  8.338833e+00    3.399207e+00
  8.370584e+00    3.376015e+00
  8.402335e+00    3.396185e+00
  8.434086e+00    3.406368e+00
  8.465837e+00    3.389032e+00
  8.497588e+00    3.419075e+00
  8.529339e+00    3.379456e+00
  8.561091e+00    3.328221e+00
  8.592842e+00    3.346380e+00
  8.624593e+00    3.352072e+00
  8.656344e+00    3.397789e+00
  8.688095e+00    3.264674e+00
  8.719846e+00    3.327128e+00
  8.751598e+00    3.359004e+00
  8.783349e+00    3.332058e+00
  8.815100e+00    3.351741e+00
  8.846851e+00    3.358853e+00
  8.878602e+00    3.292155e+00
  8.910353e+00    3.341357e+00
  8.942104e+00    3.327648e+00
  8.973856e+00    3.295980e+00
  9.005607e+00    3.331379e+00
  9.037358e+00    3.312889e+00
  9.069109e+00    3.314683e+00
  9.100860e+00    3.319508e+00
  9.132611e+00    3.260844e+00
  9.164362e+00    3.223548e+00
  9.196114e+00    3.270750e+00
  9.227865e+00    3.236860e+00
  9.259616e+00    3.304129e+00
  9.291367e+00    3.245137e+00
  9.323118e+00    3.256882e+00
  9.354869e+00    3.208131e+00
  9.386620e+00    3.231972e+00
  9.418372e+00    3.253364e+00
  9.450123e+00    3.295210e+00
  9.481874e+00    3.242572e+00
  9.513625e+00    3.218352e+00
  9.545376e+00    3.205697e+00
  9.577127e+00    3.194390e+00
  9.608878e+00    3.220387e+00
  9.640630e+00    3.241437e+00
  9.672381e+00    3.216081e+00
  9.704132e+00    3.183470e+00
  9.735883e+00    3.145307e+00
  9.767634e+00    3.138483e+00
  9.799385e+00    3.227688e+00
  9.831137e+00    3.186886e+00
  9.862888e+00    3.202796e+00
  9.894639e+00    3.145574e+00
  9.926390e+00    3.155713e+00
  9.958141e+00    3.145059e+00
  9.989892e+00    3.191226e+00
  1.002164e+01    3.100366e+00
  1.005339e+01    3.162053e+00
  1.008515e+01    3.164778e+00
  1.011690e+01    3.153218e+00
  1.014865e+01    3.092385e+00
  1.018040e+01    3.110722e+00
  1.021215e+01    3.096839e+00
  1.024390e+01    3.061533e+00
  1.027565e+01    3.074362e+00
  1.030740e+01    3.106165e+00
  1.033915e+01    3.074044e+00
  1.037091e+01    3.028043e+00
  1.040266e+01    3.048026e+00
  1.043441e+01    3.132801e+00
  1.046616e+01    2.994848e+00
  1.049791e+01    3.045436e+00
  1.052966e+01    3.038922e+00
  1.056141e+01    3.011372e+00
  1.059316e+01    3.049665e+00
  1.062492e+01    3.025701e+00
  1.065667e+01    2.934136e+00
  1.068842e+01    3.001181e+00
  1.072017e+01    2.921770e+00
  1.075192e+01    2.902987e+00
  1.078367e+01    2.919070e+00
  1.081542e+01    2.958036e+00
  1.084717e+01    2.919948e+00
  1.087892e+01    2.970124e+00
  1.091068e+01    2.933918e+00
  1.094243e+01    2.930256e+00
  1.097418e+01    2.918312e+00
  1.100593e+01    2.884981e+00
  1.103768e+01    2.968712e+00
  1.106943e+01    2.935986e+00
  1.110118e+01    2.924032e+00
  1.113293e+01    2.894485e+00
  1.116468e+01    2.873734e+00
  1.119644e+01    2.887482e+00
  1.122819e+01    2.901302e+00
  1.125994e+01    2.853789e+00
  1.129169e+01    2.874288e+00
  1.132344e+01    2.895885e+00
  1.135519e+01    2.877802e+00
  1.138694e+01    2.839142e+00
  1.141869e+01    2.860202e+00
  1.145045e+01    2.838055e+00
  1.148220e+01    2.868028e+00
  1.151395e+01    2.823787e+00
  1.154570e+01    2.838418e+00
  1.157745e+01    2.780605e+00
  1.160920e+01    2.759694e+00
  1.164095e+01    2.756288e+00
  1.167270e+01    2.840082e+00
  1.170445e+01    2.714725e+00
  1.173621e+01    2.778697e+00
  1.176796e+01    2.751961e+00
  1.179971e+01    2.769404e+00
  1.183146e+01    2.827950e+00
  1.186321e+01    2.748949e+00
  1.189496e+01    2.742171e+00
  1.192671e+01    2.712169e+00
  1.195846e+01    2.716780e+00
  1.199021e+01    2.708341e+00
  1.202197e+01    2.750278e+00
  1.205372e+01    2.761472e+00
  1.208547e+01    2.747342e+00
  1.211722e+01    2.725047e+00
  1.214897e+01    2.724155e+00
  1.218072e+01    2.675622e+00
  1.221247e+01    2.715135e+00
  1.224422e+01    2.729245e+00
  1.227597e+01    2.675156e+00
  1.230773e+01    2.679526e+00
  1.233948e+01    2.698638e+00
  1.237123e+01    2.728473e+00
  1.240298e+01    2.709918e+00
  1.243473e+01    2.702191e+00
  1.246648e+01    2.728614e+00
  1.249823e+01    2.662793e+00
  1.252998e+01    2.737953e+00
  1.256174e+01    2.740039e+00
  1.259349e+01    2.766073e+00
  1.262524e+01    2.753232e+00
  1.265699e+01    2.810013e+00
  1.268874e+01    2.860712e+00
  1.272049e+01    2.860182e+00
  1.275224e+01    2.873992e+00
  1.278399e+01    3.005978e+00
  1.281574e+01    3.078320e+00
  1.284750e+01    3.170832e+00
  1.287925e+01    3.389470e+00
  1.291100e+01    3.754431e+00
  1.294275e+01    4.170331e+00
  1.297450e+01    4.756893e+00
  1.300625e+01    5.939400e+00
  1.303800e+01    7.798895e+00
  1.306975e+01    1.034262e+01
  1.310150e+01    1.289146e+01
  1.313326e+01    1.500069e+01
  1.316501e+01    1.634947e+01
  1.319676e+01    1.573267e+01
  1.322851e+01    1.246415e+01
  1.326026e+01    8.997772e+00
  1.329201e+01    6.735132e+00
  1.332376e+01    5.275401e+00
  1.335551e+01    4.464725e+00
  1.338727e+01    3.847327e+00
  1.341902e+01    3.483299e+00
  1.345077e+01    3.265718e+00
  1.348252e+01    3.046775e+00
  1.351427e+01    2.888028e+00
  1.354602e+01    2.817554e+00
  1.357777e+01    2.801077e+00
  1.360952e+01    2.683791e+00
  1.364127e+01    2.639987e+00
  1.367303e+01    2.615579e+00
  1.370478e+01    2.537244e+00
  1.373653e+01    2.576494e+00
  1.376828e+01    2.475849e+00
  1.380003e+01    2.419442e+00
  1.383178e+01    2.428658e+00
  1.386353e+01    2.404262e+00
  1.389528e+01    2.432505e+00
  1.392703e+01    2.437191e+00
  1.395879e+01    2.380109e+00
  1.399054e+01    2.398346e+00
  1.402229e+01    2.361045e+00
  1.405404e+01    2.359746e+00
  1.408579e+01    2.337248e+00
  1.411754e+01    2.366357e+00
  1.414929e+01    2.292157e+00
  1.418104e+01    2.320007e+00
  1.421279e+01    2.288998e+00
  1.424455e+01    2.294669e+00
  1.427630e+01    2.310836e+00
  1.430805e+01    2.264672e+00
  1.433980e+01    2.260262e+00
  1.437155e+01    2.179623e+00
  1.440330e+01    2.299628e+00
  1.443505e+01    2.270653e+00
  1.446680e+01    2.233626e+00
  1.449856e+01    2.245358e+00
  1.453031e+01    2.248248e+00
  1.456206e+01    2.239405e+00
  1.459381e+01    2.239270e+00
  1.462556e+01    2.212839e+00
  1.465731e+01    2.205951e+00
  1.468906e+01    2.248708e+00
  1.472081e+01    2.175541e+00
  1.475256e+01    2.241364e+00
  1.478432e+01    2.194172e+00
  1.481607e+01    2.223314e+00
  1.484782e+01    2.268668e+00
  1.487957e+01    2.284487e+00
  1.491132e+01    2.237431e+00
  1.494307e+01    2.306561e+00
  1.497482e+01    2.356927e+00
  1.500657e+01    2.443868e+00
  1.503832e+01    2.639836e+00
  1.507008e+01    2.899127e+00
  1.510183e+01    3.206627e+00
  1.513358e+01    3.859449e+00
  1.516533e+01    4.611134e+00
  1.519708e+01    5.242420e+00
  1.522883e+01    5.707196e+00
  1.526058e+01    5.833817e+00
  1.529233e+01    5.449518e+00
  1.532409e+01    4.654284e+00
  1.535584e+01    3.824118e+00
  1.538759e+01    3.202379e+00
  1.541934e+01    2.744048e+00
  1.545109e+01    2.508898e+00
  1.548284e+01    2.355980e+00
  1.551459e+01    2.253535e+00
  1.554634e+01    2.228041e+00
  1.557809e+01    2.150914e+00
  1.560985e+01    2.086174e+00
  1.564160e+01    2.080521e+00
  1.567335e+01    2.027377e+00
  1.570510e+01    1.985271e+00
  1.573685e+01    2.013860e+00
  1.576860e+01    1.983779e+00
  1.580035e+01    1.962115e+00
  1.583210e+01    1.958531e+00
  1.586385e+01    1.920795e+00
  1.589561e+01    1.933075e+00
  1.592736e+01    1.936126e+00
  1.595911e+01    1.902347e+00
  1.599086e+01    1.902809e+00
  1.602261e+01    1.836581e+00
  1.605436e+01    1.895510e+00
  1.608611e+01    1.833904e+00
  1.611786e+01    1.825804e+00
  1.614961e+01    1.853787e+00
  1.618137e+01    1.830251e+00
  1.621312e+01    1.825024e+00
  1.624487e+01    1.853104e+00
  1.627662e+01    1.791018e+00
  1.630837e+01    1.813982e+00
  1.634012e+01    1.758554e+00
  1.637187e+01    1.804919e+00
  1.640362e+01    1.759438e+00
  1.643538e+01    1.748724e+00
  1.646713e+01    1.794136e+00
  1.649888e+01    1.784887e+00
  1.653063e+01    1.738914e+00
  1.656238e+01    1.761100e+00
  1.659413e+01    1.723892e+00
  1.662588e+01    1.761512e+00
  1.665763e+01    1.750695e+00
  1.668938e+01    1.738179e+00
  1.672114e+01    1.708815e+00
  1.675289e+01    1.729775e+00
  1.678464e+01    1.735439e+00
  1.681639e+01    1.720234e+00
  1.684814e+01    1.669894e+00
  1.687989e+01    1.703903e+00
  1.691164e+01    1.656061e+00
  1.694339e+01    1.679787e+00
  1.697514e+01    1.651077e+00
  1.700690e+01    1.648447e+00
  1.703865e+01    1.690819e+00
  1.707040e+01    1.673511e+00
  1.710215e+01    1.642463e+00
  1.713390e+01    1.632863e+00
  1.716565e+01    1.658821e+00
  1.719740e+01    1.630436e+00
  1.722915e+01    1.625609e+00
  1.726091e+01    1.633986e+00
  1.729266e+01    1.617122e+00
  1.732441e+01    1.589578e+00
  1.735616e+01    1.640357e+00
  1.738791e+01    1.603036e+00
  1.741966e+01    1.621369e+00
  1.745141e+01    1.592499e+00
  1.748316e+01    1.603689e+00
  1.751491e+01    1.586109e+00
  1.754667e+01    1.585209e+00
  1.757842e+01    1.585880e+00
  1.761017e+01    1.567123e+00
  1.764192e+01    1.582718e+00
  1.767367e+01    1.572098e+00
  1.770542e+01    1.567508e+00
  1.773717e+01    1.536356e+00
  1.776892e+01    1.589218e+00
  1.780067e+01    1.525781e+00
  1.783243e+01    1.516735e+00
  1.786418e+01    1.538044e+00
  1.789593e+01    1.512252e+00
  1.792768e+01    1.532135e+00
  1.795943e+01    1.518337e+00
  1.799118e+01    1.531529e+00
  1.802293e+01    1.503272e+00
  1.805468e+01    1.504339e+00
  1.808643e+01    1.485998e+00
  1.811819e+01    1.495836e+00
  1.814994e+01    1.498729e+00
  1.818169e+01    1.532931e+00
  1.821344e+01    1.513079e+00
  1.824519e+01    1.484830e+00
  1.827694e+01    1.495373e+00
  1.830869e+01    1.513347e+00
  1.834044e+01    1.463102e+00
  1.837220e+01    1.450706e+00
  1.840395e+01    1.465962e+00
  1.843570e+01    1.449172e+00
  1.846745e+01    1.441212e+00
  1.849920e+01    1.409788e+00
  1.853095e+01    1.435172e+00
  1.856270e+01    1.421574e+00
  1.859445e+01    1.442108e+00
  1.862620e+01    1.400938e+00
  1.865796e+01    1.433471e+00
  1.868971e+01    1.413131e+00
  1.872146e+01    1.430628e+00
  1.875321e+01    1.411763e+00
  1.878496e+01    1.416143e+00
  1.881671e+01    1.374264e+00
  1.884846e+01    1.396145e+00
  1.888021e+01    1.409248e+00
  1.891196e+01    1.385838e+00
  1.894372e+01    1.417542e+00
  1.897547e+01    1.386596e+00
  1.900722e+01    1.397540e+00
  1.903897e+01    1.387444e+00
  1.907072e+01    1.372379e+00
  1.910247e+01    1.374534e+00
  1.913422e+01    1.384019e+00
  1.916597e+01    1.390623e+00
  1.919773e+01    1.385667e+00
  1.922948e+01    1.377565e+00
  1.926123e+01    1.359772e+00
  1.929298e+01    1.350658e+00
  1.932473e+01    1.354964e+00
  1.935648e+01    1.352167e+00
  1.938823e+01    1.315733e+00
  1.941998e+01    1.354469e+00
  1.945173e+01    1.334331e+00
  1.948349e+01    1.331507e+00
  1.951524e+01    1.317459e+00
  1.954699e+01    1.339855e+00
  1.957874e+01    1.365404e+00
  1.961049e+01    1.313975e+00
  1.964224e+01    1.308755e+00
  1.967399e+01    1.319036e+00
  1.970574e+01    1.310138e+00
  1.973749e+01    1.303894e+00
  1.976925e+01    1.279633e+00
  1.980100e+01    1.359824e+00
  1.983275e+01    1.308977e+00
  1.986450e+01    1.293913e+00
  1.989625e+01    1.299359e+00
  1.992800e+01    1.287646e+00
  1.995975e+01    1.307727e+00
  1.999150e+01    1.272695e+00
  2.002325e+01    1.275657e+00
  2.005501e+01    1.278293e+00
  2.008676e+01    1.291174e+00
  2.011851e+01    1.275669e+00
  2.015026e+01    1.282932e+00
  2.018201e+01    1.278509e+00
  2.021376e+01    1.255209e+00
  2.024551e+01    1.287083e+00
  2.027726e+01    1.271086e+00
  2.030902e+01    1.279543e+00
  2.034077e+01    1.277711e+00
  2.037252e+01    1.228898e+00
  2.040427e+01    1.260622e+00
  2.043602e+01    1.235218e+00
  2.046777e+01    1.250043e+00
  2.049952e+01    1.235748e+00
  2.053127e+01    1.263609e+00
  2.056302e+01    1.229693e+00
  2.059478e+01    1.236138e+00
  2.062653e+01    1.240110e+00
  2.065828e+01    1.257200e+00
  2.069003e+01    1.243585e+00
  2.072178e+01    1.238868e+00
  2.075353e+01    1.218697e+00
  2.078528e+01    1.226944e+00
  2.081703e+01    1.189829e+00
  2.084878e+01    1.250100e+00
  2.088054e+01    1.233616e+00
  2.091229e+01    1.222620e+00
  2.094404e+01    1.214881e+00
  2.097579e+01    1.207642e+00
  2.100754e+01    1.219955e+00
  2.103929e+01    1.251918e+00
  2.107104e+01    1.224014e+00
  2.110279e+01    1.230479e+00
  2.113455e+01    1.241802e+00
  2.116630e+01    1.211245e+00
  2.119805e+01    1.254585e+00
  2.122980e+01    1.246827e+00
  2.126155e+01    1.280980e+00
  2.129330e+01    1.273578e+00
  2.132505e+01    1.293616e+00
  2.135680e+01    1.306949e+00
  2.138855e+01    1.301730e+00
  2.142031e+01    1.352389e+00
  2.145206e+01    1.363547e+00
  2.148381e+01    1.392249e+00
  2.151556e+01    1.468159e+00
  2.154731e+01    1.510736e+00
  2.157906e+01    1.651464e+00
  2.161081e+01    1.775926e+00
  2.164256e+01    2.011669e+00
  2.167431e+01    2.340598e+00
  2.170607e+01    2.836079e+00
  2.173782e+01    3.593966e+00
  2.176957e+01    4.650858e+00
  2.180132e+01    6.006708e+00
  2.183307e+01    7.279581e+00
  2.186482e+01    8.437494e+00
  2.189657e+01    8.955938e+00
  2.192832e+01    8.207247e+00
  2.196007e+01    6.512573e+00
  2.199183e+01    4.832505e+00
  2.202358e+01    3.610346e+00
  2.205533e+01    2.808580e+00
  2.208708e+01    2.317539e+00
  2.211883e+01    1.949248e+00
  2.215058e+01    1.740550e+00
  2.218233e+01    1.605933e+00
  2.221408e+01    1.493107e+00
  2.224584e+01    1.411698e+00
  2.227759e+01    1.371970e+00
  2.230934e+01    1.310250e+00
  2.234109e+01    1.265033e+00
  2.237284e+01    1.232889e+00
  2.240459e+01    1.209090e+00
  2.243634e+01    1.201103e+00
  2.246809e+01    1.157261e+00
  2.249984e+01    1.159390e+00
  2.253160e+01    1.119241e+00
  2.256335e+01    1.113139e+00
  2.259510e+01    1.117664e+00
  2.262685e+01    1.095866e+00
  2.265860e+01    1.101248e+00
  2.269035e+01    1.077321e+00
  2.272210e+01    1.083606e+00
  2.275385e+01    1.078599e+00
  2.278560e+01    1.081534e+00
  2.281736e+01    1.049143e+00
  2.284911e+01    1.054910e+00
  2.288086e+01    1.055054e+00
  2.291261e+01    1.057731e+00
  2.294436e+01    1.027407e+00
  2.297611e+01    1.031968e+00
  2.300786e+01    1.015376e+00
  2.303961e+01    1.021687e+00
  2.307137e+01    1.033256e+00
  2.310312e+01    1.011537e+00
  2.313487e+01    1.035354e+00
  2.316662e+01    9.998326e-01
  2.319837e+01    1.012678e+00
  2.323012e+01    1.015625e+00
  2.326187e+01    9.841857e-01
  2.329362e+01    9.912913e-01
  2.332537e+01    9.894928e-01
  2.335713e+01    9.758149e-01
  2.338888e+01    9.575588e-01
  2.342063e+01    9.793027e-01
  2.345238e+01    9.831315e-01
  2.348413e+01    9.806952e-01
  2.351588e+01    9.599273e-01
  2.354763e+01    9.587341e-01
  2.357938e+01    9.483501e-01
  2.361113e+01    9.705603e-01
  2.364289e+01    9.822933e-01
  2.367464e+01    9.263851e-01
  2.370639e+01    9.304912e-01
  2.373814e+01    9.504032e-01
  2.376989e+01    9.405308e-01
  2.380164e+01    9.133280e-01
  2.383339e+01    9.349086e-01
  2.386514e+01    9.193873e-01
  2.389689e+01    9.131029e-01
  2.392865e+01    9.165066e-01
  2.396040e+01    9.118537e-01
  2.399215e+01    9.031510e-01
  2.402390e+01    8.922286e-01
  2.405565e+01    8.898557e-01
  2.408740e+01    8.871256e-01
  2.411915e+01    8.782719e-01
  2.415090e+01    8.936907e-01
  2.418266e+01    8.756565e-01
  2.421441e+01    8.797575e-01
  2.424616e+01    8.874193e-01
  2.427791e+01    8.983292e-01
  2.430966e+01    8.918129e-01
  2.434141e+01    9.097534e-01
  2.437316e+01    8.972859e-01
  2.440491e+01    9.067673e-01
  2.443666e+01    9.110906e-01
  2.446842e+01    9.106262e-01
  2.450017e+01    8.988026e-01
  2.453192e+01    9.016380e-01
  2.456367e+01    9.065661e-01
  2.459542e+01    8.951690e-01
  2.462717e+01    9.005268e-01
  2.465892e+01    9.143827e-01
  2.469067e+01    9.122838e-01
  2.472242e+01    9.010462e-01
  2.475418e+01    8.845819e-01
  2.478593e+01    8.821164e-01
  2.481768e+01    9.114772e-01
  2.484943e+01    8.914713e-01
  2.488118e+01    8.847168e-01
  2.491293e+01    8.848137e-01
  2.494468e+01    9.028820e-01
  2.497643e+01    9.168201e-01
  2.500819e+01    8.859767e-01
  2.503994e+01    8.936340e-01
  2.507169e+01    9.129304e-01
  2.510344e+01    8.947116e-01
  2.513519e+01    9.195056e-01
  2.516694e+01    9.105908e-01
  2.519869e+01    9.122273e-01
  2.523044e+01    9.417631e-01
  2.526219e+01    9.158334e-01
  2.529395e+01    9.458659e-01
  2.532570e+01    9.442183e-01
  2.535745e+01    9.632984e-01
  2.538920e+01    9.992504e-01
  2.542095e+01    9.878303e-01
  2.545270e+01    1.039140e+00
  2.548445e+01    1.046817e+00
  2.551620e+01    1.070425e+00
  2.554795e+01    1.132248e+00
  2.557971e+01    1.161934e+00
  2.561146e+01    1.235865e+00
  2.564321e+01    1.324775e+00
  2.567496e+01    1.457293e+00
  2.570671e+01    1.624881e+00
  2.573846e+01    1.904528e+00
  2.577021e+01    2.270869e+00
  2.580196e+01    2.895163e+00
  2.583371e+01    3.711668e+00
  2.586547e+01    4.827598e+00
  2.589722e+01    5.929513e+00
  2.592897e+01    6.889745e+00
  2.596072e+01    7.155131e+00
  2.599247e+01    6.588728e+00
  2.602422e+01    5.220092e+00
  2.605597e+01    3.922381e+00
  2.608772e+01    2.965300e+00
  2.611948e+01    2.362450e+00
  2.615123e+01    1.944215e+00
  2.618298e+01    1.674452e+00
  2.621473e+01    1.454374e+00
  2.624648e+01    1.354200e+00
  2.627823e+01    1.253257e+00
  2.630998e+01    1.146358e+00
  2.634173e+01    1.136417e+00
  2.637348e+01    1.104221e+00
  2.640524e+01    1.064155e+00
  2.643699e+01    1.053717e+00
  2.646874e+01    1.019831e+00
  2.650049e+01    9.757964e-01
  2.653224e+01    1.032214e+00
  2.656399e+01    9.839244e-01
  2.659574e+01    9.876524e-01
  2.662749e+01    9.867642e-01
  2.665924e+01    1.015329e+00
  2.669100e+01    9.900182e-01
  2.672275e+01    9.893567e-01
  2.675450e+01    9.810676e-01
  2.678625e+01    9.892043e-01
  2.681800e+01    9.979172e-01
  2.684975e+01    9.873101e-01
  2.688150e+01    9.911026e-01
  2.691325e+01    1.016198e+00
  2.694501e+01    1.020721e+00
  2.697676e+01    1.068089e+00
  2.700851e+01    1.128466e+00
  2.704026e+01    1.207968e+00
  2.707201e+01    1.327308e+00
  2.710376e+01    1.528106e+00
  2.713551e+01    1.771170e+00
  2.716726e+01    1.979011e+00
  2.719901e+01    2.181941e+00
  2.723077e+01    2.155547e+00
  2.726252e+01    1.974437e+00
  2.729427e+01    1.696223e+00
  2.732602e+01    1.463881e+00
  2.735777e+01    1.281841e+00
  2.738952e+01    1.194873e+00
  2.742127e+01    1.092512e+00
  2.745302e+01    1.039561e+00
  2.748477e+01    1.001981e+00
  2.751653e+01    9.802998e-01
  2.754828e+01    9.376060e-01
  2.758003e+01    9.256635e-01
  2.761178e+01    9.184241e-01
  2.764353e+01    9.347462e-01
  2.767528e+01    9.042664e-01
  2.770703e+01    9.216195e-01
  2.773878e+01    8.733169e-01
  2.777054e+01    8.897811e-01
  2.780229e+01    9.015138e-01
  2.783404e+01    8.889871e-01
  2.786579e+01    8.960922e-01
  2.789754e+01    8.750593e-01
  2.792929e+01    8.837271e-01
  2.796104e+01    8.767311e-01
  2.799279e+01    8.715257e-01
  2.802454e+01    8.655417e-01
  2.805630e+01    8.564708e-01
  2.808805e+01    8.582949e-01
  2.811980e+01    8.815940e-01
  2.815155e+01    8.679768e-01
  2.818330e+01    8.688117e-01
  2.821505e+01    8.492388e-01
  2.824680e+01    8.585604e-01
  2.827855e+01    8.606760e-01
  2.831030e+01    8.774379e-01
  2.834206e+01    8.540101e-01
  2.837381e+01    8.487610e-01
  2.840556e+01    8.551687e-01
  2.843731e+01    8.768760e-01
  2.846906e+01    8.425627e-01
  2.850081e+01    8.414497e-01
  2.853256e+01    8.517112e-01
  2.856431e+01    8.337768e-01
  2.859606e+01    8.499748e-01
  2.862782e+01    8.247115e-01
  2.865957e+01    8.317681e-01
  2.869132e+01    8.388410e-01
  2.872307e+01    8.431523e-01
  2.875482e+01    8.450748e-01
  2.878657e+01    8.188157e-01
  2.881832e+01    8.139147e-01
  2.885007e+01    8.236207e-01
  2.888183e+01    8.373541e-01
  2.891358e+01    8.282493e-01
  2.894533e+01    8.433688e-01
  2.897708e+01    8.128753e-01
  2.900883e+01    8.354254e-01
  2.904058e+01    8.122810e-01
  2.907233e+01    8.241140e-01
  2.910408e+01    7.981604e-01
  2.913583e+01    8.209611e-01
  2.916759e+01    8.261710e-01
  2.919934e+01    8.203542e-01
  2.923109e+01    8.216969e-01
  2.926284e+01    8.112969e-01
  2.929459e+01    7.972185e-01
  2.932634e+01    8.289852e-01
  2.935809e+01    8.077747e-01
  2.938984e+01    8.027303e-01
  2.942159e+01    8.124417e-01
  2.945335e+01    8.159475e-01
  2.948510e+01    8.061638e-01
  2.951685e+01    8.183459e-01
  2.954860e+01    8.059455e-01
  2.958035e+01    8.043664e-01
  2.961210e+01    7.966520e-01
  2.964385e+01    8.043533e-01
  2.967560e+01    8.048039e-01
  2.970736e+01    7.868740e-01
  2.973911e+01    8.069607e-01
  2.977086e+01    8.157615e-01
  2.980261e+01    7.994657e-01
  2.983436e+01    7.973623e-01
  2.986611e+01    7.975668e-01
  2.989786e+01    8.069041e-01
  2.992961e+01    8.173705e-01
  2.996136e+01    7.905583e-01
  2.999312e+01    8.134149e-01
  3.002487e+01    7.998155e-01
  3.005662e+01    8.183884e-01
  3.008837e+01    8.011851e-01
  3.012012e+01    7.988867e-01
  3.015187e+01    8.004308e-01
  3.018362e+01    7.898678e-01
  3.021537e+01    8.156208e-01
  3.024712e+01    7.997497e-01
  3.027888e+01    8.018125e-01
  3.031063e+01    7.935910e-01
  3.034238e+01    7.775716e-01
  3.037413e+01    7.924426e-01
  3.040588e+01    7.855159e-01
  3.043763e+01    7.886508e-01
  3.046938e+01    7.702529e-01
  3.050113e+01    8.064161e-01
  3.053288e+01    7.872007e-01
  3.056464e+01    7.553740e-01
  3.059639e+01    7.869726e-01
  3.062814e+01    7.981076e-01
  3.065989e+01    7.861266e-01
  3.069164e+01    7.846159e-01
  3.072339e+01    7.827411e-01
  3.075514e+01    7.874686e-01
  3.078689e+01    7.884156e-01
  3.081865e+01    7.765163e-01
  3.085040e+01    7.951400e-01
  3.088215e+01    7.733111e-01
  3.091390e+01    7.796969e-01
  3.094565e+01    7.971439e-01
  3.097740e+01    8.059621e-01
  3.100915e+01    7.826548e-01
  3.104090e+01    7.840893e-01
  3.107265e+01    7.881355e-01
  3.110441e+01    7.792246e-01
  3.113616e+01    7.868178e-01
  3.116791e+01    7.922795e-01
  3.119966e+01    7.882705e-01
  3.123141e+01    7.804497e-01
  3.126316e+01    7.648935e-01
  3.129491e+01    7.912921e-01
  3.132666e+01    8.140574e-01
  3.135841e+01    8.195622e-01
  3.139017e+01    8.257194e-01
  3.142192e+01    7.944481e-01
  3.145367e+01    8.189827e-01
  3.148542e+01    8.424435e-01
  3.151717e+01    8.279316e-01
  3.154892e+01    8.464565e-01
  3.158067e+01    8.727388e-01
  3.161242e+01    8.809476e-01
  3.164418e+01    9.356735e-01
  3.167593e+01    9.732574e-01
  3.170768e+01    1.058743e+00
  3.173943e+01    1.146000e+00
  3.177118e+01    1.300823e+00
  3.180293e+01    1.474895e+00
  3.183468e+01    1.751479e+00
  3.186643e+01    1.973861e+00
  3.189818e+01    2.108555e+00
  3.192994e+01    2.062248e+00
  3.196169e+01    1.788571e+00
  3.199344e+01    1.534188e+00
  3.202519e+01    1.303921e+00
  3.205694e+01    1.157858e+00
  3.208869e+01    1.050583e+00
  3.212044e+01    9.734679e-01
  3.215219e+01    9.166896e-01
  3.218394e+01    9.022511e-01
  3.221570e+01    8.701660e-01
  3.224745e+01    8.452460e-01
  3.227920e+01    8.394843e-01
  3.231095e+01    8.281373e-01
  3.234270e+01    7.855147e-01
  3.237445e+01    7.843831e-01
  3.240620e+01    8.004998e-01
  3.243795e+01    7.947545e-01
  3.246970e+01    7.790153e-01
  3.250146e+01    7.868739e-01
  3.253321e+01    7.726251e-01
  3.254908e+01    7.793288e-01