File: XRD/Reaction conditions/2024-07-27_003_Ru-CGO-ex_Reaction_dwell_000023_data_000157.dat
# == pyFAI calibration ==
# Distance Sample to Detector: 0.4 m
# PONI: 9.750e-02, 1.135e-01 m
# Rotations: -0.000175 0.000000 -0.000000 rad
#
# == Fit2d calibration ==
# Distance Sample-beamCenter: 400.000 mm
# Center: x=1514.000, y=1300.000 pix
# Tilt: 0.010 deg  TiltPlanRot: 0.010 deg
#
# Detector Detector	 Spline= None	 PixelSize= 7.500e-05, 7.500e-05 m
#    Detector has a mask: False
#    Detector has a dark current: False
#    detector has a flat field: False
#
# Wavelength: 6.888e-11 m
# Mask applied: user provided
# Dark current applied: False
# Flat field applied: False
# Polarization factor: 0.99
# Normalization factor: 1.0
# --> /home/myspot/data/2024_07_Rosario/Ru-CGO-ex/2024-07-27_003_Ru-CGO-ex_Reaction_dwell_000023_data_000157.dat
#       q_nm^-1             I
  2.003187e-02    7.711350e-02
  5.178302e-02    3.370973e-01
  8.353417e-02    1.437477e-01
  1.152853e-01    1.628015e-01
  1.470365e-01    3.033962e-03
  1.787876e-01    5.032701e-02
  2.105388e-01    5.188131e-02
  2.422899e-01    4.839586e-02
  2.740411e-01    4.984073e-02
  3.057922e-01    1.719679e-02
  3.375433e-01    4.575695e-02
  3.692945e-01    4.312735e-02
  4.010456e-01    2.484348e-02
  4.327968e-01    5.067964e-02
  4.645479e-01    8.030410e-03
  4.962991e-01    2.342332e-02
  5.280502e-01    4.120599e-02
  5.598014e-01    4.646400e-02
  5.915525e-01    2.597832e-02
  6.233037e-01    3.669137e-02
  6.550548e-01    4.041225e-02
  6.868060e-01    6.339259e-02
  7.185571e-01    4.390963e-02
  7.503083e-01    5.132090e-02
  7.820594e-01    1.429578e-01
  8.138106e-01    2.637320e-01
  8.455617e-01    3.031455e-01
  8.773129e-01    4.981402e-01
  9.090640e-01    7.347809e-01
  9.408152e-01    8.911112e-01
  9.725663e-01    1.023254e+00
  1.004317e+00    1.253455e+00
  1.036069e+00    1.361617e+00
  1.067820e+00    1.354883e+00
  1.099571e+00    1.540136e+00
  1.131322e+00    1.628776e+00
  1.163073e+00    1.606349e+00
  1.194824e+00    1.845831e+00
  1.226575e+00    2.147944e+00
  1.258327e+00    2.490921e+00
  1.290078e+00    2.658878e+00
  1.321829e+00    2.840487e+00
  1.353580e+00    2.779592e+00
  1.385331e+00    2.722366e+00
  1.417082e+00    2.851814e+00
  1.448834e+00    2.902349e+00
  1.480585e+00    3.071920e+00
  1.512336e+00    3.078185e+00
  1.544087e+00    3.270231e+00
  1.575838e+00    3.078576e+00
  1.607589e+00    3.107702e+00
  1.639340e+00    3.020694e+00
  1.671092e+00    3.070212e+00
  1.702843e+00    3.015503e+00
  1.734594e+00    3.105057e+00
  1.766345e+00    3.104052e+00
  1.798096e+00    3.150421e+00
  1.829847e+00    3.108195e+00
  1.861598e+00    3.037398e+00
  1.893350e+00    2.964587e+00
  1.925101e+00    3.051900e+00
  1.956852e+00    3.082467e+00
  1.988603e+00    2.930508e+00
  2.020354e+00    2.982470e+00
  2.052105e+00    3.055079e+00
  2.083856e+00    3.053490e+00
  2.115608e+00    3.087429e+00
  2.147359e+00    3.048972e+00
  2.179110e+00    3.159488e+00
  2.210861e+00    2.947090e+00
  2.242612e+00    3.088965e+00
  2.274363e+00    3.170285e+00
  2.306115e+00    3.074467e+00
  2.337866e+00    3.170600e+00
  2.369617e+00    3.153579e+00
  2.401368e+00    3.183295e+00
  2.433119e+00    3.131053e+00
  2.464870e+00    3.192625e+00
  2.496621e+00    3.239541e+00
  2.528373e+00    3.220689e+00
  2.560124e+00    3.182879e+00
  2.591875e+00    3.204313e+00
  2.623626e+00    3.222935e+00
  2.655377e+00    3.230279e+00
  2.687128e+00    3.309343e+00
  2.718879e+00    3.257721e+00
  2.750631e+00    3.187877e+00
  2.782382e+00    3.245620e+00
  2.814133e+00    3.226208e+00
  2.845884e+00    3.190727e+00
  2.877635e+00    3.300456e+00
  2.909386e+00    3.192683e+00
  2.941137e+00    3.186976e+00
  2.972889e+00    3.422000e+00
  3.004640e+00    3.347168e+00
  3.036391e+00    3.183473e+00
  3.068142e+00    3.299737e+00
  3.099893e+00    3.301975e+00
  3.131644e+00    3.293561e+00
  3.163395e+00    3.452395e+00
  3.195147e+00    3.430404e+00
  3.226898e+00    3.345983e+00
  3.258649e+00    3.352963e+00
  3.290400e+00    3.307644e+00
  3.322151e+00    3.422503e+00
  3.353902e+00    3.391829e+00
  3.385654e+00    3.380288e+00
  3.417405e+00    3.379612e+00
  3.449156e+00    3.449152e+00
  3.480907e+00    3.400043e+00
  3.512658e+00    3.459712e+00
  3.544409e+00    3.490639e+00
  3.576160e+00    3.380395e+00
  3.607912e+00    3.443130e+00
  3.639663e+00    3.409201e+00
  3.671414e+00    3.508780e+00
  3.703165e+00    3.527702e+00
  3.734916e+00    3.560977e+00
  3.766667e+00    3.474110e+00
  3.798418e+00    3.389049e+00
  3.830170e+00    3.542116e+00
  3.861921e+00    3.556132e+00
  3.893672e+00    3.512588e+00
  3.925423e+00    3.548711e+00
  3.957174e+00    3.496524e+00
  3.988925e+00    3.439679e+00
  4.020676e+00    3.503326e+00
  4.052428e+00    3.544911e+00
  4.084179e+00    3.477140e+00
  4.115930e+00    3.519432e+00
  4.147681e+00    3.474247e+00
  4.179432e+00    3.553199e+00
  4.211183e+00    3.510855e+00
  4.242935e+00    3.491517e+00
  4.274686e+00    3.542112e+00
  4.306437e+00    3.473320e+00
  4.338188e+00    3.572300e+00
  4.369939e+00    3.465286e+00
  4.401690e+00    3.584556e+00
  4.433441e+00    3.664669e+00
  4.465193e+00    3.536638e+00
  4.496944e+00    3.547760e+00
  4.528695e+00    3.526479e+00
  4.560446e+00    3.538206e+00
  4.592197e+00    3.612115e+00
  4.623948e+00    3.623771e+00
  4.655699e+00    3.677610e+00
  4.687451e+00    3.592302e+00
  4.719202e+00    3.573439e+00
  4.750953e+00    3.679459e+00
  4.782704e+00    3.589697e+00
  4.814455e+00    3.669995e+00
  4.846206e+00    3.596516e+00
  4.877957e+00    3.728290e+00
  4.909709e+00    3.620291e+00
  4.941460e+00    3.717085e+00
  4.973211e+00    3.628377e+00
  5.004962e+00    3.625134e+00
  5.036713e+00    3.654130e+00
  5.068464e+00    3.596947e+00
  5.100216e+00    3.612169e+00
  5.131967e+00    3.579846e+00
  5.163718e+00    3.701868e+00
  5.195469e+00    3.571041e+00
  5.227220e+00    3.685423e+00
  5.258971e+00    3.621584e+00
  5.290722e+00    3.682526e+00
  5.322474e+00    3.617716e+00
  5.354225e+00    3.724402e+00
  5.385976e+00    3.635096e+00
  5.417727e+00    3.565677e+00
  5.449478e+00    3.506332e+00
  5.481229e+00    3.636929e+00
  5.512980e+00    3.638393e+00
  5.544732e+00    3.660922e+00
  5.576483e+00    3.568584e+00
  5.608234e+00    3.594913e+00
  5.639985e+00    3.473125e+00
  5.671736e+00    3.659933e+00
  5.703487e+00    3.493542e+00
  5.735238e+00    3.557791e+00
  5.766990e+00    3.570122e+00
  5.798741e+00    3.514585e+00
  5.830492e+00    3.514031e+00
  5.862243e+00    3.574036e+00
  5.893994e+00    3.524765e+00
  5.925745e+00    3.522507e+00
  5.957497e+00    3.480622e+00
  5.989248e+00    3.520751e+00
  6.020999e+00    3.443400e+00
  6.052750e+00    3.554055e+00
  6.084501e+00    3.544710e+00
  6.116252e+00    3.557249e+00
  6.148003e+00    3.556031e+00
  6.179755e+00    3.510507e+00
  6.211506e+00    3.550051e+00
  6.243257e+00    3.588146e+00
  6.275008e+00    3.630639e+00
  6.306759e+00    3.501321e+00
  6.338510e+00    3.524849e+00
  6.370261e+00    3.529581e+00
  6.402013e+00    3.557356e+00
  6.433764e+00    3.489464e+00
  6.465515e+00    3.544890e+00
  6.497266e+00    3.497828e+00
  6.529017e+00    3.505144e+00
  6.560768e+00    3.520599e+00
  6.592519e+00    3.488197e+00
  6.624271e+00    3.501616e+00
  6.656022e+00    3.515336e+00
  6.687773e+00    3.543601e+00
  6.719524e+00    3.613659e+00
  6.751275e+00    3.523350e+00
  6.783026e+00    3.437940e+00
  6.814777e+00    3.472540e+00
  6.846529e+00    3.510681e+00
  6.878280e+00    3.536179e+00
  6.910031e+00    3.523015e+00
  6.941782e+00    3.411509e+00
  6.973533e+00    3.544731e+00
  7.005284e+00    3.613253e+00
  7.037036e+00    3.481536e+00
  7.068787e+00    3.470247e+00
  7.100538e+00    3.577255e+00
  7.132289e+00    3.447510e+00
  7.164040e+00    3.455385e+00
  7.195791e+00    3.473317e+00
  7.227542e+00    3.549329e+00
  7.259294e+00    3.456733e+00
  7.291045e+00    3.561997e+00
  7.322796e+00    3.476752e+00
  7.354547e+00    3.494484e+00
  7.386298e+00    3.487374e+00
  7.418049e+00    3.487386e+00
  7.449800e+00    3.591084e+00
  7.481552e+00    3.457020e+00
  7.513303e+00    3.485205e+00
  7.545054e+00    3.424083e+00
  7.576805e+00    3.496210e+00
  7.608556e+00    3.515800e+00
  7.640307e+00    3.387424e+00
  7.672058e+00    3.463370e+00
  7.703810e+00    3.473489e+00
  7.735561e+00    3.421246e+00
  7.767312e+00    3.500452e+00
  7.799063e+00    3.447296e+00
  7.830814e+00    3.414335e+00
  7.862565e+00    3.464289e+00
  7.894317e+00    3.439282e+00
  7.926068e+00    3.454834e+00
  7.957819e+00    3.363276e+00
  7.989570e+00    3.385507e+00
  8.021321e+00    3.428316e+00
  8.053072e+00    3.384579e+00
  8.084823e+00    3.448042e+00
  8.116575e+00    3.428635e+00
  8.148326e+00    3.450866e+00
  8.180077e+00    3.466660e+00
  8.211828e+00    3.518824e+00
  8.243579e+00    3.376854e+00
  8.275330e+00    3.433331e+00
  8.307081e+00    3.375882e+00
  8.338833e+00    3.426120e+00
  8.370584e+00    3.383329e+00
  8.402335e+00    3.376832e+00
  8.434086e+00    3.421155e+00
  8.465837e+00    3.453548e+00
  8.497588e+00    3.436424e+00
  8.529339e+00    3.397707e+00
  8.561091e+00    3.380453e+00
  8.592842e+00    3.304018e+00
  8.624593e+00    3.322470e+00
  8.656344e+00    3.287994e+00
  8.688095e+00    3.322589e+00
  8.719846e+00    3.349706e+00
  8.751598e+00    3.286926e+00
  8.783349e+00    3.299381e+00
  8.815100e+00    3.320225e+00
  8.846851e+00    3.337301e+00
  8.878602e+00    3.286622e+00
  8.910353e+00    3.367123e+00
  8.942104e+00    3.262817e+00
  8.973856e+00    3.196029e+00
  9.005607e+00    3.253503e+00
  9.037358e+00    3.222105e+00
  9.069109e+00    3.237437e+00
  9.100860e+00    3.246787e+00
  9.132611e+00    3.289344e+00
  9.164362e+00    3.219191e+00
  9.196114e+00    3.183143e+00
  9.227865e+00    3.253538e+00
  9.259616e+00    3.264109e+00
  9.291367e+00    3.219002e+00
  9.323118e+00    3.244548e+00
  9.354869e+00    3.250301e+00
  9.386620e+00    3.191514e+00
  9.418372e+00    3.159637e+00
  9.450123e+00    3.212805e+00
  9.481874e+00    3.203412e+00
  9.513625e+00    3.248713e+00
  9.545376e+00    3.203597e+00
  9.577127e+00    3.164398e+00
  9.608878e+00    3.161347e+00
  9.640630e+00    3.150203e+00
  9.672381e+00    3.116031e+00
  9.704132e+00    3.197839e+00
  9.735883e+00    3.108704e+00
  9.767634e+00    3.129675e+00
  9.799385e+00    3.198075e+00
  9.831137e+00    3.155963e+00
  9.862888e+00    3.108359e+00
  9.894639e+00    3.099937e+00
  9.926390e+00    3.133550e+00
  9.958141e+00    3.110578e+00
  9.989892e+00    3.169243e+00
  1.002164e+01    3.096506e+00
  1.005339e+01    3.081357e+00
  1.008515e+01    3.039848e+00
  1.011690e+01    3.083012e+00
  1.014865e+01    3.090592e+00
  1.018040e+01    2.985534e+00
  1.021215e+01    3.087777e+00
  1.024390e+01    3.020098e+00
  1.027565e+01    3.071254e+00
  1.030740e+01    3.104492e+00
  1.033915e+01    2.991352e+00
  1.037091e+01    3.025715e+00
  1.040266e+01    3.069290e+00
  1.043441e+01    3.029197e+00
  1.046616e+01    3.006709e+00
  1.049791e+01    2.978723e+00
  1.052966e+01    2.953609e+00
  1.056141e+01    2.955950e+00
  1.059316e+01    2.984177e+00
  1.062492e+01    2.917853e+00
  1.065667e+01    2.979734e+00
  1.068842e+01    2.987933e+00
  1.072017e+01    2.978544e+00
  1.075192e+01    2.920630e+00
  1.078367e+01    2.903977e+00
  1.081542e+01    2.953989e+00
  1.084717e+01    2.889740e+00
  1.087892e+01    2.881918e+00
  1.091068e+01    2.927629e+00
  1.094243e+01    2.870958e+00
  1.097418e+01    2.936141e+00
  1.100593e+01    2.958235e+00
  1.103768e+01    2.863949e+00
  1.106943e+01    2.885394e+00
  1.110118e+01    2.889390e+00
  1.113293e+01    2.853059e+00
  1.116468e+01    2.878892e+00
  1.119644e+01    2.835947e+00
  1.122819e+01    2.857313e+00
  1.125994e+01    2.831337e+00
  1.129169e+01    2.855401e+00
  1.132344e+01    2.752390e+00
  1.135519e+01    2.757771e+00
  1.138694e+01    2.755386e+00
  1.141869e+01    2.756506e+00
  1.145045e+01    2.813521e+00
  1.148220e+01    2.785857e+00
  1.151395e+01    2.807845e+00
  1.154570e+01    2.767396e+00
  1.157745e+01    2.776571e+00
  1.160920e+01    2.726370e+00
  1.164095e+01    2.757845e+00
  1.167270e+01    2.756656e+00
  1.170445e+01    2.753948e+00
  1.173621e+01    2.726892e+00
  1.176796e+01    2.755551e+00
  1.179971e+01    2.704404e+00
  1.183146e+01    2.682759e+00
  1.186321e+01    2.730527e+00
  1.189496e+01    2.762758e+00
  1.192671e+01    2.687099e+00
  1.195846e+01    2.714911e+00
  1.199021e+01    2.721113e+00
  1.202197e+01    2.751720e+00
  1.205372e+01    2.682757e+00
  1.208547e+01    2.668801e+00
  1.211722e+01    2.691338e+00
  1.214897e+01    2.701593e+00
  1.218072e+01    2.701913e+00
  1.221247e+01    2.685664e+00
  1.224422e+01    2.688043e+00
  1.227597e+01    2.699929e+00
  1.230773e+01    2.613895e+00
  1.233948e+01    2.647737e+00
  1.237123e+01    2.690784e+00
  1.240298e+01    2.626538e+00
  1.243473e+01    2.665087e+00
  1.246648e+01    2.728021e+00
  1.249823e+01    2.722726e+00
  1.252998e+01    2.681375e+00
  1.256174e+01    2.730937e+00
  1.259349e+01    2.711773e+00
  1.262524e+01    2.705991e+00
  1.265699e+01    2.800913e+00
  1.268874e+01    2.764962e+00
  1.272049e+01    2.826214e+00
  1.275224e+01    2.893878e+00
  1.278399e+01    2.953452e+00
  1.281574e+01    3.066058e+00
  1.284750e+01    3.173056e+00
  1.287925e+01    3.345951e+00
  1.291100e+01    3.599518e+00
  1.294275e+01    3.994136e+00
  1.297450e+01    4.800298e+00
  1.300625e+01    5.832472e+00
  1.303800e+01    7.689467e+00
  1.306975e+01    9.960983e+00
  1.310150e+01    1.253997e+01
  1.313326e+01    1.458794e+01
  1.316501e+01    1.603238e+01
  1.319676e+01    1.561416e+01
  1.322851e+01    1.240043e+01
  1.326026e+01    9.078398e+00
  1.329201e+01    6.713296e+00
  1.332376e+01    5.276753e+00
  1.335551e+01    4.368926e+00
  1.338727e+01    3.827890e+00
  1.341902e+01    3.508843e+00
  1.345077e+01    3.225103e+00
  1.348252e+01    3.002065e+00
  1.351427e+01    2.898787e+00
  1.354602e+01    2.836725e+00
  1.357777e+01    2.744374e+00
  1.360952e+01    2.668527e+00
  1.364127e+01    2.639809e+00
  1.367303e+01    2.572021e+00
  1.370478e+01    2.530403e+00
  1.373653e+01    2.497013e+00
  1.376828e+01    2.481899e+00
  1.380003e+01    2.442814e+00
  1.383178e+01    2.491067e+00
  1.386353e+01    2.469430e+00
  1.389528e+01    2.389824e+00
  1.392703e+01    2.396605e+00
  1.395879e+01    2.401397e+00
  1.399054e+01    2.353398e+00
  1.402229e+01    2.351465e+00
  1.405404e+01    2.321415e+00
  1.408579e+01    2.335251e+00
  1.411754e+01    2.305330e+00
  1.414929e+01    2.265008e+00
  1.418104e+01    2.328746e+00
  1.421279e+01    2.313930e+00
  1.424455e+01    2.280733e+00
  1.427630e+01    2.238055e+00
  1.430805e+01    2.256103e+00
  1.433980e+01    2.222288e+00
  1.437155e+01    2.265212e+00
  1.440330e+01    2.215946e+00
  1.443505e+01    2.226739e+00
  1.446680e+01    2.207289e+00
  1.449856e+01    2.173511e+00
  1.453031e+01    2.236280e+00
  1.456206e+01    2.216430e+00
  1.459381e+01    2.157962e+00
  1.462556e+01    2.190960e+00
  1.465731e+01    2.158656e+00
  1.468906e+01    2.180924e+00
  1.472081e+01    2.198889e+00
  1.475256e+01    2.156629e+00
  1.478432e+01    2.160373e+00
  1.481607e+01    2.191053e+00
  1.484782e+01    2.196205e+00
  1.487957e+01    2.187989e+00
  1.491132e+01    2.244349e+00
  1.494307e+01    2.278164e+00
  1.497482e+01    2.320544e+00
  1.500657e+01    2.389527e+00
  1.503832e+01    2.580145e+00
  1.507008e+01    2.805401e+00
  1.510183e+01    3.193996e+00
  1.513358e+01    3.741525e+00
  1.516533e+01    4.456877e+00
  1.519708e+01    5.172961e+00
  1.522883e+01    5.535964e+00
  1.526058e+01    5.717405e+00
  1.529233e+01    5.430575e+00
  1.532409e+01    4.710010e+00
  1.535584e+01    3.729090e+00
  1.538759e+01    3.186315e+00
  1.541934e+01    2.718241e+00
  1.545109e+01    2.485332e+00
  1.548284e+01    2.399893e+00
  1.551459e+01    2.251198e+00
  1.554634e+01    2.161009e+00
  1.557809e+01    2.108302e+00
  1.560985e+01    2.083282e+00
  1.564160e+01    2.004148e+00
  1.567335e+01    2.005688e+00
  1.570510e+01    1.980415e+00
  1.573685e+01    1.957163e+00
  1.576860e+01    1.946224e+00
  1.580035e+01    1.941020e+00
  1.583210e+01    1.939755e+00
  1.586385e+01    1.898191e+00
  1.589561e+01    1.918576e+00
  1.592736e+01    1.860016e+00
  1.595911e+01    1.874605e+00
  1.599086e+01    1.863785e+00
  1.602261e+01    1.842119e+00
  1.605436e+01    1.871065e+00
  1.608611e+01    1.829395e+00
  1.611786e+01    1.879586e+00
  1.614961e+01    1.787401e+00
  1.618137e+01    1.855864e+00
  1.621312e+01    1.791924e+00
  1.624487e+01    1.839094e+00
  1.627662e+01    1.794000e+00
  1.630837e+01    1.798743e+00
  1.634012e+01    1.784160e+00
  1.637187e+01    1.757526e+00
  1.640362e+01    1.769390e+00
  1.643538e+01    1.775457e+00
  1.646713e+01    1.770337e+00
  1.649888e+01    1.779777e+00
  1.653063e+01    1.796813e+00
  1.656238e+01    1.714120e+00
  1.659413e+01    1.747184e+00
  1.662588e+01    1.725820e+00
  1.665763e+01    1.699475e+00
  1.668938e+01    1.738826e+00
  1.672114e+01    1.735767e+00
  1.675289e+01    1.711135e+00
  1.678464e+01    1.686111e+00
  1.681639e+01    1.690317e+00
  1.684814e+01    1.718959e+00
  1.687989e+01    1.681274e+00
  1.691164e+01    1.648291e+00
  1.694339e+01    1.670194e+00
  1.697514e+01    1.642568e+00
  1.700690e+01    1.652152e+00
  1.703865e+01    1.693117e+00
  1.707040e+01    1.651957e+00
  1.710215e+01    1.632706e+00
  1.713390e+01    1.648839e+00
  1.716565e+01    1.610690e+00
  1.719740e+01    1.645348e+00
  1.722915e+01    1.645157e+00
  1.726091e+01    1.607738e+00
  1.729266e+01    1.616472e+00
  1.732441e+01    1.607527e+00
  1.735616e+01    1.574062e+00
  1.738791e+01    1.605360e+00
  1.741966e+01    1.601273e+00
  1.745141e+01    1.585414e+00
  1.748316e+01    1.593932e+00
  1.751491e+01    1.605180e+00
  1.754667e+01    1.565971e+00
  1.757842e+01    1.541668e+00
  1.761017e+01    1.584201e+00
  1.764192e+01    1.554054e+00
  1.767367e+01    1.538003e+00
  1.770542e+01    1.567906e+00
  1.773717e+01    1.549229e+00
  1.776892e+01    1.541210e+00
  1.780067e+01    1.496953e+00
  1.783243e+01    1.505725e+00
  1.786418e+01    1.529803e+00
  1.789593e+01    1.492287e+00
  1.792768e+01    1.505892e+00
  1.795943e+01    1.466148e+00
  1.799118e+01    1.485493e+00
  1.802293e+01    1.480942e+00
  1.805468e+01    1.515668e+00
  1.808643e+01    1.466572e+00
  1.811819e+01    1.462651e+00
  1.814994e+01    1.478691e+00
  1.818169e+01    1.488051e+00
  1.821344e+01    1.485198e+00
  1.824519e+01    1.458333e+00
  1.827694e+01    1.463207e+00
  1.830869e+01    1.481146e+00
  1.834044e+01    1.448085e+00
  1.837220e+01    1.458462e+00
  1.840395e+01    1.445660e+00
  1.843570e+01    1.454392e+00
  1.846745e+01    1.442272e+00
  1.849920e+01    1.385790e+00
  1.853095e+01    1.407458e+00
  1.856270e+01    1.413728e+00
  1.859445e+01    1.413033e+00
  1.862620e+01    1.411499e+00
  1.865796e+01    1.389732e+00
  1.868971e+01    1.407523e+00
  1.872146e+01    1.409484e+00
  1.875321e+01    1.376723e+00
  1.878496e+01    1.398822e+00
  1.881671e+01    1.395904e+00
  1.884846e+01    1.381878e+00
  1.888021e+01    1.398236e+00
  1.891196e+01    1.386003e+00
  1.894372e+01    1.394595e+00
  1.897547e+01    1.389790e+00
  1.900722e+01    1.359230e+00
  1.903897e+01    1.389436e+00
  1.907072e+01    1.378296e+00
  1.910247e+01    1.371121e+00
  1.913422e+01    1.365026e+00
  1.916597e+01    1.350610e+00
  1.919773e+01    1.387286e+00
  1.922948e+01    1.356591e+00
  1.926123e+01    1.340721e+00
  1.929298e+01    1.353274e+00
  1.932473e+01    1.330955e+00
  1.935648e+01    1.332800e+00
  1.938823e+01    1.323677e+00
  1.941998e+01    1.332973e+00
  1.945173e+01    1.346605e+00
  1.948349e+01    1.346312e+00
  1.951524e+01    1.315690e+00
  1.954699e+01    1.321798e+00
  1.957874e+01    1.311569e+00
  1.961049e+01    1.295709e+00
  1.964224e+01    1.306070e+00
  1.967399e+01    1.300275e+00
  1.970574e+01    1.343147e+00
  1.973749e+01    1.292678e+00
  1.976925e+01    1.299511e+00
  1.980100e+01    1.303810e+00
  1.983275e+01    1.304124e+00
  1.986450e+01    1.278692e+00
  1.989625e+01    1.267893e+00
  1.992800e+01    1.271479e+00
  1.995975e+01    1.277836e+00
  1.999150e+01    1.266540e+00
  2.002325e+01    1.246921e+00
  2.005501e+01    1.241466e+00
  2.008676e+01    1.267725e+00
  2.011851e+01    1.249333e+00
  2.015026e+01    1.255216e+00
  2.018201e+01    1.264352e+00
  2.021376e+01    1.248805e+00
  2.024551e+01    1.290374e+00
  2.027726e+01    1.265672e+00
  2.030902e+01    1.261096e+00
  2.034077e+01    1.247180e+00
  2.037252e+01    1.215406e+00
  2.040427e+01    1.242627e+00
  2.043602e+01    1.230401e+00
  2.046777e+01    1.239675e+00
  2.049952e+01    1.259196e+00
  2.053127e+01    1.228037e+00
  2.056302e+01    1.246114e+00
  2.059478e+01    1.220491e+00
  2.062653e+01    1.245986e+00
  2.065828e+01    1.215130e+00
  2.069003e+01    1.250080e+00
  2.072178e+01    1.223026e+00
  2.075353e+01    1.218619e+00
  2.078528e+01    1.219717e+00
  2.081703e+01    1.227097e+00
  2.084878e+01    1.210293e+00
  2.088054e+01    1.231578e+00
  2.091229e+01    1.218052e+00
  2.094404e+01    1.228176e+00
  2.097579e+01    1.232009e+00
  2.100754e+01    1.195446e+00
  2.103929e+01    1.226965e+00
  2.107104e+01    1.209157e+00
  2.110279e+01    1.217361e+00
  2.113455e+01    1.243869e+00
  2.116630e+01    1.251930e+00
  2.119805e+01    1.207103e+00
  2.122980e+01    1.218621e+00
  2.126155e+01    1.237615e+00
  2.129330e+01    1.258192e+00
  2.132505e+01    1.263116e+00
  2.135680e+01    1.266674e+00
  2.138855e+01    1.255022e+00
  2.142031e+01    1.313748e+00
  2.145206e+01    1.340053e+00
  2.148381e+01    1.378500e+00
  2.151556e+01    1.413392e+00
  2.154731e+01    1.473422e+00
  2.157906e+01    1.613127e+00
  2.161081e+01    1.747728e+00
  2.164256e+01    1.979993e+00
  2.167431e+01    2.264391e+00
  2.170607e+01    2.759610e+00
  2.173782e+01    3.440920e+00
  2.176957e+01    4.505513e+00
  2.180132e+01    5.767590e+00
  2.183307e+01    7.067126e+00
  2.186482e+01    8.267944e+00
  2.189657e+01    8.874496e+00
  2.192832e+01    8.213723e+00
  2.196007e+01    6.575956e+00
  2.199183e+01    4.891553e+00
  2.202358e+01    3.645054e+00
  2.205533e+01    2.845088e+00
  2.208708e+01    2.309810e+00
  2.211883e+01    1.999000e+00
  2.215058e+01    1.759814e+00
  2.218233e+01    1.599413e+00
  2.221408e+01    1.490016e+00
  2.224584e+01    1.414163e+00
  2.227759e+01    1.318510e+00
  2.230934e+01    1.320810e+00
  2.234109e+01    1.270024e+00
  2.237284e+01    1.254781e+00
  2.240459e+01    1.195274e+00
  2.243634e+01    1.170490e+00
  2.246809e+01    1.169939e+00
  2.249984e+01    1.137907e+00
  2.253160e+01    1.128274e+00
  2.256335e+01    1.124842e+00
  2.259510e+01    1.083106e+00
  2.262685e+01    1.092781e+00
  2.265860e+01    1.073312e+00
  2.269035e+01    1.074886e+00
  2.272210e+01    1.068791e+00
  2.275385e+01    1.060105e+00
  2.278560e+01    1.043586e+00
  2.281736e+01    1.027718e+00
  2.284911e+01    1.037049e+00
  2.288086e+01    1.044551e+00
  2.291261e+01    1.009942e+00
  2.294436e+01    1.017443e+00
  2.297611e+01    1.029318e+00
  2.300786e+01    9.964678e-01
  2.303961e+01    9.988093e-01
  2.307137e+01    9.992350e-01
  2.310312e+01    9.885225e-01
  2.313487e+01    1.006056e+00
  2.316662e+01    9.866256e-01
  2.319837e+01    9.833027e-01
  2.323012e+01    9.913358e-01
  2.326187e+01    9.726581e-01
  2.329362e+01    9.807043e-01
  2.332537e+01    9.775520e-01
  2.335713e+01    9.953590e-01
  2.338888e+01    9.882088e-01
  2.342063e+01    9.874516e-01
  2.345238e+01    9.648200e-01
  2.348413e+01    9.540165e-01
  2.351588e+01    9.396564e-01
  2.354763e+01    9.690652e-01
  2.357938e+01    9.477766e-01
  2.361113e+01    9.241448e-01
  2.364289e+01    9.647153e-01
  2.367464e+01    9.466940e-01
  2.370639e+01    9.323860e-01
  2.373814e+01    9.282303e-01
  2.376989e+01    9.154543e-01
  2.380164e+01    8.962559e-01
  2.383339e+01    9.226716e-01
  2.386514e+01    9.177811e-01
  2.389689e+01    8.877082e-01
  2.392865e+01    9.039060e-01
  2.396040e+01    8.891277e-01
  2.399215e+01    8.901142e-01
  2.402390e+01    8.981137e-01
  2.405565e+01    8.776194e-01
  2.408740e+01    8.800874e-01
  2.411915e+01    8.728220e-01
  2.415090e+01    8.806581e-01
  2.418266e+01    8.702789e-01
  2.421441e+01    8.710981e-01
  2.424616e+01    8.598163e-01
  2.427791e+01    8.984425e-01
  2.430966e+01    9.078218e-01
  2.434141e+01    8.929994e-01
  2.437316e+01    9.023798e-01
  2.440491e+01    8.838651e-01
  2.443666e+01    8.938224e-01
  2.446842e+01    8.968318e-01
  2.450017e+01    8.891020e-01
  2.453192e+01    8.894268e-01
  2.456367e+01    8.834023e-01
  2.459542e+01    8.960111e-01
  2.462717e+01    8.735684e-01
  2.465892e+01    8.825293e-01
  2.469067e+01    8.859728e-01
  2.472242e+01    8.994575e-01
  2.475418e+01    8.953723e-01
  2.478593e+01    8.626028e-01
  2.481768e+01    8.769500e-01
  2.484943e+01    8.898433e-01
  2.488118e+01    8.800806e-01
  2.491293e+01    8.982495e-01
  2.494468e+01    8.833502e-01
  2.497643e+01    9.011105e-01
  2.500819e+01    8.934793e-01
  2.503994e+01    9.037625e-01
  2.507169e+01    8.952885e-01
  2.510344e+01    8.920690e-01
  2.513519e+01    8.792796e-01
  2.516694e+01    9.034636e-01
  2.519869e+01    9.243422e-01
  2.523044e+01    9.462214e-01
  2.526219e+01    9.665346e-01
  2.529395e+01    9.392686e-01
  2.532570e+01    9.583302e-01
  2.535745e+01    9.545263e-01
  2.538920e+01    9.739925e-01
  2.542095e+01    9.885623e-01
  2.545270e+01    1.007903e+00
  2.548445e+01    1.045737e+00
  2.551620e+01    1.064383e+00
  2.554795e+01    1.096299e+00
  2.557971e+01    1.137118e+00
  2.561146e+01    1.211937e+00
  2.564321e+01    1.300875e+00
  2.567496e+01    1.389486e+00
  2.570671e+01    1.572884e+00
  2.573846e+01    1.785720e+00
  2.577021e+01    2.197638e+00
  2.580196e+01    2.771175e+00
  2.583371e+01    3.564329e+00
  2.586547e+01    4.623403e+00
  2.589722e+01    5.760035e+00
  2.592897e+01    6.705872e+00
  2.596072e+01    7.095448e+00
  2.599247e+01    6.510565e+00
  2.602422e+01    5.258925e+00
  2.605597e+01    4.048121e+00
  2.608772e+01    3.012701e+00
  2.611948e+01    2.343238e+00
  2.615123e+01    1.975427e+00
  2.618298e+01    1.675626e+00
  2.621473e+01    1.489149e+00
  2.624648e+01    1.328947e+00
  2.627823e+01    1.255796e+00
  2.630998e+01    1.180596e+00
  2.634173e+01    1.104854e+00
  2.637348e+01    1.085403e+00
  2.640524e+01    1.054833e+00
  2.643699e+01    1.023070e+00
  2.646874e+01    9.898590e-01
  2.650049e+01    1.009724e+00
  2.653224e+01    1.004048e+00
  2.656399e+01    9.650429e-01
  2.659574e+01    1.000158e+00
  2.662749e+01    9.837111e-01
  2.665924e+01    9.987658e-01
  2.669100e+01    9.329212e-01
  2.672275e+01    9.448688e-01
  2.675450e+01    9.694196e-01
  2.678625e+01    9.639437e-01
  2.681800e+01    9.650086e-01
  2.684975e+01    9.720560e-01
  2.688150e+01    9.900761e-01
  2.691325e+01    1.000729e+00
  2.694501e+01    1.025864e+00
  2.697676e+01    1.053633e+00
  2.700851e+01    1.122752e+00
  2.704026e+01    1.176943e+00
  2.707201e+01    1.323162e+00
  2.710376e+01    1.473408e+00
  2.713551e+01    1.683407e+00
  2.716726e+01    1.940620e+00
  2.719901e+01    2.148428e+00
  2.723077e+01    2.137350e+00
  2.726252e+01    1.983741e+00
  2.729427e+01    1.714664e+00
  2.732602e+01    1.472518e+00
  2.735777e+01    1.281947e+00
  2.738952e+01    1.159359e+00
  2.742127e+01    1.088144e+00
  2.745302e+01    1.014373e+00
  2.748477e+01    9.930881e-01
  2.751653e+01    9.551373e-01
  2.754828e+01    9.713671e-01
  2.758003e+01    9.525093e-01
  2.761178e+01    9.241052e-01
  2.764353e+01    9.029564e-01
  2.767528e+01    8.843434e-01
  2.770703e+01    9.073596e-01
  2.773878e+01    8.728704e-01
  2.777054e+01    8.898607e-01
  2.780229e+01    8.852853e-01
  2.783404e+01    8.767187e-01
  2.786579e+01    8.641774e-01
  2.789754e+01    8.835140e-01
  2.792929e+01    8.510342e-01
  2.796104e+01    8.529570e-01
  2.799279e+01    8.653970e-01
  2.802454e+01    8.675375e-01
  2.805630e+01    8.462186e-01
  2.808805e+01    8.506476e-01
  2.811980e+01    8.343385e-01
  2.815155e+01    8.623042e-01
  2.818330e+01    8.452125e-01
  2.821505e+01    8.413419e-01
  2.824680e+01    8.337490e-01
  2.827855e+01    8.518318e-01
  2.831030e+01    8.153353e-01
  2.834206e+01    8.314120e-01
  2.837381e+01    8.473877e-01
  2.840556e+01    8.293938e-01
  2.843731e+01    8.427975e-01
  2.846906e+01    8.459027e-01
  2.850081e+01    8.534219e-01
  2.853256e+01    8.559712e-01
  2.856431e+01    8.370356e-01
  2.859606e+01    8.087216e-01
  2.862782e+01    8.335536e-01
  2.865957e+01    8.513122e-01
  2.869132e+01    8.206195e-01
  2.872307e+01    8.338212e-01
  2.875482e+01    8.305892e-01
  2.878657e+01    8.281787e-01
  2.881832e+01    8.412550e-01
  2.885007e+01    8.218700e-01
  2.888183e+01    8.274186e-01
  2.891358e+01    7.996330e-01
  2.894533e+01    8.018202e-01
  2.897708e+01    8.241798e-01
  2.900883e+01    8.263595e-01
  2.904058e+01    8.017811e-01
  2.907233e+01    7.960396e-01
  2.910408e+01    8.118634e-01
  2.913583e+01    8.113384e-01
  2.916759e+01    8.031558e-01
  2.919934e+01    8.002043e-01
  2.923109e+01    7.991769e-01
  2.926284e+01    8.001418e-01
  2.929459e+01    7.995523e-01
  2.932634e+01    7.901603e-01
  2.935809e+01    8.014520e-01
  2.938984e+01    7.899249e-01
  2.942159e+01    8.141153e-01
  2.945335e+01    7.950638e-01
  2.948510e+01    7.914693e-01
  2.951685e+01    7.948763e-01
  2.954860e+01    8.017814e-01
  2.958035e+01    7.892625e-01
  2.961210e+01    7.805552e-01
  2.964385e+01    7.931987e-01
  2.967560e+01    7.984576e-01
  2.970736e+01    7.772564e-01
  2.973911e+01    8.006375e-01
  2.977086e+01    8.041137e-01
  2.980261e+01    7.672473e-01
  2.983436e+01    7.621034e-01
  2.986611e+01    7.695453e-01
  2.989786e+01    8.168135e-01
  2.992961e+01    7.912912e-01
  2.996136e+01    7.840720e-01
  2.999312e+01    7.860636e-01
  3.002487e+01    8.271062e-01
  3.005662e+01    8.133749e-01
  3.008837e+01    7.985391e-01
  3.012012e+01    7.731993e-01
  3.015187e+01    7.620497e-01
  3.018362e+01    7.879812e-01
  3.021537e+01    8.135697e-01
  3.024712e+01    7.986823e-01
  3.027888e+01    7.745619e-01
  3.031063e+01    7.783452e-01
  3.034238e+01    7.846513e-01
  3.037413e+01    8.014339e-01
  3.040588e+01    7.711667e-01
  3.043763e+01    7.689912e-01
  3.046938e+01    7.856634e-01
  3.050113e+01    7.839897e-01
  3.053288e+01    7.691587e-01
  3.056464e+01    7.793644e-01
  3.059639e+01    7.711252e-01
  3.062814e+01    7.827965e-01
  3.065989e+01    7.935166e-01
  3.069164e+01    7.497359e-01
  3.072339e+01    7.771319e-01
  3.075514e+01    7.814593e-01
  3.078689e+01    7.613825e-01
  3.081865e+01    7.690033e-01
  3.085040e+01    7.867091e-01
  3.088215e+01    8.187855e-01
  3.091390e+01    7.981963e-01
  3.094565e+01    7.858249e-01
  3.097740e+01    8.008006e-01
  3.100915e+01    7.753836e-01
  3.104090e+01    7.627407e-01
  3.107265e+01    7.723952e-01
  3.110441e+01    7.948284e-01
  3.113616e+01    7.847000e-01
  3.116791e+01    7.870032e-01
  3.119966e+01    7.778051e-01
  3.123141e+01    7.868189e-01
  3.126316e+01    8.063765e-01
  3.129491e+01    7.872483e-01
  3.132666e+01    7.787616e-01
  3.135841e+01    8.030844e-01
  3.139017e+01    8.140947e-01
  3.142192e+01    8.274668e-01
  3.145367e+01    8.316135e-01
  3.148542e+01    8.245851e-01
  3.151717e+01    8.322579e-01
  3.154892e+01    8.337704e-01
  3.158067e+01    8.782753e-01
  3.161242e+01    8.769324e-01
  3.164418e+01    9.171360e-01
  3.167593e+01    9.466865e-01
  3.170768e+01    1.004734e+00
  3.173943e+01    1.084235e+00
  3.177118e+01    1.228709e+00
  3.180293e+01    1.463378e+00
  3.183468e+01    1.670889e+00
  3.186643e+01    1.880344e+00
  3.189818e+01    2.052777e+00
  3.192994e+01    2.003090e+00
  3.196169e+01    1.815448e+00
  3.199344e+01    1.544093e+00
  3.202519e+01    1.347884e+00
  3.205694e+01    1.144350e+00
  3.208869e+01    1.037360e+00
  3.212044e+01    9.999399e-01
  3.215219e+01    9.284221e-01
  3.218394e+01    8.838080e-01
  3.221570e+01    8.475821e-01
  3.224745e+01    8.383905e-01
  3.227920e+01    7.917435e-01
  3.231095e+01    8.089722e-01
  3.234270e+01    8.062564e-01
  3.237445e+01    7.972751e-01
  3.240620e+01    7.759008e-01
  3.243795e+01    7.864701e-01
  3.246970e+01    7.562611e-01
  3.250146e+01    7.550360e-01
  3.253321e+01    7.809120e-01
  3.254908e+01    7.826092e-01