File: XRD/Reaction conditions/2024-07-27_003_Ru-CGO-ex_Reaction_dwell_000023_data_000152.dat
# == pyFAI calibration ==
# Distance Sample to Detector: 0.4 m
# PONI: 9.750e-02, 1.135e-01 m
# Rotations: -0.000175 0.000000 -0.000000 rad
#
# == Fit2d calibration ==
# Distance Sample-beamCenter: 400.000 mm
# Center: x=1514.000, y=1300.000 pix
# Tilt: 0.010 deg  TiltPlanRot: 0.010 deg
#
# Detector Detector	 Spline= None	 PixelSize= 7.500e-05, 7.500e-05 m
#    Detector has a mask: False
#    Detector has a dark current: False
#    detector has a flat field: False
#
# Wavelength: 6.888e-11 m
# Mask applied: user provided
# Dark current applied: False
# Flat field applied: False
# Polarization factor: 0.99
# Normalization factor: 1.0
# --> /home/myspot/data/2024_07_Rosario/Ru-CGO-ex/2024-07-27_003_Ru-CGO-ex_Reaction_dwell_000023_data_000152.dat
#       q_nm^-1             I
  2.003187e-02    0.000000e+00
  5.178302e-02    2.116616e-01
  8.353417e-02    2.238699e-01
  1.152853e-01    4.737504e-02
  1.470365e-01    6.783420e-02
  1.787876e-01    2.446911e-02
  2.105388e-01    3.700741e-02
  2.422899e-01    3.025105e-02
  2.740411e-01    4.397383e-02
  3.057922e-01    1.811942e-02
  3.375433e-01    7.218686e-02
  3.692945e-01    5.932750e-02
  4.010456e-01    4.943117e-02
  4.327968e-01    3.415097e-02
  4.645479e-01    5.530834e-02
  4.962991e-01    7.679737e-02
  5.280502e-01    5.238686e-02
  5.598014e-01    4.284882e-02
  5.915525e-01    2.808805e-02
  6.233037e-01    2.930592e-02
  6.550548e-01    4.686164e-02
  6.868060e-01    2.713955e-02
  7.185571e-01    7.553666e-02
  7.503083e-01    7.300073e-02
  7.820594e-01    9.953618e-02
  8.138106e-01    2.674816e-01
  8.455617e-01    3.966021e-01
  8.773129e-01    4.947996e-01
  9.090640e-01    6.247116e-01
  9.408152e-01    7.016302e-01
  9.725663e-01    9.482517e-01
  1.004317e+00    1.102159e+00
  1.036069e+00    1.299118e+00
  1.067820e+00    1.463055e+00
  1.099571e+00    1.567585e+00
  1.131322e+00    1.661627e+00
  1.163073e+00    1.655429e+00
  1.194824e+00    1.805599e+00
  1.226575e+00    2.189173e+00
  1.258327e+00    2.489682e+00
  1.290078e+00    2.632062e+00
  1.321829e+00    2.643471e+00
  1.353580e+00    2.760377e+00
  1.385331e+00    2.816758e+00
  1.417082e+00    2.844238e+00
  1.448834e+00    2.891625e+00
  1.480585e+00    3.075377e+00
  1.512336e+00    3.198777e+00
  1.544087e+00    3.039905e+00
  1.575838e+00    3.127184e+00
  1.607589e+00    3.165555e+00
  1.639340e+00    3.040892e+00
  1.671092e+00    3.145987e+00
  1.702843e+00    2.917001e+00
  1.734594e+00    3.101071e+00
  1.766345e+00    3.153110e+00
  1.798096e+00    3.141125e+00
  1.829847e+00    2.989729e+00
  1.861598e+00    3.070945e+00
  1.893350e+00    3.121093e+00
  1.925101e+00    2.968888e+00
  1.956852e+00    3.061774e+00
  1.988603e+00    3.027993e+00
  2.020354e+00    3.124035e+00
  2.052105e+00    3.062637e+00
  2.083856e+00    3.145617e+00
  2.115608e+00    3.137800e+00
  2.147359e+00    3.113408e+00
  2.179110e+00    3.120507e+00
  2.210861e+00    3.156542e+00
  2.242612e+00    3.167128e+00
  2.274363e+00    3.123942e+00
  2.306115e+00    3.163501e+00
  2.337866e+00    3.231656e+00
  2.369617e+00    3.045151e+00
  2.401368e+00    3.222712e+00
  2.433119e+00    3.215496e+00
  2.464870e+00    3.168663e+00
  2.496621e+00    3.167419e+00
  2.528373e+00    3.213306e+00
  2.560124e+00    3.198612e+00
  2.591875e+00    3.248059e+00
  2.623626e+00    3.144452e+00
  2.655377e+00    3.283521e+00
  2.687128e+00    3.178387e+00
  2.718879e+00    3.305096e+00
  2.750631e+00    3.246749e+00
  2.782382e+00    3.388128e+00
  2.814133e+00    3.288438e+00
  2.845884e+00    3.379602e+00
  2.877635e+00    3.353278e+00
  2.909386e+00    3.354039e+00
  2.941137e+00    3.215518e+00
  2.972889e+00    3.299115e+00
  3.004640e+00    3.297564e+00
  3.036391e+00    3.315650e+00
  3.068142e+00    3.419022e+00
  3.099893e+00    3.347088e+00
  3.131644e+00    3.287137e+00
  3.163395e+00    3.308648e+00
  3.195147e+00    3.305586e+00
  3.226898e+00    3.339052e+00
  3.258649e+00    3.468632e+00
  3.290400e+00    3.263183e+00
  3.322151e+00    3.488501e+00
  3.353902e+00    3.241880e+00
  3.385654e+00    3.336402e+00
  3.417405e+00    3.526761e+00
  3.449156e+00    3.420619e+00
  3.480907e+00    3.410306e+00
  3.512658e+00    3.262635e+00
  3.544409e+00    3.517161e+00
  3.576160e+00    3.388734e+00
  3.607912e+00    3.366597e+00
  3.639663e+00    3.385296e+00
  3.671414e+00    3.364481e+00
  3.703165e+00    3.462140e+00
  3.734916e+00    3.537073e+00
  3.766667e+00    3.445996e+00
  3.798418e+00    3.455749e+00
  3.830170e+00    3.445157e+00
  3.861921e+00    3.539980e+00
  3.893672e+00    3.465785e+00
  3.925423e+00    3.404467e+00
  3.957174e+00    3.493786e+00
  3.988925e+00    3.539256e+00
  4.020676e+00    3.533422e+00
  4.052428e+00    3.498921e+00
  4.084179e+00    3.517318e+00
  4.115930e+00    3.477206e+00
  4.147681e+00    3.528087e+00
  4.179432e+00    3.595414e+00
  4.211183e+00    3.524424e+00
  4.242935e+00    3.531258e+00
  4.274686e+00    3.555109e+00
  4.306437e+00    3.550511e+00
  4.338188e+00    3.665309e+00
  4.369939e+00    3.519470e+00
  4.401690e+00    3.616803e+00
  4.433441e+00    3.505445e+00
  4.465193e+00    3.553317e+00
  4.496944e+00    3.692109e+00
  4.528695e+00    3.526942e+00
  4.560446e+00    3.630427e+00
  4.592197e+00    3.580426e+00
  4.623948e+00    3.636920e+00
  4.655699e+00    3.635130e+00
  4.687451e+00    3.599764e+00
  4.719202e+00    3.566553e+00
  4.750953e+00    3.708254e+00
  4.782704e+00    3.517734e+00
  4.814455e+00    3.559950e+00
  4.846206e+00    3.603199e+00
  4.877957e+00    3.618749e+00
  4.909709e+00    3.603867e+00
  4.941460e+00    3.638436e+00
  4.973211e+00    3.625940e+00
  5.004962e+00    3.618276e+00
  5.036713e+00    3.523912e+00
  5.068464e+00    3.632970e+00
  5.100216e+00    3.684294e+00
  5.131967e+00    3.668670e+00
  5.163718e+00    3.624075e+00
  5.195469e+00    3.626979e+00
  5.227220e+00    3.754786e+00
  5.258971e+00    3.652928e+00
  5.290722e+00    3.681827e+00
  5.322474e+00    3.578721e+00
  5.354225e+00    3.656981e+00
  5.385976e+00    3.602169e+00
  5.417727e+00    3.627658e+00
  5.449478e+00    3.574300e+00
  5.481229e+00    3.564267e+00
  5.512980e+00    3.601236e+00
  5.544732e+00    3.618823e+00
  5.576483e+00    3.624238e+00
  5.608234e+00    3.546937e+00
  5.639985e+00    3.578626e+00
  5.671736e+00    3.616916e+00
  5.703487e+00    3.533118e+00
  5.735238e+00    3.660622e+00
  5.766990e+00    3.668244e+00
  5.798741e+00    3.616170e+00
  5.830492e+00    3.565177e+00
  5.862243e+00    3.495261e+00
  5.893994e+00    3.495521e+00
  5.925745e+00    3.537206e+00
  5.957497e+00    3.533283e+00
  5.989248e+00    3.434209e+00
  6.020999e+00    3.470033e+00
  6.052750e+00    3.580806e+00
  6.084501e+00    3.613624e+00
  6.116252e+00    3.611608e+00
  6.148003e+00    3.575305e+00
  6.179755e+00    3.548210e+00
  6.211506e+00    3.558113e+00
  6.243257e+00    3.621466e+00
  6.275008e+00    3.569663e+00
  6.306759e+00    3.456606e+00
  6.338510e+00    3.666053e+00
  6.370261e+00    3.505463e+00
  6.402013e+00    3.583356e+00
  6.433764e+00    3.514452e+00
  6.465515e+00    3.596552e+00
  6.497266e+00    3.514260e+00
  6.529017e+00    3.503144e+00
  6.560768e+00    3.514527e+00
  6.592519e+00    3.578101e+00
  6.624271e+00    3.641275e+00
  6.656022e+00    3.557787e+00
  6.687773e+00    3.535609e+00
  6.719524e+00    3.632976e+00
  6.751275e+00    3.546488e+00
  6.783026e+00    3.615314e+00
  6.814777e+00    3.543764e+00
  6.846529e+00    3.589556e+00
  6.878280e+00    3.504735e+00
  6.910031e+00    3.421933e+00
  6.941782e+00    3.497734e+00
  6.973533e+00    3.636303e+00
  7.005284e+00    3.532873e+00
  7.037036e+00    3.520214e+00
  7.068787e+00    3.543106e+00
  7.100538e+00    3.542784e+00
  7.132289e+00    3.442765e+00
  7.164040e+00    3.549144e+00
  7.195791e+00    3.524569e+00
  7.227542e+00    3.520200e+00
  7.259294e+00    3.515812e+00
  7.291045e+00    3.480937e+00
  7.322796e+00    3.564098e+00
  7.354547e+00    3.448912e+00
  7.386298e+00    3.449849e+00
  7.418049e+00    3.457911e+00
  7.449800e+00    3.530613e+00
  7.481552e+00    3.531416e+00
  7.513303e+00    3.410912e+00
  7.545054e+00    3.458737e+00
  7.576805e+00    3.468341e+00
  7.608556e+00    3.398604e+00
  7.640307e+00    3.517725e+00
  7.672058e+00    3.410090e+00
  7.703810e+00    3.420281e+00
  7.735561e+00    3.436685e+00
  7.767312e+00    3.462343e+00
  7.799063e+00    3.480919e+00
  7.830814e+00    3.421108e+00
  7.862565e+00    3.354898e+00
  7.894317e+00    3.408489e+00
  7.926068e+00    3.375046e+00
  7.957819e+00    3.438632e+00
  7.989570e+00    3.479374e+00
  8.021321e+00    3.456820e+00
  8.053072e+00    3.445981e+00
  8.084823e+00    3.409891e+00
  8.116575e+00    3.449026e+00
  8.148326e+00    3.446774e+00
  8.180077e+00    3.475210e+00
  8.211828e+00    3.452876e+00
  8.243579e+00    3.466614e+00
  8.275330e+00    3.422300e+00
  8.307081e+00    3.380994e+00
  8.338833e+00    3.353186e+00
  8.370584e+00    3.323092e+00
  8.402335e+00    3.346070e+00
  8.434086e+00    3.374049e+00
  8.465837e+00    3.323339e+00
  8.497588e+00    3.450015e+00
  8.529339e+00    3.366096e+00
  8.561091e+00    3.347671e+00
  8.592842e+00    3.316720e+00
  8.624593e+00    3.317805e+00
  8.656344e+00    3.294502e+00
  8.688095e+00    3.295846e+00
  8.719846e+00    3.290004e+00
  8.751598e+00    3.354607e+00
  8.783349e+00    3.292358e+00
  8.815100e+00    3.328185e+00
  8.846851e+00    3.277253e+00
  8.878602e+00    3.299009e+00
  8.910353e+00    3.338556e+00
  8.942104e+00    3.272597e+00
  8.973856e+00    3.320463e+00
  9.005607e+00    3.292964e+00
  9.037358e+00    3.216077e+00
  9.069109e+00    3.290476e+00
  9.100860e+00    3.278283e+00
  9.132611e+00    3.250469e+00
  9.164362e+00    3.289469e+00
  9.196114e+00    3.197067e+00
  9.227865e+00    3.273252e+00
  9.259616e+00    3.205634e+00
  9.291367e+00    3.212379e+00
  9.323118e+00    3.238172e+00
  9.354869e+00    3.232720e+00
  9.386620e+00    3.158369e+00
  9.418372e+00    3.239788e+00
  9.450123e+00    3.250880e+00
  9.481874e+00    3.222003e+00
  9.513625e+00    3.189335e+00
  9.545376e+00    3.202803e+00
  9.577127e+00    3.170978e+00
  9.608878e+00    3.181143e+00
  9.640630e+00    3.230684e+00
  9.672381e+00    3.217315e+00
  9.704132e+00    3.167166e+00
  9.735883e+00    3.159680e+00
  9.767634e+00    3.222063e+00
  9.799385e+00    3.180602e+00
  9.831137e+00    3.106881e+00
  9.862888e+00    3.134274e+00
  9.894639e+00    3.153746e+00
  9.926390e+00    3.097420e+00
  9.958141e+00    3.105399e+00
  9.989892e+00    3.175985e+00
  1.002164e+01    3.119616e+00
  1.005339e+01    3.073981e+00
  1.008515e+01    3.096601e+00
  1.011690e+01    3.127846e+00
  1.014865e+01    3.086185e+00
  1.018040e+01    3.098505e+00
  1.021215e+01    3.040150e+00
  1.024390e+01    3.016076e+00
  1.027565e+01    3.057558e+00
  1.030740e+01    3.042414e+00
  1.033915e+01    3.003348e+00
  1.037091e+01    3.099144e+00
  1.040266e+01    3.047580e+00
  1.043441e+01    3.005793e+00
  1.046616e+01    3.001964e+00
  1.049791e+01    3.030896e+00
  1.052966e+01    2.997552e+00
  1.056141e+01    2.997862e+00
  1.059316e+01    3.025299e+00
  1.062492e+01    2.959193e+00
  1.065667e+01    2.978135e+00
  1.068842e+01    3.017782e+00
  1.072017e+01    3.006241e+00
  1.075192e+01    2.958112e+00
  1.078367e+01    2.972561e+00
  1.081542e+01    2.896983e+00
  1.084717e+01    2.948019e+00
  1.087892e+01    2.929198e+00
  1.091068e+01    2.925025e+00
  1.094243e+01    2.880636e+00
  1.097418e+01    2.882607e+00
  1.100593e+01    2.962648e+00
  1.103768e+01    2.879890e+00
  1.106943e+01    2.832981e+00
  1.110118e+01    2.918236e+00
  1.113293e+01    2.868446e+00
  1.116468e+01    2.865072e+00
  1.119644e+01    2.871719e+00
  1.122819e+01    2.850420e+00
  1.125994e+01    2.837987e+00
  1.129169e+01    2.824889e+00
  1.132344e+01    2.859714e+00
  1.135519e+01    2.784913e+00
  1.138694e+01    2.792393e+00
  1.141869e+01    2.817068e+00
  1.145045e+01    2.800684e+00
  1.148220e+01    2.771229e+00
  1.151395e+01    2.744288e+00
  1.154570e+01    2.808277e+00
  1.157745e+01    2.792758e+00
  1.160920e+01    2.760883e+00
  1.164095e+01    2.726543e+00
  1.167270e+01    2.786353e+00
  1.170445e+01    2.753350e+00
  1.173621e+01    2.708555e+00
  1.176796e+01    2.765712e+00
  1.179971e+01    2.742267e+00
  1.183146e+01    2.711565e+00
  1.186321e+01    2.702960e+00
  1.189496e+01    2.732654e+00
  1.192671e+01    2.669308e+00
  1.195846e+01    2.735485e+00
  1.199021e+01    2.712352e+00
  1.202197e+01    2.685981e+00
  1.205372e+01    2.706606e+00
  1.208547e+01    2.657034e+00
  1.211722e+01    2.696630e+00
  1.214897e+01    2.666001e+00
  1.218072e+01    2.625368e+00
  1.221247e+01    2.711244e+00
  1.224422e+01    2.713198e+00
  1.227597e+01    2.621943e+00
  1.230773e+01    2.642277e+00
  1.233948e+01    2.691177e+00
  1.237123e+01    2.705005e+00
  1.240298e+01    2.663512e+00
  1.243473e+01    2.693446e+00
  1.246648e+01    2.659234e+00
  1.249823e+01    2.690498e+00
  1.252998e+01    2.755244e+00
  1.256174e+01    2.704432e+00
  1.259349e+01    2.698012e+00
  1.262524e+01    2.778171e+00
  1.265699e+01    2.755655e+00
  1.268874e+01    2.779270e+00
  1.272049e+01    2.837265e+00
  1.275224e+01    2.899959e+00
  1.278399e+01    2.978656e+00
  1.281574e+01    3.030143e+00
  1.284750e+01    3.121130e+00
  1.287925e+01    3.345380e+00
  1.291100e+01    3.645715e+00
  1.294275e+01    4.081723e+00
  1.297450e+01    4.760583e+00
  1.300625e+01    5.813710e+00
  1.303800e+01    7.650851e+00
  1.306975e+01    1.019885e+01
  1.310150e+01    1.271894e+01
  1.313326e+01    1.467290e+01
  1.316501e+01    1.614388e+01
  1.319676e+01    1.551724e+01
  1.322851e+01    1.256463e+01
  1.326026e+01    9.020235e+00
  1.329201e+01    6.657763e+00
  1.332376e+01    5.277881e+00
  1.335551e+01    4.415847e+00
  1.338727e+01    3.826308e+00
  1.341902e+01    3.503740e+00
  1.345077e+01    3.207654e+00
  1.348252e+01    3.008672e+00
  1.351427e+01    2.917461e+00
  1.354602e+01    2.792302e+00
  1.357777e+01    2.725812e+00
  1.360952e+01    2.634544e+00
  1.364127e+01    2.596935e+00
  1.367303e+01    2.582937e+00
  1.370478e+01    2.539587e+00
  1.373653e+01    2.515186e+00
  1.376828e+01    2.494370e+00
  1.380003e+01    2.494152e+00
  1.383178e+01    2.428319e+00
  1.386353e+01    2.435426e+00
  1.389528e+01    2.441020e+00
  1.392703e+01    2.437342e+00
  1.395879e+01    2.361146e+00
  1.399054e+01    2.390983e+00
  1.402229e+01    2.356453e+00
  1.405404e+01    2.303305e+00
  1.408579e+01    2.289536e+00
  1.411754e+01    2.325264e+00
  1.414929e+01    2.290427e+00
  1.418104e+01    2.297533e+00
  1.421279e+01    2.264771e+00
  1.424455e+01    2.306178e+00
  1.427630e+01    2.283334e+00
  1.430805e+01    2.288676e+00
  1.433980e+01    2.233434e+00
  1.437155e+01    2.228347e+00
  1.440330e+01    2.284425e+00
  1.443505e+01    2.213025e+00
  1.446680e+01    2.247729e+00
  1.449856e+01    2.210634e+00
  1.453031e+01    2.180200e+00
  1.456206e+01    2.226459e+00
  1.459381e+01    2.201319e+00
  1.462556e+01    2.174987e+00
  1.465731e+01    2.153649e+00
  1.468906e+01    2.159784e+00
  1.472081e+01    2.217468e+00
  1.475256e+01    2.167052e+00
  1.478432e+01    2.212873e+00
  1.481607e+01    2.205403e+00
  1.484782e+01    2.226884e+00
  1.487957e+01    2.181931e+00
  1.491132e+01    2.220809e+00
  1.494307e+01    2.324178e+00
  1.497482e+01    2.321783e+00
  1.500657e+01    2.457138e+00
  1.503832e+01    2.568371e+00
  1.507008e+01    2.795976e+00
  1.510183e+01    3.182544e+00
  1.513358e+01    3.737045e+00
  1.516533e+01    4.460338e+00
  1.519708e+01    5.126401e+00
  1.522883e+01    5.520482e+00
  1.526058e+01    5.853283e+00
  1.529233e+01    5.499856e+00
  1.532409e+01    4.622424e+00
  1.535584e+01    3.717953e+00
  1.538759e+01    3.116582e+00
  1.541934e+01    2.716994e+00
  1.545109e+01    2.527962e+00
  1.548284e+01    2.301425e+00
  1.551459e+01    2.254406e+00
  1.554634e+01    2.155035e+00
  1.557809e+01    2.155910e+00
  1.560985e+01    2.045129e+00
  1.564160e+01    2.034678e+00
  1.567335e+01    2.000362e+00
  1.570510e+01    1.994160e+00
  1.573685e+01    1.989548e+00
  1.576860e+01    1.987197e+00
  1.580035e+01    1.942439e+00
  1.583210e+01    1.930781e+00
  1.586385e+01    1.897107e+00
  1.589561e+01    1.904285e+00
  1.592736e+01    1.857195e+00
  1.595911e+01    1.833159e+00
  1.599086e+01    1.858639e+00
  1.602261e+01    1.859058e+00
  1.605436e+01    1.888226e+00
  1.608611e+01    1.825580e+00
  1.611786e+01    1.820806e+00
  1.614961e+01    1.819667e+00
  1.618137e+01    1.809051e+00
  1.621312e+01    1.830632e+00
  1.624487e+01    1.823646e+00
  1.627662e+01    1.787016e+00
  1.630837e+01    1.784639e+00
  1.634012e+01    1.771598e+00
  1.637187e+01    1.807506e+00
  1.640362e+01    1.760889e+00
  1.643538e+01    1.787103e+00
  1.646713e+01    1.761237e+00
  1.649888e+01    1.796809e+00
  1.653063e+01    1.748815e+00
  1.656238e+01    1.736682e+00
  1.659413e+01    1.745402e+00
  1.662588e+01    1.738847e+00
  1.665763e+01    1.698053e+00
  1.668938e+01    1.718780e+00
  1.672114e+01    1.724788e+00
  1.675289e+01    1.714368e+00
  1.678464e+01    1.706783e+00
  1.681639e+01    1.727208e+00
  1.684814e+01    1.666888e+00
  1.687989e+01    1.690078e+00
  1.691164e+01    1.679846e+00
  1.694339e+01    1.657884e+00
  1.697514e+01    1.662247e+00
  1.700690e+01    1.648527e+00
  1.703865e+01    1.648288e+00
  1.707040e+01    1.638497e+00
  1.710215e+01    1.646391e+00
  1.713390e+01    1.644163e+00
  1.716565e+01    1.620247e+00
  1.719740e+01    1.640813e+00
  1.722915e+01    1.624699e+00
  1.726091e+01    1.593936e+00
  1.729266e+01    1.605972e+00
  1.732441e+01    1.607097e+00
  1.735616e+01    1.598839e+00
  1.738791e+01    1.621780e+00
  1.741966e+01    1.578613e+00
  1.745141e+01    1.618091e+00
  1.748316e+01    1.604008e+00
  1.751491e+01    1.579175e+00
  1.754667e+01    1.567439e+00
  1.757842e+01    1.561439e+00
  1.761017e+01    1.599136e+00
  1.764192e+01    1.552427e+00
  1.767367e+01    1.519757e+00
  1.770542e+01    1.553242e+00
  1.773717e+01    1.523673e+00
  1.776892e+01    1.540751e+00
  1.780067e+01    1.534300e+00
  1.783243e+01    1.518512e+00
  1.786418e+01    1.539101e+00
  1.789593e+01    1.521793e+00
  1.792768e+01    1.476826e+00
  1.795943e+01    1.527923e+00
  1.799118e+01    1.511472e+00
  1.802293e+01    1.497159e+00
  1.805468e+01    1.528762e+00
  1.808643e+01    1.527882e+00
  1.811819e+01    1.512852e+00
  1.814994e+01    1.484548e+00
  1.818169e+01    1.488923e+00
  1.821344e+01    1.489487e+00
  1.824519e+01    1.459592e+00
  1.827694e+01    1.454530e+00
  1.830869e+01    1.484393e+00
  1.834044e+01    1.474879e+00
  1.837220e+01    1.459367e+00
  1.840395e+01    1.475074e+00
  1.843570e+01    1.475463e+00
  1.846745e+01    1.471634e+00
  1.849920e+01    1.441087e+00
  1.853095e+01    1.438652e+00
  1.856270e+01    1.433614e+00
  1.859445e+01    1.419471e+00
  1.862620e+01    1.432608e+00
  1.865796e+01    1.443338e+00
  1.868971e+01    1.416742e+00
  1.872146e+01    1.408822e+00
  1.875321e+01    1.422685e+00
  1.878496e+01    1.414412e+00
  1.881671e+01    1.398917e+00
  1.884846e+01    1.387375e+00
  1.888021e+01    1.388531e+00
  1.891196e+01    1.397798e+00
  1.894372e+01    1.383515e+00
  1.897547e+01    1.368283e+00
  1.900722e+01    1.334488e+00
  1.903897e+01    1.382203e+00
  1.907072e+01    1.386000e+00
  1.910247e+01    1.366708e+00
  1.913422e+01    1.377779e+00
  1.916597e+01    1.377217e+00
  1.919773e+01    1.375678e+00
  1.922948e+01    1.357666e+00
  1.926123e+01    1.358585e+00
  1.929298e+01    1.340311e+00
  1.932473e+01    1.346737e+00
  1.935648e+01    1.346043e+00
  1.938823e+01    1.353397e+00
  1.941998e+01    1.352277e+00
  1.945173e+01    1.334411e+00
  1.948349e+01    1.357647e+00
  1.951524e+01    1.317991e+00
  1.954699e+01    1.321548e+00
  1.957874e+01    1.314882e+00
  1.961049e+01    1.315871e+00
  1.964224e+01    1.320014e+00
  1.967399e+01    1.309387e+00
  1.970574e+01    1.319028e+00
  1.973749e+01    1.294473e+00
  1.976925e+01    1.308497e+00
  1.980100e+01    1.295588e+00
  1.983275e+01    1.293027e+00
  1.986450e+01    1.283860e+00
  1.989625e+01    1.293920e+00
  1.992800e+01    1.296955e+00
  1.995975e+01    1.290816e+00
  1.999150e+01    1.267125e+00
  2.002325e+01    1.269115e+00
  2.005501e+01    1.252814e+00
  2.008676e+01    1.277338e+00
  2.011851e+01    1.246603e+00
  2.015026e+01    1.264763e+00
  2.018201e+01    1.258684e+00
  2.021376e+01    1.281034e+00
  2.024551e+01    1.250973e+00
  2.027726e+01    1.242833e+00
  2.030902e+01    1.250978e+00
  2.034077e+01    1.243673e+00
  2.037252e+01    1.250739e+00
  2.040427e+01    1.250557e+00
  2.043602e+01    1.246799e+00
  2.046777e+01    1.248388e+00
  2.049952e+01    1.254472e+00
  2.053127e+01    1.218289e+00
  2.056302e+01    1.216559e+00
  2.059478e+01    1.232766e+00
  2.062653e+01    1.232886e+00
  2.065828e+01    1.250757e+00
  2.069003e+01    1.209967e+00
  2.072178e+01    1.221258e+00
  2.075353e+01    1.204395e+00
  2.078528e+01    1.208237e+00
  2.081703e+01    1.194075e+00
  2.084878e+01    1.195904e+00
  2.088054e+01    1.245488e+00
  2.091229e+01    1.238937e+00
  2.094404e+01    1.225859e+00
  2.097579e+01    1.210716e+00
  2.100754e+01    1.206876e+00
  2.103929e+01    1.227886e+00
  2.107104e+01    1.232206e+00
  2.110279e+01    1.234513e+00
  2.113455e+01    1.214531e+00
  2.116630e+01    1.220691e+00
  2.119805e+01    1.246338e+00
  2.122980e+01    1.273166e+00
  2.126155e+01    1.244694e+00
  2.129330e+01    1.263944e+00
  2.132505e+01    1.279825e+00
  2.135680e+01    1.279813e+00
  2.138855e+01    1.314513e+00
  2.142031e+01    1.312022e+00
  2.145206e+01    1.367827e+00
  2.148381e+01    1.387624e+00
  2.151556e+01    1.441251e+00
  2.154731e+01    1.504080e+00
  2.157906e+01    1.621920e+00
  2.161081e+01    1.773997e+00
  2.164256e+01    1.987129e+00
  2.167431e+01    2.272748e+00
  2.170607e+01    2.775154e+00
  2.173782e+01    3.540538e+00
  2.176957e+01    4.554749e+00
  2.180132e+01    5.813584e+00
  2.183307e+01    7.127685e+00
  2.186482e+01    8.273909e+00
  2.189657e+01    8.927848e+00
  2.192832e+01    8.214242e+00
  2.196007e+01    6.574168e+00
  2.199183e+01    4.847435e+00
  2.202358e+01    3.645675e+00
  2.205533e+01    2.804553e+00
  2.208708e+01    2.320200e+00
  2.211883e+01    1.963913e+00
  2.215058e+01    1.777560e+00
  2.218233e+01    1.614206e+00
  2.221408e+01    1.469129e+00
  2.224584e+01    1.388369e+00
  2.227759e+01    1.371366e+00
  2.230934e+01    1.298844e+00
  2.234109e+01    1.254669e+00
  2.237284e+01    1.240637e+00
  2.240459e+01    1.210685e+00
  2.243634e+01    1.199238e+00
  2.246809e+01    1.172012e+00
  2.249984e+01    1.118805e+00
  2.253160e+01    1.131840e+00
  2.256335e+01    1.134178e+00
  2.259510e+01    1.138278e+00
  2.262685e+01    1.100827e+00
  2.265860e+01    1.069765e+00
  2.269035e+01    1.081507e+00
  2.272210e+01    1.075222e+00
  2.275385e+01    1.076026e+00
  2.278560e+01    1.056517e+00
  2.281736e+01    1.049821e+00
  2.284911e+01    1.040906e+00
  2.288086e+01    1.023051e+00
  2.291261e+01    1.030845e+00
  2.294436e+01    1.032372e+00
  2.297611e+01    1.014391e+00
  2.300786e+01    1.012324e+00
  2.303961e+01    1.041142e+00
  2.307137e+01    1.016637e+00
  2.310312e+01    1.003670e+00
  2.313487e+01    1.010673e+00
  2.316662e+01    9.982714e-01
  2.319837e+01    9.693555e-01
  2.323012e+01    9.822940e-01
  2.326187e+01    9.628156e-01
  2.329362e+01    9.804007e-01
  2.332537e+01    9.730728e-01
  2.335713e+01    9.782237e-01
  2.338888e+01    9.576558e-01
  2.342063e+01    9.616854e-01
  2.345238e+01    9.549347e-01
  2.348413e+01    9.619594e-01
  2.351588e+01    9.754501e-01
  2.354763e+01    9.721460e-01
  2.357938e+01    9.487289e-01
  2.361113e+01    9.503481e-01
  2.364289e+01    9.534994e-01
  2.367464e+01    9.334499e-01
  2.370639e+01    9.234502e-01
  2.373814e+01    9.208504e-01
  2.376989e+01    9.372075e-01
  2.380164e+01    9.119903e-01
  2.383339e+01    9.043397e-01
  2.386514e+01    9.205546e-01
  2.389689e+01    9.144490e-01
  2.392865e+01    8.937235e-01
  2.396040e+01    8.921870e-01
  2.399215e+01    8.901308e-01
  2.402390e+01    8.897092e-01
  2.405565e+01    8.960418e-01
  2.408740e+01    8.880023e-01
  2.411915e+01    8.970646e-01
  2.415090e+01    8.846249e-01
  2.418266e+01    8.548420e-01
  2.421441e+01    8.700973e-01
  2.424616e+01    8.621196e-01
  2.427791e+01    8.911191e-01
  2.430966e+01    8.752164e-01
  2.434141e+01    8.677315e-01
  2.437316e+01    8.955325e-01
  2.440491e+01    8.817754e-01
  2.443666e+01    8.828321e-01
  2.446842e+01    9.099801e-01
  2.450017e+01    8.785958e-01
  2.453192e+01    8.782883e-01
  2.456367e+01    8.821400e-01
  2.459542e+01    8.748838e-01
  2.462717e+01    8.842263e-01
  2.465892e+01    8.683881e-01
  2.469067e+01    8.865222e-01
  2.472242e+01    8.876131e-01
  2.475418e+01    8.786629e-01
  2.478593e+01    8.710486e-01
  2.481768e+01    8.728347e-01
  2.484943e+01    8.806019e-01
  2.488118e+01    8.971062e-01
  2.491293e+01    8.839571e-01
  2.494468e+01    8.883145e-01
  2.497643e+01    8.876518e-01
  2.500819e+01    8.973846e-01
  2.503994e+01    9.099951e-01
  2.507169e+01    9.057766e-01
  2.510344e+01    9.194729e-01
  2.513519e+01    8.973674e-01
  2.516694e+01    9.142601e-01
  2.519869e+01    9.290823e-01
  2.523044e+01    9.268844e-01
  2.526219e+01    9.151725e-01
  2.529395e+01    9.424253e-01
  2.532570e+01    9.604990e-01
  2.535745e+01    9.762734e-01
  2.538920e+01    9.870814e-01
  2.542095e+01    1.011012e+00
  2.545270e+01    1.027146e+00
  2.548445e+01    1.055344e+00
  2.551620e+01    1.060188e+00
  2.554795e+01    1.108190e+00
  2.557971e+01    1.133401e+00
  2.561146e+01    1.202543e+00
  2.564321e+01    1.294233e+00
  2.567496e+01    1.420354e+00
  2.570671e+01    1.589267e+00
  2.573846e+01    1.849359e+00
  2.577021e+01    2.247130e+00
  2.580196e+01    2.783124e+00
  2.583371e+01    3.628060e+00
  2.586547e+01    4.658981e+00
  2.589722e+01    5.842984e+00
  2.592897e+01    6.755587e+00
  2.596072e+01    7.113893e+00
  2.599247e+01    6.553731e+00
  2.602422e+01    5.323348e+00
  2.605597e+01    3.998292e+00
  2.608772e+01    3.007573e+00
  2.611948e+01    2.348609e+00
  2.615123e+01    1.933124e+00
  2.618298e+01    1.668719e+00
  2.621473e+01    1.479656e+00
  2.624648e+01    1.327789e+00
  2.627823e+01    1.229505e+00
  2.630998e+01    1.167697e+00
  2.634173e+01    1.101178e+00
  2.637348e+01    1.067673e+00
  2.640524e+01    1.038484e+00
  2.643699e+01    1.025698e+00
  2.646874e+01    9.872522e-01
  2.650049e+01    9.852359e-01
  2.653224e+01    9.973375e-01
  2.656399e+01    9.636294e-01
  2.659574e+01    9.864936e-01
  2.662749e+01    1.009378e+00
  2.665924e+01    9.871114e-01
  2.669100e+01    9.521845e-01
  2.672275e+01    9.671910e-01
  2.675450e+01    9.708623e-01
  2.678625e+01    9.687977e-01
  2.681800e+01    9.842358e-01
  2.684975e+01    9.846371e-01
  2.688150e+01    9.894914e-01
  2.691325e+01    1.006090e+00
  2.694501e+01    1.032126e+00
  2.697676e+01    1.067991e+00
  2.700851e+01    1.072759e+00
  2.704026e+01    1.203686e+00
  2.707201e+01    1.330021e+00
  2.710376e+01    1.509508e+00
  2.713551e+01    1.750962e+00
  2.716726e+01    1.953756e+00
  2.719901e+01    2.132904e+00
  2.723077e+01    2.139756e+00
  2.726252e+01    1.961911e+00
  2.729427e+01    1.699544e+00
  2.732602e+01    1.466312e+00
  2.735777e+01    1.275077e+00
  2.738952e+01    1.159328e+00
  2.742127e+01    1.103414e+00
  2.745302e+01    1.023449e+00
  2.748477e+01    9.997512e-01
  2.751653e+01    9.655597e-01
  2.754828e+01    9.194991e-01
  2.758003e+01    9.424572e-01
  2.761178e+01    9.056097e-01
  2.764353e+01    9.267274e-01
  2.767528e+01    8.992582e-01
  2.770703e+01    9.002042e-01
  2.773878e+01    9.008847e-01
  2.777054e+01    9.067950e-01
  2.780229e+01    8.892173e-01
  2.783404e+01    8.800460e-01
  2.786579e+01    8.777521e-01
  2.789754e+01    8.716976e-01
  2.792929e+01    8.726079e-01
  2.796104e+01    8.741670e-01
  2.799279e+01    8.634315e-01
  2.802454e+01    8.742356e-01
  2.805630e+01    8.516152e-01
  2.808805e+01    8.534942e-01
  2.811980e+01    8.655869e-01
  2.815155e+01    8.477704e-01
  2.818330e+01    8.573619e-01
  2.821505e+01    8.614031e-01
  2.824680e+01    8.509218e-01
  2.827855e+01    8.599675e-01
  2.831030e+01    8.281856e-01
  2.834206e+01    8.337414e-01
  2.837381e+01    8.363873e-01
  2.840556e+01    8.351908e-01
  2.843731e+01    8.304194e-01
  2.846906e+01    8.134219e-01
  2.850081e+01    8.422504e-01
  2.853256e+01    8.438112e-01
  2.856431e+01    8.169850e-01
  2.859606e+01    8.176174e-01
  2.862782e+01    8.177463e-01
  2.865957e+01    8.094815e-01
  2.869132e+01    8.494080e-01
  2.872307e+01    8.143007e-01
  2.875482e+01    8.502550e-01
  2.878657e+01    8.598462e-01
  2.881832e+01    8.163125e-01
  2.885007e+01    8.101647e-01
  2.888183e+01    8.332690e-01
  2.891358e+01    8.280761e-01
  2.894533e+01    8.070827e-01
  2.897708e+01    8.191695e-01
  2.900883e+01    8.209080e-01
  2.904058e+01    8.097236e-01
  2.907233e+01    8.099110e-01
  2.910408e+01    8.210374e-01
  2.913583e+01    8.272339e-01
  2.916759e+01    8.119825e-01
  2.919934e+01    8.094834e-01
  2.923109e+01    7.959909e-01
  2.926284e+01    8.119645e-01
  2.929459e+01    7.970683e-01
  2.932634e+01    8.102721e-01
  2.935809e+01    8.141082e-01
  2.938984e+01    8.046493e-01
  2.942159e+01    8.100549e-01
  2.945335e+01    8.076926e-01
  2.948510e+01    7.927537e-01
  2.951685e+01    7.871471e-01
  2.954860e+01    7.948617e-01
  2.958035e+01    7.988760e-01
  2.961210e+01    7.941514e-01
  2.964385e+01    7.660279e-01
  2.967560e+01    7.720675e-01
  2.970736e+01    8.017075e-01
  2.973911e+01    7.925490e-01
  2.977086e+01    7.864141e-01
  2.980261e+01    8.089022e-01
  2.983436e+01    7.990070e-01
  2.986611e+01    7.912741e-01
  2.989786e+01    7.973679e-01
  2.992961e+01    7.940539e-01
  2.996136e+01    7.904979e-01
  2.999312e+01    8.125491e-01
  3.002487e+01    7.863890e-01
  3.005662e+01    7.937722e-01
  3.008837e+01    8.144295e-01
  3.012012e+01    8.069634e-01
  3.015187e+01    7.553953e-01
  3.018362e+01    7.847608e-01
  3.021537e+01    7.762074e-01
  3.024712e+01    7.659161e-01
  3.027888e+01    8.063211e-01
  3.031063e+01    7.855402e-01
  3.034238e+01    7.880465e-01
  3.037413e+01    7.806962e-01
  3.040588e+01    7.994086e-01
  3.043763e+01    7.577386e-01
  3.046938e+01    7.698500e-01
  3.050113e+01    7.805328e-01
  3.053288e+01    7.674450e-01
  3.056464e+01    7.891538e-01
  3.059639e+01    7.833828e-01
  3.062814e+01    7.758478e-01
  3.065989e+01    7.698861e-01
  3.069164e+01    7.911560e-01
  3.072339e+01    7.791439e-01
  3.075514e+01    7.735760e-01
  3.078689e+01    7.893677e-01
  3.081865e+01    7.797903e-01
  3.085040e+01    7.861246e-01
  3.088215e+01    7.937447e-01
  3.091390e+01    7.924680e-01
  3.094565e+01    7.723224e-01
  3.097740e+01    8.026189e-01
  3.100915e+01    7.836497e-01
  3.104090e+01    8.056741e-01
  3.107265e+01    7.904923e-01
  3.110441e+01    7.744622e-01
  3.113616e+01    7.856910e-01
  3.116791e+01    7.924605e-01
  3.119966e+01    7.905774e-01
  3.123141e+01    7.980087e-01
  3.126316e+01    7.912496e-01
  3.129491e+01    7.868055e-01
  3.132666e+01    7.969572e-01
  3.135841e+01    7.995684e-01
  3.139017e+01    8.197617e-01
  3.142192e+01    7.966019e-01
  3.145367e+01    8.250739e-01
  3.148542e+01    8.026863e-01
  3.151717e+01    8.332568e-01
  3.154892e+01    8.224394e-01
  3.158067e+01    8.800606e-01
  3.161242e+01    8.989090e-01
  3.164418e+01    8.938723e-01
  3.167593e+01    9.536245e-01
  3.170768e+01    1.023703e+00
  3.173943e+01    1.102428e+00
  3.177118e+01    1.247727e+00
  3.180293e+01    1.433498e+00
  3.183468e+01    1.675076e+00
  3.186643e+01    1.939336e+00
  3.189818e+01    2.079708e+00
  3.192994e+01    2.005607e+00
  3.196169e+01    1.857283e+00
  3.199344e+01    1.539366e+00
  3.202519e+01    1.297379e+00
  3.205694e+01    1.154613e+00
  3.208869e+01    1.029144e+00
  3.212044e+01    9.884440e-01
  3.215219e+01    9.127904e-01
  3.218394e+01    8.727272e-01
  3.221570e+01    8.228606e-01
  3.224745e+01    8.337166e-01
  3.227920e+01    8.356941e-01
  3.231095e+01    8.028995e-01
  3.234270e+01    8.041310e-01
  3.237445e+01    7.945509e-01
  3.240620e+01    7.775193e-01
  3.243795e+01    7.639593e-01
  3.246970e+01    7.791911e-01
  3.250146e+01    7.779953e-01
  3.253321e+01    7.693347e-01
  3.254908e+01    7.519239e-01