File: XRD/Reaction conditions/2024-07-27_003_Ru-CGO-ex_Reaction_dwell_000023_data_000158.dat
# == pyFAI calibration ==
# Distance Sample to Detector: 0.4 m
# PONI: 9.750e-02, 1.135e-01 m
# Rotations: -0.000175 0.000000 -0.000000 rad
#
# == Fit2d calibration ==
# Distance Sample-beamCenter: 400.000 mm
# Center: x=1514.000, y=1300.000 pix
# Tilt: 0.010 deg  TiltPlanRot: 0.010 deg
#
# Detector Detector	 Spline= None	 PixelSize= 7.500e-05, 7.500e-05 m
#    Detector has a mask: False
#    Detector has a dark current: False
#    detector has a flat field: False
#
# Wavelength: 6.888e-11 m
# Mask applied: user provided
# Dark current applied: False
# Flat field applied: False
# Polarization factor: 0.99
# Normalization factor: 1.0
# --> /home/myspot/data/2024_07_Rosario/Ru-CGO-ex/2024-07-27_003_Ru-CGO-ex_Reaction_dwell_000023_data_000158.dat
#       q_nm^-1             I
  2.003187e-02    0.000000e+00
  5.178302e-02    4.717781e-02
  8.353417e-02    7.000563e-02
  1.152853e-01    0.000000e+00
  1.470365e-01    6.203445e-02
  1.787876e-01    7.275528e-02
  2.105388e-01    1.602668e-02
  2.422899e-01    1.070595e-01
  2.740411e-01    4.776624e-02
  3.057922e-01    1.981372e-02
  3.375433e-01    6.062987e-02
  3.692945e-01    5.071953e-02
  4.010456e-01    6.710528e-02
  4.327968e-01    3.150459e-02
  4.645479e-01    2.196978e-02
  4.962991e-01    2.437638e-02
  5.280502e-01    4.000417e-02
  5.598014e-01    6.255434e-02
  5.915525e-01    5.345930e-02
  6.233037e-01    8.604500e-02
  6.550548e-01    3.438509e-02
  6.868060e-01    5.799245e-02
  7.185571e-01    4.690551e-02
  7.503083e-01    4.903154e-02
  7.820594e-01    9.345469e-02
  8.138106e-01    2.399872e-01
  8.455617e-01    3.209790e-01
  8.773129e-01    4.946668e-01
  9.090640e-01    5.429722e-01
  9.408152e-01    8.423861e-01
  9.725663e-01    1.004389e+00
  1.004317e+00    1.190872e+00
  1.036069e+00    1.369694e+00
  1.067820e+00    1.461463e+00
  1.099571e+00    1.593666e+00
  1.131322e+00    1.556195e+00
  1.163073e+00    1.647163e+00
  1.194824e+00    1.744225e+00
  1.226575e+00    2.319613e+00
  1.258327e+00    2.403851e+00
  1.290078e+00    2.484663e+00
  1.321829e+00    2.861955e+00
  1.353580e+00    2.817635e+00
  1.385331e+00    2.827667e+00
  1.417082e+00    2.902450e+00
  1.448834e+00    3.074642e+00
  1.480585e+00    3.051094e+00
  1.512336e+00    3.280812e+00
  1.544087e+00    3.300744e+00
  1.575838e+00    3.091321e+00
  1.607589e+00    3.113301e+00
  1.639340e+00    3.059253e+00
  1.671092e+00    2.934309e+00
  1.702843e+00    3.112017e+00
  1.734594e+00    3.060950e+00
  1.766345e+00    3.162474e+00
  1.798096e+00    3.195025e+00
  1.829847e+00    3.164841e+00
  1.861598e+00    3.142804e+00
  1.893350e+00    2.894421e+00
  1.925101e+00    2.954279e+00
  1.956852e+00    2.966438e+00
  1.988603e+00    2.925017e+00
  2.020354e+00    3.039697e+00
  2.052105e+00    2.993911e+00
  2.083856e+00    3.122789e+00
  2.115608e+00    3.100588e+00
  2.147359e+00    3.081550e+00
  2.179110e+00    3.120435e+00
  2.210861e+00    3.037208e+00
  2.242612e+00    3.084125e+00
  2.274363e+00    3.068764e+00
  2.306115e+00    3.176494e+00
  2.337866e+00    3.070884e+00
  2.369617e+00    3.202842e+00
  2.401368e+00    3.142644e+00
  2.433119e+00    3.053495e+00
  2.464870e+00    3.019665e+00
  2.496621e+00    3.180978e+00
  2.528373e+00    3.258090e+00
  2.560124e+00    3.268253e+00
  2.591875e+00    3.154825e+00
  2.623626e+00    3.175913e+00
  2.655377e+00    3.141449e+00
  2.687128e+00    3.098107e+00
  2.718879e+00    3.114772e+00
  2.750631e+00    3.238379e+00
  2.782382e+00    3.250924e+00
  2.814133e+00    3.301461e+00
  2.845884e+00    3.294475e+00
  2.877635e+00    3.175202e+00
  2.909386e+00    3.266179e+00
  2.941137e+00    3.344070e+00
  2.972889e+00    3.221582e+00
  3.004640e+00    3.310115e+00
  3.036391e+00    3.279600e+00
  3.068142e+00    3.280957e+00
  3.099893e+00    3.396807e+00
  3.131644e+00    3.385240e+00
  3.163395e+00    3.407716e+00
  3.195147e+00    3.268698e+00
  3.226898e+00    3.346316e+00
  3.258649e+00    3.376156e+00
  3.290400e+00    3.334571e+00
  3.322151e+00    3.319591e+00
  3.353902e+00    3.473935e+00
  3.385654e+00    3.360910e+00
  3.417405e+00    3.440053e+00
  3.449156e+00    3.444907e+00
  3.480907e+00    3.407295e+00
  3.512658e+00    3.407300e+00
  3.544409e+00    3.450414e+00
  3.576160e+00    3.389990e+00
  3.607912e+00    3.431010e+00
  3.639663e+00    3.456926e+00
  3.671414e+00    3.473131e+00
  3.703165e+00    3.469052e+00
  3.734916e+00    3.522337e+00
  3.766667e+00    3.455902e+00
  3.798418e+00    3.437328e+00
  3.830170e+00    3.481591e+00
  3.861921e+00    3.448509e+00
  3.893672e+00    3.447589e+00
  3.925423e+00    3.523943e+00
  3.957174e+00    3.384305e+00
  3.988925e+00    3.475894e+00
  4.020676e+00    3.434291e+00
  4.052428e+00    3.579535e+00
  4.084179e+00    3.591657e+00
  4.115930e+00    3.603281e+00
  4.147681e+00    3.436092e+00
  4.179432e+00    3.624767e+00
  4.211183e+00    3.557508e+00
  4.242935e+00    3.476202e+00
  4.274686e+00    3.467119e+00
  4.306437e+00    3.526066e+00
  4.338188e+00    3.527093e+00
  4.369939e+00    3.565168e+00
  4.401690e+00    3.595898e+00
  4.433441e+00    3.588985e+00
  4.465193e+00    3.576467e+00
  4.496944e+00    3.563514e+00
  4.528695e+00    3.580932e+00
  4.560446e+00    3.610821e+00
  4.592197e+00    3.538528e+00
  4.623948e+00    3.603740e+00
  4.655699e+00    3.541378e+00
  4.687451e+00    3.555284e+00
  4.719202e+00    3.542412e+00
  4.750953e+00    3.650015e+00
  4.782704e+00    3.670459e+00
  4.814455e+00    3.618408e+00
  4.846206e+00    3.679782e+00
  4.877957e+00    3.741109e+00
  4.909709e+00    3.651165e+00
  4.941460e+00    3.574563e+00
  4.973211e+00    3.669892e+00
  5.004962e+00    3.684840e+00
  5.036713e+00    3.590179e+00
  5.068464e+00    3.677880e+00
  5.100216e+00    3.630460e+00
  5.131967e+00    3.650683e+00
  5.163718e+00    3.653143e+00
  5.195469e+00    3.720052e+00
  5.227220e+00    3.627789e+00
  5.258971e+00    3.559566e+00
  5.290722e+00    3.609622e+00
  5.322474e+00    3.515502e+00
  5.354225e+00    3.647001e+00
  5.385976e+00    3.571106e+00
  5.417727e+00    3.634667e+00
  5.449478e+00    3.586971e+00
  5.481229e+00    3.617944e+00
  5.512980e+00    3.570895e+00
  5.544732e+00    3.561734e+00
  5.576483e+00    3.641783e+00
  5.608234e+00    3.522646e+00
  5.639985e+00    3.655430e+00
  5.671736e+00    3.506429e+00
  5.703487e+00    3.483382e+00
  5.735238e+00    3.498715e+00
  5.766990e+00    3.563775e+00
  5.798741e+00    3.526999e+00
  5.830492e+00    3.575644e+00
  5.862243e+00    3.483386e+00
  5.893994e+00    3.529533e+00
  5.925745e+00    3.504510e+00
  5.957497e+00    3.481169e+00
  5.989248e+00    3.497303e+00
  6.020999e+00    3.450117e+00
  6.052750e+00    3.596113e+00
  6.084501e+00    3.523184e+00
  6.116252e+00    3.495653e+00
  6.148003e+00    3.618822e+00
  6.179755e+00    3.560492e+00
  6.211506e+00    3.537124e+00
  6.243257e+00    3.648905e+00
  6.275008e+00    3.542770e+00
  6.306759e+00    3.619914e+00
  6.338510e+00    3.524104e+00
  6.370261e+00    3.499286e+00
  6.402013e+00    3.542720e+00
  6.433764e+00    3.422938e+00
  6.465515e+00    3.491302e+00
  6.497266e+00    3.585010e+00
  6.529017e+00    3.516496e+00
  6.560768e+00    3.570715e+00
  6.592519e+00    3.525034e+00
  6.624271e+00    3.601691e+00
  6.656022e+00    3.457227e+00
  6.687773e+00    3.588496e+00
  6.719524e+00    3.530441e+00
  6.751275e+00    3.538903e+00
  6.783026e+00    3.499532e+00
  6.814777e+00    3.532605e+00
  6.846529e+00    3.514323e+00
  6.878280e+00    3.623882e+00
  6.910031e+00    3.549009e+00
  6.941782e+00    3.507999e+00
  6.973533e+00    3.536824e+00
  7.005284e+00    3.560682e+00
  7.037036e+00    3.479021e+00
  7.068787e+00    3.508051e+00
  7.100538e+00    3.547469e+00
  7.132289e+00    3.504436e+00
  7.164040e+00    3.546074e+00
  7.195791e+00    3.541751e+00
  7.227542e+00    3.472558e+00
  7.259294e+00    3.513236e+00
  7.291045e+00    3.537844e+00
  7.322796e+00    3.544085e+00
  7.354547e+00    3.580379e+00
  7.386298e+00    3.563515e+00
  7.418049e+00    3.497292e+00
  7.449800e+00    3.433748e+00
  7.481552e+00    3.498656e+00
  7.513303e+00    3.453494e+00
  7.545054e+00    3.507474e+00
  7.576805e+00    3.391296e+00
  7.608556e+00    3.477334e+00
  7.640307e+00    3.420960e+00
  7.672058e+00    3.490479e+00
  7.703810e+00    3.417148e+00
  7.735561e+00    3.428472e+00
  7.767312e+00    3.426214e+00
  7.799063e+00    3.407019e+00
  7.830814e+00    3.475516e+00
  7.862565e+00    3.399741e+00
  7.894317e+00    3.340316e+00
  7.926068e+00    3.400746e+00
  7.957819e+00    3.412465e+00
  7.989570e+00    3.414980e+00
  8.021321e+00    3.420462e+00
  8.053072e+00    3.385179e+00
  8.084823e+00    3.341318e+00
  8.116575e+00    3.525808e+00
  8.148326e+00    3.457402e+00
  8.180077e+00    3.455378e+00
  8.211828e+00    3.362428e+00
  8.243579e+00    3.388706e+00
  8.275330e+00    3.483421e+00
  8.307081e+00    3.423235e+00
  8.338833e+00    3.403481e+00
  8.370584e+00    3.402944e+00
  8.402335e+00    3.401496e+00
  8.434086e+00    3.404865e+00
  8.465837e+00    3.356414e+00
  8.497588e+00    3.302432e+00
  8.529339e+00    3.312604e+00
  8.561091e+00    3.344622e+00
  8.592842e+00    3.326844e+00
  8.624593e+00    3.376535e+00
  8.656344e+00    3.267701e+00
  8.688095e+00    3.256317e+00
  8.719846e+00    3.246466e+00
  8.751598e+00    3.292082e+00
  8.783349e+00    3.323969e+00
  8.815100e+00    3.249499e+00
  8.846851e+00    3.368597e+00
  8.878602e+00    3.296283e+00
  8.910353e+00    3.287046e+00
  8.942104e+00    3.280756e+00
  8.973856e+00    3.285856e+00
  9.005607e+00    3.244507e+00
  9.037358e+00    3.311208e+00
  9.069109e+00    3.233048e+00
  9.100860e+00    3.299603e+00
  9.132611e+00    3.233712e+00
  9.164362e+00    3.288177e+00
  9.196114e+00    3.277413e+00
  9.227865e+00    3.270240e+00
  9.259616e+00    3.180076e+00
  9.291367e+00    3.210957e+00
  9.323118e+00    3.196761e+00
  9.354869e+00    3.215600e+00
  9.386620e+00    3.231192e+00
  9.418372e+00    3.190477e+00
  9.450123e+00    3.204666e+00
  9.481874e+00    3.199678e+00
  9.513625e+00    3.227204e+00
  9.545376e+00    3.138871e+00
  9.577127e+00    3.229217e+00
  9.608878e+00    3.234768e+00
  9.640630e+00    3.221846e+00
  9.672381e+00    3.192579e+00
  9.704132e+00    3.158047e+00
  9.735883e+00    3.188727e+00
  9.767634e+00    3.081104e+00
  9.799385e+00    3.199884e+00
  9.831137e+00    3.145404e+00
  9.862888e+00    3.162153e+00
  9.894639e+00    3.105480e+00
  9.926390e+00    3.110175e+00
  9.958141e+00    3.117902e+00
  9.989892e+00    3.140821e+00
  1.002164e+01    3.059015e+00
  1.005339e+01    3.058724e+00
  1.008515e+01    3.047446e+00
  1.011690e+01    3.017348e+00
  1.014865e+01    3.003808e+00
  1.018040e+01    3.065011e+00
  1.021215e+01    3.043932e+00
  1.024390e+01    2.987532e+00
  1.027565e+01    3.087750e+00
  1.030740e+01    3.015911e+00
  1.033915e+01    3.008385e+00
  1.037091e+01    2.969026e+00
  1.040266e+01    3.034479e+00
  1.043441e+01    2.983970e+00
  1.046616e+01    3.031288e+00
  1.049791e+01    3.014266e+00
  1.052966e+01    3.014459e+00
  1.056141e+01    2.991913e+00
  1.059316e+01    2.978859e+00
  1.062492e+01    2.993995e+00
  1.065667e+01    2.936196e+00
  1.068842e+01    2.977664e+00
  1.072017e+01    2.974668e+00
  1.075192e+01    2.931247e+00
  1.078367e+01    2.995194e+00
  1.081542e+01    2.900346e+00
  1.084717e+01    2.910074e+00
  1.087892e+01    2.872682e+00
  1.091068e+01    2.921331e+00
  1.094243e+01    2.823431e+00
  1.097418e+01    2.935125e+00
  1.100593e+01    2.887537e+00
  1.103768e+01    2.870635e+00
  1.106943e+01    2.876008e+00
  1.110118e+01    2.872673e+00
  1.113293e+01    2.893488e+00
  1.116468e+01    2.813004e+00
  1.119644e+01    2.821793e+00
  1.122819e+01    2.875895e+00
  1.125994e+01    2.867470e+00
  1.129169e+01    2.801362e+00
  1.132344e+01    2.814819e+00
  1.135519e+01    2.835835e+00
  1.138694e+01    2.820066e+00
  1.141869e+01    2.835315e+00
  1.145045e+01    2.800384e+00
  1.148220e+01    2.772576e+00
  1.151395e+01    2.777522e+00
  1.154570e+01    2.758191e+00
  1.157745e+01    2.821460e+00
  1.160920e+01    2.764992e+00
  1.164095e+01    2.784261e+00
  1.167270e+01    2.751409e+00
  1.170445e+01    2.713008e+00
  1.173621e+01    2.742521e+00
  1.176796e+01    2.754641e+00
  1.179971e+01    2.723232e+00
  1.183146e+01    2.693314e+00
  1.186321e+01    2.676140e+00
  1.189496e+01    2.695302e+00
  1.192671e+01    2.697899e+00
  1.195846e+01    2.709659e+00
  1.199021e+01    2.680256e+00
  1.202197e+01    2.748297e+00
  1.205372e+01    2.692628e+00
  1.208547e+01    2.696946e+00
  1.211722e+01    2.683599e+00
  1.214897e+01    2.692298e+00
  1.218072e+01    2.636893e+00
  1.221247e+01    2.644838e+00
  1.224422e+01    2.718359e+00
  1.227597e+01    2.674424e+00
  1.230773e+01    2.656637e+00
  1.233948e+01    2.645260e+00
  1.237123e+01    2.755792e+00
  1.240298e+01    2.701442e+00
  1.243473e+01    2.713888e+00
  1.246648e+01    2.638805e+00
  1.249823e+01    2.729377e+00
  1.252998e+01    2.703665e+00
  1.256174e+01    2.718304e+00
  1.259349e+01    2.788254e+00
  1.262524e+01    2.782261e+00
  1.265699e+01    2.706518e+00
  1.268874e+01    2.830149e+00
  1.272049e+01    2.800989e+00
  1.275224e+01    2.885681e+00
  1.278399e+01    2.944563e+00
  1.281574e+01    3.042635e+00
  1.284750e+01    3.200264e+00
  1.287925e+01    3.377914e+00
  1.291100e+01    3.614003e+00
  1.294275e+01    4.041903e+00
  1.297450e+01    4.744688e+00
  1.300625e+01    5.822142e+00
  1.303800e+01    7.613657e+00
  1.306975e+01    1.000778e+01
  1.310150e+01    1.254188e+01
  1.313326e+01    1.461920e+01
  1.316501e+01    1.609806e+01
  1.319676e+01    1.541601e+01
  1.322851e+01    1.242512e+01
  1.326026e+01    8.979284e+00
  1.329201e+01    6.743445e+00
  1.332376e+01    5.310096e+00
  1.335551e+01    4.365159e+00
  1.338727e+01    3.816303e+00
  1.341902e+01    3.518865e+00
  1.345077e+01    3.188062e+00
  1.348252e+01    2.959916e+00
  1.351427e+01    2.890858e+00
  1.354602e+01    2.799602e+00
  1.357777e+01    2.687586e+00
  1.360952e+01    2.643595e+00
  1.364127e+01    2.599229e+00
  1.367303e+01    2.528267e+00
  1.370478e+01    2.585812e+00
  1.373653e+01    2.548380e+00
  1.376828e+01    2.416543e+00
  1.380003e+01    2.454195e+00
  1.383178e+01    2.400838e+00
  1.386353e+01    2.401388e+00
  1.389528e+01    2.399209e+00
  1.392703e+01    2.385294e+00
  1.395879e+01    2.359975e+00
  1.399054e+01    2.347797e+00
  1.402229e+01    2.313075e+00
  1.405404e+01    2.303838e+00
  1.408579e+01    2.305363e+00
  1.411754e+01    2.327396e+00
  1.414929e+01    2.326579e+00
  1.418104e+01    2.292989e+00
  1.421279e+01    2.258481e+00
  1.424455e+01    2.272983e+00
  1.427630e+01    2.266662e+00
  1.430805e+01    2.255775e+00
  1.433980e+01    2.217685e+00
  1.437155e+01    2.240421e+00
  1.440330e+01    2.221214e+00
  1.443505e+01    2.227123e+00
  1.446680e+01    2.215828e+00
  1.449856e+01    2.179785e+00
  1.453031e+01    2.227864e+00
  1.456206e+01    2.206840e+00
  1.459381e+01    2.226950e+00
  1.462556e+01    2.229954e+00
  1.465731e+01    2.200808e+00
  1.468906e+01    2.248173e+00
  1.472081e+01    2.173833e+00
  1.475256e+01    2.168653e+00
  1.478432e+01    2.200758e+00
  1.481607e+01    2.187128e+00
  1.484782e+01    2.233696e+00
  1.487957e+01    2.203542e+00
  1.491132e+01    2.249491e+00
  1.494307e+01    2.306914e+00
  1.497482e+01    2.356513e+00
  1.500657e+01    2.431407e+00
  1.503832e+01    2.583025e+00
  1.507008e+01    2.813702e+00
  1.510183e+01    3.105472e+00
  1.513358e+01    3.744239e+00
  1.516533e+01    4.440617e+00
  1.519708e+01    5.116013e+00
  1.522883e+01    5.510995e+00
  1.526058e+01    5.822911e+00
  1.529233e+01    5.500079e+00
  1.532409e+01    4.663720e+00
  1.535584e+01    3.806517e+00
  1.538759e+01    3.159570e+00
  1.541934e+01    2.748317e+00
  1.545109e+01    2.493484e+00
  1.548284e+01    2.378642e+00
  1.551459e+01    2.259124e+00
  1.554634e+01    2.183022e+00
  1.557809e+01    2.134011e+00
  1.560985e+01    2.081301e+00
  1.564160e+01    1.979511e+00
  1.567335e+01    2.025084e+00
  1.570510e+01    1.998637e+00
  1.573685e+01    1.968102e+00
  1.576860e+01    1.934840e+00
  1.580035e+01    1.914974e+00
  1.583210e+01    1.913210e+00
  1.586385e+01    1.886313e+00
  1.589561e+01    1.903232e+00
  1.592736e+01    1.901409e+00
  1.595911e+01    1.905251e+00
  1.599086e+01    1.905385e+00
  1.602261e+01    1.866277e+00
  1.605436e+01    1.859663e+00
  1.608611e+01    1.858390e+00
  1.611786e+01    1.839517e+00
  1.614961e+01    1.818063e+00
  1.618137e+01    1.776257e+00
  1.621312e+01    1.808865e+00
  1.624487e+01    1.842138e+00
  1.627662e+01    1.807488e+00
  1.630837e+01    1.787563e+00
  1.634012e+01    1.777859e+00
  1.637187e+01    1.814717e+00
  1.640362e+01    1.775059e+00
  1.643538e+01    1.762089e+00
  1.646713e+01    1.721769e+00
  1.649888e+01    1.737718e+00
  1.653063e+01    1.719132e+00
  1.656238e+01    1.749442e+00
  1.659413e+01    1.752289e+00
  1.662588e+01    1.764830e+00
  1.665763e+01    1.709362e+00
  1.668938e+01    1.725676e+00
  1.672114e+01    1.713771e+00
  1.675289e+01    1.750097e+00
  1.678464e+01    1.697532e+00
  1.681639e+01    1.700761e+00
  1.684814e+01    1.727999e+00
  1.687989e+01    1.685243e+00
  1.691164e+01    1.660674e+00
  1.694339e+01    1.672656e+00
  1.697514e+01    1.700419e+00
  1.700690e+01    1.634334e+00
  1.703865e+01    1.659130e+00
  1.707040e+01    1.646261e+00
  1.710215e+01    1.631198e+00
  1.713390e+01    1.615823e+00
  1.716565e+01    1.661692e+00
  1.719740e+01    1.637141e+00
  1.722915e+01    1.607928e+00
  1.726091e+01    1.589431e+00
  1.729266e+01    1.597139e+00
  1.732441e+01    1.577285e+00
  1.735616e+01    1.580472e+00
  1.738791e+01    1.583384e+00
  1.741966e+01    1.550220e+00
  1.745141e+01    1.610807e+00
  1.748316e+01    1.597030e+00
  1.751491e+01    1.575787e+00
  1.754667e+01    1.600748e+00
  1.757842e+01    1.558924e+00
  1.761017e+01    1.595137e+00
  1.764192e+01    1.528272e+00
  1.767367e+01    1.552612e+00
  1.770542e+01    1.573615e+00
  1.773717e+01    1.536790e+00
  1.776892e+01    1.554359e+00
  1.780067e+01    1.502216e+00
  1.783243e+01    1.517373e+00
  1.786418e+01    1.520702e+00
  1.789593e+01    1.524891e+00
  1.792768e+01    1.485310e+00
  1.795943e+01    1.495173e+00
  1.799118e+01    1.505400e+00
  1.802293e+01    1.472063e+00
  1.805468e+01    1.532178e+00
  1.808643e+01    1.493264e+00
  1.811819e+01    1.511109e+00
  1.814994e+01    1.472965e+00
  1.818169e+01    1.473243e+00
  1.821344e+01    1.478260e+00
  1.824519e+01    1.479019e+00
  1.827694e+01    1.445657e+00
  1.830869e+01    1.486901e+00
  1.834044e+01    1.485616e+00
  1.837220e+01    1.457935e+00
  1.840395e+01    1.442684e+00
  1.843570e+01    1.474047e+00
  1.846745e+01    1.429167e+00
  1.849920e+01    1.430791e+00
  1.853095e+01    1.395513e+00
  1.856270e+01    1.416010e+00
  1.859445e+01    1.414520e+00
  1.862620e+01    1.420444e+00
  1.865796e+01    1.406437e+00
  1.868971e+01    1.432409e+00
  1.872146e+01    1.405471e+00
  1.875321e+01    1.413435e+00
  1.878496e+01    1.403628e+00
  1.881671e+01    1.366511e+00
  1.884846e+01    1.380703e+00
  1.888021e+01    1.380507e+00
  1.891196e+01    1.358011e+00
  1.894372e+01    1.381040e+00
  1.897547e+01    1.426480e+00
  1.900722e+01    1.364227e+00
  1.903897e+01    1.390539e+00
  1.907072e+01    1.385722e+00
  1.910247e+01    1.369548e+00
  1.913422e+01    1.365000e+00
  1.916597e+01    1.355550e+00
  1.919773e+01    1.349002e+00
  1.922948e+01    1.327419e+00
  1.926123e+01    1.379800e+00
  1.929298e+01    1.329077e+00
  1.932473e+01    1.358446e+00
  1.935648e+01    1.361556e+00
  1.938823e+01    1.309402e+00
  1.941998e+01    1.305147e+00
  1.945173e+01    1.341097e+00
  1.948349e+01    1.328172e+00
  1.951524e+01    1.319961e+00
  1.954699e+01    1.343671e+00
  1.957874e+01    1.342953e+00
  1.961049e+01    1.331093e+00
  1.964224e+01    1.307601e+00
  1.967399e+01    1.314643e+00
  1.970574e+01    1.286787e+00
  1.973749e+01    1.313355e+00
  1.976925e+01    1.298781e+00
  1.980100e+01    1.292306e+00
  1.983275e+01    1.301863e+00
  1.986450e+01    1.279846e+00
  1.989625e+01    1.289095e+00
  1.992800e+01    1.291018e+00
  1.995975e+01    1.290124e+00
  1.999150e+01    1.262245e+00
  2.002325e+01    1.276709e+00
  2.005501e+01    1.278369e+00
  2.008676e+01    1.268716e+00
  2.011851e+01    1.286828e+00
  2.015026e+01    1.238688e+00
  2.018201e+01    1.236992e+00
  2.021376e+01    1.262022e+00
  2.024551e+01    1.246778e+00
  2.027726e+01    1.256328e+00
  2.030902e+01    1.229012e+00
  2.034077e+01    1.235954e+00
  2.037252e+01    1.244980e+00
  2.040427e+01    1.260017e+00
  2.043602e+01    1.233717e+00
  2.046777e+01    1.242026e+00
  2.049952e+01    1.243120e+00
  2.053127e+01    1.227406e+00
  2.056302e+01    1.233860e+00
  2.059478e+01    1.202629e+00
  2.062653e+01    1.219754e+00
  2.065828e+01    1.222273e+00
  2.069003e+01    1.212932e+00
  2.072178e+01    1.226626e+00
  2.075353e+01    1.211680e+00
  2.078528e+01    1.232694e+00
  2.081703e+01    1.241500e+00
  2.084878e+01    1.230403e+00
  2.088054e+01    1.225809e+00
  2.091229e+01    1.214978e+00
  2.094404e+01    1.206252e+00
  2.097579e+01    1.227976e+00
  2.100754e+01    1.211797e+00
  2.103929e+01    1.220138e+00
  2.107104e+01    1.235190e+00
  2.110279e+01    1.209255e+00
  2.113455e+01    1.226602e+00
  2.116630e+01    1.210492e+00
  2.119805e+01    1.250469e+00
  2.122980e+01    1.261112e+00
  2.126155e+01    1.251886e+00
  2.129330e+01    1.262840e+00
  2.132505e+01    1.242845e+00
  2.135680e+01    1.246435e+00
  2.138855e+01    1.283429e+00
  2.142031e+01    1.325773e+00
  2.145206e+01    1.347793e+00
  2.148381e+01    1.378082e+00
  2.151556e+01    1.451394e+00
  2.154731e+01    1.495879e+00
  2.157906e+01    1.591012e+00
  2.161081e+01    1.739215e+00
  2.164256e+01    1.937576e+00
  2.167431e+01    2.245419e+00
  2.170607e+01    2.718448e+00
  2.173782e+01    3.451603e+00
  2.176957e+01    4.511924e+00
  2.180132e+01    5.721781e+00
  2.183307e+01    7.147433e+00
  2.186482e+01    8.228957e+00
  2.189657e+01    8.833960e+00
  2.192832e+01    8.193564e+00
  2.196007e+01    6.553706e+00
  2.199183e+01    4.885567e+00
  2.202358e+01    3.610966e+00
  2.205533e+01    2.818414e+00
  2.208708e+01    2.299631e+00
  2.211883e+01    1.987794e+00
  2.215058e+01    1.757898e+00
  2.218233e+01    1.595490e+00
  2.221408e+01    1.463432e+00
  2.224584e+01    1.403679e+00
  2.227759e+01    1.346892e+00
  2.230934e+01    1.285150e+00
  2.234109e+01    1.249533e+00
  2.237284e+01    1.229902e+00
  2.240459e+01    1.219971e+00
  2.243634e+01    1.191681e+00
  2.246809e+01    1.171001e+00
  2.249984e+01    1.148362e+00
  2.253160e+01    1.154262e+00
  2.256335e+01    1.123703e+00
  2.259510e+01    1.095539e+00
  2.262685e+01    1.100137e+00
  2.265860e+01    1.092555e+00
  2.269035e+01    1.087043e+00
  2.272210e+01    1.082630e+00
  2.275385e+01    1.057329e+00
  2.278560e+01    1.051461e+00
  2.281736e+01    1.047766e+00
  2.284911e+01    1.034032e+00
  2.288086e+01    1.032599e+00
  2.291261e+01    1.033554e+00
  2.294436e+01    1.042063e+00
  2.297611e+01    1.027169e+00
  2.300786e+01    9.968821e-01
  2.303961e+01    1.003541e+00
  2.307137e+01    1.016677e+00
  2.310312e+01    9.678880e-01
  2.313487e+01    9.838020e-01
  2.316662e+01    9.901078e-01
  2.319837e+01    9.823610e-01
  2.323012e+01    9.954976e-01
  2.326187e+01    9.764762e-01
  2.329362e+01    9.922026e-01
  2.332537e+01    9.689143e-01
  2.335713e+01    9.632058e-01
  2.338888e+01    9.861595e-01
  2.342063e+01    9.471489e-01
  2.345238e+01    9.571545e-01
  2.348413e+01    9.577709e-01
  2.351588e+01    9.388003e-01
  2.354763e+01    9.784408e-01
  2.357938e+01    9.470157e-01
  2.361113e+01    9.647993e-01
  2.364289e+01    9.588943e-01
  2.367464e+01    9.456893e-01
  2.370639e+01    9.526409e-01
  2.373814e+01    9.611600e-01
  2.376989e+01    9.316971e-01
  2.380164e+01    9.405790e-01
  2.383339e+01    9.239780e-01
  2.386514e+01    9.090051e-01
  2.389689e+01    9.196380e-01
  2.392865e+01    8.993217e-01
  2.396040e+01    8.846463e-01
  2.399215e+01    8.876968e-01
  2.402390e+01    8.964633e-01
  2.405565e+01    9.052054e-01
  2.408740e+01    8.952412e-01
  2.411915e+01    8.713261e-01
  2.415090e+01    8.935477e-01
  2.418266e+01    8.814909e-01
  2.421441e+01    8.707881e-01
  2.424616e+01    8.689218e-01
  2.427791e+01    8.920526e-01
  2.430966e+01    8.767269e-01
  2.434141e+01    8.769671e-01
  2.437316e+01    8.824100e-01
  2.440491e+01    9.013425e-01
  2.443666e+01    8.955373e-01
  2.446842e+01    8.806489e-01
  2.450017e+01    8.804485e-01
  2.453192e+01    8.887011e-01
  2.456367e+01    8.973544e-01
  2.459542e+01    8.838048e-01
  2.462717e+01    8.784288e-01
  2.465892e+01    8.565319e-01
  2.469067e+01    8.822878e-01
  2.472242e+01    8.761412e-01
  2.475418e+01    8.817379e-01
  2.478593e+01    8.850694e-01
  2.481768e+01    8.650767e-01
  2.484943e+01    8.866995e-01
  2.488118e+01    9.067414e-01
  2.491293e+01    8.915398e-01
  2.494468e+01    8.769211e-01
  2.497643e+01    8.957962e-01
  2.500819e+01    8.857444e-01
  2.503994e+01    8.923901e-01
  2.507169e+01    8.823065e-01
  2.510344e+01    9.013004e-01
  2.513519e+01    9.140493e-01
  2.516694e+01    8.997124e-01
  2.519869e+01    9.089928e-01
  2.523044e+01    9.211571e-01
  2.526219e+01    9.273636e-01
  2.529395e+01    9.341895e-01
  2.532570e+01    9.540329e-01
  2.535745e+01    9.966866e-01
  2.538920e+01    9.955274e-01
  2.542095e+01    1.009369e+00
  2.545270e+01    1.035789e+00
  2.548445e+01    1.044700e+00
  2.551620e+01    1.057819e+00
  2.554795e+01    1.106087e+00
  2.557971e+01    1.153464e+00
  2.561146e+01    1.198889e+00
  2.564321e+01    1.284335e+00
  2.567496e+01    1.403786e+00
  2.570671e+01    1.557424e+00
  2.573846e+01    1.814460e+00
  2.577021e+01    2.177397e+00
  2.580196e+01    2.753235e+00
  2.583371e+01    3.562808e+00
  2.586547e+01    4.576711e+00
  2.589722e+01    5.695539e+00
  2.592897e+01    6.695193e+00
  2.596072e+01    7.066389e+00
  2.599247e+01    6.541323e+00
  2.602422e+01    5.280854e+00
  2.605597e+01    3.955090e+00
  2.608772e+01    3.013492e+00
  2.611948e+01    2.372880e+00
  2.615123e+01    1.943382e+00
  2.618298e+01    1.668497e+00
  2.621473e+01    1.493472e+00
  2.624648e+01    1.320276e+00
  2.627823e+01    1.238788e+00
  2.630998e+01    1.176180e+00
  2.634173e+01    1.130822e+00
  2.637348e+01    1.086047e+00
  2.640524e+01    1.065734e+00
  2.643699e+01    1.042213e+00
  2.646874e+01    1.001390e+00
  2.650049e+01    9.836419e-01
  2.653224e+01    1.000576e+00
  2.656399e+01    9.763632e-01
  2.659574e+01    9.563567e-01
  2.662749e+01    1.008432e+00
  2.665924e+01    9.573653e-01
  2.669100e+01    9.636081e-01
  2.672275e+01    9.453348e-01
  2.675450e+01    9.697616e-01
  2.678625e+01    9.642308e-01
  2.681800e+01    9.680375e-01
  2.684975e+01    9.795652e-01
  2.688150e+01    9.942780e-01
  2.691325e+01    9.763850e-01
  2.694501e+01    1.017123e+00
  2.697676e+01    1.029122e+00
  2.700851e+01    1.119312e+00
  2.704026e+01    1.180174e+00
  2.707201e+01    1.309098e+00
  2.710376e+01    1.471550e+00
  2.713551e+01    1.687514e+00
  2.716726e+01    1.930640e+00
  2.719901e+01    2.121579e+00
  2.723077e+01    2.128103e+00
  2.726252e+01    1.969895e+00
  2.729427e+01    1.699540e+00
  2.732602e+01    1.431229e+00
  2.735777e+01    1.281927e+00
  2.738952e+01    1.176491e+00
  2.742127e+01    1.076281e+00
  2.745302e+01    1.033928e+00
  2.748477e+01    1.008543e+00
  2.751653e+01    9.704375e-01
  2.754828e+01    9.589015e-01
  2.758003e+01    9.283999e-01
  2.761178e+01    9.331430e-01
  2.764353e+01    9.188700e-01
  2.767528e+01    8.905302e-01
  2.770703e+01    9.163414e-01
  2.773878e+01    8.984945e-01
  2.777054e+01    8.857931e-01
  2.780229e+01    8.881616e-01
  2.783404e+01    8.809087e-01
  2.786579e+01    8.795777e-01
  2.789754e+01    8.622052e-01
  2.792929e+01    8.878703e-01
  2.796104e+01    8.521575e-01
  2.799279e+01    8.584477e-01
  2.802454e+01    8.204415e-01
  2.805630e+01    8.428012e-01
  2.808805e+01    8.398818e-01
  2.811980e+01    8.538196e-01
  2.815155e+01    8.277239e-01
  2.818330e+01    8.660723e-01
  2.821505e+01    8.683682e-01
  2.824680e+01    8.457342e-01
  2.827855e+01    8.429074e-01
  2.831030e+01    8.382741e-01
  2.834206e+01    8.442318e-01
  2.837381e+01    8.446871e-01
  2.840556e+01    8.234478e-01
  2.843731e+01    8.336049e-01
  2.846906e+01    8.453993e-01
  2.850081e+01    8.565884e-01
  2.853256e+01    8.395622e-01
  2.856431e+01    8.494238e-01
  2.859606e+01    8.143413e-01
  2.862782e+01    8.502654e-01
  2.865957e+01    8.430997e-01
  2.869132e+01    8.178060e-01
  2.872307e+01    8.235593e-01
  2.875482e+01    8.398181e-01
  2.878657e+01    8.058744e-01
  2.881832e+01    8.347669e-01
  2.885007e+01    8.065917e-01
  2.888183e+01    8.175433e-01
  2.891358e+01    8.379642e-01
  2.894533e+01    8.296038e-01
  2.897708e+01    8.047434e-01
  2.900883e+01    8.075214e-01
  2.904058e+01    8.217043e-01
  2.907233e+01    8.063497e-01
  2.910408e+01    8.288906e-01
  2.913583e+01    8.059615e-01
  2.916759e+01    7.845038e-01
  2.919934e+01    8.067819e-01
  2.923109e+01    7.977394e-01
  2.926284e+01    8.109332e-01
  2.929459e+01    8.018034e-01
  2.932634e+01    8.130484e-01
  2.935809e+01    8.010545e-01
  2.938984e+01    8.008592e-01
  2.942159e+01    7.947990e-01
  2.945335e+01    7.940984e-01
  2.948510e+01    8.015292e-01
  2.951685e+01    7.910217e-01
  2.954860e+01    7.847333e-01
  2.958035e+01    8.175140e-01
  2.961210e+01    7.975803e-01
  2.964385e+01    7.854083e-01
  2.967560e+01    8.113701e-01
  2.970736e+01    7.914233e-01
  2.973911e+01    7.912312e-01
  2.977086e+01    8.158281e-01
  2.980261e+01    7.706305e-01
  2.983436e+01    8.037620e-01
  2.986611e+01    7.717496e-01
  2.989786e+01    7.938721e-01
  2.992961e+01    7.702653e-01
  2.996136e+01    7.795433e-01
  2.999312e+01    7.901067e-01
  3.002487e+01    8.003918e-01
  3.005662e+01    8.124078e-01
  3.008837e+01    8.027928e-01
  3.012012e+01    8.033768e-01
  3.015187e+01    7.838277e-01
  3.018362e+01    7.818722e-01
  3.021537e+01    8.015127e-01
  3.024712e+01    7.740659e-01
  3.027888e+01    7.775454e-01
  3.031063e+01    7.902432e-01
  3.034238e+01    7.839229e-01
  3.037413e+01    7.934296e-01
  3.040588e+01    7.971367e-01
  3.043763e+01    7.664621e-01
  3.046938e+01    7.627124e-01
  3.050113e+01    7.723243e-01
  3.053288e+01    7.833843e-01
  3.056464e+01    7.837594e-01
  3.059639e+01    7.807723e-01
  3.062814e+01    7.863523e-01
  3.065989e+01    7.752177e-01
  3.069164e+01    7.839819e-01
  3.072339e+01    7.862808e-01
  3.075514e+01    7.845141e-01
  3.078689e+01    7.844850e-01
  3.081865e+01    7.613958e-01
  3.085040e+01    7.854785e-01
  3.088215e+01    7.883803e-01
  3.091390e+01    7.706432e-01
  3.094565e+01    7.676913e-01
  3.097740e+01    7.710831e-01
  3.100915e+01    7.961244e-01
  3.104090e+01    7.956079e-01
  3.107265e+01    7.763929e-01
  3.110441e+01    7.933865e-01
  3.113616e+01    7.753841e-01
  3.116791e+01    7.801135e-01
  3.119966e+01    7.796513e-01
  3.123141e+01    7.733884e-01
  3.126316e+01    7.819968e-01
  3.129491e+01    7.643088e-01
  3.132666e+01    7.932190e-01
  3.135841e+01    8.164787e-01
  3.139017e+01    8.088692e-01
  3.142192e+01    7.834226e-01
  3.145367e+01    7.912239e-01
  3.148542e+01    8.165482e-01
  3.151717e+01    8.225058e-01
  3.154892e+01    8.343353e-01
  3.158067e+01    8.405984e-01
  3.161242e+01    8.634209e-01
  3.164418e+01    8.947334e-01
  3.167593e+01    9.556528e-01
  3.170768e+01    9.842151e-01
  3.173943e+01    1.099988e+00
  3.177118e+01    1.242142e+00
  3.180293e+01    1.425785e+00
  3.183468e+01    1.672810e+00
  3.186643e+01    1.918379e+00
  3.189818e+01    2.066014e+00
  3.192994e+01    2.037239e+00
  3.196169e+01    1.788355e+00
  3.199344e+01    1.537972e+00
  3.202519e+01    1.325127e+00
  3.205694e+01    1.163010e+00
  3.208869e+01    1.036542e+00
  3.212044e+01    9.480569e-01
  3.215219e+01    9.022236e-01
  3.218394e+01    8.572590e-01
  3.221570e+01    8.585836e-01
  3.224745e+01    8.278580e-01
  3.227920e+01    7.973008e-01
  3.231095e+01    8.227227e-01
  3.234270e+01    7.999701e-01
  3.237445e+01    7.807025e-01
  3.240620e+01    7.777983e-01
  3.243795e+01    7.727497e-01
  3.246970e+01    7.645468e-01
  3.250146e+01    7.722607e-01
  3.253321e+01    7.759838e-01
  3.254908e+01    7.786986e-01