File: XRD/Reaction conditions/2024-07-27_003_Ru-CGO-ex_Reaction_dwell_000023_data_000156.dat
# == pyFAI calibration ==
# Distance Sample to Detector: 0.4 m
# PONI: 9.750e-02, 1.135e-01 m
# Rotations: -0.000175 0.000000 -0.000000 rad
#
# == Fit2d calibration ==
# Distance Sample-beamCenter: 400.000 mm
# Center: x=1514.000, y=1300.000 pix
# Tilt: 0.010 deg  TiltPlanRot: 0.010 deg
#
# Detector Detector	 Spline= None	 PixelSize= 7.500e-05, 7.500e-05 m
#    Detector has a mask: False
#    Detector has a dark current: False
#    detector has a flat field: False
#
# Wavelength: 6.888e-11 m
# Mask applied: user provided
# Dark current applied: False
# Flat field applied: False
# Polarization factor: 0.99
# Normalization factor: 1.0
# --> /home/myspot/data/2024_07_Rosario/Ru-CGO-ex/2024-07-27_003_Ru-CGO-ex_Reaction_dwell_000023_data_000156.dat
#       q_nm^-1             I
  2.003187e-02    0.000000e+00
  5.178302e-02    2.321642e-01
  8.353417e-02    1.067285e-01
  1.152853e-01    8.813712e-02
  1.470365e-01    2.939791e-02
  1.787876e-01    3.680281e-03
  2.105388e-01    7.950107e-02
  2.422899e-01    5.194215e-02
  2.740411e-01    2.761928e-02
  3.057922e-01    5.217445e-02
  3.375433e-01    2.972993e-02
  3.692945e-01    6.704774e-02
  4.010456e-01    2.787139e-02
  4.327968e-01    5.719675e-02
  4.645479e-01    4.071789e-02
  4.962991e-01    4.675186e-02
  5.280502e-01    3.755674e-02
  5.598014e-01    2.644216e-02
  5.915525e-01    2.844889e-02
  6.233037e-01    6.176671e-02
  6.550548e-01    2.507802e-02
  6.868060e-01    1.738356e-02
  7.185571e-01    2.553155e-02
  7.503083e-01    6.777246e-02
  7.820594e-01    9.914705e-02
  8.138106e-01    1.629594e-01
  8.455617e-01    3.247986e-01
  8.773129e-01    4.985372e-01
  9.090640e-01    6.202062e-01
  9.408152e-01    8.752976e-01
  9.725663e-01    1.055871e+00
  1.004317e+00    1.209820e+00
  1.036069e+00    1.385453e+00
  1.067820e+00    1.431949e+00
  1.099571e+00    1.543553e+00
  1.131322e+00    1.561666e+00
  1.163073e+00    1.592144e+00
  1.194824e+00    1.757480e+00
  1.226575e+00    2.215523e+00
  1.258327e+00    2.522998e+00
  1.290078e+00    2.590563e+00
  1.321829e+00    2.746343e+00
  1.353580e+00    2.777493e+00
  1.385331e+00    2.770868e+00
  1.417082e+00    3.068417e+00
  1.448834e+00    2.843622e+00
  1.480585e+00    2.942323e+00
  1.512336e+00    3.186765e+00
  1.544087e+00    3.249324e+00
  1.575838e+00    3.108694e+00
  1.607589e+00    3.192382e+00
  1.639340e+00    2.975869e+00
  1.671092e+00    3.249516e+00
  1.702843e+00    3.089381e+00
  1.734594e+00    3.106061e+00
  1.766345e+00    2.954207e+00
  1.798096e+00    3.187713e+00
  1.829847e+00    3.083175e+00
  1.861598e+00    3.172303e+00
  1.893350e+00    3.028533e+00
  1.925101e+00    2.947367e+00
  1.956852e+00    3.170576e+00
  1.988603e+00    2.959996e+00
  2.020354e+00    3.073296e+00
  2.052105e+00    3.151345e+00
  2.083856e+00    3.133221e+00
  2.115608e+00    3.009636e+00
  2.147359e+00    3.072525e+00
  2.179110e+00    3.088580e+00
  2.210861e+00    3.110446e+00
  2.242612e+00    3.151461e+00
  2.274363e+00    3.106384e+00
  2.306115e+00    3.083553e+00
  2.337866e+00    3.116486e+00
  2.369617e+00    3.326132e+00
  2.401368e+00    3.212968e+00
  2.433119e+00    3.212875e+00
  2.464870e+00    3.101258e+00
  2.496621e+00    3.164222e+00
  2.528373e+00    3.166306e+00
  2.560124e+00    3.221675e+00
  2.591875e+00    3.149474e+00
  2.623626e+00    3.146093e+00
  2.655377e+00    3.258983e+00
  2.687128e+00    3.164202e+00
  2.718879e+00    3.188212e+00
  2.750631e+00    3.249303e+00
  2.782382e+00    3.383143e+00
  2.814133e+00    3.204903e+00
  2.845884e+00    3.167112e+00
  2.877635e+00    3.288238e+00
  2.909386e+00    3.277220e+00
  2.941137e+00    3.282320e+00
  2.972889e+00    3.344523e+00
  3.004640e+00    3.390120e+00
  3.036391e+00    3.323749e+00
  3.068142e+00    3.397151e+00
  3.099893e+00    3.310679e+00
  3.131644e+00    3.332793e+00
  3.163395e+00    3.310609e+00
  3.195147e+00    3.310005e+00
  3.226898e+00    3.505493e+00
  3.258649e+00    3.386602e+00
  3.290400e+00    3.285418e+00
  3.322151e+00    3.378408e+00
  3.353902e+00    3.363147e+00
  3.385654e+00    3.390327e+00
  3.417405e+00    3.342520e+00
  3.449156e+00    3.465844e+00
  3.480907e+00    3.492276e+00
  3.512658e+00    3.444747e+00
  3.544409e+00    3.486961e+00
  3.576160e+00    3.448885e+00
  3.607912e+00    3.419895e+00
  3.639663e+00    3.408269e+00
  3.671414e+00    3.472664e+00
  3.703165e+00    3.428435e+00
  3.734916e+00    3.462655e+00
  3.766667e+00    3.457851e+00
  3.798418e+00    3.439179e+00
  3.830170e+00    3.452296e+00
  3.861921e+00    3.456045e+00
  3.893672e+00    3.529581e+00
  3.925423e+00    3.499140e+00
  3.957174e+00    3.605828e+00
  3.988925e+00    3.438091e+00
  4.020676e+00    3.541157e+00
  4.052428e+00    3.533679e+00
  4.084179e+00    3.544541e+00
  4.115930e+00    3.471359e+00
  4.147681e+00    3.437491e+00
  4.179432e+00    3.657246e+00
  4.211183e+00    3.510095e+00
  4.242935e+00    3.576307e+00
  4.274686e+00    3.534388e+00
  4.306437e+00    3.485793e+00
  4.338188e+00    3.582857e+00
  4.369939e+00    3.592923e+00
  4.401690e+00    3.739814e+00
  4.433441e+00    3.626348e+00
  4.465193e+00    3.607303e+00
  4.496944e+00    3.576302e+00
  4.528695e+00    3.531672e+00
  4.560446e+00    3.572253e+00
  4.592197e+00    3.574692e+00
  4.623948e+00    3.644736e+00
  4.655699e+00    3.524206e+00
  4.687451e+00    3.619178e+00
  4.719202e+00    3.605447e+00
  4.750953e+00    3.600044e+00
  4.782704e+00    3.629442e+00
  4.814455e+00    3.646091e+00
  4.846206e+00    3.594543e+00
  4.877957e+00    3.624903e+00
  4.909709e+00    3.630819e+00
  4.941460e+00    3.627558e+00
  4.973211e+00    3.662669e+00
  5.004962e+00    3.588181e+00
  5.036713e+00    3.613991e+00
  5.068464e+00    3.632689e+00
  5.100216e+00    3.636710e+00
  5.131967e+00    3.569210e+00
  5.163718e+00    3.562932e+00
  5.195469e+00    3.516331e+00
  5.227220e+00    3.615845e+00
  5.258971e+00    3.552001e+00
  5.290722e+00    3.654976e+00
  5.322474e+00    3.509271e+00
  5.354225e+00    3.690311e+00
  5.385976e+00    3.626669e+00
  5.417727e+00    3.652421e+00
  5.449478e+00    3.529402e+00
  5.481229e+00    3.632946e+00
  5.512980e+00    3.513822e+00
  5.544732e+00    3.488015e+00
  5.576483e+00    3.497968e+00
  5.608234e+00    3.561367e+00
  5.639985e+00    3.576117e+00
  5.671736e+00    3.646576e+00
  5.703487e+00    3.533226e+00
  5.735238e+00    3.594265e+00
  5.766990e+00    3.594512e+00
  5.798741e+00    3.476907e+00
  5.830492e+00    3.680163e+00
  5.862243e+00    3.537122e+00
  5.893994e+00    3.552988e+00
  5.925745e+00    3.558406e+00
  5.957497e+00    3.550572e+00
  5.989248e+00    3.454252e+00
  6.020999e+00    3.419073e+00
  6.052750e+00    3.566611e+00
  6.084501e+00    3.593183e+00
  6.116252e+00    3.458818e+00
  6.148003e+00    3.580534e+00
  6.179755e+00    3.501331e+00
  6.211506e+00    3.495522e+00
  6.243257e+00    3.447335e+00
  6.275008e+00    3.526465e+00
  6.306759e+00    3.594276e+00
  6.338510e+00    3.411597e+00
  6.370261e+00    3.456205e+00
  6.402013e+00    3.534559e+00
  6.433764e+00    3.463608e+00
  6.465515e+00    3.570730e+00
  6.497266e+00    3.501101e+00
  6.529017e+00    3.587708e+00
  6.560768e+00    3.515223e+00
  6.592519e+00    3.534939e+00
  6.624271e+00    3.636306e+00
  6.656022e+00    3.529418e+00
  6.687773e+00    3.599577e+00
  6.719524e+00    3.569599e+00
  6.751275e+00    3.536225e+00
  6.783026e+00    3.500238e+00
  6.814777e+00    3.490538e+00
  6.846529e+00    3.555458e+00
  6.878280e+00    3.418740e+00
  6.910031e+00    3.547200e+00
  6.941782e+00    3.488853e+00
  6.973533e+00    3.495281e+00
  7.005284e+00    3.502154e+00
  7.037036e+00    3.460468e+00
  7.068787e+00    3.541152e+00
  7.100538e+00    3.490680e+00
  7.132289e+00    3.513093e+00
  7.164040e+00    3.483391e+00
  7.195791e+00    3.479335e+00
  7.227542e+00    3.443337e+00
  7.259294e+00    3.502275e+00
  7.291045e+00    3.438370e+00
  7.322796e+00    3.485583e+00
  7.354547e+00    3.509973e+00
  7.386298e+00    3.488892e+00
  7.418049e+00    3.504259e+00
  7.449800e+00    3.457699e+00
  7.481552e+00    3.485189e+00
  7.513303e+00    3.436436e+00
  7.545054e+00    3.519753e+00
  7.576805e+00    3.430913e+00
  7.608556e+00    3.447997e+00
  7.640307e+00    3.431121e+00
  7.672058e+00    3.482699e+00
  7.703810e+00    3.441913e+00
  7.735561e+00    3.383350e+00
  7.767312e+00    3.453324e+00
  7.799063e+00    3.443835e+00
  7.830814e+00    3.434478e+00
  7.862565e+00    3.482501e+00
  7.894317e+00    3.466704e+00
  7.926068e+00    3.402131e+00
  7.957819e+00    3.356844e+00
  7.989570e+00    3.358231e+00
  8.021321e+00    3.312492e+00
  8.053072e+00    3.422182e+00
  8.084823e+00    3.426263e+00
  8.116575e+00    3.447719e+00
  8.148326e+00    3.446951e+00
  8.180077e+00    3.421543e+00
  8.211828e+00    3.513429e+00
  8.243579e+00    3.504891e+00
  8.275330e+00    3.408732e+00
  8.307081e+00    3.431837e+00
  8.338833e+00    3.363778e+00
  8.370584e+00    3.346557e+00
  8.402335e+00    3.370713e+00
  8.434086e+00    3.348541e+00
  8.465837e+00    3.327246e+00
  8.497588e+00    3.399855e+00
  8.529339e+00    3.277121e+00
  8.561091e+00    3.343471e+00
  8.592842e+00    3.342933e+00
  8.624593e+00    3.316099e+00
  8.656344e+00    3.258623e+00
  8.688095e+00    3.290334e+00
  8.719846e+00    3.380747e+00
  8.751598e+00    3.308863e+00
  8.783349e+00    3.298255e+00
  8.815100e+00    3.294814e+00
  8.846851e+00    3.259708e+00
  8.878602e+00    3.285687e+00
  8.910353e+00    3.357277e+00
  8.942104e+00    3.276583e+00
  8.973856e+00    3.300036e+00
  9.005607e+00    3.317729e+00
  9.037358e+00    3.272990e+00
  9.069109e+00    3.295332e+00
  9.100860e+00    3.254452e+00
  9.132611e+00    3.233243e+00
  9.164362e+00    3.245082e+00
  9.196114e+00    3.242754e+00
  9.227865e+00    3.249498e+00
  9.259616e+00    3.264223e+00
  9.291367e+00    3.271344e+00
  9.323118e+00    3.216413e+00
  9.354869e+00    3.193513e+00
  9.386620e+00    3.140451e+00
  9.418372e+00    3.205211e+00
  9.450123e+00    3.187021e+00
  9.481874e+00    3.256154e+00
  9.513625e+00    3.170431e+00
  9.545376e+00    3.204582e+00
  9.577127e+00    3.198692e+00
  9.608878e+00    3.222594e+00
  9.640630e+00    3.180378e+00
  9.672381e+00    3.115147e+00
  9.704132e+00    3.150244e+00
  9.735883e+00    3.154639e+00
  9.767634e+00    3.118027e+00
  9.799385e+00    3.146567e+00
  9.831137e+00    3.123106e+00
  9.862888e+00    3.150125e+00
  9.894639e+00    3.156622e+00
  9.926390e+00    3.122267e+00
  9.958141e+00    3.130591e+00
  9.989892e+00    3.104064e+00
  1.002164e+01    3.138292e+00
  1.005339e+01    3.080038e+00
  1.008515e+01    3.113169e+00
  1.011690e+01    3.044144e+00
  1.014865e+01    3.090344e+00
  1.018040e+01    3.102219e+00
  1.021215e+01    3.022535e+00
  1.024390e+01    3.085323e+00
  1.027565e+01    3.051473e+00
  1.030740e+01    2.990705e+00
  1.033915e+01    3.012104e+00
  1.037091e+01    2.956962e+00
  1.040266e+01    3.021043e+00
  1.043441e+01    2.998805e+00
  1.046616e+01    3.013186e+00
  1.049791e+01    3.028604e+00
  1.052966e+01    2.989316e+00
  1.056141e+01    2.961622e+00
  1.059316e+01    2.952924e+00
  1.062492e+01    2.958201e+00
  1.065667e+01    2.983027e+00
  1.068842e+01    3.006593e+00
  1.072017e+01    2.914307e+00
  1.075192e+01    2.964951e+00
  1.078367e+01    2.906657e+00
  1.081542e+01    2.937700e+00
  1.084717e+01    2.973161e+00
  1.087892e+01    2.934472e+00
  1.091068e+01    2.904658e+00
  1.094243e+01    2.888186e+00
  1.097418e+01    2.805914e+00
  1.100593e+01    2.919630e+00
  1.103768e+01    2.878623e+00
  1.106943e+01    2.919708e+00
  1.110118e+01    2.888876e+00
  1.113293e+01    2.889546e+00
  1.116468e+01    2.888840e+00
  1.119644e+01    2.842456e+00
  1.122819e+01    2.819510e+00
  1.125994e+01    2.810497e+00
  1.129169e+01    2.840397e+00
  1.132344e+01    2.806978e+00
  1.135519e+01    2.775693e+00
  1.138694e+01    2.813331e+00
  1.141869e+01    2.719845e+00
  1.145045e+01    2.779412e+00
  1.148220e+01    2.836861e+00
  1.151395e+01    2.772694e+00
  1.154570e+01    2.816231e+00
  1.157745e+01    2.810542e+00
  1.160920e+01    2.769197e+00
  1.164095e+01    2.755195e+00
  1.167270e+01    2.767556e+00
  1.170445e+01    2.738867e+00
  1.173621e+01    2.755574e+00
  1.176796e+01    2.752790e+00
  1.179971e+01    2.693088e+00
  1.183146e+01    2.702543e+00
  1.186321e+01    2.704227e+00
  1.189496e+01    2.723147e+00
  1.192671e+01    2.748117e+00
  1.195846e+01    2.717283e+00
  1.199021e+01    2.634415e+00
  1.202197e+01    2.652142e+00
  1.205372e+01    2.684159e+00
  1.208547e+01    2.737321e+00
  1.211722e+01    2.655920e+00
  1.214897e+01    2.679444e+00
  1.218072e+01    2.776790e+00
  1.221247e+01    2.690568e+00
  1.224422e+01    2.718418e+00
  1.227597e+01    2.675992e+00
  1.230773e+01    2.662770e+00
  1.233948e+01    2.711045e+00
  1.237123e+01    2.679836e+00
  1.240298e+01    2.645056e+00
  1.243473e+01    2.620757e+00
  1.246648e+01    2.723519e+00
  1.249823e+01    2.677326e+00
  1.252998e+01    2.697132e+00
  1.256174e+01    2.683577e+00
  1.259349e+01    2.733316e+00
  1.262524e+01    2.746572e+00
  1.265699e+01    2.747962e+00
  1.268874e+01    2.780618e+00
  1.272049e+01    2.852344e+00
  1.275224e+01    2.864671e+00
  1.278399e+01    2.956416e+00
  1.281574e+01    2.991878e+00
  1.284750e+01    3.159855e+00
  1.287925e+01    3.406521e+00
  1.291100e+01    3.604475e+00
  1.294275e+01    4.030396e+00
  1.297450e+01    4.809967e+00
  1.300625e+01    5.801384e+00
  1.303800e+01    7.634523e+00
  1.306975e+01    1.002369e+01
  1.310150e+01    1.255795e+01
  1.313326e+01    1.456541e+01
  1.316501e+01    1.608334e+01
  1.319676e+01    1.549161e+01
  1.322851e+01    1.246868e+01
  1.326026e+01    9.060438e+00
  1.329201e+01    6.666399e+00
  1.332376e+01    5.299266e+00
  1.335551e+01    4.409634e+00
  1.338727e+01    3.880560e+00
  1.341902e+01    3.438315e+00
  1.345077e+01    3.244985e+00
  1.348252e+01    3.083465e+00
  1.351427e+01    2.890892e+00
  1.354602e+01    2.793497e+00
  1.357777e+01    2.714956e+00
  1.360952e+01    2.695587e+00
  1.364127e+01    2.645736e+00
  1.367303e+01    2.601543e+00
  1.370478e+01    2.528641e+00
  1.373653e+01    2.508753e+00
  1.376828e+01    2.452304e+00
  1.380003e+01    2.450683e+00
  1.383178e+01    2.475612e+00
  1.386353e+01    2.436737e+00
  1.389528e+01    2.422008e+00
  1.392703e+01    2.377033e+00
  1.395879e+01    2.339724e+00
  1.399054e+01    2.361249e+00
  1.402229e+01    2.352919e+00
  1.405404e+01    2.336927e+00
  1.408579e+01    2.348878e+00
  1.411754e+01    2.314018e+00
  1.414929e+01    2.307162e+00
  1.418104e+01    2.308580e+00
  1.421279e+01    2.298421e+00
  1.424455e+01    2.291926e+00
  1.427630e+01    2.278773e+00
  1.430805e+01    2.286986e+00
  1.433980e+01    2.242535e+00
  1.437155e+01    2.222230e+00
  1.440330e+01    2.265116e+00
  1.443505e+01    2.258091e+00
  1.446680e+01    2.197180e+00
  1.449856e+01    2.241176e+00
  1.453031e+01    2.169704e+00
  1.456206e+01    2.230313e+00
  1.459381e+01    2.233468e+00
  1.462556e+01    2.214107e+00
  1.465731e+01    2.187097e+00
  1.468906e+01    2.179965e+00
  1.472081e+01    2.183451e+00
  1.475256e+01    2.187598e+00
  1.478432e+01    2.160270e+00
  1.481607e+01    2.215167e+00
  1.484782e+01    2.173652e+00
  1.487957e+01    2.197137e+00
  1.491132e+01    2.201486e+00
  1.494307e+01    2.272379e+00
  1.497482e+01    2.368409e+00
  1.500657e+01    2.385803e+00
  1.503832e+01    2.567849e+00
  1.507008e+01    2.830407e+00
  1.510183e+01    3.176009e+00
  1.513358e+01    3.731034e+00
  1.516533e+01    4.499338e+00
  1.519708e+01    5.137769e+00
  1.522883e+01    5.554049e+00
  1.526058e+01    5.695319e+00
  1.529233e+01    5.426293e+00
  1.532409e+01    4.684004e+00
  1.535584e+01    3.816544e+00
  1.538759e+01    3.122059e+00
  1.541934e+01    2.729492e+00
  1.545109e+01    2.509541e+00
  1.548284e+01    2.335207e+00
  1.551459e+01    2.204747e+00
  1.554634e+01    2.185723e+00
  1.557809e+01    2.104723e+00
  1.560985e+01    2.088540e+00
  1.564160e+01    2.049370e+00
  1.567335e+01    2.012396e+00
  1.570510e+01    1.940856e+00
  1.573685e+01    1.952051e+00
  1.576860e+01    1.911927e+00
  1.580035e+01    1.944207e+00
  1.583210e+01    1.920596e+00
  1.586385e+01    1.934769e+00
  1.589561e+01    1.884877e+00
  1.592736e+01    1.917033e+00
  1.595911e+01    1.882875e+00
  1.599086e+01    1.851995e+00
  1.602261e+01    1.863027e+00
  1.605436e+01    1.831195e+00
  1.608611e+01    1.840165e+00
  1.611786e+01    1.821205e+00
  1.614961e+01    1.864461e+00
  1.618137e+01    1.817368e+00
  1.621312e+01    1.827530e+00
  1.624487e+01    1.806464e+00
  1.627662e+01    1.753312e+00
  1.630837e+01    1.794268e+00
  1.634012e+01    1.777221e+00
  1.637187e+01    1.761286e+00
  1.640362e+01    1.754104e+00
  1.643538e+01    1.770782e+00
  1.646713e+01    1.778010e+00
  1.649888e+01    1.748873e+00
  1.653063e+01    1.788440e+00
  1.656238e+01    1.747601e+00
  1.659413e+01    1.733613e+00
  1.662588e+01    1.711196e+00
  1.665763e+01    1.733484e+00
  1.668938e+01    1.731527e+00
  1.672114e+01    1.694210e+00
  1.675289e+01    1.664708e+00
  1.678464e+01    1.698871e+00
  1.681639e+01    1.699313e+00
  1.684814e+01    1.699081e+00
  1.687989e+01    1.692753e+00
  1.691164e+01    1.683104e+00
  1.694339e+01    1.681508e+00
  1.697514e+01    1.734729e+00
  1.700690e+01    1.679812e+00
  1.703865e+01    1.642257e+00
  1.707040e+01    1.663089e+00
  1.710215e+01    1.644322e+00
  1.713390e+01    1.629612e+00
  1.716565e+01    1.657279e+00
  1.719740e+01    1.631955e+00
  1.722915e+01    1.624121e+00
  1.726091e+01    1.598406e+00
  1.729266e+01    1.635524e+00
  1.732441e+01    1.625627e+00
  1.735616e+01    1.649985e+00
  1.738791e+01    1.593127e+00
  1.741966e+01    1.587973e+00
  1.745141e+01    1.595997e+00
  1.748316e+01    1.592071e+00
  1.751491e+01    1.569640e+00
  1.754667e+01    1.583092e+00
  1.757842e+01    1.600038e+00
  1.761017e+01    1.561725e+00
  1.764192e+01    1.545624e+00
  1.767367e+01    1.536534e+00
  1.770542e+01    1.553295e+00
  1.773717e+01    1.562960e+00
  1.776892e+01    1.535967e+00
  1.780067e+01    1.554879e+00
  1.783243e+01    1.526838e+00
  1.786418e+01    1.527373e+00
  1.789593e+01    1.523221e+00
  1.792768e+01    1.516153e+00
  1.795943e+01    1.498637e+00
  1.799118e+01    1.528041e+00
  1.802293e+01    1.520268e+00
  1.805468e+01    1.484704e+00
  1.808643e+01    1.488550e+00
  1.811819e+01    1.453953e+00
  1.814994e+01    1.493143e+00
  1.818169e+01    1.494752e+00
  1.821344e+01    1.470496e+00
  1.824519e+01    1.481703e+00
  1.827694e+01    1.443555e+00
  1.830869e+01    1.469591e+00
  1.834044e+01    1.434934e+00
  1.837220e+01    1.453189e+00
  1.840395e+01    1.440959e+00
  1.843570e+01    1.412035e+00
  1.846745e+01    1.458456e+00
  1.849920e+01    1.417154e+00
  1.853095e+01    1.447125e+00
  1.856270e+01    1.450980e+00
  1.859445e+01    1.451811e+00
  1.862620e+01    1.431217e+00
  1.865796e+01    1.403730e+00
  1.868971e+01    1.425964e+00
  1.872146e+01    1.360231e+00
  1.875321e+01    1.407229e+00
  1.878496e+01    1.403744e+00
  1.881671e+01    1.383071e+00
  1.884846e+01    1.407452e+00
  1.888021e+01    1.428013e+00
  1.891196e+01    1.402570e+00
  1.894372e+01    1.369811e+00
  1.897547e+01    1.370410e+00
  1.900722e+01    1.368608e+00
  1.903897e+01    1.363111e+00
  1.907072e+01    1.373305e+00
  1.910247e+01    1.370907e+00
  1.913422e+01    1.354570e+00
  1.916597e+01    1.333680e+00
  1.919773e+01    1.363630e+00
  1.922948e+01    1.372092e+00
  1.926123e+01    1.338953e+00
  1.929298e+01    1.341698e+00
  1.932473e+01    1.345621e+00
  1.935648e+01    1.345608e+00
  1.938823e+01    1.331228e+00
  1.941998e+01    1.315691e+00
  1.945173e+01    1.298047e+00
  1.948349e+01    1.337233e+00
  1.951524e+01    1.320124e+00
  1.954699e+01    1.341444e+00
  1.957874e+01    1.308878e+00
  1.961049e+01    1.312431e+00
  1.964224e+01    1.336679e+00
  1.967399e+01    1.329802e+00
  1.970574e+01    1.310211e+00
  1.973749e+01    1.298443e+00
  1.976925e+01    1.279263e+00
  1.980100e+01    1.277073e+00
  1.983275e+01    1.289352e+00
  1.986450e+01    1.277856e+00
  1.989625e+01    1.320426e+00
  1.992800e+01    1.323100e+00
  1.995975e+01    1.274872e+00
  1.999150e+01    1.259112e+00
  2.002325e+01    1.285732e+00
  2.005501e+01    1.276849e+00
  2.008676e+01    1.265525e+00
  2.011851e+01    1.232419e+00
  2.015026e+01    1.265083e+00
  2.018201e+01    1.284069e+00
  2.021376e+01    1.249985e+00
  2.024551e+01    1.257252e+00
  2.027726e+01    1.260101e+00
  2.030902e+01    1.239008e+00
  2.034077e+01    1.238101e+00
  2.037252e+01    1.240927e+00
  2.040427e+01    1.246530e+00
  2.043602e+01    1.233176e+00
  2.046777e+01    1.236611e+00
  2.049952e+01    1.241477e+00
  2.053127e+01    1.238503e+00
  2.056302e+01    1.235662e+00
  2.059478e+01    1.226179e+00
  2.062653e+01    1.219127e+00
  2.065828e+01    1.236337e+00
  2.069003e+01    1.220650e+00
  2.072178e+01    1.218003e+00
  2.075353e+01    1.204887e+00
  2.078528e+01    1.207571e+00
  2.081703e+01    1.212945e+00
  2.084878e+01    1.209951e+00
  2.088054e+01    1.207074e+00
  2.091229e+01    1.241471e+00
  2.094404e+01    1.222816e+00
  2.097579e+01    1.228158e+00
  2.100754e+01    1.191252e+00
  2.103929e+01    1.232686e+00
  2.107104e+01    1.246016e+00
  2.110279e+01    1.207720e+00
  2.113455e+01    1.227416e+00
  2.116630e+01    1.232709e+00
  2.119805e+01    1.228127e+00
  2.122980e+01    1.221462e+00
  2.126155e+01    1.257625e+00
  2.129330e+01    1.259198e+00
  2.132505e+01    1.258659e+00
  2.135680e+01    1.289725e+00
  2.138855e+01    1.286181e+00
  2.142031e+01    1.293101e+00
  2.145206e+01    1.346806e+00
  2.148381e+01    1.413232e+00
  2.151556e+01    1.422606e+00
  2.154731e+01    1.491261e+00
  2.157906e+01    1.616681e+00
  2.161081e+01    1.757219e+00
  2.164256e+01    1.927558e+00
  2.167431e+01    2.286733e+00
  2.170607e+01    2.777398e+00
  2.173782e+01    3.459935e+00
  2.176957e+01    4.474401e+00
  2.180132e+01    5.683661e+00
  2.183307e+01    7.086885e+00
  2.186482e+01    8.278261e+00
  2.189657e+01    8.857413e+00
  2.192832e+01    8.204564e+00
  2.196007e+01    6.554484e+00
  2.199183e+01    4.923368e+00
  2.202358e+01    3.605518e+00
  2.205533e+01    2.864657e+00
  2.208708e+01    2.360965e+00
  2.211883e+01    1.993919e+00
  2.215058e+01    1.745016e+00
  2.218233e+01    1.574442e+00
  2.221408e+01    1.468830e+00
  2.224584e+01    1.405689e+00
  2.227759e+01    1.334015e+00
  2.230934e+01    1.291669e+00
  2.234109e+01    1.280385e+00
  2.237284e+01    1.199582e+00
  2.240459e+01    1.207911e+00
  2.243634e+01    1.184632e+00
  2.246809e+01    1.153208e+00
  2.249984e+01    1.123645e+00
  2.253160e+01    1.135570e+00
  2.256335e+01    1.112178e+00
  2.259510e+01    1.113940e+00
  2.262685e+01    1.099641e+00
  2.265860e+01    1.099377e+00
  2.269035e+01    1.078930e+00
  2.272210e+01    1.064268e+00
  2.275385e+01    1.073813e+00
  2.278560e+01    1.034432e+00
  2.281736e+01    1.064219e+00
  2.284911e+01    1.054350e+00
  2.288086e+01    1.028274e+00
  2.291261e+01    1.026336e+00
  2.294436e+01    1.038889e+00
  2.297611e+01    1.005867e+00
  2.300786e+01    1.022883e+00
  2.303961e+01    1.006079e+00
  2.307137e+01    9.982371e-01
  2.310312e+01    1.005343e+00
  2.313487e+01    1.014690e+00
  2.316662e+01    9.805074e-01
  2.319837e+01    9.769312e-01
  2.323012e+01    1.000062e+00
  2.326187e+01    9.754397e-01
  2.329362e+01    9.811651e-01
  2.332537e+01    9.467549e-01
  2.335713e+01    9.668239e-01
  2.338888e+01    9.680268e-01
  2.342063e+01    9.833819e-01
  2.345238e+01    9.774026e-01
  2.348413e+01    9.557031e-01
  2.351588e+01    9.489663e-01
  2.354763e+01    9.758213e-01
  2.357938e+01    9.364364e-01
  2.361113e+01    9.530869e-01
  2.364289e+01    9.559583e-01
  2.367464e+01    9.289642e-01
  2.370639e+01    9.192759e-01
  2.373814e+01    9.269484e-01
  2.376989e+01    9.202314e-01
  2.380164e+01    9.122992e-01
  2.383339e+01    9.211464e-01
  2.386514e+01    9.130573e-01
  2.389689e+01    9.167673e-01
  2.392865e+01    8.962805e-01
  2.396040e+01    8.889667e-01
  2.399215e+01    8.919929e-01
  2.402390e+01    8.741115e-01
  2.405565e+01    8.818078e-01
  2.408740e+01    8.918353e-01
  2.411915e+01    8.897482e-01
  2.415090e+01    8.900195e-01
  2.418266e+01    8.952761e-01
  2.421441e+01    8.875886e-01
  2.424616e+01    8.720725e-01
  2.427791e+01    8.722050e-01
  2.430966e+01    8.715657e-01
  2.434141e+01    8.904008e-01
  2.437316e+01    8.924096e-01
  2.440491e+01    8.970280e-01
  2.443666e+01    8.898122e-01
  2.446842e+01    9.011146e-01
  2.450017e+01    8.919716e-01
  2.453192e+01    8.852433e-01
  2.456367e+01    8.999862e-01
  2.459542e+01    8.794805e-01
  2.462717e+01    8.819550e-01
  2.465892e+01    8.815881e-01
  2.469067e+01    8.962806e-01
  2.472242e+01    8.766537e-01
  2.475418e+01    9.039001e-01
  2.478593e+01    8.895435e-01
  2.481768e+01    8.868879e-01
  2.484943e+01    8.850719e-01
  2.488118e+01    8.832660e-01
  2.491293e+01    8.896645e-01
  2.494468e+01    8.777273e-01
  2.497643e+01    9.107798e-01
  2.500819e+01    8.827439e-01
  2.503994e+01    8.687271e-01
  2.507169e+01    8.895645e-01
  2.510344e+01    9.138570e-01
  2.513519e+01    8.911704e-01
  2.516694e+01    9.121472e-01
  2.519869e+01    9.251343e-01
  2.523044e+01    9.284239e-01
  2.526219e+01    9.347360e-01
  2.529395e+01    9.443498e-01
  2.532570e+01    9.504445e-01
  2.535745e+01    9.667938e-01
  2.538920e+01    9.771555e-01
  2.542095e+01    9.796272e-01
  2.545270e+01    1.011826e+00
  2.548445e+01    1.034436e+00
  2.551620e+01    1.069487e+00
  2.554795e+01    1.100020e+00
  2.557971e+01    1.165766e+00
  2.561146e+01    1.199196e+00
  2.564321e+01    1.286069e+00
  2.567496e+01    1.406909e+00
  2.570671e+01    1.572485e+00
  2.573846e+01    1.836311e+00
  2.577021e+01    2.192330e+00
  2.580196e+01    2.722765e+00
  2.583371e+01    3.549485e+00
  2.586547e+01    4.571564e+00
  2.589722e+01    5.719925e+00
  2.592897e+01    6.767660e+00
  2.596072e+01    7.046246e+00
  2.599247e+01    6.542350e+00
  2.602422e+01    5.310112e+00
  2.605597e+01    4.008078e+00
  2.608772e+01    2.988463e+00
  2.611948e+01    2.350543e+00
  2.615123e+01    1.970967e+00
  2.618298e+01    1.665947e+00
  2.621473e+01    1.465093e+00
  2.624648e+01    1.322005e+00
  2.627823e+01    1.239133e+00
  2.630998e+01    1.165722e+00
  2.634173e+01    1.132316e+00
  2.637348e+01    1.088448e+00
  2.640524e+01    1.054690e+00
  2.643699e+01    1.001348e+00
  2.646874e+01    1.032450e+00
  2.650049e+01    9.976634e-01
  2.653224e+01    1.011337e+00
  2.656399e+01    9.762347e-01
  2.659574e+01    9.658877e-01
  2.662749e+01    9.869105e-01
  2.665924e+01    9.533274e-01
  2.669100e+01    9.619533e-01
  2.672275e+01    9.684393e-01
  2.675450e+01    9.638797e-01
  2.678625e+01    9.664301e-01
  2.681800e+01    9.834013e-01
  2.684975e+01    9.610925e-01
  2.688150e+01    9.689469e-01
  2.691325e+01    9.965118e-01
  2.694501e+01    1.022849e+00
  2.697676e+01    1.059154e+00
  2.700851e+01    1.103780e+00
  2.704026e+01    1.180230e+00
  2.707201e+01    1.311146e+00
  2.710376e+01    1.447704e+00
  2.713551e+01    1.723787e+00
  2.716726e+01    1.971022e+00
  2.719901e+01    2.125009e+00
  2.723077e+01    2.143885e+00
  2.726252e+01    1.953222e+00
  2.729427e+01    1.686523e+00
  2.732602e+01    1.447834e+00
  2.735777e+01    1.267302e+00
  2.738952e+01    1.170233e+00
  2.742127e+01    1.072420e+00
  2.745302e+01    1.018320e+00
  2.748477e+01    1.003609e+00
  2.751653e+01    9.448619e-01
  2.754828e+01    9.738223e-01
  2.758003e+01    9.215034e-01
  2.761178e+01    9.195674e-01
  2.764353e+01    9.139850e-01
  2.767528e+01    8.981885e-01
  2.770703e+01    9.159135e-01
  2.773878e+01    8.769607e-01
  2.777054e+01    9.006265e-01
  2.780229e+01    8.730757e-01
  2.783404e+01    8.814132e-01
  2.786579e+01    8.644213e-01
  2.789754e+01    8.596607e-01
  2.792929e+01    8.548855e-01
  2.796104e+01    8.749794e-01
  2.799279e+01    8.567746e-01
  2.802454e+01    8.809740e-01
  2.805630e+01    8.384098e-01
  2.808805e+01    8.449981e-01
  2.811980e+01    8.519927e-01
  2.815155e+01    8.447224e-01
  2.818330e+01    8.689407e-01
  2.821505e+01    8.527814e-01
  2.824680e+01    8.497503e-01
  2.827855e+01    8.743948e-01
  2.831030e+01    8.332017e-01
  2.834206e+01    8.323300e-01
  2.837381e+01    8.456036e-01
  2.840556e+01    8.280303e-01
  2.843731e+01    8.303986e-01
  2.846906e+01    8.310741e-01
  2.850081e+01    8.431038e-01
  2.853256e+01    8.207159e-01
  2.856431e+01    8.133911e-01
  2.859606e+01    8.132265e-01
  2.862782e+01    8.014218e-01
  2.865957e+01    8.075764e-01
  2.869132e+01    8.078910e-01
  2.872307e+01    8.082789e-01
  2.875482e+01    8.176754e-01
  2.878657e+01    8.251016e-01
  2.881832e+01    8.194731e-01
  2.885007e+01    8.115072e-01
  2.888183e+01    8.118982e-01
  2.891358e+01    8.295919e-01
  2.894533e+01    8.238065e-01
  2.897708e+01    7.958791e-01
  2.900883e+01    8.105690e-01
  2.904058e+01    7.879487e-01
  2.907233e+01    8.176144e-01
  2.910408e+01    8.142745e-01
  2.913583e+01    8.080157e-01
  2.916759e+01    8.115267e-01
  2.919934e+01    7.972405e-01
  2.923109e+01    8.267364e-01
  2.926284e+01    7.956953e-01
  2.929459e+01    7.876195e-01
  2.932634e+01    8.124833e-01
  2.935809e+01    8.133109e-01
  2.938984e+01    8.061398e-01
  2.942159e+01    8.073482e-01
  2.945335e+01    7.924430e-01
  2.948510e+01    7.739821e-01
  2.951685e+01    8.059905e-01
  2.954860e+01    7.852062e-01
  2.958035e+01    7.965514e-01
  2.961210e+01    7.932923e-01
  2.964385e+01    7.875274e-01
  2.967560e+01    7.795840e-01
  2.970736e+01    7.867715e-01
  2.973911e+01    7.782127e-01
  2.977086e+01    7.812490e-01
  2.980261e+01    7.820277e-01
  2.983436e+01    7.844884e-01
  2.986611e+01    7.811280e-01
  2.989786e+01    8.004978e-01
  2.992961e+01    7.765525e-01
  2.996136e+01    7.875737e-01
  2.999312e+01    8.127217e-01
  3.002487e+01    7.878349e-01
  3.005662e+01    8.165494e-01
  3.008837e+01    7.927774e-01
  3.012012e+01    8.003719e-01
  3.015187e+01    7.767933e-01
  3.018362e+01    8.010294e-01
  3.021537e+01    7.990053e-01
  3.024712e+01    7.897598e-01
  3.027888e+01    7.892855e-01
  3.031063e+01    7.512725e-01
  3.034238e+01    7.561238e-01
  3.037413e+01    7.822404e-01
  3.040588e+01    7.773956e-01
  3.043763e+01    7.733656e-01
  3.046938e+01    7.773482e-01
  3.050113e+01    7.863554e-01
  3.053288e+01    7.572914e-01
  3.056464e+01    7.680256e-01
  3.059639e+01    7.752467e-01
  3.062814e+01    7.682505e-01
  3.065989e+01    7.735003e-01
  3.069164e+01    7.792276e-01
  3.072339e+01    7.789020e-01
  3.075514e+01    7.787552e-01
  3.078689e+01    7.806442e-01
  3.081865e+01    7.907017e-01
  3.085040e+01    8.120418e-01
  3.088215e+01    7.460096e-01
  3.091390e+01    7.743528e-01
  3.094565e+01    7.801528e-01
  3.097740e+01    7.813384e-01
  3.100915e+01    7.785394e-01
  3.104090e+01    7.783998e-01
  3.107265e+01    7.912455e-01
  3.110441e+01    7.816038e-01
  3.113616e+01    7.784182e-01
  3.116791e+01    7.898877e-01
  3.119966e+01    7.884108e-01
  3.123141e+01    7.833902e-01
  3.126316e+01    7.935949e-01
  3.129491e+01    7.826566e-01
  3.132666e+01    7.822294e-01
  3.135841e+01    7.872483e-01
  3.139017e+01    8.168908e-01
  3.142192e+01    8.152537e-01
  3.145367e+01    8.156662e-01
  3.148542e+01    7.998525e-01
  3.151717e+01    8.477970e-01
  3.154892e+01    8.453215e-01
  3.158067e+01    8.717275e-01
  3.161242e+01    8.571626e-01
  3.164418e+01    8.884551e-01
  3.167593e+01    9.434404e-01
  3.170768e+01    9.902354e-01
  3.173943e+01    1.101653e+00
  3.177118e+01    1.223527e+00
  3.180293e+01    1.443883e+00
  3.183468e+01    1.669367e+00
  3.186643e+01    1.934906e+00
  3.189818e+01    2.082459e+00
  3.192994e+01    2.057033e+00
  3.196169e+01    1.848335e+00
  3.199344e+01    1.540728e+00
  3.202519e+01    1.305999e+00
  3.205694e+01    1.144536e+00
  3.208869e+01    1.004387e+00
  3.212044e+01    9.866863e-01
  3.215219e+01    9.127553e-01
  3.218394e+01    8.638954e-01
  3.221570e+01    8.624312e-01
  3.224745e+01    8.490514e-01
  3.227920e+01    8.224474e-01
  3.231095e+01    7.945190e-01
  3.234270e+01    7.927910e-01
  3.237445e+01    7.745689e-01
  3.240620e+01    7.842830e-01
  3.243795e+01    7.569144e-01
  3.246970e+01    7.867544e-01
  3.250146e+01    7.945217e-01
  3.253321e+01    7.727423e-01
  3.254908e+01    7.706113e-01