File: XRD/Reaction conditions/2024-07-27_003_Ru-CGO-ex_Reaction_dwell_000023_data_000155.dat
# == pyFAI calibration ==
# Distance Sample to Detector: 0.4 m
# PONI: 9.750e-02, 1.135e-01 m
# Rotations: -0.000175 0.000000 -0.000000 rad
#
# == Fit2d calibration ==
# Distance Sample-beamCenter: 400.000 mm
# Center: x=1514.000, y=1300.000 pix
# Tilt: 0.010 deg  TiltPlanRot: 0.010 deg
#
# Detector Detector	 Spline= None	 PixelSize= 7.500e-05, 7.500e-05 m
#    Detector has a mask: False
#    Detector has a dark current: False
#    detector has a flat field: False
#
# Wavelength: 6.888e-11 m
# Mask applied: user provided
# Dark current applied: False
# Flat field applied: False
# Polarization factor: 0.99
# Normalization factor: 1.0
# --> /home/myspot/data/2024_07_Rosario/Ru-CGO-ex/2024-07-27_003_Ru-CGO-ex_Reaction_dwell_000023_data_000155.dat
#       q_nm^-1             I
  2.003187e-02    1.647358e-01
  5.178302e-02    6.627674e-02
  8.353417e-02    5.130880e-02
  1.152853e-01    5.888716e-02
  1.470365e-01    6.053165e-02
  1.787876e-01    3.841080e-03
  2.105388e-01    1.039395e-02
  2.422899e-01    2.587942e-02
  2.740411e-01    6.916893e-02
  3.057922e-01    1.828896e-02
  3.375433e-01    5.907114e-02
  3.692945e-01    2.873872e-02
  4.010456e-01    4.802647e-02
  4.327968e-01    1.164579e-02
  4.645479e-01    2.251792e-02
  4.962991e-01    5.953548e-02
  5.280502e-01    6.208648e-02
  5.598014e-01    3.024288e-02
  5.915525e-01    5.918474e-02
  6.233037e-01    3.983307e-02
  6.550548e-01    4.843961e-02
  6.868060e-01    2.818624e-02
  7.185571e-01    5.183723e-02
  7.503083e-01    2.106290e-02
  7.820594e-01    1.170364e-01
  8.138106e-01    2.280598e-01
  8.455617e-01    3.416493e-01
  8.773129e-01    4.845903e-01
  9.090640e-01    7.340568e-01
  9.408152e-01    8.847117e-01
  9.725663e-01    9.792323e-01
  1.004317e+00    1.248710e+00
  1.036069e+00    1.538716e+00
  1.067820e+00    1.445688e+00
  1.099571e+00    1.526426e+00
  1.131322e+00    1.663692e+00
  1.163073e+00    1.540357e+00
  1.194824e+00    1.792215e+00
  1.226575e+00    2.263660e+00
  1.258327e+00    2.380852e+00
  1.290078e+00    2.630057e+00
  1.321829e+00    2.732767e+00
  1.353580e+00    2.857318e+00
  1.385331e+00    2.861406e+00
  1.417082e+00    2.723578e+00
  1.448834e+00    2.787827e+00
  1.480585e+00    3.036958e+00
  1.512336e+00    3.030895e+00
  1.544087e+00    3.160159e+00
  1.575838e+00    3.321977e+00
  1.607589e+00    3.131568e+00
  1.639340e+00    3.086446e+00
  1.671092e+00    3.037351e+00
  1.702843e+00    3.105343e+00
  1.734594e+00    3.141279e+00
  1.766345e+00    3.027855e+00
  1.798096e+00    3.021416e+00
  1.829847e+00    3.018281e+00
  1.861598e+00    2.917158e+00
  1.893350e+00    3.006588e+00
  1.925101e+00    3.032412e+00
  1.956852e+00    3.131181e+00
  1.988603e+00    2.991131e+00
  2.020354e+00    3.077032e+00
  2.052105e+00    3.178562e+00
  2.083856e+00    3.074592e+00
  2.115608e+00    3.042814e+00
  2.147359e+00    3.162860e+00
  2.179110e+00    3.165514e+00
  2.210861e+00    3.166842e+00
  2.242612e+00    3.191899e+00
  2.274363e+00    3.037784e+00
  2.306115e+00    3.072552e+00
  2.337866e+00    3.039633e+00
  2.369617e+00    3.144261e+00
  2.401368e+00    3.124865e+00
  2.433119e+00    3.123922e+00
  2.464870e+00    3.011057e+00
  2.496621e+00    3.112673e+00
  2.528373e+00    3.141642e+00
  2.560124e+00    3.142447e+00
  2.591875e+00    3.302156e+00
  2.623626e+00    3.246752e+00
  2.655377e+00    3.248805e+00
  2.687128e+00    3.216561e+00
  2.718879e+00    3.217650e+00
  2.750631e+00    3.374170e+00
  2.782382e+00    3.205252e+00
  2.814133e+00    3.291608e+00
  2.845884e+00    3.292989e+00
  2.877635e+00    3.241710e+00
  2.909386e+00    3.403797e+00
  2.941137e+00    3.346031e+00
  2.972889e+00    3.186795e+00
  3.004640e+00    3.171608e+00
  3.036391e+00    3.361565e+00
  3.068142e+00    3.242657e+00
  3.099893e+00    3.332444e+00
  3.131644e+00    3.303298e+00
  3.163395e+00    3.406324e+00
  3.195147e+00    3.264471e+00
  3.226898e+00    3.407524e+00
  3.258649e+00    3.357826e+00
  3.290400e+00    3.466860e+00
  3.322151e+00    3.378268e+00
  3.353902e+00    3.358227e+00
  3.385654e+00    3.271009e+00
  3.417405e+00    3.293909e+00
  3.449156e+00    3.465409e+00
  3.480907e+00    3.428903e+00
  3.512658e+00    3.470495e+00
  3.544409e+00    3.437479e+00
  3.576160e+00    3.463947e+00
  3.607912e+00    3.447485e+00
  3.639663e+00    3.438509e+00
  3.671414e+00    3.506509e+00
  3.703165e+00    3.406473e+00
  3.734916e+00    3.491654e+00
  3.766667e+00    3.391684e+00
  3.798418e+00    3.518889e+00
  3.830170e+00    3.498163e+00
  3.861921e+00    3.407370e+00
  3.893672e+00    3.535225e+00
  3.925423e+00    3.521443e+00
  3.957174e+00    3.511703e+00
  3.988925e+00    3.449953e+00
  4.020676e+00    3.473998e+00
  4.052428e+00    3.489429e+00
  4.084179e+00    3.539674e+00
  4.115930e+00    3.541272e+00
  4.147681e+00    3.522488e+00
  4.179432e+00    3.601579e+00
  4.211183e+00    3.551830e+00
  4.242935e+00    3.530294e+00
  4.274686e+00    3.586036e+00
  4.306437e+00    3.541758e+00
  4.338188e+00    3.546996e+00
  4.369939e+00    3.544574e+00
  4.401690e+00    3.521576e+00
  4.433441e+00    3.663764e+00
  4.465193e+00    3.618947e+00
  4.496944e+00    3.572029e+00
  4.528695e+00    3.548801e+00
  4.560446e+00    3.572635e+00
  4.592197e+00    3.597874e+00
  4.623948e+00    3.572023e+00
  4.655699e+00    3.589129e+00
  4.687451e+00    3.577865e+00
  4.719202e+00    3.624256e+00
  4.750953e+00    3.669735e+00
  4.782704e+00    3.592853e+00
  4.814455e+00    3.694019e+00
  4.846206e+00    3.558186e+00
  4.877957e+00    3.580550e+00
  4.909709e+00    3.574601e+00
  4.941460e+00    3.603689e+00
  4.973211e+00    3.663862e+00
  5.004962e+00    3.641374e+00
  5.036713e+00    3.677795e+00
  5.068464e+00    3.670494e+00
  5.100216e+00    3.634723e+00
  5.131967e+00    3.635451e+00
  5.163718e+00    3.642824e+00
  5.195469e+00    3.643013e+00
  5.227220e+00    3.527168e+00
  5.258971e+00    3.617202e+00
  5.290722e+00    3.703996e+00
  5.322474e+00    3.579647e+00
  5.354225e+00    3.682045e+00
  5.385976e+00    3.582322e+00
  5.417727e+00    3.730145e+00
  5.449478e+00    3.550761e+00
  5.481229e+00    3.579587e+00
  5.512980e+00    3.579517e+00
  5.544732e+00    3.542264e+00
  5.576483e+00    3.618109e+00
  5.608234e+00    3.592960e+00
  5.639985e+00    3.560978e+00
  5.671736e+00    3.648065e+00
  5.703487e+00    3.570006e+00
  5.735238e+00    3.539250e+00
  5.766990e+00    3.634989e+00
  5.798741e+00    3.591541e+00
  5.830492e+00    3.557937e+00
  5.862243e+00    3.541490e+00
  5.893994e+00    3.551669e+00
  5.925745e+00    3.459724e+00
  5.957497e+00    3.470503e+00
  5.989248e+00    3.478905e+00
  6.020999e+00    3.513788e+00
  6.052750e+00    3.488392e+00
  6.084501e+00    3.568846e+00
  6.116252e+00    3.623821e+00
  6.148003e+00    3.591000e+00
  6.179755e+00    3.542344e+00
  6.211506e+00    3.602620e+00
  6.243257e+00    3.528587e+00
  6.275008e+00    3.646948e+00
  6.306759e+00    3.494442e+00
  6.338510e+00    3.574459e+00
  6.370261e+00    3.514621e+00
  6.402013e+00    3.634472e+00
  6.433764e+00    3.589628e+00
  6.465515e+00    3.528830e+00
  6.497266e+00    3.525421e+00
  6.529017e+00    3.464478e+00
  6.560768e+00    3.504062e+00
  6.592519e+00    3.516181e+00
  6.624271e+00    3.506735e+00
  6.656022e+00    3.552993e+00
  6.687773e+00    3.392923e+00
  6.719524e+00    3.489423e+00
  6.751275e+00    3.464178e+00
  6.783026e+00    3.603022e+00
  6.814777e+00    3.547212e+00
  6.846529e+00    3.628454e+00
  6.878280e+00    3.490361e+00
  6.910031e+00    3.487093e+00
  6.941782e+00    3.460048e+00
  6.973533e+00    3.534926e+00
  7.005284e+00    3.505745e+00
  7.037036e+00    3.531756e+00
  7.068787e+00    3.512485e+00
  7.100538e+00    3.518850e+00
  7.132289e+00    3.457817e+00
  7.164040e+00    3.545831e+00
  7.195791e+00    3.568098e+00
  7.227542e+00    3.492248e+00
  7.259294e+00    3.543487e+00
  7.291045e+00    3.565978e+00
  7.322796e+00    3.437073e+00
  7.354547e+00    3.463909e+00
  7.386298e+00    3.457103e+00
  7.418049e+00    3.543000e+00
  7.449800e+00    3.512741e+00
  7.481552e+00    3.451010e+00
  7.513303e+00    3.420330e+00
  7.545054e+00    3.439507e+00
  7.576805e+00    3.399295e+00
  7.608556e+00    3.395589e+00
  7.640307e+00    3.430451e+00
  7.672058e+00    3.401892e+00
  7.703810e+00    3.443209e+00
  7.735561e+00    3.419310e+00
  7.767312e+00    3.452980e+00
  7.799063e+00    3.504259e+00
  7.830814e+00    3.382501e+00
  7.862565e+00    3.416281e+00
  7.894317e+00    3.465167e+00
  7.926068e+00    3.310173e+00
  7.957819e+00    3.376766e+00
  7.989570e+00    3.369881e+00
  8.021321e+00    3.364673e+00
  8.053072e+00    3.399971e+00
  8.084823e+00    3.427263e+00
  8.116575e+00    3.475491e+00
  8.148326e+00    3.397371e+00
  8.180077e+00    3.472163e+00
  8.211828e+00    3.445235e+00
  8.243579e+00    3.473487e+00
  8.275330e+00    3.395023e+00
  8.307081e+00    3.444318e+00
  8.338833e+00    3.434196e+00
  8.370584e+00    3.358509e+00
  8.402335e+00    3.273956e+00
  8.434086e+00    3.360078e+00
  8.465837e+00    3.345923e+00
  8.497588e+00    3.364415e+00
  8.529339e+00    3.326088e+00
  8.561091e+00    3.360583e+00
  8.592842e+00    3.357983e+00
  8.624593e+00    3.413491e+00
  8.656344e+00    3.346341e+00
  8.688095e+00    3.279853e+00
  8.719846e+00    3.340104e+00
  8.751598e+00    3.331147e+00
  8.783349e+00    3.325111e+00
  8.815100e+00    3.265326e+00
  8.846851e+00    3.383828e+00
  8.878602e+00    3.263837e+00
  8.910353e+00    3.326014e+00
  8.942104e+00    3.237587e+00
  8.973856e+00    3.290546e+00
  9.005607e+00    3.299678e+00
  9.037358e+00    3.300307e+00
  9.069109e+00    3.271837e+00
  9.100860e+00    3.281473e+00
  9.132611e+00    3.233573e+00
  9.164362e+00    3.287597e+00
  9.196114e+00    3.233478e+00
  9.227865e+00    3.314394e+00
  9.259616e+00    3.226787e+00
  9.291367e+00    3.233055e+00
  9.323118e+00    3.225786e+00
  9.354869e+00    3.207912e+00
  9.386620e+00    3.179859e+00
  9.418372e+00    3.191068e+00
  9.450123e+00    3.247469e+00
  9.481874e+00    3.162967e+00
  9.513625e+00    3.161347e+00
  9.545376e+00    3.258219e+00
  9.577127e+00    3.194427e+00
  9.608878e+00    3.208773e+00
  9.640630e+00    3.238888e+00
  9.672381e+00    3.193923e+00
  9.704132e+00    3.124021e+00
  9.735883e+00    3.145584e+00
  9.767634e+00    3.113056e+00
  9.799385e+00    3.134006e+00
  9.831137e+00    3.158757e+00
  9.862888e+00    3.153803e+00
  9.894639e+00    3.170846e+00
  9.926390e+00    3.092386e+00
  9.958141e+00    3.104554e+00
  9.989892e+00    3.131110e+00
  1.002164e+01    3.078949e+00
  1.005339e+01    3.113036e+00
  1.008515e+01    3.086134e+00
  1.011690e+01    3.102062e+00
  1.014865e+01    3.087520e+00
  1.018040e+01    3.056810e+00
  1.021215e+01    3.071923e+00
  1.024390e+01    3.057003e+00
  1.027565e+01    3.054560e+00
  1.030740e+01    3.146948e+00
  1.033915e+01    3.019335e+00
  1.037091e+01    3.071258e+00
  1.040266e+01    3.008215e+00
  1.043441e+01    3.009189e+00
  1.046616e+01    3.059227e+00
  1.049791e+01    2.996921e+00
  1.052966e+01    3.037534e+00
  1.056141e+01    2.971706e+00
  1.059316e+01    2.981160e+00
  1.062492e+01    2.987152e+00
  1.065667e+01    2.916897e+00
  1.068842e+01    3.002247e+00
  1.072017e+01    3.006759e+00
  1.075192e+01    2.940434e+00
  1.078367e+01    2.940425e+00
  1.081542e+01    2.922039e+00
  1.084717e+01    2.930383e+00
  1.087892e+01    2.895137e+00
  1.091068e+01    2.927307e+00
  1.094243e+01    2.860807e+00
  1.097418e+01    2.933525e+00
  1.100593e+01    2.903363e+00
  1.103768e+01    2.946287e+00
  1.106943e+01    2.910257e+00
  1.110118e+01    2.879164e+00
  1.113293e+01    2.866251e+00
  1.116468e+01    2.901029e+00
  1.119644e+01    2.834133e+00
  1.122819e+01    2.876424e+00
  1.125994e+01    2.785598e+00
  1.129169e+01    2.847390e+00
  1.132344e+01    2.827483e+00
  1.135519e+01    2.837583e+00
  1.138694e+01    2.798560e+00
  1.141869e+01    2.841970e+00
  1.145045e+01    2.800874e+00
  1.148220e+01    2.847569e+00
  1.151395e+01    2.819487e+00
  1.154570e+01    2.765929e+00
  1.157745e+01    2.803774e+00
  1.160920e+01    2.719180e+00
  1.164095e+01    2.789359e+00
  1.167270e+01    2.782553e+00
  1.170445e+01    2.744022e+00
  1.173621e+01    2.715224e+00
  1.176796e+01    2.723378e+00
  1.179971e+01    2.701941e+00
  1.183146e+01    2.741265e+00
  1.186321e+01    2.779269e+00
  1.189496e+01    2.662166e+00
  1.192671e+01    2.703943e+00
  1.195846e+01    2.741874e+00
  1.199021e+01    2.697042e+00
  1.202197e+01    2.720710e+00
  1.205372e+01    2.726464e+00
  1.208547e+01    2.693743e+00
  1.211722e+01    2.697973e+00
  1.214897e+01    2.687272e+00
  1.218072e+01    2.684269e+00
  1.221247e+01    2.664589e+00
  1.224422e+01    2.712765e+00
  1.227597e+01    2.656121e+00
  1.230773e+01    2.719460e+00
  1.233948e+01    2.671863e+00
  1.237123e+01    2.659580e+00
  1.240298e+01    2.688322e+00
  1.243473e+01    2.675475e+00
  1.246648e+01    2.658854e+00
  1.249823e+01    2.716907e+00
  1.252998e+01    2.735090e+00
  1.256174e+01    2.718023e+00
  1.259349e+01    2.725648e+00
  1.262524e+01    2.745851e+00
  1.265699e+01    2.714445e+00
  1.268874e+01    2.822829e+00
  1.272049e+01    2.862915e+00
  1.275224e+01    2.893691e+00
  1.278399e+01    2.898749e+00
  1.281574e+01    3.046209e+00
  1.284750e+01    3.162169e+00
  1.287925e+01    3.350970e+00
  1.291100e+01    3.598743e+00
  1.294275e+01    4.068984e+00
  1.297450e+01    4.762758e+00
  1.300625e+01    5.886990e+00
  1.303800e+01    7.642446e+00
  1.306975e+01    1.002272e+01
  1.310150e+01    1.248515e+01
  1.313326e+01    1.468019e+01
  1.316501e+01    1.598129e+01
  1.319676e+01    1.563891e+01
  1.322851e+01    1.242530e+01
  1.326026e+01    9.176045e+00
  1.329201e+01    6.717750e+00
  1.332376e+01    5.299321e+00
  1.335551e+01    4.423205e+00
  1.338727e+01    3.841624e+00
  1.341902e+01    3.504315e+00
  1.345077e+01    3.213341e+00
  1.348252e+01    3.076773e+00
  1.351427e+01    2.906311e+00
  1.354602e+01    2.804868e+00
  1.357777e+01    2.725672e+00
  1.360952e+01    2.658623e+00
  1.364127e+01    2.635471e+00
  1.367303e+01    2.564366e+00
  1.370478e+01    2.565067e+00
  1.373653e+01    2.486653e+00
  1.376828e+01    2.461470e+00
  1.380003e+01    2.460379e+00
  1.383178e+01    2.438053e+00
  1.386353e+01    2.444921e+00
  1.389528e+01    2.416334e+00
  1.392703e+01    2.436841e+00
  1.395879e+01    2.373758e+00
  1.399054e+01    2.334881e+00
  1.402229e+01    2.347017e+00
  1.405404e+01    2.298584e+00
  1.408579e+01    2.357235e+00
  1.411754e+01    2.319075e+00
  1.414929e+01    2.295786e+00
  1.418104e+01    2.344386e+00
  1.421279e+01    2.304535e+00
  1.424455e+01    2.302206e+00
  1.427630e+01    2.284088e+00
  1.430805e+01    2.253450e+00
  1.433980e+01    2.253707e+00
  1.437155e+01    2.258311e+00
  1.440330e+01    2.279700e+00
  1.443505e+01    2.231867e+00
  1.446680e+01    2.218189e+00
  1.449856e+01    2.215973e+00
  1.453031e+01    2.244725e+00
  1.456206e+01    2.193288e+00
  1.459381e+01    2.204101e+00
  1.462556e+01    2.175552e+00
  1.465731e+01    2.198654e+00
  1.468906e+01    2.174886e+00
  1.472081e+01    2.183051e+00
  1.475256e+01    2.159758e+00
  1.478432e+01    2.214694e+00
  1.481607e+01    2.219891e+00
  1.484782e+01    2.219584e+00
  1.487957e+01    2.199534e+00
  1.491132e+01    2.220416e+00
  1.494307e+01    2.245377e+00
  1.497482e+01    2.337950e+00
  1.500657e+01    2.385602e+00
  1.503832e+01    2.571526e+00
  1.507008e+01    2.739569e+00
  1.510183e+01    3.177459e+00
  1.513358e+01    3.801641e+00
  1.516533e+01    4.515562e+00
  1.519708e+01    5.198162e+00
  1.522883e+01    5.573577e+00
  1.526058e+01    5.795803e+00
  1.529233e+01    5.461599e+00
  1.532409e+01    4.601650e+00
  1.535584e+01    3.748454e+00
  1.538759e+01    3.117914e+00
  1.541934e+01    2.771194e+00
  1.545109e+01    2.521407e+00
  1.548284e+01    2.346527e+00
  1.551459e+01    2.274277e+00
  1.554634e+01    2.180302e+00
  1.557809e+01    2.081600e+00
  1.560985e+01    2.033199e+00
  1.564160e+01    2.055987e+00
  1.567335e+01    2.050861e+00
  1.570510e+01    1.990572e+00
  1.573685e+01    1.970762e+00
  1.576860e+01    1.969290e+00
  1.580035e+01    1.921325e+00
  1.583210e+01    1.891881e+00
  1.586385e+01    1.921529e+00
  1.589561e+01    1.891344e+00
  1.592736e+01    1.887509e+00
  1.595911e+01    1.855958e+00
  1.599086e+01    1.885453e+00
  1.602261e+01    1.858297e+00
  1.605436e+01    1.851337e+00
  1.608611e+01    1.806964e+00
  1.611786e+01    1.852995e+00
  1.614961e+01    1.853752e+00
  1.618137e+01    1.802610e+00
  1.621312e+01    1.800359e+00
  1.624487e+01    1.845029e+00
  1.627662e+01    1.803609e+00
  1.630837e+01    1.836398e+00
  1.634012e+01    1.766588e+00
  1.637187e+01    1.769517e+00
  1.640362e+01    1.763675e+00
  1.643538e+01    1.763653e+00
  1.646713e+01    1.791134e+00
  1.649888e+01    1.767900e+00
  1.653063e+01    1.723413e+00
  1.656238e+01    1.754830e+00
  1.659413e+01    1.750970e+00
  1.662588e+01    1.732322e+00
  1.665763e+01    1.716364e+00
  1.668938e+01    1.729198e+00
  1.672114e+01    1.731626e+00
  1.675289e+01    1.704842e+00
  1.678464e+01    1.711296e+00
  1.681639e+01    1.667726e+00
  1.684814e+01    1.696049e+00
  1.687989e+01    1.656960e+00
  1.691164e+01    1.673201e+00
  1.694339e+01    1.701342e+00
  1.697514e+01    1.670663e+00
  1.700690e+01    1.644222e+00
  1.703865e+01    1.670378e+00
  1.707040e+01    1.620181e+00
  1.710215e+01    1.652055e+00
  1.713390e+01    1.604590e+00
  1.716565e+01    1.623061e+00
  1.719740e+01    1.592707e+00
  1.722915e+01    1.626861e+00
  1.726091e+01    1.621907e+00
  1.729266e+01    1.605504e+00
  1.732441e+01    1.615095e+00
  1.735616e+01    1.598173e+00
  1.738791e+01    1.582651e+00
  1.741966e+01    1.585814e+00
  1.745141e+01    1.578211e+00
  1.748316e+01    1.600509e+00
  1.751491e+01    1.579431e+00
  1.754667e+01    1.546550e+00
  1.757842e+01    1.569144e+00
  1.761017e+01    1.585193e+00
  1.764192e+01    1.551101e+00
  1.767367e+01    1.522683e+00
  1.770542e+01    1.542403e+00
  1.773717e+01    1.554973e+00
  1.776892e+01    1.538809e+00
  1.780067e+01    1.549825e+00
  1.783243e+01    1.510833e+00
  1.786418e+01    1.560622e+00
  1.789593e+01    1.475005e+00
  1.792768e+01    1.522701e+00
  1.795943e+01    1.518241e+00
  1.799118e+01    1.483936e+00
  1.802293e+01    1.516845e+00
  1.805468e+01    1.502872e+00
  1.808643e+01    1.484685e+00
  1.811819e+01    1.492471e+00
  1.814994e+01    1.500872e+00
  1.818169e+01    1.504471e+00
  1.821344e+01    1.470969e+00
  1.824519e+01    1.517495e+00
  1.827694e+01    1.481582e+00
  1.830869e+01    1.471170e+00
  1.834044e+01    1.444034e+00
  1.837220e+01    1.465420e+00
  1.840395e+01    1.457379e+00
  1.843570e+01    1.442632e+00
  1.846745e+01    1.465757e+00
  1.849920e+01    1.437677e+00
  1.853095e+01    1.425878e+00
  1.856270e+01    1.459147e+00
  1.859445e+01    1.421673e+00
  1.862620e+01    1.411239e+00
  1.865796e+01    1.405303e+00
  1.868971e+01    1.419158e+00
  1.872146e+01    1.399223e+00
  1.875321e+01    1.414746e+00
  1.878496e+01    1.400063e+00
  1.881671e+01    1.407829e+00
  1.884846e+01    1.381361e+00
  1.888021e+01    1.382412e+00
  1.891196e+01    1.364164e+00
  1.894372e+01    1.379776e+00
  1.897547e+01    1.363622e+00
  1.900722e+01    1.357924e+00
  1.903897e+01    1.381859e+00
  1.907072e+01    1.375612e+00
  1.910247e+01    1.361589e+00
  1.913422e+01    1.384548e+00
  1.916597e+01    1.373879e+00
  1.919773e+01    1.375005e+00
  1.922948e+01    1.373332e+00
  1.926123e+01    1.352167e+00
  1.929298e+01    1.347148e+00
  1.932473e+01    1.355589e+00
  1.935648e+01    1.374950e+00
  1.938823e+01    1.363942e+00
  1.941998e+01    1.332680e+00
  1.945173e+01    1.362305e+00
  1.948349e+01    1.329636e+00
  1.951524e+01    1.329146e+00
  1.954699e+01    1.308091e+00
  1.957874e+01    1.348097e+00
  1.961049e+01    1.340602e+00
  1.964224e+01    1.263099e+00
  1.967399e+01    1.302521e+00
  1.970574e+01    1.316158e+00
  1.973749e+01    1.298537e+00
  1.976925e+01    1.308265e+00
  1.980100e+01    1.286258e+00
  1.983275e+01    1.284399e+00
  1.986450e+01    1.312435e+00
  1.989625e+01    1.295230e+00
  1.992800e+01    1.276896e+00
  1.995975e+01    1.274504e+00
  1.999150e+01    1.301801e+00
  2.002325e+01    1.263633e+00
  2.005501e+01    1.275758e+00
  2.008676e+01    1.282724e+00
  2.011851e+01    1.284190e+00
  2.015026e+01    1.279154e+00
  2.018201e+01    1.246809e+00
  2.021376e+01    1.257302e+00
  2.024551e+01    1.279168e+00
  2.027726e+01    1.241974e+00
  2.030902e+01    1.239398e+00
  2.034077e+01    1.272133e+00
  2.037252e+01    1.230856e+00
  2.040427e+01    1.261708e+00
  2.043602e+01    1.229650e+00
  2.046777e+01    1.230163e+00
  2.049952e+01    1.204995e+00
  2.053127e+01    1.227867e+00
  2.056302e+01    1.234200e+00
  2.059478e+01    1.215035e+00
  2.062653e+01    1.214529e+00
  2.065828e+01    1.231200e+00
  2.069003e+01    1.243267e+00
  2.072178e+01    1.223393e+00
  2.075353e+01    1.228745e+00
  2.078528e+01    1.249508e+00
  2.081703e+01    1.226553e+00
  2.084878e+01    1.215839e+00
  2.088054e+01    1.222093e+00
  2.091229e+01    1.216142e+00
  2.094404e+01    1.189986e+00
  2.097579e+01    1.228798e+00
  2.100754e+01    1.227802e+00
  2.103929e+01    1.221126e+00
  2.107104e+01    1.217950e+00
  2.110279e+01    1.246532e+00
  2.113455e+01    1.228780e+00
  2.116630e+01    1.227176e+00
  2.119805e+01    1.248267e+00
  2.122980e+01    1.225942e+00
  2.126155e+01    1.263341e+00
  2.129330e+01    1.249930e+00
  2.132505e+01    1.260087e+00
  2.135680e+01    1.274433e+00
  2.138855e+01    1.279587e+00
  2.142031e+01    1.310205e+00
  2.145206e+01    1.359279e+00
  2.148381e+01    1.357927e+00
  2.151556e+01    1.434555e+00
  2.154731e+01    1.515158e+00
  2.157906e+01    1.621205e+00
  2.161081e+01    1.737303e+00
  2.164256e+01    1.952083e+00
  2.167431e+01    2.281589e+00
  2.170607e+01    2.768747e+00
  2.173782e+01    3.489255e+00
  2.176957e+01    4.486111e+00
  2.180132e+01    5.786131e+00
  2.183307e+01    7.132794e+00
  2.186482e+01    8.355259e+00
  2.189657e+01    8.907311e+00
  2.192832e+01    8.257914e+00
  2.196007e+01    6.600042e+00
  2.199183e+01    4.804406e+00
  2.202358e+01    3.623705e+00
  2.205533e+01    2.808962e+00
  2.208708e+01    2.321271e+00
  2.211883e+01    2.000817e+00
  2.215058e+01    1.751309e+00
  2.218233e+01    1.598967e+00
  2.221408e+01    1.468931e+00
  2.224584e+01    1.387849e+00
  2.227759e+01    1.324321e+00
  2.230934e+01    1.288137e+00
  2.234109e+01    1.261867e+00
  2.237284e+01    1.229300e+00
  2.240459e+01    1.207065e+00
  2.243634e+01    1.176209e+00
  2.246809e+01    1.168795e+00
  2.249984e+01    1.131729e+00
  2.253160e+01    1.132377e+00
  2.256335e+01    1.143784e+00
  2.259510e+01    1.116047e+00
  2.262685e+01    1.098213e+00
  2.265860e+01    1.071941e+00
  2.269035e+01    1.062463e+00
  2.272210e+01    1.073422e+00
  2.275385e+01    1.064927e+00
  2.278560e+01    1.055817e+00
  2.281736e+01    1.059691e+00
  2.284911e+01    1.038856e+00
  2.288086e+01    1.036080e+00
  2.291261e+01    1.026377e+00
  2.294436e+01    1.037781e+00
  2.297611e+01    1.051849e+00
  2.300786e+01    1.003305e+00
  2.303961e+01    1.020125e+00
  2.307137e+01    1.022851e+00
  2.310312e+01    1.014384e+00
  2.313487e+01    9.812551e-01
  2.316662e+01    9.911179e-01
  2.319837e+01    9.753551e-01
  2.323012e+01    9.929436e-01
  2.326187e+01    9.733807e-01
  2.329362e+01    9.872738e-01
  2.332537e+01    9.717948e-01
  2.335713e+01    9.746374e-01
  2.338888e+01    9.633632e-01
  2.342063e+01    9.544806e-01
  2.345238e+01    9.675945e-01
  2.348413e+01    9.501877e-01
  2.351588e+01    9.783900e-01
  2.354763e+01    9.679610e-01
  2.357938e+01    9.409101e-01
  2.361113e+01    9.672608e-01
  2.364289e+01    9.493880e-01
  2.367464e+01    9.342504e-01
  2.370639e+01    9.312574e-01
  2.373814e+01    9.516662e-01
  2.376989e+01    9.152385e-01
  2.380164e+01    9.327348e-01
  2.383339e+01    9.102677e-01
  2.386514e+01    9.267560e-01
  2.389689e+01    9.206263e-01
  2.392865e+01    9.187649e-01
  2.396040e+01    8.940144e-01
  2.399215e+01    8.755528e-01
  2.402390e+01    9.168231e-01
  2.405565e+01    8.895981e-01
  2.408740e+01    8.680761e-01
  2.411915e+01    8.971815e-01
  2.415090e+01    8.882101e-01
  2.418266e+01    8.842679e-01
  2.421441e+01    8.770470e-01
  2.424616e+01    8.645489e-01
  2.427791e+01    9.016438e-01
  2.430966e+01    8.882895e-01
  2.434141e+01    8.851377e-01
  2.437316e+01    8.917633e-01
  2.440491e+01    8.918294e-01
  2.443666e+01    8.981315e-01
  2.446842e+01    8.919252e-01
  2.450017e+01    8.868575e-01
  2.453192e+01    8.982990e-01
  2.456367e+01    8.777463e-01
  2.459542e+01    8.809410e-01
  2.462717e+01    8.877220e-01
  2.465892e+01    8.898095e-01
  2.469067e+01    8.760881e-01
  2.472242e+01    8.865463e-01
  2.475418e+01    9.032621e-01
  2.478593e+01    8.840209e-01
  2.481768e+01    9.253299e-01
  2.484943e+01    8.908169e-01
  2.488118e+01    8.866922e-01
  2.491293e+01    9.109020e-01
  2.494468e+01    8.952031e-01
  2.497643e+01    8.878473e-01
  2.500819e+01    8.950103e-01
  2.503994e+01    8.742101e-01
  2.507169e+01    9.003834e-01
  2.510344e+01    9.112154e-01
  2.513519e+01    9.088714e-01
  2.516694e+01    9.009629e-01
  2.519869e+01    9.239564e-01
  2.523044e+01    9.481944e-01
  2.526219e+01    9.368424e-01
  2.529395e+01    9.439151e-01
  2.532570e+01    9.595515e-01
  2.535745e+01    9.665425e-01
  2.538920e+01    9.817514e-01
  2.542095e+01    1.012129e+00
  2.545270e+01    1.025517e+00
  2.548445e+01    1.065737e+00
  2.551620e+01    1.072428e+00
  2.554795e+01    1.093583e+00
  2.557971e+01    1.145724e+00
  2.561146e+01    1.236552e+00
  2.564321e+01    1.278365e+00
  2.567496e+01    1.427498e+00
  2.570671e+01    1.580466e+00
  2.573846e+01    1.819070e+00
  2.577021e+01    2.198493e+00
  2.580196e+01    2.804364e+00
  2.583371e+01    3.566718e+00
  2.586547e+01    4.590658e+00
  2.589722e+01    5.709262e+00
  2.592897e+01    6.706302e+00
  2.596072e+01    7.065259e+00
  2.599247e+01    6.574528e+00
  2.602422e+01    5.308726e+00
  2.605597e+01    3.988610e+00
  2.608772e+01    2.958657e+00
  2.611948e+01    2.349721e+00
  2.615123e+01    1.936856e+00
  2.618298e+01    1.675538e+00
  2.621473e+01    1.474714e+00
  2.624648e+01    1.347195e+00
  2.627823e+01    1.234657e+00
  2.630998e+01    1.169392e+00
  2.634173e+01    1.115826e+00
  2.637348e+01    1.055054e+00
  2.640524e+01    1.071568e+00
  2.643699e+01    1.022987e+00
  2.646874e+01    1.008862e+00
  2.650049e+01    9.958065e-01
  2.653224e+01    9.910285e-01
  2.656399e+01    1.020325e+00
  2.659574e+01    9.787720e-01
  2.662749e+01    9.690886e-01
  2.665924e+01    9.606184e-01
  2.669100e+01    9.558351e-01
  2.672275e+01    9.309102e-01
  2.675450e+01    9.723900e-01
  2.678625e+01    9.681975e-01
  2.681800e+01    9.620908e-01
  2.684975e+01    9.776887e-01
  2.688150e+01    9.900978e-01
  2.691325e+01    1.000643e+00
  2.694501e+01    1.042340e+00
  2.697676e+01    1.041971e+00
  2.700851e+01    1.116366e+00
  2.704026e+01    1.170129e+00
  2.707201e+01    1.311659e+00
  2.710376e+01    1.472219e+00
  2.713551e+01    1.735891e+00
  2.716726e+01    1.966633e+00
  2.719901e+01    2.133740e+00
  2.723077e+01    2.167625e+00
  2.726252e+01    1.977637e+00
  2.729427e+01    1.713271e+00
  2.732602e+01    1.431822e+00
  2.735777e+01    1.274778e+00
  2.738952e+01    1.168185e+00
  2.742127e+01    1.111676e+00
  2.745302e+01    1.032846e+00
  2.748477e+01    1.025836e+00
  2.751653e+01    9.512771e-01
  2.754828e+01    9.380679e-01
  2.758003e+01    9.588522e-01
  2.761178e+01    9.120385e-01
  2.764353e+01    8.878143e-01
  2.767528e+01    8.983403e-01
  2.770703e+01    8.867642e-01
  2.773878e+01    9.059335e-01
  2.777054e+01    8.775055e-01
  2.780229e+01    8.843373e-01
  2.783404e+01    8.742031e-01
  2.786579e+01    8.523534e-01
  2.789754e+01    8.571733e-01
  2.792929e+01    8.657725e-01
  2.796104e+01    8.481814e-01
  2.799279e+01    8.539304e-01
  2.802454e+01    8.713451e-01
  2.805630e+01    8.602666e-01
  2.808805e+01    8.679526e-01
  2.811980e+01    8.672411e-01
  2.815155e+01    8.557349e-01
  2.818330e+01    8.420978e-01
  2.821505e+01    8.457155e-01
  2.824680e+01    8.547778e-01
  2.827855e+01    8.392942e-01
  2.831030e+01    8.452874e-01
  2.834206e+01    8.369094e-01
  2.837381e+01    8.584464e-01
  2.840556e+01    8.379156e-01
  2.843731e+01    8.396491e-01
  2.846906e+01    8.371955e-01
  2.850081e+01    8.270667e-01
  2.853256e+01    8.091103e-01
  2.856431e+01    8.414301e-01
  2.859606e+01    8.228984e-01
  2.862782e+01    8.202708e-01
  2.865957e+01    8.295401e-01
  2.869132e+01    8.285043e-01
  2.872307e+01    8.138798e-01
  2.875482e+01    8.441181e-01
  2.878657e+01    8.333570e-01
  2.881832e+01    8.167199e-01
  2.885007e+01    8.170521e-01
  2.888183e+01    8.125557e-01
  2.891358e+01    8.331978e-01
  2.894533e+01    8.113073e-01
  2.897708e+01    8.190272e-01
  2.900883e+01    8.132393e-01
  2.904058e+01    8.067536e-01
  2.907233e+01    7.992449e-01
  2.910408e+01    8.081848e-01
  2.913583e+01    8.161828e-01
  2.916759e+01    8.176550e-01
  2.919934e+01    8.062999e-01
  2.923109e+01    7.967078e-01
  2.926284e+01    8.184171e-01
  2.929459e+01    8.054957e-01
  2.932634e+01    8.170843e-01
  2.935809e+01    8.412008e-01
  2.938984e+01    8.189492e-01
  2.942159e+01    7.995536e-01
  2.945335e+01    7.972817e-01
  2.948510e+01    7.916518e-01
  2.951685e+01    8.143011e-01
  2.954860e+01    7.845669e-01
  2.958035e+01    8.029854e-01
  2.961210e+01    7.844107e-01
  2.964385e+01    7.990005e-01
  2.967560e+01    7.975783e-01
  2.970736e+01    7.876045e-01
  2.973911e+01    7.910008e-01
  2.977086e+01    8.115530e-01
  2.980261e+01    7.850474e-01
  2.983436e+01    7.925721e-01
  2.986611e+01    7.996932e-01
  2.989786e+01    8.047563e-01
  2.992961e+01    7.758180e-01
  2.996136e+01    8.082816e-01
  2.999312e+01    8.145704e-01
  3.002487e+01    7.927608e-01
  3.005662e+01    8.196225e-01
  3.008837e+01    7.920307e-01
  3.012012e+01    7.793355e-01
  3.015187e+01    7.861599e-01
  3.018362e+01    8.036841e-01
  3.021537e+01    7.884648e-01
  3.024712e+01    7.619804e-01
  3.027888e+01    7.909315e-01
  3.031063e+01    7.713219e-01
  3.034238e+01    7.825988e-01
  3.037413e+01    7.966474e-01
  3.040588e+01    7.859305e-01
  3.043763e+01    7.879446e-01
  3.046938e+01    7.940750e-01
  3.050113e+01    7.822948e-01
  3.053288e+01    7.897426e-01
  3.056464e+01    7.741473e-01
  3.059639e+01    7.724940e-01
  3.062814e+01    7.776215e-01
  3.065989e+01    7.917064e-01
  3.069164e+01    7.619529e-01
  3.072339e+01    7.869855e-01
  3.075514e+01    7.743553e-01
  3.078689e+01    7.994334e-01
  3.081865e+01    7.937874e-01
  3.085040e+01    7.824586e-01
  3.088215e+01    7.840468e-01
  3.091390e+01    7.593369e-01
  3.094565e+01    7.989880e-01
  3.097740e+01    7.800564e-01
  3.100915e+01    7.990180e-01
  3.104090e+01    7.763982e-01
  3.107265e+01    7.893119e-01
  3.110441e+01    7.599364e-01
  3.113616e+01    7.855402e-01
  3.116791e+01    7.834721e-01
  3.119966e+01    7.964895e-01
  3.123141e+01    8.070707e-01
  3.126316e+01    7.859284e-01
  3.129491e+01    7.963600e-01
  3.132666e+01    7.835049e-01
  3.135841e+01    7.960964e-01
  3.139017e+01    7.860925e-01
  3.142192e+01    7.823387e-01
  3.145367e+01    7.992595e-01
  3.148542e+01    8.327119e-01
  3.151717e+01    8.069146e-01
  3.154892e+01    8.599763e-01
  3.158067e+01    8.700581e-01
  3.161242e+01    8.781285e-01
  3.164418e+01    8.910185e-01
  3.167593e+01    9.419574e-01
  3.170768e+01    1.028201e+00
  3.173943e+01    1.122961e+00
  3.177118e+01    1.257642e+00
  3.180293e+01    1.495977e+00
  3.183468e+01    1.714118e+00
  3.186643e+01    1.953228e+00
  3.189818e+01    2.074947e+00
  3.192994e+01    2.056126e+00
  3.196169e+01    1.864143e+00
  3.199344e+01    1.548067e+00
  3.202519e+01    1.284553e+00
  3.205694e+01    1.179958e+00
  3.208869e+01    1.052707e+00
  3.212044e+01    9.636251e-01
  3.215219e+01    9.089977e-01
  3.218394e+01    8.722689e-01
  3.221570e+01    8.388150e-01
  3.224745e+01    8.336821e-01
  3.227920e+01    8.011696e-01
  3.231095e+01    8.116449e-01
  3.234270e+01    8.137734e-01
  3.237445e+01    7.771487e-01
  3.240620e+01    7.858680e-01
  3.243795e+01    7.862131e-01
  3.246970e+01    7.779305e-01
  3.250146e+01    7.736782e-01
  3.253321e+01    7.564713e-01
  3.254908e+01    7.487108e-01