File: XRD/Reaction conditions/2024-07-27_003_Ru-CGO-ex_Reaction_dwell_000023_data_000052.dat
# == pyFAI calibration ==
# Distance Sample to Detector: 0.4 m
# PONI: 9.750e-02, 1.135e-01 m
# Rotations: -0.000175 0.000000 -0.000000 rad
#
# == Fit2d calibration ==
# Distance Sample-beamCenter: 400.000 mm
# Center: x=1514.000, y=1300.000 pix
# Tilt: 0.010 deg  TiltPlanRot: 0.010 deg
#
# Detector Detector	 Spline= None	 PixelSize= 7.500e-05, 7.500e-05 m
#    Detector has a mask: False
#    Detector has a dark current: False
#    detector has a flat field: False
#
# Wavelength: 6.888e-11 m
# Mask applied: user provided
# Dark current applied: False
# Flat field applied: False
# Polarization factor: 0.99
# Normalization factor: 1.0
# --> /home/myspot/data/2024_07_Rosario/Ru-CGO-ex/2024-07-27_003_Ru-CGO-ex_Reaction_dwell_000023_data_000052.dat
#       q_nm^-1             I
  2.003187e-02    0.000000e+00
  5.178302e-02    2.670345e-02
  8.353417e-02    1.629248e-01
  1.152853e-01    1.797723e-02
  1.470365e-01    4.538304e-02
  1.787876e-01    2.078079e-02
  2.105388e-01    3.961305e-02
  2.422899e-01    6.993049e-02
  2.740411e-01    5.503819e-02
  3.057922e-01    2.237620e-02
  3.375433e-01    6.925290e-02
  3.692945e-01    4.959599e-02
  4.010456e-01    3.110197e-02
  4.327968e-01    4.010912e-02
  4.645479e-01    4.434862e-02
  4.962991e-01    3.951082e-02
  5.280502e-01    5.391454e-02
  5.598014e-01    2.592796e-02
  5.915525e-01    2.815702e-02
  6.233037e-01    4.910937e-02
  6.550548e-01    4.849752e-02
  6.868060e-01    4.756268e-02
  7.185571e-01    2.696621e-02
  7.503083e-01    6.014293e-02
  7.820594e-01    1.213817e-01
  8.138106e-01    2.065218e-01
  8.455617e-01    3.387696e-01
  8.773129e-01    4.818946e-01
  9.090640e-01    6.180518e-01
  9.408152e-01    9.228967e-01
  9.725663e-01    1.096927e+00
  1.004317e+00    1.212596e+00
  1.036069e+00    1.421578e+00
  1.067820e+00    1.544791e+00
  1.099571e+00    1.559777e+00
  1.131322e+00    1.620928e+00
  1.163073e+00    1.666343e+00
  1.194824e+00    1.763504e+00
  1.226575e+00    2.252210e+00
  1.258327e+00    2.406711e+00
  1.290078e+00    2.587495e+00
  1.321829e+00    2.733742e+00
  1.353580e+00    2.733953e+00
  1.385331e+00    2.794252e+00
  1.417082e+00    2.839768e+00
  1.448834e+00    2.908412e+00
  1.480585e+00    3.039842e+00
  1.512336e+00    2.955858e+00
  1.544087e+00    3.082562e+00
  1.575838e+00    3.280225e+00
  1.607589e+00    3.254151e+00
  1.639340e+00    3.139262e+00
  1.671092e+00    3.107755e+00
  1.702843e+00    3.078920e+00
  1.734594e+00    3.110977e+00
  1.766345e+00    2.891756e+00
  1.798096e+00    3.172214e+00
  1.829847e+00    2.958870e+00
  1.861598e+00    2.965574e+00
  1.893350e+00    2.980786e+00
  1.925101e+00    3.077351e+00
  1.956852e+00    3.080200e+00
  1.988603e+00    3.010230e+00
  2.020354e+00    3.056613e+00
  2.052105e+00    3.043758e+00
  2.083856e+00    3.190070e+00
  2.115608e+00    3.135736e+00
  2.147359e+00    3.256506e+00
  2.179110e+00    3.038460e+00
  2.210861e+00    3.137350e+00
  2.242612e+00    3.039803e+00
  2.274363e+00    3.151911e+00
  2.306115e+00    3.039213e+00
  2.337866e+00    3.089893e+00
  2.369617e+00    3.106599e+00
  2.401368e+00    3.038350e+00
  2.433119e+00    3.104554e+00
  2.464870e+00    3.123690e+00
  2.496621e+00    3.246491e+00
  2.528373e+00    3.156993e+00
  2.560124e+00    3.173579e+00
  2.591875e+00    3.142233e+00
  2.623626e+00    3.233509e+00
  2.655377e+00    3.195340e+00
  2.687128e+00    3.236028e+00
  2.718879e+00    3.275945e+00
  2.750631e+00    3.294755e+00
  2.782382e+00    3.242483e+00
  2.814133e+00    3.252255e+00
  2.845884e+00    3.305925e+00
  2.877635e+00    3.237161e+00
  2.909386e+00    3.198373e+00
  2.941137e+00    3.313016e+00
  2.972889e+00    3.362400e+00
  3.004640e+00    3.329224e+00
  3.036391e+00    3.411919e+00
  3.068142e+00    3.376619e+00
  3.099893e+00    3.440486e+00
  3.131644e+00    3.366878e+00
  3.163395e+00    3.384663e+00
  3.195147e+00    3.264536e+00
  3.226898e+00    3.291847e+00
  3.258649e+00    3.345840e+00
  3.290400e+00    3.513068e+00
  3.322151e+00    3.385333e+00
  3.353902e+00    3.408674e+00
  3.385654e+00    3.269357e+00
  3.417405e+00    3.498558e+00
  3.449156e+00    3.463322e+00
  3.480907e+00    3.527969e+00
  3.512658e+00    3.301594e+00
  3.544409e+00    3.604458e+00
  3.576160e+00    3.436835e+00
  3.607912e+00    3.537621e+00
  3.639663e+00    3.338854e+00
  3.671414e+00    3.374041e+00
  3.703165e+00    3.520537e+00
  3.734916e+00    3.364451e+00
  3.766667e+00    3.440138e+00
  3.798418e+00    3.492483e+00
  3.830170e+00    3.470129e+00
  3.861921e+00    3.469764e+00
  3.893672e+00    3.502983e+00
  3.925423e+00    3.601932e+00
  3.957174e+00    3.477322e+00
  3.988925e+00    3.527078e+00
  4.020676e+00    3.543386e+00
  4.052428e+00    3.568259e+00
  4.084179e+00    3.548497e+00
  4.115930e+00    3.547291e+00
  4.147681e+00    3.529506e+00
  4.179432e+00    3.555096e+00
  4.211183e+00    3.507465e+00
  4.242935e+00    3.566001e+00
  4.274686e+00    3.537956e+00
  4.306437e+00    3.611238e+00
  4.338188e+00    3.532592e+00
  4.369939e+00    3.614365e+00
  4.401690e+00    3.642963e+00
  4.433441e+00    3.599371e+00
  4.465193e+00    3.628994e+00
  4.496944e+00    3.588768e+00
  4.528695e+00    3.615790e+00
  4.560446e+00    3.550797e+00
  4.592197e+00    3.595358e+00
  4.623948e+00    3.643901e+00
  4.655699e+00    3.721095e+00
  4.687451e+00    3.575935e+00
  4.719202e+00    3.668479e+00
  4.750953e+00    3.667010e+00
  4.782704e+00    3.656500e+00
  4.814455e+00    3.566367e+00
  4.846206e+00    3.591438e+00
  4.877957e+00    3.555809e+00
  4.909709e+00    3.778637e+00
  4.941460e+00    3.670397e+00
  4.973211e+00    3.704311e+00
  5.004962e+00    3.652964e+00
  5.036713e+00    3.547568e+00
  5.068464e+00    3.474132e+00
  5.100216e+00    3.684096e+00
  5.131967e+00    3.650959e+00
  5.163718e+00    3.731490e+00
  5.195469e+00    3.599200e+00
  5.227220e+00    3.621551e+00
  5.258971e+00    3.628927e+00
  5.290722e+00    3.566987e+00
  5.322474e+00    3.692091e+00
  5.354225e+00    3.668373e+00
  5.385976e+00    3.728784e+00
  5.417727e+00    3.691051e+00
  5.449478e+00    3.485507e+00
  5.481229e+00    3.640453e+00
  5.512980e+00    3.611725e+00
  5.544732e+00    3.566430e+00
  5.576483e+00    3.590043e+00
  5.608234e+00    3.576530e+00
  5.639985e+00    3.682974e+00
  5.671736e+00    3.631237e+00
  5.703487e+00    3.591357e+00
  5.735238e+00    3.521676e+00
  5.766990e+00    3.611362e+00
  5.798741e+00    3.525445e+00
  5.830492e+00    3.559834e+00
  5.862243e+00    3.597286e+00
  5.893994e+00    3.619596e+00
  5.925745e+00    3.523933e+00
  5.957497e+00    3.651108e+00
  5.989248e+00    3.485069e+00
  6.020999e+00    3.485441e+00
  6.052750e+00    3.513130e+00
  6.084501e+00    3.592791e+00
  6.116252e+00    3.651786e+00
  6.148003e+00    3.596249e+00
  6.179755e+00    3.605458e+00
  6.211506e+00    3.614241e+00
  6.243257e+00    3.530452e+00
  6.275008e+00    3.540742e+00
  6.306759e+00    3.558863e+00
  6.338510e+00    3.502118e+00
  6.370261e+00    3.495900e+00
  6.402013e+00    3.519475e+00
  6.433764e+00    3.534933e+00
  6.465515e+00    3.582156e+00
  6.497266e+00    3.548401e+00
  6.529017e+00    3.559441e+00
  6.560768e+00    3.455106e+00
  6.592519e+00    3.519460e+00
  6.624271e+00    3.497536e+00
  6.656022e+00    3.537510e+00
  6.687773e+00    3.582300e+00
  6.719524e+00    3.578019e+00
  6.751275e+00    3.594857e+00
  6.783026e+00    3.505232e+00
  6.814777e+00    3.547658e+00
  6.846529e+00    3.514549e+00
  6.878280e+00    3.536780e+00
  6.910031e+00    3.639389e+00
  6.941782e+00    3.607402e+00
  6.973533e+00    3.544807e+00
  7.005284e+00    3.566529e+00
  7.037036e+00    3.565431e+00
  7.068787e+00    3.599989e+00
  7.100538e+00    3.497407e+00
  7.132289e+00    3.514219e+00
  7.164040e+00    3.498671e+00
  7.195791e+00    3.542783e+00
  7.227542e+00    3.542078e+00
  7.259294e+00    3.543643e+00
  7.291045e+00    3.532123e+00
  7.322796e+00    3.472484e+00
  7.354547e+00    3.374717e+00
  7.386298e+00    3.508819e+00
  7.418049e+00    3.433863e+00
  7.449800e+00    3.503845e+00
  7.481552e+00    3.426222e+00
  7.513303e+00    3.394139e+00
  7.545054e+00    3.439371e+00
  7.576805e+00    3.465985e+00
  7.608556e+00    3.451716e+00
  7.640307e+00    3.536900e+00
  7.672058e+00    3.450296e+00
  7.703810e+00    3.406119e+00
  7.735561e+00    3.466393e+00
  7.767312e+00    3.430164e+00
  7.799063e+00    3.479565e+00
  7.830814e+00    3.472959e+00
  7.862565e+00    3.408725e+00
  7.894317e+00    3.478735e+00
  7.926068e+00    3.476058e+00
  7.957819e+00    3.468324e+00
  7.989570e+00    3.406377e+00
  8.021321e+00    3.483766e+00
  8.053072e+00    3.475187e+00
  8.084823e+00    3.307714e+00
  8.116575e+00    3.449228e+00
  8.148326e+00    3.478412e+00
  8.180077e+00    3.505876e+00
  8.211828e+00    3.479163e+00
  8.243579e+00    3.446405e+00
  8.275330e+00    3.411630e+00
  8.307081e+00    3.421109e+00
  8.338833e+00    3.384785e+00
  8.370584e+00    3.356227e+00
  8.402335e+00    3.356950e+00
  8.434086e+00    3.470804e+00
  8.465837e+00    3.401794e+00
  8.497588e+00    3.422118e+00
  8.529339e+00    3.334614e+00
  8.561091e+00    3.415847e+00
  8.592842e+00    3.468088e+00
  8.624593e+00    3.362741e+00
  8.656344e+00    3.412863e+00
  8.688095e+00    3.315686e+00
  8.719846e+00    3.327895e+00
  8.751598e+00    3.299907e+00
  8.783349e+00    3.316783e+00
  8.815100e+00    3.350069e+00
  8.846851e+00    3.248675e+00
  8.878602e+00    3.320912e+00
  8.910353e+00    3.288679e+00
  8.942104e+00    3.285800e+00
  8.973856e+00    3.266197e+00
  9.005607e+00    3.216062e+00
  9.037358e+00    3.299819e+00
  9.069109e+00    3.257008e+00
  9.100860e+00    3.235874e+00
  9.132611e+00    3.305666e+00
  9.164362e+00    3.254572e+00
  9.196114e+00    3.336948e+00
  9.227865e+00    3.253028e+00
  9.259616e+00    3.236581e+00
  9.291367e+00    3.247922e+00
  9.323118e+00    3.207077e+00
  9.354869e+00    3.259183e+00
  9.386620e+00    3.216344e+00
  9.418372e+00    3.233097e+00
  9.450123e+00    3.218113e+00
  9.481874e+00    3.240484e+00
  9.513625e+00    3.232287e+00
  9.545376e+00    3.245676e+00
  9.577127e+00    3.240014e+00
  9.608878e+00    3.208618e+00
  9.640630e+00    3.240068e+00
  9.672381e+00    3.156294e+00
  9.704132e+00    3.216367e+00
  9.735883e+00    3.156796e+00
  9.767634e+00    3.131556e+00
  9.799385e+00    3.154560e+00
  9.831137e+00    3.201645e+00
  9.862888e+00    3.161281e+00
  9.894639e+00    3.185850e+00
  9.926390e+00    3.125192e+00
  9.958141e+00    3.152052e+00
  9.989892e+00    3.132663e+00
  1.002164e+01    3.060605e+00
  1.005339e+01    3.143723e+00
  1.008515e+01    3.075505e+00
  1.011690e+01    3.125595e+00
  1.014865e+01    3.101879e+00
  1.018040e+01    3.086130e+00
  1.021215e+01    3.107983e+00
  1.024390e+01    3.099998e+00
  1.027565e+01    3.059092e+00
  1.030740e+01    3.134614e+00
  1.033915e+01    3.058017e+00
  1.037091e+01    3.043711e+00
  1.040266e+01    3.040044e+00
  1.043441e+01    3.086780e+00
  1.046616e+01    3.046753e+00
  1.049791e+01    3.060934e+00
  1.052966e+01    3.010847e+00
  1.056141e+01    2.994478e+00
  1.059316e+01    2.958847e+00
  1.062492e+01    2.989738e+00
  1.065667e+01    2.942540e+00
  1.068842e+01    2.982368e+00
  1.072017e+01    2.919979e+00
  1.075192e+01    2.928770e+00
  1.078367e+01    2.941516e+00
  1.081542e+01    2.954669e+00
  1.084717e+01    2.968679e+00
  1.087892e+01    2.910317e+00
  1.091068e+01    2.935633e+00
  1.094243e+01    2.916539e+00
  1.097418e+01    2.909826e+00
  1.100593e+01    2.894277e+00
  1.103768e+01    2.902906e+00
  1.106943e+01    2.885640e+00
  1.110118e+01    2.926291e+00
  1.113293e+01    2.879985e+00
  1.116468e+01    2.894480e+00
  1.119644e+01    2.920933e+00
  1.122819e+01    2.865659e+00
  1.125994e+01    2.899574e+00
  1.129169e+01    2.829738e+00
  1.132344e+01    2.841871e+00
  1.135519e+01    2.799991e+00
  1.138694e+01    2.823615e+00
  1.141869e+01    2.762520e+00
  1.145045e+01    2.902608e+00
  1.148220e+01    2.826449e+00
  1.151395e+01    2.806987e+00
  1.154570e+01    2.806524e+00
  1.157745e+01    2.764262e+00
  1.160920e+01    2.774271e+00
  1.164095e+01    2.810096e+00
  1.167270e+01    2.792560e+00
  1.170445e+01    2.715412e+00
  1.173621e+01    2.758504e+00
  1.176796e+01    2.803596e+00
  1.179971e+01    2.710459e+00
  1.183146e+01    2.736593e+00
  1.186321e+01    2.755508e+00
  1.189496e+01    2.731002e+00
  1.192671e+01    2.678276e+00
  1.195846e+01    2.739470e+00
  1.199021e+01    2.741934e+00
  1.202197e+01    2.746025e+00
  1.205372e+01    2.729814e+00
  1.208547e+01    2.699554e+00
  1.211722e+01    2.742270e+00
  1.214897e+01    2.667292e+00
  1.218072e+01    2.738930e+00
  1.221247e+01    2.699249e+00
  1.224422e+01    2.669466e+00
  1.227597e+01    2.737548e+00
  1.230773e+01    2.684318e+00
  1.233948e+01    2.618472e+00
  1.237123e+01    2.683914e+00
  1.240298e+01    2.713068e+00
  1.243473e+01    2.673182e+00
  1.246648e+01    2.687047e+00
  1.249823e+01    2.740144e+00
  1.252998e+01    2.716686e+00
  1.256174e+01    2.711213e+00
  1.259349e+01    2.785262e+00
  1.262524e+01    2.744227e+00
  1.265699e+01    2.797353e+00
  1.268874e+01    2.786861e+00
  1.272049e+01    2.839980e+00
  1.275224e+01    2.904335e+00
  1.278399e+01    2.948692e+00
  1.281574e+01    3.036458e+00
  1.284750e+01    3.205662e+00
  1.287925e+01    3.369394e+00
  1.291100e+01    3.603545e+00
  1.294275e+01    4.103099e+00
  1.297450e+01    4.784527e+00
  1.300625e+01    5.820051e+00
  1.303800e+01    7.637344e+00
  1.306975e+01    1.006188e+01
  1.310150e+01    1.254859e+01
  1.313326e+01    1.459134e+01
  1.316501e+01    1.619808e+01
  1.319676e+01    1.560894e+01
  1.322851e+01    1.247423e+01
  1.326026e+01    9.122076e+00
  1.329201e+01    6.764325e+00
  1.332376e+01    5.354604e+00
  1.335551e+01    4.456826e+00
  1.338727e+01    3.895305e+00
  1.341902e+01    3.484413e+00
  1.345077e+01    3.243000e+00
  1.348252e+01    3.062010e+00
  1.351427e+01    2.841633e+00
  1.354602e+01    2.751190e+00
  1.357777e+01    2.715883e+00
  1.360952e+01    2.662755e+00
  1.364127e+01    2.592992e+00
  1.367303e+01    2.613635e+00
  1.370478e+01    2.554404e+00
  1.373653e+01    2.479826e+00
  1.376828e+01    2.490177e+00
  1.380003e+01    2.481431e+00
  1.383178e+01    2.480588e+00
  1.386353e+01    2.405855e+00
  1.389528e+01    2.399578e+00
  1.392703e+01    2.405196e+00
  1.395879e+01    2.417260e+00
  1.399054e+01    2.410748e+00
  1.402229e+01    2.389672e+00
  1.405404e+01    2.342944e+00
  1.408579e+01    2.318217e+00
  1.411754e+01    2.337954e+00
  1.414929e+01    2.312654e+00
  1.418104e+01    2.297057e+00
  1.421279e+01    2.265528e+00
  1.424455e+01    2.251171e+00
  1.427630e+01    2.271646e+00
  1.430805e+01    2.291411e+00
  1.433980e+01    2.283569e+00
  1.437155e+01    2.232808e+00
  1.440330e+01    2.247670e+00
  1.443505e+01    2.266136e+00
  1.446680e+01    2.249130e+00
  1.449856e+01    2.213482e+00
  1.453031e+01    2.202268e+00
  1.456206e+01    2.209835e+00
  1.459381e+01    2.204474e+00
  1.462556e+01    2.209064e+00
  1.465731e+01    2.177124e+00
  1.468906e+01    2.215458e+00
  1.472081e+01    2.179342e+00
  1.475256e+01    2.218973e+00
  1.478432e+01    2.193137e+00
  1.481607e+01    2.202845e+00
  1.484782e+01    2.228388e+00
  1.487957e+01    2.210905e+00
  1.491132e+01    2.245527e+00
  1.494307e+01    2.329158e+00
  1.497482e+01    2.346968e+00
  1.500657e+01    2.439637e+00
  1.503832e+01    2.623070e+00
  1.507008e+01    2.745277e+00
  1.510183e+01    3.201371e+00
  1.513358e+01    3.754365e+00
  1.516533e+01    4.474651e+00
  1.519708e+01    5.102324e+00
  1.522883e+01    5.566807e+00
  1.526058e+01    5.778165e+00
  1.529233e+01    5.438946e+00
  1.532409e+01    4.658254e+00
  1.535584e+01    3.743836e+00
  1.538759e+01    3.198627e+00
  1.541934e+01    2.793012e+00
  1.545109e+01    2.546203e+00
  1.548284e+01    2.345577e+00
  1.551459e+01    2.238128e+00
  1.554634e+01    2.174977e+00
  1.557809e+01    2.133311e+00
  1.560985e+01    2.082688e+00
  1.564160e+01    2.065535e+00
  1.567335e+01    2.015723e+00
  1.570510e+01    2.000210e+00
  1.573685e+01    1.987855e+00
  1.576860e+01    1.968655e+00
  1.580035e+01    1.964323e+00
  1.583210e+01    1.924620e+00
  1.586385e+01    1.912547e+00
  1.589561e+01    1.912107e+00
  1.592736e+01    1.904291e+00
  1.595911e+01    1.888895e+00
  1.599086e+01    1.885727e+00
  1.602261e+01    1.894970e+00
  1.605436e+01    1.857380e+00
  1.608611e+01    1.851104e+00
  1.611786e+01    1.861214e+00
  1.614961e+01    1.852387e+00
  1.618137e+01    1.818393e+00
  1.621312e+01    1.854043e+00
  1.624487e+01    1.801943e+00
  1.627662e+01    1.800398e+00
  1.630837e+01    1.797260e+00
  1.634012e+01    1.778507e+00
  1.637187e+01    1.771099e+00
  1.640362e+01    1.799744e+00
  1.643538e+01    1.795539e+00
  1.646713e+01    1.749054e+00
  1.649888e+01    1.736903e+00
  1.653063e+01    1.757817e+00
  1.656238e+01    1.741244e+00
  1.659413e+01    1.762529e+00
  1.662588e+01    1.717712e+00
  1.665763e+01    1.709170e+00
  1.668938e+01    1.732975e+00
  1.672114e+01    1.723360e+00
  1.675289e+01    1.705122e+00
  1.678464e+01    1.715859e+00
  1.681639e+01    1.712552e+00
  1.684814e+01    1.684811e+00
  1.687989e+01    1.680062e+00
  1.691164e+01    1.676818e+00
  1.694339e+01    1.703340e+00
  1.697514e+01    1.686696e+00
  1.700690e+01    1.691519e+00
  1.703865e+01    1.655587e+00
  1.707040e+01    1.648045e+00
  1.710215e+01    1.619134e+00
  1.713390e+01    1.647911e+00
  1.716565e+01    1.596617e+00
  1.719740e+01    1.637793e+00
  1.722915e+01    1.661320e+00
  1.726091e+01    1.611717e+00
  1.729266e+01    1.608792e+00
  1.732441e+01    1.615096e+00
  1.735616e+01    1.621903e+00
  1.738791e+01    1.609723e+00
  1.741966e+01    1.612183e+00
  1.745141e+01    1.604606e+00
  1.748316e+01    1.565325e+00
  1.751491e+01    1.538697e+00
  1.754667e+01    1.572788e+00
  1.757842e+01    1.571812e+00
  1.761017e+01    1.599778e+00
  1.764192e+01    1.561744e+00
  1.767367e+01    1.565161e+00
  1.770542e+01    1.563075e+00
  1.773717e+01    1.538620e+00
  1.776892e+01    1.538511e+00
  1.780067e+01    1.523472e+00
  1.783243e+01    1.510216e+00
  1.786418e+01    1.577288e+00
  1.789593e+01    1.539901e+00
  1.792768e+01    1.505478e+00
  1.795943e+01    1.519362e+00
  1.799118e+01    1.474214e+00
  1.802293e+01    1.510551e+00
  1.805468e+01    1.484998e+00
  1.808643e+01    1.524777e+00
  1.811819e+01    1.469995e+00
  1.814994e+01    1.490100e+00
  1.818169e+01    1.483908e+00
  1.821344e+01    1.453292e+00
  1.824519e+01    1.485687e+00
  1.827694e+01    1.477334e+00
  1.830869e+01    1.477533e+00
  1.834044e+01    1.464247e+00
  1.837220e+01    1.440211e+00
  1.840395e+01    1.477883e+00
  1.843570e+01    1.476042e+00
  1.846745e+01    1.430431e+00
  1.849920e+01    1.439545e+00
  1.853095e+01    1.453407e+00
  1.856270e+01    1.434931e+00
  1.859445e+01    1.416987e+00
  1.862620e+01    1.446402e+00
  1.865796e+01    1.425809e+00
  1.868971e+01    1.436359e+00
  1.872146e+01    1.403554e+00
  1.875321e+01    1.374943e+00
  1.878496e+01    1.408263e+00
  1.881671e+01    1.391114e+00
  1.884846e+01    1.418941e+00
  1.888021e+01    1.400027e+00
  1.891196e+01    1.400082e+00
  1.894372e+01    1.393144e+00
  1.897547e+01    1.394416e+00
  1.900722e+01    1.380952e+00
  1.903897e+01    1.417204e+00
  1.907072e+01    1.379741e+00
  1.910247e+01    1.378646e+00
  1.913422e+01    1.406425e+00
  1.916597e+01    1.357770e+00
  1.919773e+01    1.407630e+00
  1.922948e+01    1.345243e+00
  1.926123e+01    1.348995e+00
  1.929298e+01    1.379726e+00
  1.932473e+01    1.361435e+00
  1.935648e+01    1.362740e+00
  1.938823e+01    1.378860e+00
  1.941998e+01    1.345419e+00
  1.945173e+01    1.370192e+00
  1.948349e+01    1.365915e+00
  1.951524e+01    1.336550e+00
  1.954699e+01    1.310615e+00
  1.957874e+01    1.323580e+00
  1.961049e+01    1.342431e+00
  1.964224e+01    1.313493e+00
  1.967399e+01    1.317849e+00
  1.970574e+01    1.327562e+00
  1.973749e+01    1.318843e+00
  1.976925e+01    1.315161e+00
  1.980100e+01    1.293885e+00
  1.983275e+01    1.288855e+00
  1.986450e+01    1.286060e+00
  1.989625e+01    1.278181e+00
  1.992800e+01    1.303880e+00
  1.995975e+01    1.299761e+00
  1.999150e+01    1.274333e+00
  2.002325e+01    1.284325e+00
  2.005501e+01    1.280223e+00
  2.008676e+01    1.275488e+00
  2.011851e+01    1.293213e+00
  2.015026e+01    1.278203e+00
  2.018201e+01    1.299602e+00
  2.021376e+01    1.245314e+00
  2.024551e+01    1.263052e+00
  2.027726e+01    1.253219e+00
  2.030902e+01    1.243081e+00
  2.034077e+01    1.239629e+00
  2.037252e+01    1.248962e+00
  2.040427e+01    1.277247e+00
  2.043602e+01    1.271830e+00
  2.046777e+01    1.258386e+00
  2.049952e+01    1.240725e+00
  2.053127e+01    1.247664e+00
  2.056302e+01    1.261639e+00
  2.059478e+01    1.236071e+00
  2.062653e+01    1.239910e+00
  2.065828e+01    1.235719e+00
  2.069003e+01    1.245024e+00
  2.072178e+01    1.230585e+00
  2.075353e+01    1.230409e+00
  2.078528e+01    1.225802e+00
  2.081703e+01    1.222177e+00
  2.084878e+01    1.221727e+00
  2.088054e+01    1.232320e+00
  2.091229e+01    1.247057e+00
  2.094404e+01    1.221565e+00
  2.097579e+01    1.212316e+00
  2.100754e+01    1.203190e+00
  2.103929e+01    1.206688e+00
  2.107104e+01    1.221915e+00
  2.110279e+01    1.223372e+00
  2.113455e+01    1.216740e+00
  2.116630e+01    1.227185e+00
  2.119805e+01    1.240426e+00
  2.122980e+01    1.228362e+00
  2.126155e+01    1.265246e+00
  2.129330e+01    1.259224e+00
  2.132505e+01    1.291253e+00
  2.135680e+01    1.297411e+00
  2.138855e+01    1.293971e+00
  2.142031e+01    1.321750e+00
  2.145206e+01    1.353071e+00
  2.148381e+01    1.420678e+00
  2.151556e+01    1.433221e+00
  2.154731e+01    1.548744e+00
  2.157906e+01    1.584304e+00
  2.161081e+01    1.754286e+00
  2.164256e+01    1.939563e+00
  2.167431e+01    2.272814e+00
  2.170607e+01    2.776929e+00
  2.173782e+01    3.448522e+00
  2.176957e+01    4.475508e+00
  2.180132e+01    5.827846e+00
  2.183307e+01    7.160054e+00
  2.186482e+01    8.303175e+00
  2.189657e+01    8.889249e+00
  2.192832e+01    8.261623e+00
  2.196007e+01    6.658573e+00
  2.199183e+01    4.896022e+00
  2.202358e+01    3.650161e+00
  2.205533e+01    2.854160e+00
  2.208708e+01    2.295388e+00
  2.211883e+01    1.993693e+00
  2.215058e+01    1.725749e+00
  2.218233e+01    1.622067e+00
  2.221408e+01    1.504328e+00
  2.224584e+01    1.414038e+00
  2.227759e+01    1.342080e+00
  2.230934e+01    1.295036e+00
  2.234109e+01    1.264723e+00
  2.237284e+01    1.237540e+00
  2.240459e+01    1.203356e+00
  2.243634e+01    1.192956e+00
  2.246809e+01    1.151150e+00
  2.249984e+01    1.145862e+00
  2.253160e+01    1.134845e+00
  2.256335e+01    1.096921e+00
  2.259510e+01    1.103154e+00
  2.262685e+01    1.113338e+00
  2.265860e+01    1.069812e+00
  2.269035e+01    1.097916e+00
  2.272210e+01    1.090057e+00
  2.275385e+01    1.058421e+00
  2.278560e+01    1.045809e+00
  2.281736e+01    1.068894e+00
  2.284911e+01    1.039021e+00
  2.288086e+01    1.049951e+00
  2.291261e+01    1.034628e+00
  2.294436e+01    1.031498e+00
  2.297611e+01    1.011980e+00
  2.300786e+01    1.038405e+00
  2.303961e+01    1.000286e+00
  2.307137e+01    1.008416e+00
  2.310312e+01    1.026305e+00
  2.313487e+01    9.894410e-01
  2.316662e+01    9.948675e-01
  2.319837e+01    1.013998e+00
  2.323012e+01    9.936230e-01
  2.326187e+01    9.895222e-01
  2.329362e+01    9.879844e-01
  2.332537e+01    9.801414e-01
  2.335713e+01    9.733627e-01
  2.338888e+01    9.850820e-01
  2.342063e+01    9.718950e-01
  2.345238e+01    9.761937e-01
  2.348413e+01    9.776949e-01
  2.351588e+01    9.434310e-01
  2.354763e+01    9.547676e-01
  2.357938e+01    9.725528e-01
  2.361113e+01    9.743908e-01
  2.364289e+01    9.523316e-01
  2.367464e+01    9.518490e-01
  2.370639e+01    9.289841e-01
  2.373814e+01    9.187342e-01
  2.376989e+01    9.263079e-01
  2.380164e+01    8.994249e-01
  2.383339e+01    9.018542e-01
  2.386514e+01    9.119954e-01
  2.389689e+01    9.161415e-01
  2.392865e+01    9.046197e-01
  2.396040e+01    9.096576e-01
  2.399215e+01    8.798014e-01
  2.402390e+01    9.044979e-01
  2.405565e+01    9.052655e-01
  2.408740e+01    8.991914e-01
  2.411915e+01    8.973776e-01
  2.415090e+01    8.835630e-01
  2.418266e+01    8.870301e-01
  2.421441e+01    8.693609e-01
  2.424616e+01    8.659168e-01
  2.427791e+01    8.831869e-01
  2.430966e+01    9.037870e-01
  2.434141e+01    9.088410e-01
  2.437316e+01    9.033585e-01
  2.440491e+01    8.747081e-01
  2.443666e+01    8.881751e-01
  2.446842e+01    8.932741e-01
  2.450017e+01    8.956418e-01
  2.453192e+01    9.006515e-01
  2.456367e+01    8.886653e-01
  2.459542e+01    8.876489e-01
  2.462717e+01    8.826027e-01
  2.465892e+01    9.006336e-01
  2.469067e+01    8.972070e-01
  2.472242e+01    8.977938e-01
  2.475418e+01    9.063630e-01
  2.478593e+01    8.914871e-01
  2.481768e+01    8.900912e-01
  2.484943e+01    8.758675e-01
  2.488118e+01    8.872522e-01
  2.491293e+01    8.840159e-01
  2.494468e+01    9.128912e-01
  2.497643e+01    8.975530e-01
  2.500819e+01    8.934210e-01
  2.503994e+01    9.073019e-01
  2.507169e+01    8.992023e-01
  2.510344e+01    8.990610e-01
  2.513519e+01    9.023364e-01
  2.516694e+01    9.125381e-01
  2.519869e+01    9.272023e-01
  2.523044e+01    9.467279e-01
  2.526219e+01    9.363304e-01
  2.529395e+01    9.696743e-01
  2.532570e+01    9.588019e-01
  2.535745e+01    9.612967e-01
  2.538920e+01    9.940696e-01
  2.542095e+01    9.937978e-01
  2.545270e+01    1.012972e+00
  2.548445e+01    1.007708e+00
  2.551620e+01    1.095632e+00
  2.554795e+01    1.102271e+00
  2.557971e+01    1.187738e+00
  2.561146e+01    1.201763e+00
  2.564321e+01    1.305769e+00
  2.567496e+01    1.401487e+00
  2.570671e+01    1.609847e+00
  2.573846e+01    1.832025e+00
  2.577021e+01    2.216466e+00
  2.580196e+01    2.738948e+00
  2.583371e+01    3.567103e+00
  2.586547e+01    4.657787e+00
  2.589722e+01    5.765724e+00
  2.592897e+01    6.688029e+00
  2.596072e+01    7.023340e+00
  2.599247e+01    6.554136e+00
  2.602422e+01    5.316417e+00
  2.605597e+01    3.963273e+00
  2.608772e+01    3.002880e+00
  2.611948e+01    2.357772e+00
  2.615123e+01    1.935155e+00
  2.618298e+01    1.688768e+00
  2.621473e+01    1.447732e+00
  2.624648e+01    1.353183e+00
  2.627823e+01    1.251944e+00
  2.630998e+01    1.181080e+00
  2.634173e+01    1.138069e+00
  2.637348e+01    1.079404e+00
  2.640524e+01    1.039087e+00
  2.643699e+01    1.035004e+00
  2.646874e+01    1.003336e+00
  2.650049e+01    1.004859e+00
  2.653224e+01    9.824586e-01
  2.656399e+01    9.879006e-01
  2.659574e+01    9.895294e-01
  2.662749e+01    9.750786e-01
  2.665924e+01    9.764884e-01
  2.669100e+01    9.819976e-01
  2.672275e+01    9.886423e-01
  2.675450e+01    9.742612e-01
  2.678625e+01    9.638363e-01
  2.681800e+01    9.557059e-01
  2.684975e+01    9.742528e-01
  2.688150e+01    1.027348e+00
  2.691325e+01    1.024515e+00
  2.694501e+01    1.043577e+00
  2.697676e+01    1.056464e+00
  2.700851e+01    1.120708e+00
  2.704026e+01    1.168664e+00
  2.707201e+01    1.294390e+00
  2.710376e+01    1.467639e+00
  2.713551e+01    1.703987e+00
  2.716726e+01    1.970093e+00
  2.719901e+01    2.163126e+00
  2.723077e+01    2.166154e+00
  2.726252e+01    2.004581e+00
  2.729427e+01    1.708886e+00
  2.732602e+01    1.475363e+00
  2.735777e+01    1.274403e+00
  2.738952e+01    1.140969e+00
  2.742127e+01    1.108050e+00
  2.745302e+01    1.012747e+00
  2.748477e+01    1.013991e+00
  2.751653e+01    9.815226e-01
  2.754828e+01    9.453068e-01
  2.758003e+01    9.455807e-01
  2.761178e+01    9.088416e-01
  2.764353e+01    9.066291e-01
  2.767528e+01    9.209106e-01
  2.770703e+01    8.906528e-01
  2.773878e+01    9.185899e-01
  2.777054e+01    8.824558e-01
  2.780229e+01    8.868456e-01
  2.783404e+01    8.766673e-01
  2.786579e+01    8.974847e-01
  2.789754e+01    8.974717e-01
  2.792929e+01    8.888232e-01
  2.796104e+01    8.548130e-01
  2.799279e+01    8.977767e-01
  2.802454e+01    8.565443e-01
  2.805630e+01    8.624573e-01
  2.808805e+01    8.642222e-01
  2.811980e+01    8.507026e-01
  2.815155e+01    8.710857e-01
  2.818330e+01    8.490499e-01
  2.821505e+01    8.502383e-01
  2.824680e+01    8.492678e-01
  2.827855e+01    8.450642e-01
  2.831030e+01    8.406323e-01
  2.834206e+01    8.426160e-01
  2.837381e+01    8.644578e-01
  2.840556e+01    8.761240e-01
  2.843731e+01    8.398976e-01
  2.846906e+01    8.304445e-01
  2.850081e+01    8.278806e-01
  2.853256e+01    8.336283e-01
  2.856431e+01    8.116837e-01
  2.859606e+01    8.355231e-01
  2.862782e+01    8.289191e-01
  2.865957e+01    8.431458e-01
  2.869132e+01    8.348819e-01
  2.872307e+01    8.217276e-01
  2.875482e+01    8.043571e-01
  2.878657e+01    8.312681e-01
  2.881832e+01    8.238741e-01
  2.885007e+01    8.257774e-01
  2.888183e+01    8.324620e-01
  2.891358e+01    8.040290e-01
  2.894533e+01    8.189340e-01
  2.897708e+01    8.075008e-01
  2.900883e+01    8.194685e-01
  2.904058e+01    8.122152e-01
  2.907233e+01    8.274637e-01
  2.910408e+01    7.973289e-01
  2.913583e+01    8.026837e-01
  2.916759e+01    8.116829e-01
  2.919934e+01    8.270041e-01
  2.923109e+01    8.023204e-01
  2.926284e+01    8.306018e-01
  2.929459e+01    7.928507e-01
  2.932634e+01    8.354865e-01
  2.935809e+01    8.048365e-01
  2.938984e+01    8.086199e-01
  2.942159e+01    7.912583e-01
  2.945335e+01    8.019571e-01
  2.948510e+01    7.906529e-01
  2.951685e+01    8.100494e-01
  2.954860e+01    7.907856e-01
  2.958035e+01    7.745487e-01
  2.961210e+01    7.809976e-01
  2.964385e+01    8.217424e-01
  2.967560e+01    7.751161e-01
  2.970736e+01    7.820492e-01
  2.973911e+01    8.068172e-01
  2.977086e+01    7.941080e-01
  2.980261e+01    8.171191e-01
  2.983436e+01    7.904831e-01
  2.986611e+01    7.928849e-01
  2.989786e+01    7.985128e-01
  2.992961e+01    7.974447e-01
  2.996136e+01    8.017691e-01
  2.999312e+01    7.983197e-01
  3.002487e+01    8.008808e-01
  3.005662e+01    8.155699e-01
  3.008837e+01    8.182811e-01
  3.012012e+01    8.234780e-01
  3.015187e+01    7.765983e-01
  3.018362e+01    7.799550e-01
  3.021537e+01    8.124233e-01
  3.024712e+01    7.778433e-01
  3.027888e+01    7.954568e-01
  3.031063e+01    7.756131e-01
  3.034238e+01    7.989215e-01
  3.037413e+01    7.643597e-01
  3.040588e+01    7.859454e-01
  3.043763e+01    7.835653e-01
  3.046938e+01    7.889732e-01
  3.050113e+01    7.837507e-01
  3.053288e+01    7.725719e-01
  3.056464e+01    7.814624e-01
  3.059639e+01    7.970696e-01
  3.062814e+01    7.891134e-01
  3.065989e+01    8.010240e-01
  3.069164e+01    7.896181e-01
  3.072339e+01    7.796087e-01
  3.075514e+01    7.975100e-01
  3.078689e+01    7.882373e-01
  3.081865e+01    7.766266e-01
  3.085040e+01    7.792411e-01
  3.088215e+01    7.603098e-01
  3.091390e+01    7.807171e-01
  3.094565e+01    7.829365e-01
  3.097740e+01    7.878606e-01
  3.100915e+01    7.782319e-01
  3.104090e+01    7.997692e-01
  3.107265e+01    7.937001e-01
  3.110441e+01    7.909698e-01
  3.113616e+01    7.866660e-01
  3.116791e+01    8.041297e-01
  3.119966e+01    7.816191e-01
  3.123141e+01    7.753820e-01
  3.126316e+01    7.789131e-01
  3.129491e+01    7.932088e-01
  3.132666e+01    7.832360e-01
  3.135841e+01    7.976121e-01
  3.139017e+01    8.069807e-01
  3.142192e+01    8.173198e-01
  3.145367e+01    8.261271e-01
  3.148542e+01    8.293030e-01
  3.151717e+01    8.440849e-01
  3.154892e+01    8.514039e-01
  3.158067e+01    8.499296e-01
  3.161242e+01    8.846245e-01
  3.164418e+01    9.331709e-01
  3.167593e+01    9.570939e-01
  3.170768e+01    1.010164e+00
  3.173943e+01    1.092584e+00
  3.177118e+01    1.200995e+00
  3.180293e+01    1.445883e+00
  3.183468e+01    1.680777e+00
  3.186643e+01    1.944377e+00
  3.189818e+01    2.089368e+00
  3.192994e+01    2.023425e+00
  3.196169e+01    1.832303e+00
  3.199344e+01    1.554542e+00
  3.202519e+01    1.338849e+00
  3.205694e+01    1.170043e+00
  3.208869e+01    1.022594e+00
  3.212044e+01    9.703877e-01
  3.215219e+01    9.123252e-01
  3.218394e+01    8.837128e-01
  3.221570e+01    8.445730e-01
  3.224745e+01    8.335852e-01
  3.227920e+01    8.396302e-01
  3.231095e+01    8.021374e-01
  3.234270e+01    8.267318e-01
  3.237445e+01    7.954177e-01
  3.240620e+01    7.917742e-01
  3.243795e+01    7.952620e-01
  3.246970e+01    7.724510e-01
  3.250146e+01    7.795827e-01
  3.253321e+01    7.903826e-01
  3.254908e+01    7.711685e-01