File: XRD/Reaction conditions/2024-07-27_003_Ru-CGO-ex_Reaction_dwell_000023_data_000051.dat
# == pyFAI calibration ==
# Distance Sample to Detector: 0.4 m
# PONI: 9.750e-02, 1.135e-01 m
# Rotations: -0.000175 0.000000 -0.000000 rad
#
# == Fit2d calibration ==
# Distance Sample-beamCenter: 400.000 mm
# Center: x=1514.000, y=1300.000 pix
# Tilt: 0.010 deg  TiltPlanRot: 0.010 deg
#
# Detector Detector	 Spline= None	 PixelSize= 7.500e-05, 7.500e-05 m
#    Detector has a mask: False
#    Detector has a dark current: False
#    detector has a flat field: False
#
# Wavelength: 6.888e-11 m
# Mask applied: user provided
# Dark current applied: False
# Flat field applied: False
# Polarization factor: 0.99
# Normalization factor: 1.0
# --> /home/myspot/data/2024_07_Rosario/Ru-CGO-ex/2024-07-27_003_Ru-CGO-ex_Reaction_dwell_000023_data_000051.dat
#       q_nm^-1             I
  2.003187e-02    2.195781e-01
  5.178302e-02    1.869878e-01
  8.353417e-02    7.000605e-02
  1.152853e-01    2.774886e-02
  1.470365e-01    1.243855e-02
  1.787876e-01    3.829886e-02
  2.105388e-01    4.958678e-02
  2.422899e-01    3.057198e-02
  2.740411e-01    5.017573e-02
  3.057922e-01    4.331066e-02
  3.375433e-01    3.003038e-02
  3.692945e-01    3.893616e-02
  4.010456e-01    3.797978e-02
  4.327968e-01    2.388974e-02
  4.645479e-01    3.425183e-02
  4.962991e-01    2.599966e-02
  5.280502e-01    4.466195e-02
  5.598014e-01    3.979624e-02
  5.915525e-01    3.199798e-02
  6.233037e-01    2.893656e-02
  6.550548e-01    2.121609e-02
  6.868060e-01    4.008800e-02
  7.185571e-01    3.884347e-02
  7.503083e-01    7.007633e-02
  7.820594e-01    1.218102e-01
  8.138106e-01    2.310769e-01
  8.455617e-01    3.428076e-01
  8.773129e-01    4.461216e-01
  9.090640e-01    6.704346e-01
  9.408152e-01    8.948328e-01
  9.725663e-01    1.025003e+00
  1.004317e+00    1.174471e+00
  1.036069e+00    1.366595e+00
  1.067820e+00    1.431099e+00
  1.099571e+00    1.474255e+00
  1.131322e+00    1.593396e+00
  1.163073e+00    1.699868e+00
  1.194824e+00    1.732298e+00
  1.226575e+00    2.269156e+00
  1.258327e+00    2.445878e+00
  1.290078e+00    2.638271e+00
  1.321829e+00    2.729644e+00
  1.353580e+00    2.770383e+00
  1.385331e+00    2.792684e+00
  1.417082e+00    2.950258e+00
  1.448834e+00    2.966301e+00
  1.480585e+00    3.070311e+00
  1.512336e+00    2.924586e+00
  1.544087e+00    3.117818e+00
  1.575838e+00    3.129088e+00
  1.607589e+00    3.182750e+00
  1.639340e+00    3.186726e+00
  1.671092e+00    3.180511e+00
  1.702843e+00    3.108721e+00
  1.734594e+00    3.098352e+00
  1.766345e+00    3.184184e+00
  1.798096e+00    3.176198e+00
  1.829847e+00    3.149401e+00
  1.861598e+00    3.150848e+00
  1.893350e+00    3.103488e+00
  1.925101e+00    2.925894e+00
  1.956852e+00    2.951199e+00
  1.988603e+00    3.079183e+00
  2.020354e+00    3.122095e+00
  2.052105e+00    3.109597e+00
  2.083856e+00    3.062766e+00
  2.115608e+00    3.071974e+00
  2.147359e+00    3.200831e+00
  2.179110e+00    2.937985e+00
  2.210861e+00    3.125248e+00
  2.242612e+00    3.200552e+00
  2.274363e+00    3.139027e+00
  2.306115e+00    3.146744e+00
  2.337866e+00    3.170649e+00
  2.369617e+00    3.164128e+00
  2.401368e+00    3.151128e+00
  2.433119e+00    3.256095e+00
  2.464870e+00    3.211179e+00
  2.496621e+00    3.073239e+00
  2.528373e+00    3.236020e+00
  2.560124e+00    3.165756e+00
  2.591875e+00    3.203334e+00
  2.623626e+00    3.184704e+00
  2.655377e+00    3.310827e+00
  2.687128e+00    3.153247e+00
  2.718879e+00    3.224717e+00
  2.750631e+00    3.321761e+00
  2.782382e+00    3.298571e+00
  2.814133e+00    3.254206e+00
  2.845884e+00    3.228710e+00
  2.877635e+00    3.223503e+00
  2.909386e+00    3.232325e+00
  2.941137e+00    3.354411e+00
  2.972889e+00    3.379237e+00
  3.004640e+00    3.396647e+00
  3.036391e+00    3.416650e+00
  3.068142e+00    3.401191e+00
  3.099893e+00    3.421942e+00
  3.131644e+00    3.332072e+00
  3.163395e+00    3.417415e+00
  3.195147e+00    3.338138e+00
  3.226898e+00    3.354707e+00
  3.258649e+00    3.352199e+00
  3.290400e+00    3.474724e+00
  3.322151e+00    3.377771e+00
  3.353902e+00    3.397149e+00
  3.385654e+00    3.479125e+00
  3.417405e+00    3.427354e+00
  3.449156e+00    3.505208e+00
  3.480907e+00    3.519834e+00
  3.512658e+00    3.448138e+00
  3.544409e+00    3.432353e+00
  3.576160e+00    3.446056e+00
  3.607912e+00    3.477680e+00
  3.639663e+00    3.487885e+00
  3.671414e+00    3.405506e+00
  3.703165e+00    3.422091e+00
  3.734916e+00    3.576756e+00
  3.766667e+00    3.428579e+00
  3.798418e+00    3.507650e+00
  3.830170e+00    3.510610e+00
  3.861921e+00    3.472511e+00
  3.893672e+00    3.515360e+00
  3.925423e+00    3.615741e+00
  3.957174e+00    3.430682e+00
  3.988925e+00    3.488646e+00
  4.020676e+00    3.507762e+00
  4.052428e+00    3.544496e+00
  4.084179e+00    3.515011e+00
  4.115930e+00    3.555782e+00
  4.147681e+00    3.543855e+00
  4.179432e+00    3.550841e+00
  4.211183e+00    3.573377e+00
  4.242935e+00    3.531807e+00
  4.274686e+00    3.577293e+00
  4.306437e+00    3.526307e+00
  4.338188e+00    3.574910e+00
  4.369939e+00    3.550835e+00
  4.401690e+00    3.578682e+00
  4.433441e+00    3.549500e+00
  4.465193e+00    3.680101e+00
  4.496944e+00    3.569345e+00
  4.528695e+00    3.672855e+00
  4.560446e+00    3.520314e+00
  4.592197e+00    3.540115e+00
  4.623948e+00    3.781044e+00
  4.655699e+00    3.655467e+00
  4.687451e+00    3.640795e+00
  4.719202e+00    3.686907e+00
  4.750953e+00    3.705034e+00
  4.782704e+00    3.678429e+00
  4.814455e+00    3.653571e+00
  4.846206e+00    3.560245e+00
  4.877957e+00    3.589827e+00
  4.909709e+00    3.648512e+00
  4.941460e+00    3.651620e+00
  4.973211e+00    3.641845e+00
  5.004962e+00    3.670501e+00
  5.036713e+00    3.738021e+00
  5.068464e+00    3.581806e+00
  5.100216e+00    3.674760e+00
  5.131967e+00    3.647397e+00
  5.163718e+00    3.724451e+00
  5.195469e+00    3.683912e+00
  5.227220e+00    3.689261e+00
  5.258971e+00    3.674007e+00
  5.290722e+00    3.680771e+00
  5.322474e+00    3.676461e+00
  5.354225e+00    3.632607e+00
  5.385976e+00    3.723046e+00
  5.417727e+00    3.666768e+00
  5.449478e+00    3.550501e+00
  5.481229e+00    3.576870e+00
  5.512980e+00    3.600818e+00
  5.544732e+00    3.621214e+00
  5.576483e+00    3.653555e+00
  5.608234e+00    3.529813e+00
  5.639985e+00    3.581088e+00
  5.671736e+00    3.587000e+00
  5.703487e+00    3.664846e+00
  5.735238e+00    3.567284e+00
  5.766990e+00    3.507635e+00
  5.798741e+00    3.534660e+00
  5.830492e+00    3.612468e+00
  5.862243e+00    3.585881e+00
  5.893994e+00    3.667330e+00
  5.925745e+00    3.675227e+00
  5.957497e+00    3.496310e+00
  5.989248e+00    3.555739e+00
  6.020999e+00    3.559829e+00
  6.052750e+00    3.580718e+00
  6.084501e+00    3.549269e+00
  6.116252e+00    3.587580e+00
  6.148003e+00    3.632075e+00
  6.179755e+00    3.668218e+00
  6.211506e+00    3.605241e+00
  6.243257e+00    3.552218e+00
  6.275008e+00    3.495518e+00
  6.306759e+00    3.582087e+00
  6.338510e+00    3.600345e+00
  6.370261e+00    3.551111e+00
  6.402013e+00    3.537013e+00
  6.433764e+00    3.569863e+00
  6.465515e+00    3.556246e+00
  6.497266e+00    3.544913e+00
  6.529017e+00    3.499542e+00
  6.560768e+00    3.584109e+00
  6.592519e+00    3.567914e+00
  6.624271e+00    3.536541e+00
  6.656022e+00    3.576974e+00
  6.687773e+00    3.594287e+00
  6.719524e+00    3.670054e+00
  6.751275e+00    3.575300e+00
  6.783026e+00    3.636865e+00
  6.814777e+00    3.556220e+00
  6.846529e+00    3.539585e+00
  6.878280e+00    3.510351e+00
  6.910031e+00    3.552672e+00
  6.941782e+00    3.564704e+00
  6.973533e+00    3.569988e+00
  7.005284e+00    3.491656e+00
  7.037036e+00    3.499102e+00
  7.068787e+00    3.572060e+00
  7.100538e+00    3.607481e+00
  7.132289e+00    3.462541e+00
  7.164040e+00    3.500126e+00
  7.195791e+00    3.528342e+00
  7.227542e+00    3.525175e+00
  7.259294e+00    3.549466e+00
  7.291045e+00    3.519605e+00
  7.322796e+00    3.555810e+00
  7.354547e+00    3.437414e+00
  7.386298e+00    3.540961e+00
  7.418049e+00    3.511223e+00
  7.449800e+00    3.569342e+00
  7.481552e+00    3.497065e+00
  7.513303e+00    3.476449e+00
  7.545054e+00    3.530107e+00
  7.576805e+00    3.472975e+00
  7.608556e+00    3.450221e+00
  7.640307e+00    3.492033e+00
  7.672058e+00    3.477966e+00
  7.703810e+00    3.520120e+00
  7.735561e+00    3.418208e+00
  7.767312e+00    3.420166e+00
  7.799063e+00    3.474591e+00
  7.830814e+00    3.437368e+00
  7.862565e+00    3.375350e+00
  7.894317e+00    3.492587e+00
  7.926068e+00    3.441462e+00
  7.957819e+00    3.445914e+00
  7.989570e+00    3.428276e+00
  8.021321e+00    3.414030e+00
  8.053072e+00    3.418816e+00
  8.084823e+00    3.367198e+00
  8.116575e+00    3.494524e+00
  8.148326e+00    3.463763e+00
  8.180077e+00    3.515243e+00
  8.211828e+00    3.500816e+00
  8.243579e+00    3.546345e+00
  8.275330e+00    3.464029e+00
  8.307081e+00    3.408886e+00
  8.338833e+00    3.376648e+00
  8.370584e+00    3.360573e+00
  8.402335e+00    3.408084e+00
  8.434086e+00    3.400578e+00
  8.465837e+00    3.400311e+00
  8.497588e+00    3.283155e+00
  8.529339e+00    3.364815e+00
  8.561091e+00    3.330267e+00
  8.592842e+00    3.399506e+00
  8.624593e+00    3.336865e+00
  8.656344e+00    3.400541e+00
  8.688095e+00    3.289414e+00
  8.719846e+00    3.345114e+00
  8.751598e+00    3.328267e+00
  8.783349e+00    3.294309e+00
  8.815100e+00    3.387909e+00
  8.846851e+00    3.314227e+00
  8.878602e+00    3.302620e+00
  8.910353e+00    3.286821e+00
  8.942104e+00    3.289982e+00
  8.973856e+00    3.354798e+00
  9.005607e+00    3.244927e+00
  9.037358e+00    3.290907e+00
  9.069109e+00    3.242017e+00
  9.100860e+00    3.321837e+00
  9.132611e+00    3.312696e+00
  9.164362e+00    3.299924e+00
  9.196114e+00    3.250606e+00
  9.227865e+00    3.287135e+00
  9.259616e+00    3.234988e+00
  9.291367e+00    3.296519e+00
  9.323118e+00    3.166311e+00
  9.354869e+00    3.180268e+00
  9.386620e+00    3.163413e+00
  9.418372e+00    3.185807e+00
  9.450123e+00    3.168002e+00
  9.481874e+00    3.228937e+00
  9.513625e+00    3.255519e+00
  9.545376e+00    3.195566e+00
  9.577127e+00    3.245333e+00
  9.608878e+00    3.194539e+00
  9.640630e+00    3.210906e+00
  9.672381e+00    3.212428e+00
  9.704132e+00    3.156807e+00
  9.735883e+00    3.186154e+00
  9.767634e+00    3.214813e+00
  9.799385e+00    3.169806e+00
  9.831137e+00    3.147160e+00
  9.862888e+00    3.186683e+00
  9.894639e+00    3.102458e+00
  9.926390e+00    3.129421e+00
  9.958141e+00    3.145777e+00
  9.989892e+00    3.134316e+00
  1.002164e+01    3.147445e+00
  1.005339e+01    3.107402e+00
  1.008515e+01    3.077674e+00
  1.011690e+01    3.026194e+00
  1.014865e+01    3.117260e+00
  1.018040e+01    3.104443e+00
  1.021215e+01    3.093358e+00
  1.024390e+01    3.069425e+00
  1.027565e+01    3.082948e+00
  1.030740e+01    3.050354e+00
  1.033915e+01    3.062900e+00
  1.037091e+01    3.068038e+00
  1.040266e+01    3.011244e+00
  1.043441e+01    3.033928e+00
  1.046616e+01    3.029501e+00
  1.049791e+01    3.006255e+00
  1.052966e+01    3.056413e+00
  1.056141e+01    2.995858e+00
  1.059316e+01    2.984988e+00
  1.062492e+01    2.967180e+00
  1.065667e+01    2.965919e+00
  1.068842e+01    2.944244e+00
  1.072017e+01    2.958634e+00
  1.075192e+01    2.950953e+00
  1.078367e+01    2.965523e+00
  1.081542e+01    2.985285e+00
  1.084717e+01    2.947611e+00
  1.087892e+01    2.977244e+00
  1.091068e+01    2.892223e+00
  1.094243e+01    2.928894e+00
  1.097418e+01    2.935372e+00
  1.100593e+01    2.955100e+00
  1.103768e+01    2.882877e+00
  1.106943e+01    2.884494e+00
  1.110118e+01    2.839547e+00
  1.113293e+01    2.908859e+00
  1.116468e+01    2.823678e+00
  1.119644e+01    2.878242e+00
  1.122819e+01    2.920506e+00
  1.125994e+01    2.851169e+00
  1.129169e+01    2.871095e+00
  1.132344e+01    2.847706e+00
  1.135519e+01    2.755322e+00
  1.138694e+01    2.850048e+00
  1.141869e+01    2.803884e+00
  1.145045e+01    2.843171e+00
  1.148220e+01    2.807937e+00
  1.151395e+01    2.806885e+00
  1.154570e+01    2.850033e+00
  1.157745e+01    2.806098e+00
  1.160920e+01    2.819871e+00
  1.164095e+01    2.737331e+00
  1.167270e+01    2.740968e+00
  1.170445e+01    2.738777e+00
  1.173621e+01    2.742437e+00
  1.176796e+01    2.760702e+00
  1.179971e+01    2.712112e+00
  1.183146e+01    2.702675e+00
  1.186321e+01    2.750706e+00
  1.189496e+01    2.737717e+00
  1.192671e+01    2.715703e+00
  1.195846e+01    2.767110e+00
  1.199021e+01    2.743476e+00
  1.202197e+01    2.728061e+00
  1.205372e+01    2.665910e+00
  1.208547e+01    2.679663e+00
  1.211722e+01    2.754170e+00
  1.214897e+01    2.710444e+00
  1.218072e+01    2.668786e+00
  1.221247e+01    2.698180e+00
  1.224422e+01    2.717463e+00
  1.227597e+01    2.663773e+00
  1.230773e+01    2.673515e+00
  1.233948e+01    2.652892e+00
  1.237123e+01    2.717421e+00
  1.240298e+01    2.673202e+00
  1.243473e+01    2.710444e+00
  1.246648e+01    2.707405e+00
  1.249823e+01    2.725082e+00
  1.252998e+01    2.645435e+00
  1.256174e+01    2.678272e+00
  1.259349e+01    2.774992e+00
  1.262524e+01    2.749161e+00
  1.265699e+01    2.762667e+00
  1.268874e+01    2.794667e+00
  1.272049e+01    2.828886e+00
  1.275224e+01    2.913831e+00
  1.278399e+01    3.003473e+00
  1.281574e+01    3.058150e+00
  1.284750e+01    3.208339e+00
  1.287925e+01    3.381023e+00
  1.291100e+01    3.666137e+00
  1.294275e+01    4.150750e+00
  1.297450e+01    4.767410e+00
  1.300625e+01    5.796880e+00
  1.303800e+01    7.664991e+00
  1.306975e+01    1.005442e+01
  1.310150e+01    1.269454e+01
  1.313326e+01    1.467070e+01
  1.316501e+01    1.615410e+01
  1.319676e+01    1.568667e+01
  1.322851e+01    1.250485e+01
  1.326026e+01    9.146106e+00
  1.329201e+01    6.742507e+00
  1.332376e+01    5.294384e+00
  1.335551e+01    4.467027e+00
  1.338727e+01    3.907464e+00
  1.341902e+01    3.527205e+00
  1.345077e+01    3.246229e+00
  1.348252e+01    3.031553e+00
  1.351427e+01    2.845273e+00
  1.354602e+01    2.777279e+00
  1.357777e+01    2.741799e+00
  1.360952e+01    2.699067e+00
  1.364127e+01    2.621399e+00
  1.367303e+01    2.602799e+00
  1.370478e+01    2.560626e+00
  1.373653e+01    2.516580e+00
  1.376828e+01    2.543229e+00
  1.380003e+01    2.468332e+00
  1.383178e+01    2.427060e+00
  1.386353e+01    2.386309e+00
  1.389528e+01    2.459304e+00
  1.392703e+01    2.400380e+00
  1.395879e+01    2.420951e+00
  1.399054e+01    2.369228e+00
  1.402229e+01    2.341579e+00
  1.405404e+01    2.349239e+00
  1.408579e+01    2.335998e+00
  1.411754e+01    2.343175e+00
  1.414929e+01    2.324608e+00
  1.418104e+01    2.305543e+00
  1.421279e+01    2.301332e+00
  1.424455e+01    2.279922e+00
  1.427630e+01    2.305420e+00
  1.430805e+01    2.246180e+00
  1.433980e+01    2.266762e+00
  1.437155e+01    2.270106e+00
  1.440330e+01    2.243138e+00
  1.443505e+01    2.251823e+00
  1.446680e+01    2.235718e+00
  1.449856e+01    2.222771e+00
  1.453031e+01    2.241468e+00
  1.456206e+01    2.180856e+00
  1.459381e+01    2.203811e+00
  1.462556e+01    2.243984e+00
  1.465731e+01    2.209495e+00
  1.468906e+01    2.196082e+00
  1.472081e+01    2.201262e+00
  1.475256e+01    2.187201e+00
  1.478432e+01    2.233351e+00
  1.481607e+01    2.180404e+00
  1.484782e+01    2.234330e+00
  1.487957e+01    2.252130e+00
  1.491132e+01    2.240827e+00
  1.494307e+01    2.284826e+00
  1.497482e+01    2.335448e+00
  1.500657e+01    2.419621e+00
  1.503832e+01    2.599593e+00
  1.507008e+01    2.762699e+00
  1.510183e+01    3.225089e+00
  1.513358e+01    3.783728e+00
  1.516533e+01    4.454783e+00
  1.519708e+01    5.187041e+00
  1.522883e+01    5.573947e+00
  1.526058e+01    5.819808e+00
  1.529233e+01    5.437956e+00
  1.532409e+01    4.615955e+00
  1.535584e+01    3.754780e+00
  1.538759e+01    3.175570e+00
  1.541934e+01    2.755254e+00
  1.545109e+01    2.557352e+00
  1.548284e+01    2.320060e+00
  1.551459e+01    2.241533e+00
  1.554634e+01    2.179092e+00
  1.557809e+01    2.140854e+00
  1.560985e+01    2.060106e+00
  1.564160e+01    2.061985e+00
  1.567335e+01    2.023168e+00
  1.570510e+01    1.997682e+00
  1.573685e+01    1.966705e+00
  1.576860e+01    2.009259e+00
  1.580035e+01    1.932860e+00
  1.583210e+01    1.926385e+00
  1.586385e+01    1.928278e+00
  1.589561e+01    1.925143e+00
  1.592736e+01    1.870478e+00
  1.595911e+01    1.878662e+00
  1.599086e+01    1.870938e+00
  1.602261e+01    1.877625e+00
  1.605436e+01    1.888890e+00
  1.608611e+01    1.844014e+00
  1.611786e+01    1.846355e+00
  1.614961e+01    1.843764e+00
  1.618137e+01    1.819882e+00
  1.621312e+01    1.847908e+00
  1.624487e+01    1.803725e+00
  1.627662e+01    1.797391e+00
  1.630837e+01    1.768258e+00
  1.634012e+01    1.762771e+00
  1.637187e+01    1.800787e+00
  1.640362e+01    1.796794e+00
  1.643538e+01    1.779013e+00
  1.646713e+01    1.774182e+00
  1.649888e+01    1.784427e+00
  1.653063e+01    1.705056e+00
  1.656238e+01    1.754612e+00
  1.659413e+01    1.719797e+00
  1.662588e+01    1.759560e+00
  1.665763e+01    1.751762e+00
  1.668938e+01    1.722206e+00
  1.672114e+01    1.711958e+00
  1.675289e+01    1.724861e+00
  1.678464e+01    1.686537e+00
  1.681639e+01    1.700052e+00
  1.684814e+01    1.682222e+00
  1.687989e+01    1.679873e+00
  1.691164e+01    1.712234e+00
  1.694339e+01    1.685023e+00
  1.697514e+01    1.731092e+00
  1.700690e+01    1.667007e+00
  1.703865e+01    1.658898e+00
  1.707040e+01    1.636782e+00
  1.710215e+01    1.681157e+00
  1.713390e+01    1.648795e+00
  1.716565e+01    1.638305e+00
  1.719740e+01    1.611426e+00
  1.722915e+01    1.599709e+00
  1.726091e+01    1.639642e+00
  1.729266e+01    1.648576e+00
  1.732441e+01    1.622492e+00
  1.735616e+01    1.598580e+00
  1.738791e+01    1.613230e+00
  1.741966e+01    1.624585e+00
  1.745141e+01    1.618973e+00
  1.748316e+01    1.611702e+00
  1.751491e+01    1.597041e+00
  1.754667e+01    1.547950e+00
  1.757842e+01    1.583562e+00
  1.761017e+01    1.589113e+00
  1.764192e+01    1.590191e+00
  1.767367e+01    1.571003e+00
  1.770542e+01    1.559494e+00
  1.773717e+01    1.564136e+00
  1.776892e+01    1.566672e+00
  1.780067e+01    1.525436e+00
  1.783243e+01    1.556403e+00
  1.786418e+01    1.501179e+00
  1.789593e+01    1.531054e+00
  1.792768e+01    1.520747e+00
  1.795943e+01    1.522375e+00
  1.799118e+01    1.523438e+00
  1.802293e+01    1.510689e+00
  1.805468e+01    1.500790e+00
  1.808643e+01    1.504761e+00
  1.811819e+01    1.489736e+00
  1.814994e+01    1.485166e+00
  1.818169e+01    1.483448e+00
  1.821344e+01    1.481673e+00
  1.824519e+01    1.494404e+00
  1.827694e+01    1.464978e+00
  1.830869e+01    1.463203e+00
  1.834044e+01    1.478174e+00
  1.837220e+01    1.481632e+00
  1.840395e+01    1.451016e+00
  1.843570e+01    1.447228e+00
  1.846745e+01    1.422346e+00
  1.849920e+01    1.469809e+00
  1.853095e+01    1.435630e+00
  1.856270e+01    1.429181e+00
  1.859445e+01    1.428641e+00
  1.862620e+01    1.435136e+00
  1.865796e+01    1.428874e+00
  1.868971e+01    1.414075e+00
  1.872146e+01    1.413888e+00
  1.875321e+01    1.448167e+00
  1.878496e+01    1.387839e+00
  1.881671e+01    1.418911e+00
  1.884846e+01    1.359215e+00
  1.888021e+01    1.389784e+00
  1.891196e+01    1.400074e+00
  1.894372e+01    1.400169e+00
  1.897547e+01    1.382470e+00
  1.900722e+01    1.398657e+00
  1.903897e+01    1.414263e+00
  1.907072e+01    1.372821e+00
  1.910247e+01    1.364426e+00
  1.913422e+01    1.400060e+00
  1.916597e+01    1.348373e+00
  1.919773e+01    1.401888e+00
  1.922948e+01    1.360820e+00
  1.926123e+01    1.369932e+00
  1.929298e+01    1.369221e+00
  1.932473e+01    1.361681e+00
  1.935648e+01    1.356103e+00
  1.938823e+01    1.369842e+00
  1.941998e+01    1.366985e+00
  1.945173e+01    1.340989e+00
  1.948349e+01    1.342901e+00
  1.951524e+01    1.334247e+00
  1.954699e+01    1.342814e+00
  1.957874e+01    1.327493e+00
  1.961049e+01    1.306084e+00
  1.964224e+01    1.320860e+00
  1.967399e+01    1.310862e+00
  1.970574e+01    1.309768e+00
  1.973749e+01    1.321063e+00
  1.976925e+01    1.324524e+00
  1.980100e+01    1.321885e+00
  1.983275e+01    1.307417e+00
  1.986450e+01    1.288445e+00
  1.989625e+01    1.278252e+00
  1.992800e+01    1.290583e+00
  1.995975e+01    1.268045e+00
  1.999150e+01    1.285549e+00
  2.002325e+01    1.273342e+00
  2.005501e+01    1.263021e+00
  2.008676e+01    1.266725e+00
  2.011851e+01    1.276758e+00
  2.015026e+01    1.285623e+00
  2.018201e+01    1.243037e+00
  2.021376e+01    1.320809e+00
  2.024551e+01    1.253313e+00
  2.027726e+01    1.253499e+00
  2.030902e+01    1.276594e+00
  2.034077e+01    1.265594e+00
  2.037252e+01    1.237022e+00
  2.040427e+01    1.214953e+00
  2.043602e+01    1.235440e+00
  2.046777e+01    1.243312e+00
  2.049952e+01    1.252937e+00
  2.053127e+01    1.214278e+00
  2.056302e+01    1.265740e+00
  2.059478e+01    1.214105e+00
  2.062653e+01    1.226470e+00
  2.065828e+01    1.225518e+00
  2.069003e+01    1.270575e+00
  2.072178e+01    1.213655e+00
  2.075353e+01    1.242363e+00
  2.078528e+01    1.219484e+00
  2.081703e+01    1.216061e+00
  2.084878e+01    1.222563e+00
  2.088054e+01    1.228102e+00
  2.091229e+01    1.219960e+00
  2.094404e+01    1.243202e+00
  2.097579e+01    1.226650e+00
  2.100754e+01    1.216990e+00
  2.103929e+01    1.219648e+00
  2.107104e+01    1.225957e+00
  2.110279e+01    1.223341e+00
  2.113455e+01    1.231808e+00
  2.116630e+01    1.216755e+00
  2.119805e+01    1.221990e+00
  2.122980e+01    1.213602e+00
  2.126155e+01    1.249171e+00
  2.129330e+01    1.266613e+00
  2.132505e+01    1.264783e+00
  2.135680e+01    1.282755e+00
  2.138855e+01    1.303126e+00
  2.142031e+01    1.327390e+00
  2.145206e+01    1.364601e+00
  2.148381e+01    1.380643e+00
  2.151556e+01    1.436031e+00
  2.154731e+01    1.520422e+00
  2.157906e+01    1.649533e+00
  2.161081e+01    1.716669e+00
  2.164256e+01    1.953018e+00
  2.167431e+01    2.263036e+00
  2.170607e+01    2.768613e+00
  2.173782e+01    3.524704e+00
  2.176957e+01    4.565579e+00
  2.180132e+01    5.785138e+00
  2.183307e+01    7.085889e+00
  2.186482e+01    8.461541e+00
  2.189657e+01    8.904512e+00
  2.192832e+01    8.269576e+00
  2.196007e+01    6.548312e+00
  2.199183e+01    4.912417e+00
  2.202358e+01    3.570251e+00
  2.205533e+01    2.804780e+00
  2.208708e+01    2.330456e+00
  2.211883e+01    2.005998e+00
  2.215058e+01    1.768148e+00
  2.218233e+01    1.590617e+00
  2.221408e+01    1.496288e+00
  2.224584e+01    1.434853e+00
  2.227759e+01    1.314752e+00
  2.230934e+01    1.311695e+00
  2.234109e+01    1.257007e+00
  2.237284e+01    1.233558e+00
  2.240459e+01    1.235290e+00
  2.243634e+01    1.167101e+00
  2.246809e+01    1.186738e+00
  2.249984e+01    1.161645e+00
  2.253160e+01    1.139320e+00
  2.256335e+01    1.096266e+00
  2.259510e+01    1.118777e+00
  2.262685e+01    1.117217e+00
  2.265860e+01    1.086843e+00
  2.269035e+01    1.102476e+00
  2.272210e+01    1.084602e+00
  2.275385e+01    1.054975e+00
  2.278560e+01    1.068175e+00
  2.281736e+01    1.064390e+00
  2.284911e+01    1.064322e+00
  2.288086e+01    1.037607e+00
  2.291261e+01    1.030703e+00
  2.294436e+01    1.021262e+00
  2.297611e+01    1.011021e+00
  2.300786e+01    1.022854e+00
  2.303961e+01    1.003137e+00
  2.307137e+01    9.893456e-01
  2.310312e+01    1.000587e+00
  2.313487e+01    9.941106e-01
  2.316662e+01    1.009001e+00
  2.319837e+01    1.004852e+00
  2.323012e+01    9.910576e-01
  2.326187e+01    9.937336e-01
  2.329362e+01    9.945285e-01
  2.332537e+01    9.682680e-01
  2.335713e+01    9.733321e-01
  2.338888e+01    9.917588e-01
  2.342063e+01    9.776761e-01
  2.345238e+01    9.691325e-01
  2.348413e+01    9.530003e-01
  2.351588e+01    9.532831e-01
  2.354763e+01    9.704825e-01
  2.357938e+01    9.584951e-01
  2.361113e+01    9.764432e-01
  2.364289e+01    9.553110e-01
  2.367464e+01    9.544468e-01
  2.370639e+01    9.300455e-01
  2.373814e+01    9.248284e-01
  2.376989e+01    9.383192e-01
  2.380164e+01    9.290472e-01
  2.383339e+01    9.137707e-01
  2.386514e+01    9.224879e-01
  2.389689e+01    9.090967e-01
  2.392865e+01    8.823025e-01
  2.396040e+01    9.039837e-01
  2.399215e+01    9.149114e-01
  2.402390e+01    9.241909e-01
  2.405565e+01    8.647845e-01
  2.408740e+01    8.822959e-01
  2.411915e+01    8.846859e-01
  2.415090e+01    9.071985e-01
  2.418266e+01    8.944551e-01
  2.421441e+01    8.787960e-01
  2.424616e+01    8.844711e-01
  2.427791e+01    8.860927e-01
  2.430966e+01    8.787574e-01
  2.434141e+01    9.093506e-01
  2.437316e+01    8.884627e-01
  2.440491e+01    8.934476e-01
  2.443666e+01    8.988594e-01
  2.446842e+01    8.813912e-01
  2.450017e+01    8.964148e-01
  2.453192e+01    9.133080e-01
  2.456367e+01    9.000086e-01
  2.459542e+01    8.888649e-01
  2.462717e+01    8.981097e-01
  2.465892e+01    8.697995e-01
  2.469067e+01    8.955019e-01
  2.472242e+01    8.992456e-01
  2.475418e+01    9.029890e-01
  2.478593e+01    8.763356e-01
  2.481768e+01    8.998531e-01
  2.484943e+01    9.142594e-01
  2.488118e+01    8.806872e-01
  2.491293e+01    8.988597e-01
  2.494468e+01    8.968332e-01
  2.497643e+01    8.864610e-01
  2.500819e+01    8.906856e-01
  2.503994e+01    9.079086e-01
  2.507169e+01    8.863181e-01
  2.510344e+01    9.063585e-01
  2.513519e+01    9.152081e-01
  2.516694e+01    9.224703e-01
  2.519869e+01    9.273270e-01
  2.523044e+01    9.149364e-01
  2.526219e+01    9.277676e-01
  2.529395e+01    9.502071e-01
  2.532570e+01    9.620870e-01
  2.535745e+01    9.628266e-01
  2.538920e+01    9.924805e-01
  2.542095e+01    9.970239e-01
  2.545270e+01    1.023821e+00
  2.548445e+01    1.056699e+00
  2.551620e+01    1.085906e+00
  2.554795e+01    1.096660e+00
  2.557971e+01    1.137643e+00
  2.561146e+01    1.237449e+00
  2.564321e+01    1.314358e+00
  2.567496e+01    1.429441e+00
  2.570671e+01    1.565624e+00
  2.573846e+01    1.842700e+00
  2.577021e+01    2.262038e+00
  2.580196e+01    2.779450e+00
  2.583371e+01    3.581048e+00
  2.586547e+01    4.675112e+00
  2.589722e+01    5.744352e+00
  2.592897e+01    6.717933e+00
  2.596072e+01    7.084413e+00
  2.599247e+01    6.546702e+00
  2.602422e+01    5.294327e+00
  2.605597e+01    4.004306e+00
  2.608772e+01    2.987364e+00
  2.611948e+01    2.328443e+00
  2.615123e+01    2.011501e+00
  2.618298e+01    1.660125e+00
  2.621473e+01    1.466192e+00
  2.624648e+01    1.323575e+00
  2.627823e+01    1.247256e+00
  2.630998e+01    1.185467e+00
  2.634173e+01    1.145183e+00
  2.637348e+01    1.082104e+00
  2.640524e+01    1.071466e+00
  2.643699e+01    1.036661e+00
  2.646874e+01    1.036360e+00
  2.650049e+01    1.025065e+00
  2.653224e+01    9.879181e-01
  2.656399e+01    9.765900e-01
  2.659574e+01    1.013365e+00
  2.662749e+01    9.654544e-01
  2.665924e+01    9.634178e-01
  2.669100e+01    9.652332e-01
  2.672275e+01    9.888033e-01
  2.675450e+01    9.779891e-01
  2.678625e+01    9.857454e-01
  2.681800e+01    9.805349e-01
  2.684975e+01    9.939971e-01
  2.688150e+01    9.986918e-01
  2.691325e+01    1.019260e+00
  2.694501e+01    1.021045e+00
  2.697676e+01    1.052101e+00
  2.700851e+01    1.103271e+00
  2.704026e+01    1.199636e+00
  2.707201e+01    1.285496e+00
  2.710376e+01    1.493401e+00
  2.713551e+01    1.744052e+00
  2.716726e+01    1.967046e+00
  2.719901e+01    2.146935e+00
  2.723077e+01    2.169812e+00
  2.726252e+01    1.940113e+00
  2.729427e+01    1.709148e+00
  2.732602e+01    1.455669e+00
  2.735777e+01    1.278895e+00
  2.738952e+01    1.139958e+00
  2.742127e+01    1.080362e+00
  2.745302e+01    1.043127e+00
  2.748477e+01    9.858680e-01
  2.751653e+01    9.901294e-01
  2.754828e+01    9.529205e-01
  2.758003e+01    9.530991e-01
  2.761178e+01    9.330611e-01
  2.764353e+01    9.214341e-01
  2.767528e+01    9.251929e-01
  2.770703e+01    8.957093e-01
  2.773878e+01    8.922797e-01
  2.777054e+01    8.862815e-01
  2.780229e+01    8.898054e-01
  2.783404e+01    8.737348e-01
  2.786579e+01    8.701562e-01
  2.789754e+01    8.736631e-01
  2.792929e+01    8.698459e-01
  2.796104e+01    8.754722e-01
  2.799279e+01    8.732099e-01
  2.802454e+01    8.698260e-01
  2.805630e+01    8.705357e-01
  2.808805e+01    8.584344e-01
  2.811980e+01    8.735946e-01
  2.815155e+01    8.678699e-01
  2.818330e+01    8.781785e-01
  2.821505e+01    8.728371e-01
  2.824680e+01    8.414806e-01
  2.827855e+01    8.327976e-01
  2.831030e+01    8.391619e-01
  2.834206e+01    8.380855e-01
  2.837381e+01    8.441596e-01
  2.840556e+01    8.340980e-01
  2.843731e+01    8.596194e-01
  2.846906e+01    8.130012e-01
  2.850081e+01    8.472313e-01
  2.853256e+01    8.564146e-01
  2.856431e+01    8.244322e-01
  2.859606e+01    8.520038e-01
  2.862782e+01    8.186921e-01
  2.865957e+01    8.371463e-01
  2.869132e+01    8.396525e-01
  2.872307e+01    8.434768e-01
  2.875482e+01    8.479578e-01
  2.878657e+01    8.128670e-01
  2.881832e+01    8.148483e-01
  2.885007e+01    8.517766e-01
  2.888183e+01    8.256253e-01
  2.891358e+01    8.148101e-01
  2.894533e+01    8.125520e-01
  2.897708e+01    8.062618e-01
  2.900883e+01    8.070236e-01
  2.904058e+01    8.141145e-01
  2.907233e+01    8.164909e-01
  2.910408e+01    8.189126e-01
  2.913583e+01    8.149947e-01
  2.916759e+01    8.018153e-01
  2.919934e+01    8.283095e-01
  2.923109e+01    8.005818e-01
  2.926284e+01    8.163029e-01
  2.929459e+01    7.991375e-01
  2.932634e+01    8.093303e-01
  2.935809e+01    8.124875e-01
  2.938984e+01    8.214128e-01
  2.942159e+01    7.995543e-01
  2.945335e+01    7.870193e-01
  2.948510e+01    8.252537e-01
  2.951685e+01    8.005946e-01
  2.954860e+01    7.965848e-01
  2.958035e+01    7.959580e-01
  2.961210e+01    8.126096e-01
  2.964385e+01    7.902938e-01
  2.967560e+01    7.885236e-01
  2.970736e+01    7.825125e-01
  2.973911e+01    7.838740e-01
  2.977086e+01    7.852557e-01
  2.980261e+01    7.866969e-01
  2.983436e+01    8.022956e-01
  2.986611e+01    7.979937e-01
  2.989786e+01    8.083898e-01
  2.992961e+01    7.914224e-01
  2.996136e+01    7.848648e-01
  2.999312e+01    7.944296e-01
  3.002487e+01    8.168529e-01
  3.005662e+01    8.126886e-01
  3.008837e+01    8.046270e-01
  3.012012e+01    8.008295e-01
  3.015187e+01    7.931849e-01
  3.018362e+01    7.755218e-01
  3.021537e+01    7.515388e-01
  3.024712e+01    7.763076e-01
  3.027888e+01    7.711546e-01
  3.031063e+01    8.047629e-01
  3.034238e+01    7.675226e-01
  3.037413e+01    7.811904e-01
  3.040588e+01    7.899824e-01
  3.043763e+01    7.841732e-01
  3.046938e+01    7.821065e-01
  3.050113e+01    7.743261e-01
  3.053288e+01    7.804988e-01
  3.056464e+01    7.912552e-01
  3.059639e+01    7.855859e-01
  3.062814e+01    7.734192e-01
  3.065989e+01    7.736580e-01
  3.069164e+01    7.928330e-01
  3.072339e+01    7.847029e-01
  3.075514e+01    7.912015e-01
  3.078689e+01    7.873811e-01
  3.081865e+01    8.005421e-01
  3.085040e+01    7.809729e-01
  3.088215e+01    7.954565e-01
  3.091390e+01    7.796365e-01
  3.094565e+01    7.826501e-01
  3.097740e+01    7.995270e-01
  3.100915e+01    7.890263e-01
  3.104090e+01    7.957153e-01
  3.107265e+01    7.976579e-01
  3.110441e+01    8.049455e-01
  3.113616e+01    7.952927e-01
  3.116791e+01    7.874229e-01
  3.119966e+01    7.892614e-01
  3.123141e+01    7.996821e-01
  3.126316e+01    7.703953e-01
  3.129491e+01    8.138886e-01
  3.132666e+01    7.953073e-01
  3.135841e+01    7.928871e-01
  3.139017e+01    7.963495e-01
  3.142192e+01    8.070621e-01
  3.145367e+01    8.094499e-01
  3.148542e+01    8.298339e-01
  3.151717e+01    8.405934e-01
  3.154892e+01    8.266319e-01
  3.158067e+01    8.474766e-01
  3.161242e+01    8.872020e-01
  3.164418e+01    9.215082e-01
  3.167593e+01    9.404311e-01
  3.170768e+01    1.002069e+00
  3.173943e+01    1.131516e+00
  3.177118e+01    1.225329e+00
  3.180293e+01    1.443398e+00
  3.183468e+01    1.686109e+00
  3.186643e+01    1.956705e+00
  3.189818e+01    2.113588e+00
  3.192994e+01    2.035763e+00
  3.196169e+01    1.862247e+00
  3.199344e+01    1.533185e+00
  3.202519e+01    1.340744e+00
  3.205694e+01    1.174693e+00
  3.208869e+01    1.037737e+00
  3.212044e+01    9.653375e-01
  3.215219e+01    9.155316e-01
  3.218394e+01    8.753684e-01
  3.221570e+01    8.502216e-01
  3.224745e+01    8.014004e-01
  3.227920e+01    8.071277e-01
  3.231095e+01    8.206027e-01
  3.234270e+01    8.078378e-01
  3.237445e+01    7.820485e-01
  3.240620e+01    7.762757e-01
  3.243795e+01    7.570570e-01
  3.246970e+01    8.028813e-01
  3.250146e+01    7.619660e-01
  3.253321e+01    7.548863e-01
  3.254908e+01    7.842945e-01