File: XRD/Reaction conditions/2024-07-27_003_Ru-CGO-ex_Reaction_dwell_000023_data_000040.dat
# == pyFAI calibration ==
# Distance Sample to Detector: 0.4 m
# PONI: 9.750e-02, 1.135e-01 m
# Rotations: -0.000175 0.000000 -0.000000 rad
#
# == Fit2d calibration ==
# Distance Sample-beamCenter: 400.000 mm
# Center: x=1514.000, y=1300.000 pix
# Tilt: 0.010 deg  TiltPlanRot: 0.010 deg
#
# Detector Detector	 Spline= None	 PixelSize= 7.500e-05, 7.500e-05 m
#    Detector has a mask: False
#    Detector has a dark current: False
#    detector has a flat field: False
#
# Wavelength: 6.888e-11 m
# Mask applied: user provided
# Dark current applied: False
# Flat field applied: False
# Polarization factor: 0.99
# Normalization factor: 1.0
# --> /home/myspot/data/2024_07_Rosario/Ru-CGO-ex/2024-07-27_003_Ru-CGO-ex_Reaction_dwell_000023_data_000040.dat
#       q_nm^-1             I
  2.003187e-02    0.000000e+00
  5.178302e-02    1.655731e-01
  8.353417e-02    1.366110e-01
  1.152853e-01    8.817119e-02
  1.470365e-01    5.133336e-02
  1.787876e-01    5.451254e-02
  2.105388e-01    9.382432e-02
  2.422899e-01    1.568283e-02
  2.740411e-01    2.718531e-02
  3.057922e-01    5.185960e-02
  3.375433e-01    4.222173e-02
  3.692945e-01    3.900496e-02
  4.010456e-01    3.863125e-02
  4.327968e-01    4.829369e-02
  4.645479e-01    2.964723e-02
  4.962991e-01    2.629433e-02
  5.280502e-01    4.907136e-03
  5.598014e-01    5.172744e-02
  5.915525e-01    2.787783e-02
  6.233037e-01    3.510014e-02
  6.550548e-01    2.802321e-02
  6.868060e-01    4.772464e-02
  7.185571e-01    2.827939e-02
  7.503083e-01    5.120705e-02
  7.820594e-01    1.235380e-01
  8.138106e-01    2.081446e-01
  8.455617e-01    3.767744e-01
  8.773129e-01    4.865495e-01
  9.090640e-01    6.467025e-01
  9.408152e-01    7.963500e-01
  9.725663e-01    9.149871e-01
  1.004317e+00    1.052755e+00
  1.036069e+00    1.255401e+00
  1.067820e+00    1.527303e+00
  1.099571e+00    1.559555e+00
  1.131322e+00    1.553744e+00
  1.163073e+00    1.673088e+00
  1.194824e+00    1.740314e+00
  1.226575e+00    2.106470e+00
  1.258327e+00    2.620584e+00
  1.290078e+00    2.647757e+00
  1.321829e+00    2.844452e+00
  1.353580e+00    2.740396e+00
  1.385331e+00    2.742670e+00
  1.417082e+00    2.835073e+00
  1.448834e+00    3.036739e+00
  1.480585e+00    3.051135e+00
  1.512336e+00    3.098825e+00
  1.544087e+00    3.215750e+00
  1.575838e+00    3.032353e+00
  1.607589e+00    3.174751e+00
  1.639340e+00    3.167284e+00
  1.671092e+00    3.006761e+00
  1.702843e+00    3.005037e+00
  1.734594e+00    3.199023e+00
  1.766345e+00    3.239732e+00
  1.798096e+00    3.073423e+00
  1.829847e+00    3.026503e+00
  1.861598e+00    3.056079e+00
  1.893350e+00    3.048150e+00
  1.925101e+00    3.037758e+00
  1.956852e+00    3.166062e+00
  1.988603e+00    3.084383e+00
  2.020354e+00    3.154509e+00
  2.052105e+00    3.183706e+00
  2.083856e+00    3.149563e+00
  2.115608e+00    3.121944e+00
  2.147359e+00    3.051613e+00
  2.179110e+00    3.106040e+00
  2.210861e+00    3.234853e+00
  2.242612e+00    3.025615e+00
  2.274363e+00    3.082529e+00
  2.306115e+00    3.133120e+00
  2.337866e+00    3.085717e+00
  2.369617e+00    3.102429e+00
  2.401368e+00    3.327853e+00
  2.433119e+00    3.225868e+00
  2.464870e+00    3.241668e+00
  2.496621e+00    3.272924e+00
  2.528373e+00    3.325781e+00
  2.560124e+00    3.147513e+00
  2.591875e+00    3.153935e+00
  2.623626e+00    3.343041e+00
  2.655377e+00    3.282545e+00
  2.687128e+00    3.246030e+00
  2.718879e+00    3.270568e+00
  2.750631e+00    3.279895e+00
  2.782382e+00    3.337187e+00
  2.814133e+00    3.290876e+00
  2.845884e+00    3.284252e+00
  2.877635e+00    3.357949e+00
  2.909386e+00    3.345609e+00
  2.941137e+00    3.348813e+00
  2.972889e+00    3.321364e+00
  3.004640e+00    3.322042e+00
  3.036391e+00    3.364951e+00
  3.068142e+00    3.379504e+00
  3.099893e+00    3.444414e+00
  3.131644e+00    3.329094e+00
  3.163395e+00    3.372864e+00
  3.195147e+00    3.383245e+00
  3.226898e+00    3.322206e+00
  3.258649e+00    3.359991e+00
  3.290400e+00    3.440948e+00
  3.322151e+00    3.446356e+00
  3.353902e+00    3.389684e+00
  3.385654e+00    3.486831e+00
  3.417405e+00    3.485125e+00
  3.449156e+00    3.437833e+00
  3.480907e+00    3.446395e+00
  3.512658e+00    3.410584e+00
  3.544409e+00    3.408115e+00
  3.576160e+00    3.482677e+00
  3.607912e+00    3.456626e+00
  3.639663e+00    3.528094e+00
  3.671414e+00    3.601163e+00
  3.703165e+00    3.461234e+00
  3.734916e+00    3.521023e+00
  3.766667e+00    3.572807e+00
  3.798418e+00    3.514756e+00
  3.830170e+00    3.489431e+00
  3.861921e+00    3.551703e+00
  3.893672e+00    3.519139e+00
  3.925423e+00    3.507517e+00
  3.957174e+00    3.539982e+00
  3.988925e+00    3.556562e+00
  4.020676e+00    3.564903e+00
  4.052428e+00    3.539285e+00
  4.084179e+00    3.545199e+00
  4.115930e+00    3.644014e+00
  4.147681e+00    3.554586e+00
  4.179432e+00    3.538621e+00
  4.211183e+00    3.535332e+00
  4.242935e+00    3.560324e+00
  4.274686e+00    3.549986e+00
  4.306437e+00    3.578095e+00
  4.338188e+00    3.490873e+00
  4.369939e+00    3.554187e+00
  4.401690e+00    3.639616e+00
  4.433441e+00    3.525347e+00
  4.465193e+00    3.684096e+00
  4.496944e+00    3.585736e+00
  4.528695e+00    3.598471e+00
  4.560446e+00    3.617299e+00
  4.592197e+00    3.604395e+00
  4.623948e+00    3.586058e+00
  4.655699e+00    3.621903e+00
  4.687451e+00    3.661794e+00
  4.719202e+00    3.596701e+00
  4.750953e+00    3.595548e+00
  4.782704e+00    3.619507e+00
  4.814455e+00    3.648168e+00
  4.846206e+00    3.626630e+00
  4.877957e+00    3.540835e+00
  4.909709e+00    3.663033e+00
  4.941460e+00    3.740549e+00
  4.973211e+00    3.710306e+00
  5.004962e+00    3.733989e+00
  5.036713e+00    3.679746e+00
  5.068464e+00    3.636106e+00
  5.100216e+00    3.710320e+00
  5.131967e+00    3.626745e+00
  5.163718e+00    3.672820e+00
  5.195469e+00    3.675391e+00
  5.227220e+00    3.728792e+00
  5.258971e+00    3.698304e+00
  5.290722e+00    3.691038e+00
  5.322474e+00    3.658590e+00
  5.354225e+00    3.693083e+00
  5.385976e+00    3.750210e+00
  5.417727e+00    3.668976e+00
  5.449478e+00    3.563963e+00
  5.481229e+00    3.669058e+00
  5.512980e+00    3.662431e+00
  5.544732e+00    3.632956e+00
  5.576483e+00    3.653534e+00
  5.608234e+00    3.646710e+00
  5.639985e+00    3.662493e+00
  5.671736e+00    3.632851e+00
  5.703487e+00    3.675886e+00
  5.735238e+00    3.665800e+00
  5.766990e+00    3.514385e+00
  5.798741e+00    3.528078e+00
  5.830492e+00    3.587409e+00
  5.862243e+00    3.614066e+00
  5.893994e+00    3.667588e+00
  5.925745e+00    3.544609e+00
  5.957497e+00    3.489810e+00
  5.989248e+00    3.547937e+00
  6.020999e+00    3.595109e+00
  6.052750e+00    3.566084e+00
  6.084501e+00    3.566117e+00
  6.116252e+00    3.633222e+00
  6.148003e+00    3.592862e+00
  6.179755e+00    3.690815e+00
  6.211506e+00    3.549376e+00
  6.243257e+00    3.534127e+00
  6.275008e+00    3.562519e+00
  6.306759e+00    3.548820e+00
  6.338510e+00    3.597190e+00
  6.370261e+00    3.526861e+00
  6.402013e+00    3.575326e+00
  6.433764e+00    3.567842e+00
  6.465515e+00    3.557937e+00
  6.497266e+00    3.571104e+00
  6.529017e+00    3.569242e+00
  6.560768e+00    3.543270e+00
  6.592519e+00    3.507063e+00
  6.624271e+00    3.616338e+00
  6.656022e+00    3.546229e+00
  6.687773e+00    3.588603e+00
  6.719524e+00    3.627672e+00
  6.751275e+00    3.518675e+00
  6.783026e+00    3.570223e+00
  6.814777e+00    3.518247e+00
  6.846529e+00    3.595020e+00
  6.878280e+00    3.597376e+00
  6.910031e+00    3.593570e+00
  6.941782e+00    3.538557e+00
  6.973533e+00    3.594912e+00
  7.005284e+00    3.546312e+00
  7.037036e+00    3.466184e+00
  7.068787e+00    3.491625e+00
  7.100538e+00    3.595406e+00
  7.132289e+00    3.483248e+00
  7.164040e+00    3.535326e+00
  7.195791e+00    3.563062e+00
  7.227542e+00    3.489567e+00
  7.259294e+00    3.598320e+00
  7.291045e+00    3.471475e+00
  7.322796e+00    3.614468e+00
  7.354547e+00    3.519625e+00
  7.386298e+00    3.527821e+00
  7.418049e+00    3.484885e+00
  7.449800e+00    3.498618e+00
  7.481552e+00    3.482485e+00
  7.513303e+00    3.563766e+00
  7.545054e+00    3.486984e+00
  7.576805e+00    3.535646e+00
  7.608556e+00    3.514386e+00
  7.640307e+00    3.512269e+00
  7.672058e+00    3.498182e+00
  7.703810e+00    3.498799e+00
  7.735561e+00    3.393371e+00
  7.767312e+00    3.415449e+00
  7.799063e+00    3.457634e+00
  7.830814e+00    3.423072e+00
  7.862565e+00    3.458204e+00
  7.894317e+00    3.493143e+00
  7.926068e+00    3.405319e+00
  7.957819e+00    3.424684e+00
  7.989570e+00    3.412218e+00
  8.021321e+00    3.393163e+00
  8.053072e+00    3.438646e+00
  8.084823e+00    3.429562e+00
  8.116575e+00    3.580266e+00
  8.148326e+00    3.426396e+00
  8.180077e+00    3.524080e+00
  8.211828e+00    3.465161e+00
  8.243579e+00    3.521454e+00
  8.275330e+00    3.485876e+00
  8.307081e+00    3.413493e+00
  8.338833e+00    3.449171e+00
  8.370584e+00    3.403237e+00
  8.402335e+00    3.414913e+00
  8.434086e+00    3.434885e+00
  8.465837e+00    3.390718e+00
  8.497588e+00    3.463780e+00
  8.529339e+00    3.362839e+00
  8.561091e+00    3.351270e+00
  8.592842e+00    3.221232e+00
  8.624593e+00    3.358731e+00
  8.656344e+00    3.357465e+00
  8.688095e+00    3.370430e+00
  8.719846e+00    3.338959e+00
  8.751598e+00    3.381386e+00
  8.783349e+00    3.417804e+00
  8.815100e+00    3.308515e+00
  8.846851e+00    3.362207e+00
  8.878602e+00    3.265077e+00
  8.910353e+00    3.310528e+00
  8.942104e+00    3.314260e+00
  8.973856e+00    3.291821e+00
  9.005607e+00    3.288664e+00
  9.037358e+00    3.233209e+00
  9.069109e+00    3.281358e+00
  9.100860e+00    3.297927e+00
  9.132611e+00    3.208794e+00
  9.164362e+00    3.231238e+00
  9.196114e+00    3.241532e+00
  9.227865e+00    3.329533e+00
  9.259616e+00    3.248075e+00
  9.291367e+00    3.238223e+00
  9.323118e+00    3.230888e+00
  9.354869e+00    3.313229e+00
  9.386620e+00    3.294261e+00
  9.418372e+00    3.211358e+00
  9.450123e+00    3.158359e+00
  9.481874e+00    3.228343e+00
  9.513625e+00    3.230693e+00
  9.545376e+00    3.191517e+00
  9.577127e+00    3.304751e+00
  9.608878e+00    3.272241e+00
  9.640630e+00    3.210876e+00
  9.672381e+00    3.217214e+00
  9.704132e+00    3.219995e+00
  9.735883e+00    3.153200e+00
  9.767634e+00    3.151328e+00
  9.799385e+00    3.121350e+00
  9.831137e+00    3.175867e+00
  9.862888e+00    3.166249e+00
  9.894639e+00    3.158544e+00
  9.926390e+00    3.135015e+00
  9.958141e+00    3.180852e+00
  9.989892e+00    3.134794e+00
  1.002164e+01    3.074914e+00
  1.005339e+01    3.102869e+00
  1.008515e+01    3.061953e+00
  1.011690e+01    3.154651e+00
  1.014865e+01    3.124028e+00
  1.018040e+01    3.098214e+00
  1.021215e+01    3.083189e+00
  1.024390e+01    3.039118e+00
  1.027565e+01    3.097552e+00
  1.030740e+01    3.087019e+00
  1.033915e+01    3.089109e+00
  1.037091e+01    3.100935e+00
  1.040266e+01    2.999596e+00
  1.043441e+01    3.069153e+00
  1.046616e+01    3.051754e+00
  1.049791e+01    3.050502e+00
  1.052966e+01    3.017233e+00
  1.056141e+01    3.001125e+00
  1.059316e+01    3.048177e+00
  1.062492e+01    2.955576e+00
  1.065667e+01    2.998024e+00
  1.068842e+01    2.988837e+00
  1.072017e+01    2.953058e+00
  1.075192e+01    3.013254e+00
  1.078367e+01    2.959293e+00
  1.081542e+01    2.946162e+00
  1.084717e+01    2.961401e+00
  1.087892e+01    2.951814e+00
  1.091068e+01    2.956030e+00
  1.094243e+01    2.946233e+00
  1.097418e+01    2.896822e+00
  1.100593e+01    2.882369e+00
  1.103768e+01    2.930831e+00
  1.106943e+01    2.888585e+00
  1.110118e+01    2.897090e+00
  1.113293e+01    2.897227e+00
  1.116468e+01    2.916862e+00
  1.119644e+01    2.903911e+00
  1.122819e+01    2.854306e+00
  1.125994e+01    2.866375e+00
  1.129169e+01    2.850285e+00
  1.132344e+01    2.885837e+00
  1.135519e+01    2.797693e+00
  1.138694e+01    2.850547e+00
  1.141869e+01    2.822619e+00
  1.145045e+01    2.794847e+00
  1.148220e+01    2.823211e+00
  1.151395e+01    2.820124e+00
  1.154570e+01    2.799053e+00
  1.157745e+01    2.740881e+00
  1.160920e+01    2.786153e+00
  1.164095e+01    2.824041e+00
  1.167270e+01    2.753110e+00
  1.170445e+01    2.765763e+00
  1.173621e+01    2.745637e+00
  1.176796e+01    2.759272e+00
  1.179971e+01    2.735500e+00
  1.183146e+01    2.790322e+00
  1.186321e+01    2.751841e+00
  1.189496e+01    2.727623e+00
  1.192671e+01    2.739823e+00
  1.195846e+01    2.741762e+00
  1.199021e+01    2.662837e+00
  1.202197e+01    2.702818e+00
  1.205372e+01    2.711611e+00
  1.208547e+01    2.736829e+00
  1.211722e+01    2.725855e+00
  1.214897e+01    2.703070e+00
  1.218072e+01    2.688128e+00
  1.221247e+01    2.748653e+00
  1.224422e+01    2.686782e+00
  1.227597e+01    2.713817e+00
  1.230773e+01    2.686509e+00
  1.233948e+01    2.704482e+00
  1.237123e+01    2.742539e+00
  1.240298e+01    2.670858e+00
  1.243473e+01    2.750460e+00
  1.246648e+01    2.735470e+00
  1.249823e+01    2.700536e+00
  1.252998e+01    2.671993e+00
  1.256174e+01    2.763406e+00
  1.259349e+01    2.739964e+00
  1.262524e+01    2.778712e+00
  1.265699e+01    2.765081e+00
  1.268874e+01    2.773511e+00
  1.272049e+01    2.850598e+00
  1.275224e+01    2.929855e+00
  1.278399e+01    2.978298e+00
  1.281574e+01    3.114367e+00
  1.284750e+01    3.232436e+00
  1.287925e+01    3.387318e+00
  1.291100e+01    3.687380e+00
  1.294275e+01    4.189653e+00
  1.297450e+01    4.814041e+00
  1.300625e+01    5.953454e+00
  1.303800e+01    7.790974e+00
  1.306975e+01    1.035191e+01
  1.310150e+01    1.286613e+01
  1.313326e+01    1.502779e+01
  1.316501e+01    1.648728e+01
  1.319676e+01    1.568507e+01
  1.322851e+01    1.254763e+01
  1.326026e+01    9.187827e+00
  1.329201e+01    6.750371e+00
  1.332376e+01    5.299220e+00
  1.335551e+01    4.475434e+00
  1.338727e+01    3.855815e+00
  1.341902e+01    3.452734e+00
  1.345077e+01    3.209366e+00
  1.348252e+01    3.063664e+00
  1.351427e+01    2.947219e+00
  1.354602e+01    2.773959e+00
  1.357777e+01    2.724394e+00
  1.360952e+01    2.679069e+00
  1.364127e+01    2.659173e+00
  1.367303e+01    2.621310e+00
  1.370478e+01    2.492531e+00
  1.373653e+01    2.517988e+00
  1.376828e+01    2.487617e+00
  1.380003e+01    2.468884e+00
  1.383178e+01    2.483924e+00
  1.386353e+01    2.383747e+00
  1.389528e+01    2.429550e+00
  1.392703e+01    2.414878e+00
  1.395879e+01    2.356367e+00
  1.399054e+01    2.403169e+00
  1.402229e+01    2.358714e+00
  1.405404e+01    2.400097e+00
  1.408579e+01    2.342899e+00
  1.411754e+01    2.344028e+00
  1.414929e+01    2.355116e+00
  1.418104e+01    2.327930e+00
  1.421279e+01    2.330514e+00
  1.424455e+01    2.321114e+00
  1.427630e+01    2.287092e+00
  1.430805e+01    2.219924e+00
  1.433980e+01    2.256494e+00
  1.437155e+01    2.313153e+00
  1.440330e+01    2.274690e+00
  1.443505e+01    2.261347e+00
  1.446680e+01    2.241290e+00
  1.449856e+01    2.233589e+00
  1.453031e+01    2.247861e+00
  1.456206e+01    2.223280e+00
  1.459381e+01    2.241764e+00
  1.462556e+01    2.239251e+00
  1.465731e+01    2.182521e+00
  1.468906e+01    2.235018e+00
  1.472081e+01    2.236257e+00
  1.475256e+01    2.190450e+00
  1.478432e+01    2.193978e+00
  1.481607e+01    2.167784e+00
  1.484782e+01    2.240731e+00
  1.487957e+01    2.237653e+00
  1.491132e+01    2.250007e+00
  1.494307e+01    2.294307e+00
  1.497482e+01    2.366539e+00
  1.500657e+01    2.434670e+00
  1.503832e+01    2.621092e+00
  1.507008e+01    2.878281e+00
  1.510183e+01    3.251275e+00
  1.513358e+01    3.869131e+00
  1.516533e+01    4.579329e+00
  1.519708e+01    5.244258e+00
  1.522883e+01    5.620000e+00
  1.526058e+01    5.825778e+00
  1.529233e+01    5.511824e+00
  1.532409e+01    4.617157e+00
  1.535584e+01    3.778344e+00
  1.538759e+01    3.135379e+00
  1.541934e+01    2.784986e+00
  1.545109e+01    2.496253e+00
  1.548284e+01    2.393642e+00
  1.551459e+01    2.286769e+00
  1.554634e+01    2.183937e+00
  1.557809e+01    2.102917e+00
  1.560985e+01    2.106848e+00
  1.564160e+01    2.083795e+00
  1.567335e+01    2.033447e+00
  1.570510e+01    1.995923e+00
  1.573685e+01    1.967177e+00
  1.576860e+01    1.935301e+00
  1.580035e+01    1.943236e+00
  1.583210e+01    1.957808e+00
  1.586385e+01    1.919179e+00
  1.589561e+01    1.885671e+00
  1.592736e+01    1.895967e+00
  1.595911e+01    1.863223e+00
  1.599086e+01    1.882039e+00
  1.602261e+01    1.921093e+00
  1.605436e+01    1.868307e+00
  1.608611e+01    1.880207e+00
  1.611786e+01    1.894231e+00
  1.614961e+01    1.853587e+00
  1.618137e+01    1.817482e+00
  1.621312e+01    1.771033e+00
  1.624487e+01    1.778049e+00
  1.627662e+01    1.846509e+00
  1.630837e+01    1.794168e+00
  1.634012e+01    1.807049e+00
  1.637187e+01    1.833122e+00
  1.640362e+01    1.799925e+00
  1.643538e+01    1.795023e+00
  1.646713e+01    1.768652e+00
  1.649888e+01    1.798755e+00
  1.653063e+01    1.763762e+00
  1.656238e+01    1.753368e+00
  1.659413e+01    1.737179e+00
  1.662588e+01    1.754578e+00
  1.665763e+01    1.731522e+00
  1.668938e+01    1.718449e+00
  1.672114e+01    1.713100e+00
  1.675289e+01    1.728837e+00
  1.678464e+01    1.717424e+00
  1.681639e+01    1.682209e+00
  1.684814e+01    1.722809e+00
  1.687989e+01    1.667788e+00
  1.691164e+01    1.666658e+00
  1.694339e+01    1.677158e+00
  1.697514e+01    1.690922e+00
  1.700690e+01    1.681468e+00
  1.703865e+01    1.657552e+00
  1.707040e+01    1.662647e+00
  1.710215e+01    1.705276e+00
  1.713390e+01    1.611189e+00
  1.716565e+01    1.649639e+00
  1.719740e+01    1.671039e+00
  1.722915e+01    1.607277e+00
  1.726091e+01    1.629991e+00
  1.729266e+01    1.601400e+00
  1.732441e+01    1.626367e+00
  1.735616e+01    1.651292e+00
  1.738791e+01    1.600878e+00
  1.741966e+01    1.621146e+00
  1.745141e+01    1.593218e+00
  1.748316e+01    1.561923e+00
  1.751491e+01    1.589239e+00
  1.754667e+01    1.611877e+00
  1.757842e+01    1.573774e+00
  1.761017e+01    1.579826e+00
  1.764192e+01    1.572486e+00
  1.767367e+01    1.570338e+00
  1.770542e+01    1.592151e+00
  1.773717e+01    1.573323e+00
  1.776892e+01    1.536365e+00
  1.780067e+01    1.515405e+00
  1.783243e+01    1.536667e+00
  1.786418e+01    1.550698e+00
  1.789593e+01    1.534695e+00
  1.792768e+01    1.531366e+00
  1.795943e+01    1.553618e+00
  1.799118e+01    1.503011e+00
  1.802293e+01    1.498831e+00
  1.805468e+01    1.536539e+00
  1.808643e+01    1.500858e+00
  1.811819e+01    1.472953e+00
  1.814994e+01    1.502546e+00
  1.818169e+01    1.485425e+00
  1.821344e+01    1.445632e+00
  1.824519e+01    1.493913e+00
  1.827694e+01    1.470797e+00
  1.830869e+01    1.468971e+00
  1.834044e+01    1.465624e+00
  1.837220e+01    1.453031e+00
  1.840395e+01    1.449314e+00
  1.843570e+01    1.442498e+00
  1.846745e+01    1.443243e+00
  1.849920e+01    1.433207e+00
  1.853095e+01    1.495931e+00
  1.856270e+01    1.472919e+00
  1.859445e+01    1.424217e+00
  1.862620e+01    1.460132e+00
  1.865796e+01    1.408660e+00
  1.868971e+01    1.431303e+00
  1.872146e+01    1.403126e+00
  1.875321e+01    1.413088e+00
  1.878496e+01    1.428449e+00
  1.881671e+01    1.396926e+00
  1.884846e+01    1.429338e+00
  1.888021e+01    1.388282e+00
  1.891196e+01    1.411523e+00
  1.894372e+01    1.351465e+00
  1.897547e+01    1.404544e+00
  1.900722e+01    1.377109e+00
  1.903897e+01    1.400687e+00
  1.907072e+01    1.370867e+00
  1.910247e+01    1.385376e+00
  1.913422e+01    1.381858e+00
  1.916597e+01    1.373818e+00
  1.919773e+01    1.397816e+00
  1.922948e+01    1.352497e+00
  1.926123e+01    1.361666e+00
  1.929298e+01    1.348229e+00
  1.932473e+01    1.341517e+00
  1.935648e+01    1.303912e+00
  1.938823e+01    1.373292e+00
  1.941998e+01    1.369292e+00
  1.945173e+01    1.327318e+00
  1.948349e+01    1.336528e+00
  1.951524e+01    1.329437e+00
  1.954699e+01    1.326970e+00
  1.957874e+01    1.309379e+00
  1.961049e+01    1.294680e+00
  1.964224e+01    1.352505e+00
  1.967399e+01    1.312569e+00
  1.970574e+01    1.313731e+00
  1.973749e+01    1.317926e+00
  1.976925e+01    1.305536e+00
  1.980100e+01    1.327271e+00
  1.983275e+01    1.296885e+00
  1.986450e+01    1.324635e+00
  1.989625e+01    1.290871e+00
  1.992800e+01    1.280657e+00
  1.995975e+01    1.296081e+00
  1.999150e+01    1.258790e+00
  2.002325e+01    1.276761e+00
  2.005501e+01    1.283306e+00
  2.008676e+01    1.276285e+00
  2.011851e+01    1.277817e+00
  2.015026e+01    1.278302e+00
  2.018201e+01    1.280525e+00
  2.021376e+01    1.246312e+00
  2.024551e+01    1.256264e+00
  2.027726e+01    1.263415e+00
  2.030902e+01    1.268010e+00
  2.034077e+01    1.252620e+00
  2.037252e+01    1.288401e+00
  2.040427e+01    1.226811e+00
  2.043602e+01    1.254249e+00
  2.046777e+01    1.254138e+00
  2.049952e+01    1.230033e+00
  2.053127e+01    1.246392e+00
  2.056302e+01    1.264660e+00
  2.059478e+01    1.234026e+00
  2.062653e+01    1.232008e+00
  2.065828e+01    1.237518e+00
  2.069003e+01    1.262340e+00
  2.072178e+01    1.240522e+00
  2.075353e+01    1.251013e+00
  2.078528e+01    1.231699e+00
  2.081703e+01    1.213099e+00
  2.084878e+01    1.238924e+00
  2.088054e+01    1.247080e+00
  2.091229e+01    1.223820e+00
  2.094404e+01    1.240978e+00
  2.097579e+01    1.233891e+00
  2.100754e+01    1.245273e+00
  2.103929e+01    1.243030e+00
  2.107104e+01    1.240804e+00
  2.110279e+01    1.233566e+00
  2.113455e+01    1.259835e+00
  2.116630e+01    1.239771e+00
  2.119805e+01    1.242822e+00
  2.122980e+01    1.284589e+00
  2.126155e+01    1.259089e+00
  2.129330e+01    1.250497e+00
  2.132505e+01    1.292972e+00
  2.135680e+01    1.262331e+00
  2.138855e+01    1.282798e+00
  2.142031e+01    1.319454e+00
  2.145206e+01    1.350374e+00
  2.148381e+01    1.401433e+00
  2.151556e+01    1.468893e+00
  2.154731e+01    1.512583e+00
  2.157906e+01    1.635635e+00
  2.161081e+01    1.764042e+00
  2.164256e+01    1.996883e+00
  2.167431e+01    2.332186e+00
  2.170607e+01    2.818034e+00
  2.173782e+01    3.606223e+00
  2.176957e+01    4.630123e+00
  2.180132e+01    5.975922e+00
  2.183307e+01    7.307676e+00
  2.186482e+01    8.484183e+00
  2.189657e+01    8.940551e+00
  2.192832e+01    8.199219e+00
  2.196007e+01    6.579416e+00
  2.199183e+01    4.844286e+00
  2.202358e+01    3.641104e+00
  2.205533e+01    2.841287e+00
  2.208708e+01    2.310843e+00
  2.211883e+01    2.015774e+00
  2.215058e+01    1.798674e+00
  2.218233e+01    1.628866e+00
  2.221408e+01    1.515734e+00
  2.224584e+01    1.424811e+00
  2.227759e+01    1.373367e+00
  2.230934e+01    1.317265e+00
  2.234109e+01    1.223915e+00
  2.237284e+01    1.207486e+00
  2.240459e+01    1.222394e+00
  2.243634e+01    1.193901e+00
  2.246809e+01    1.167212e+00
  2.249984e+01    1.120183e+00
  2.253160e+01    1.146753e+00
  2.256335e+01    1.139988e+00
  2.259510e+01    1.113330e+00
  2.262685e+01    1.108264e+00
  2.265860e+01    1.104132e+00
  2.269035e+01    1.105810e+00
  2.272210e+01    1.063279e+00
  2.275385e+01    1.055829e+00
  2.278560e+01    1.072180e+00
  2.281736e+01    1.054285e+00
  2.284911e+01    1.042500e+00
  2.288086e+01    1.036729e+00
  2.291261e+01    1.063456e+00
  2.294436e+01    1.024223e+00
  2.297611e+01    1.038105e+00
  2.300786e+01    1.041185e+00
  2.303961e+01    1.011755e+00
  2.307137e+01    1.002995e+00
  2.310312e+01    1.006703e+00
  2.313487e+01    1.008249e+00
  2.316662e+01    9.936301e-01
  2.319837e+01    9.989234e-01
  2.323012e+01    1.010675e+00
  2.326187e+01    9.678845e-01
  2.329362e+01    9.740413e-01
  2.332537e+01    9.883741e-01
  2.335713e+01    9.848772e-01
  2.338888e+01    9.823563e-01
  2.342063e+01    9.777462e-01
  2.345238e+01    9.828928e-01
  2.348413e+01    9.765109e-01
  2.351588e+01    9.521714e-01
  2.354763e+01    9.640280e-01
  2.357938e+01    9.862572e-01
  2.361113e+01    9.966012e-01
  2.364289e+01    9.608905e-01
  2.367464e+01    9.615237e-01
  2.370639e+01    9.372535e-01
  2.373814e+01    9.371943e-01
  2.376989e+01    9.273745e-01
  2.380164e+01    9.346539e-01
  2.383339e+01    9.210496e-01
  2.386514e+01    9.256770e-01
  2.389689e+01    9.150053e-01
  2.392865e+01    9.236815e-01
  2.396040e+01    8.918733e-01
  2.399215e+01    8.979032e-01
  2.402390e+01    8.949330e-01
  2.405565e+01    9.117575e-01
  2.408740e+01    9.077504e-01
  2.411915e+01    9.093616e-01
  2.415090e+01    8.959817e-01
  2.418266e+01    8.895421e-01
  2.421441e+01    8.797148e-01
  2.424616e+01    8.745965e-01
  2.427791e+01    8.803388e-01
  2.430966e+01    8.837998e-01
  2.434141e+01    8.999795e-01
  2.437316e+01    9.020983e-01
  2.440491e+01    9.008966e-01
  2.443666e+01    9.025791e-01
  2.446842e+01    9.012448e-01
  2.450017e+01    9.145141e-01
  2.453192e+01    9.000613e-01
  2.456367e+01    8.863190e-01
  2.459542e+01    8.798755e-01
  2.462717e+01    9.060680e-01
  2.465892e+01    9.011830e-01
  2.469067e+01    8.753390e-01
  2.472242e+01    9.005130e-01
  2.475418e+01    9.047995e-01
  2.478593e+01    8.856874e-01
  2.481768e+01    9.057468e-01
  2.484943e+01    9.040257e-01
  2.488118e+01    8.850759e-01
  2.491293e+01    8.938425e-01
  2.494468e+01    8.938829e-01
  2.497643e+01    8.867350e-01
  2.500819e+01    9.069563e-01
  2.503994e+01    8.828359e-01
  2.507169e+01    9.107111e-01
  2.510344e+01    9.173696e-01
  2.513519e+01    9.163129e-01
  2.516694e+01    9.315630e-01
  2.519869e+01    9.332183e-01
  2.523044e+01    9.441217e-01
  2.526219e+01    9.204782e-01
  2.529395e+01    9.550957e-01
  2.532570e+01    9.673481e-01
  2.535745e+01    9.904046e-01
  2.538920e+01    9.771699e-01
  2.542095e+01    1.021950e+00
  2.545270e+01    1.016106e+00
  2.548445e+01    1.050329e+00
  2.551620e+01    1.076258e+00
  2.554795e+01    1.143725e+00
  2.557971e+01    1.160306e+00
  2.561146e+01    1.222147e+00
  2.564321e+01    1.307488e+00
  2.567496e+01    1.439379e+00
  2.570671e+01    1.577591e+00
  2.573846e+01    1.853984e+00
  2.577021e+01    2.261104e+00
  2.580196e+01    2.856189e+00
  2.583371e+01    3.709800e+00
  2.586547e+01    4.808386e+00
  2.589722e+01    5.938087e+00
  2.592897e+01    6.850811e+00
  2.596072e+01    7.189936e+00
  2.599247e+01    6.541994e+00
  2.602422e+01    5.240005e+00
  2.605597e+01    3.960426e+00
  2.608772e+01    2.986669e+00
  2.611948e+01    2.350199e+00
  2.615123e+01    1.955411e+00
  2.618298e+01    1.657143e+00
  2.621473e+01    1.484724e+00
  2.624648e+01    1.332459e+00
  2.627823e+01    1.270355e+00
  2.630998e+01    1.174710e+00
  2.634173e+01    1.129352e+00
  2.637348e+01    1.091529e+00
  2.640524e+01    1.045104e+00
  2.643699e+01    1.034610e+00
  2.646874e+01    1.033797e+00
  2.650049e+01    1.027701e+00
  2.653224e+01    1.006029e+00
  2.656399e+01    9.656357e-01
  2.659574e+01    9.694458e-01
  2.662749e+01    9.701955e-01
  2.665924e+01    1.004844e+00
  2.669100e+01    9.604586e-01
  2.672275e+01    9.622166e-01
  2.675450e+01    9.779510e-01
  2.678625e+01    9.724054e-01
  2.681800e+01    9.400558e-01
  2.684975e+01    9.621065e-01
  2.688150e+01    9.898872e-01
  2.691325e+01    1.011844e+00
  2.694501e+01    1.021040e+00
  2.697676e+01    1.073353e+00
  2.700851e+01    1.132025e+00
  2.704026e+01    1.204624e+00
  2.707201e+01    1.364200e+00
  2.710376e+01    1.509774e+00
  2.713551e+01    1.791319e+00
  2.716726e+01    1.968188e+00
  2.719901e+01    2.174698e+00
  2.723077e+01    2.133649e+00
  2.726252e+01    1.990834e+00
  2.729427e+01    1.701208e+00
  2.732602e+01    1.457841e+00
  2.735777e+01    1.287959e+00
  2.738952e+01    1.163657e+00
  2.742127e+01    1.066394e+00
  2.745302e+01    1.029067e+00
  2.748477e+01    1.004536e+00
  2.751653e+01    9.941789e-01
  2.754828e+01    9.632833e-01
  2.758003e+01    9.724855e-01
  2.761178e+01    9.333646e-01
  2.764353e+01    9.203464e-01
  2.767528e+01    9.270899e-01
  2.770703e+01    9.032914e-01
  2.773878e+01    9.019307e-01
  2.777054e+01    9.085477e-01
  2.780229e+01    9.063506e-01
  2.783404e+01    8.801249e-01
  2.786579e+01    8.825328e-01
  2.789754e+01    8.775218e-01
  2.792929e+01    8.714330e-01
  2.796104e+01    8.752169e-01
  2.799279e+01    8.464245e-01
  2.802454e+01    8.759983e-01
  2.805630e+01    8.609409e-01
  2.808805e+01    8.669696e-01
  2.811980e+01    8.705428e-01
  2.815155e+01    8.597589e-01
  2.818330e+01    8.648563e-01
  2.821505e+01    8.776935e-01
  2.824680e+01    8.713804e-01
  2.827855e+01    8.708667e-01
  2.831030e+01    8.368633e-01
  2.834206e+01    8.630248e-01
  2.837381e+01    8.525532e-01
  2.840556e+01    8.519170e-01
  2.843731e+01    8.268344e-01
  2.846906e+01    8.355344e-01
  2.850081e+01    8.364574e-01
  2.853256e+01    8.340240e-01
  2.856431e+01    8.371697e-01
  2.859606e+01    8.426914e-01
  2.862782e+01    8.359988e-01
  2.865957e+01    8.310719e-01
  2.869132e+01    8.386998e-01
  2.872307e+01    8.374435e-01
  2.875482e+01    8.234234e-01
  2.878657e+01    8.289821e-01
  2.881832e+01    8.066015e-01
  2.885007e+01    8.163312e-01
  2.888183e+01    8.238462e-01
  2.891358e+01    8.211702e-01
  2.894533e+01    8.147384e-01
  2.897708e+01    8.375132e-01
  2.900883e+01    8.169794e-01
  2.904058e+01    8.182496e-01
  2.907233e+01    8.313838e-01
  2.910408e+01    7.972246e-01
  2.913583e+01    8.329803e-01
  2.916759e+01    7.995467e-01
  2.919934e+01    8.110849e-01
  2.923109e+01    8.191701e-01
  2.926284e+01    8.209342e-01
  2.929459e+01    8.166913e-01
  2.932634e+01    7.992856e-01
  2.935809e+01    8.080903e-01
  2.938984e+01    8.164136e-01
  2.942159e+01    7.919813e-01
  2.945335e+01    8.078839e-01
  2.948510e+01    8.028342e-01
  2.951685e+01    8.419672e-01
  2.954860e+01    7.974761e-01
  2.958035e+01    8.110138e-01
  2.961210e+01    8.158452e-01
  2.964385e+01    8.104128e-01
  2.967560e+01    8.033078e-01
  2.970736e+01    7.982122e-01
  2.973911e+01    7.904022e-01
  2.977086e+01    7.864326e-01
  2.980261e+01    8.043117e-01
  2.983436e+01    7.919326e-01
  2.986611e+01    7.972502e-01
  2.989786e+01    8.134054e-01
  2.992961e+01    8.072129e-01
  2.996136e+01    7.837561e-01
  2.999312e+01    8.184154e-01
  3.002487e+01    8.002738e-01
  3.005662e+01    7.969590e-01
  3.008837e+01    8.073578e-01
  3.012012e+01    8.094537e-01
  3.015187e+01    8.093337e-01
  3.018362e+01    7.991942e-01
  3.021537e+01    7.949765e-01
  3.024712e+01    7.810960e-01
  3.027888e+01    7.960849e-01
  3.031063e+01    8.010720e-01
  3.034238e+01    7.777646e-01
  3.037413e+01    7.723070e-01
  3.040588e+01    7.888801e-01
  3.043763e+01    7.904772e-01
  3.046938e+01    7.586820e-01
  3.050113e+01    7.931026e-01
  3.053288e+01    7.909097e-01
  3.056464e+01    7.595875e-01
  3.059639e+01    7.866720e-01
  3.062814e+01    8.071430e-01
  3.065989e+01    7.716728e-01
  3.069164e+01    7.817156e-01
  3.072339e+01    7.918901e-01
  3.075514e+01    7.855871e-01
  3.078689e+01    7.819917e-01
  3.081865e+01    7.993211e-01
  3.085040e+01    8.022686e-01
  3.088215e+01    7.879463e-01
  3.091390e+01    7.848368e-01
  3.094565e+01    7.859021e-01
  3.097740e+01    7.920152e-01
  3.100915e+01    7.894944e-01
  3.104090e+01    8.061222e-01
  3.107265e+01    7.842479e-01
  3.110441e+01    7.763600e-01
  3.113616e+01    7.986940e-01
  3.116791e+01    7.685649e-01
  3.119966e+01    7.820713e-01
  3.123141e+01    7.713659e-01
  3.126316e+01    7.913226e-01
  3.129491e+01    7.856868e-01
  3.132666e+01    8.106787e-01
  3.135841e+01    8.268107e-01
  3.139017e+01    8.125730e-01
  3.142192e+01    8.138104e-01
  3.145367e+01    8.391279e-01
  3.148542e+01    8.297639e-01
  3.151717e+01    8.508745e-01
  3.154892e+01    8.458831e-01
  3.158067e+01    8.520465e-01
  3.161242e+01    8.995091e-01
  3.164418e+01    8.923162e-01
  3.167593e+01    9.984697e-01
  3.170768e+01    1.036185e+00
  3.173943e+01    1.135127e+00
  3.177118e+01    1.258751e+00
  3.180293e+01    1.448480e+00
  3.183468e+01    1.731652e+00
  3.186643e+01    2.001725e+00
  3.189818e+01    2.086438e+00
  3.192994e+01    2.034586e+00
  3.196169e+01    1.814785e+00
  3.199344e+01    1.517218e+00
  3.202519e+01    1.296201e+00
  3.205694e+01    1.144328e+00
  3.208869e+01    1.028633e+00
  3.212044e+01    1.006882e+00
  3.215219e+01    9.287310e-01
  3.218394e+01    9.034066e-01
  3.221570e+01    8.649623e-01
  3.224745e+01    8.372173e-01
  3.227920e+01    8.250431e-01
  3.231095e+01    8.226454e-01
  3.234270e+01    8.015070e-01
  3.237445e+01    7.979690e-01
  3.240620e+01    7.810753e-01
  3.243795e+01    7.967660e-01
  3.246970e+01    7.719789e-01
  3.250146e+01    8.026217e-01
  3.253321e+01    7.697628e-01
  3.254908e+01    7.719228e-01