File: XRD/Reaction conditions/2024-07-27_003_Ru-CGO-ex_Reaction_dwell_000023_data_000144.dat
# == pyFAI calibration ==
# Distance Sample to Detector: 0.4 m
# PONI: 9.750e-02, 1.135e-01 m
# Rotations: -0.000175 0.000000 -0.000000 rad
#
# == Fit2d calibration ==
# Distance Sample-beamCenter: 400.000 mm
# Center: x=1514.000, y=1300.000 pix
# Tilt: 0.010 deg  TiltPlanRot: 0.010 deg
#
# Detector Detector	 Spline= None	 PixelSize= 7.500e-05, 7.500e-05 m
#    Detector has a mask: False
#    Detector has a dark current: False
#    detector has a flat field: False
#
# Wavelength: 6.888e-11 m
# Mask applied: user provided
# Dark current applied: False
# Flat field applied: False
# Polarization factor: 0.99
# Normalization factor: 1.0
# --> /home/myspot/data/2024_07_Rosario/Ru-CGO-ex/2024-07-27_003_Ru-CGO-ex_Reaction_dwell_000023_data_000144.dat
#       q_nm^-1             I
  2.003187e-02    2.226973e-02
  5.178302e-02    1.375185e-01
  8.353417e-02    4.263671e-02
  1.152853e-01    7.840057e-02
  1.470365e-01    5.843078e-02
  1.787876e-01    2.447038e-02
  2.105388e-01    8.747303e-02
  2.422899e-01    5.978275e-02
  2.740411e-01    8.262275e-02
  3.057922e-01    2.504518e-02
  3.375433e-01    2.989626e-02
  3.692945e-01    3.498843e-02
  4.010456e-01    3.767391e-02
  4.327968e-01    4.221747e-02
  4.645479e-01    5.364884e-02
  4.962991e-01    5.616111e-02
  5.280502e-01    8.333205e-02
  5.598014e-01    4.380724e-02
  5.915525e-01    7.220250e-02
  6.233037e-01    4.114316e-02
  6.550548e-01    3.209194e-02
  6.868060e-01    6.398145e-02
  7.185571e-01    2.192934e-02
  7.503083e-01    2.834382e-02
  7.820594e-01    9.465972e-02
  8.138106e-01    2.963879e-01
  8.455617e-01    3.938241e-01
  8.773129e-01    4.410014e-01
  9.090640e-01    6.623184e-01
  9.408152e-01    8.610226e-01
  9.725663e-01    1.021616e+00
  1.004317e+00    1.078423e+00
  1.036069e+00    1.379643e+00
  1.067820e+00    1.530633e+00
  1.099571e+00    1.528988e+00
  1.131322e+00    1.525324e+00
  1.163073e+00    1.674057e+00
  1.194824e+00    1.917745e+00
  1.226575e+00    2.220233e+00
  1.258327e+00    2.587728e+00
  1.290078e+00    2.526592e+00
  1.321829e+00    2.804681e+00
  1.353580e+00    2.765638e+00
  1.385331e+00    2.901790e+00
  1.417082e+00    2.815143e+00
  1.448834e+00    2.999181e+00
  1.480585e+00    3.047828e+00
  1.512336e+00    3.132071e+00
  1.544087e+00    3.348314e+00
  1.575838e+00    3.091785e+00
  1.607589e+00    3.227738e+00
  1.639340e+00    3.257645e+00
  1.671092e+00    2.974985e+00
  1.702843e+00    3.078462e+00
  1.734594e+00    3.032618e+00
  1.766345e+00    3.101154e+00
  1.798096e+00    3.102696e+00
  1.829847e+00    3.181928e+00
  1.861598e+00    3.099649e+00
  1.893350e+00    3.053257e+00
  1.925101e+00    3.153403e+00
  1.956852e+00    3.054513e+00
  1.988603e+00    2.891013e+00
  2.020354e+00    3.068825e+00
  2.052105e+00    3.020869e+00
  2.083856e+00    3.022140e+00
  2.115608e+00    3.093945e+00
  2.147359e+00    3.076400e+00
  2.179110e+00    3.165864e+00
  2.210861e+00    3.094080e+00
  2.242612e+00    2.990224e+00
  2.274363e+00    3.027960e+00
  2.306115e+00    3.056268e+00
  2.337866e+00    3.103349e+00
  2.369617e+00    3.138210e+00
  2.401368e+00    3.140624e+00
  2.433119e+00    3.214109e+00
  2.464870e+00    3.168881e+00
  2.496621e+00    3.210508e+00
  2.528373e+00    3.156489e+00
  2.560124e+00    3.223521e+00
  2.591875e+00    3.299860e+00
  2.623626e+00    3.347090e+00
  2.655377e+00    3.295068e+00
  2.687128e+00    3.203019e+00
  2.718879e+00    3.169073e+00
  2.750631e+00    3.130174e+00
  2.782382e+00    3.365694e+00
  2.814133e+00    3.204270e+00
  2.845884e+00    3.263180e+00
  2.877635e+00    3.288265e+00
  2.909386e+00    3.262862e+00
  2.941137e+00    3.311105e+00
  2.972889e+00    3.305389e+00
  3.004640e+00    3.400702e+00
  3.036391e+00    3.390887e+00
  3.068142e+00    3.327695e+00
  3.099893e+00    3.415730e+00
  3.131644e+00    3.443688e+00
  3.163395e+00    3.385977e+00
  3.195147e+00    3.357290e+00
  3.226898e+00    3.433283e+00
  3.258649e+00    3.349194e+00
  3.290400e+00    3.407767e+00
  3.322151e+00    3.339607e+00
  3.353902e+00    3.449433e+00
  3.385654e+00    3.351119e+00
  3.417405e+00    3.490144e+00
  3.449156e+00    3.476538e+00
  3.480907e+00    3.356478e+00
  3.512658e+00    3.538091e+00
  3.544409e+00    3.470321e+00
  3.576160e+00    3.495973e+00
  3.607912e+00    3.429668e+00
  3.639663e+00    3.376867e+00
  3.671414e+00    3.405921e+00
  3.703165e+00    3.558371e+00
  3.734916e+00    3.445537e+00
  3.766667e+00    3.487085e+00
  3.798418e+00    3.432150e+00
  3.830170e+00    3.483169e+00
  3.861921e+00    3.584928e+00
  3.893672e+00    3.616513e+00
  3.925423e+00    3.540149e+00
  3.957174e+00    3.591589e+00
  3.988925e+00    3.522954e+00
  4.020676e+00    3.477249e+00
  4.052428e+00    3.535784e+00
  4.084179e+00    3.568137e+00
  4.115930e+00    3.526568e+00
  4.147681e+00    3.565416e+00
  4.179432e+00    3.590452e+00
  4.211183e+00    3.515339e+00
  4.242935e+00    3.567051e+00
  4.274686e+00    3.559721e+00
  4.306437e+00    3.537205e+00
  4.338188e+00    3.542697e+00
  4.369939e+00    3.608233e+00
  4.401690e+00    3.576830e+00
  4.433441e+00    3.551191e+00
  4.465193e+00    3.627369e+00
  4.496944e+00    3.537186e+00
  4.528695e+00    3.664820e+00
  4.560446e+00    3.619802e+00
  4.592197e+00    3.647256e+00
  4.623948e+00    3.708278e+00
  4.655699e+00    3.639410e+00
  4.687451e+00    3.617156e+00
  4.719202e+00    3.596902e+00
  4.750953e+00    3.538443e+00
  4.782704e+00    3.645241e+00
  4.814455e+00    3.585387e+00
  4.846206e+00    3.597862e+00
  4.877957e+00    3.706394e+00
  4.909709e+00    3.466231e+00
  4.941460e+00    3.619043e+00
  4.973211e+00    3.581021e+00
  5.004962e+00    3.656637e+00
  5.036713e+00    3.691460e+00
  5.068464e+00    3.690708e+00
  5.100216e+00    3.677803e+00
  5.131967e+00    3.709939e+00
  5.163718e+00    3.677807e+00
  5.195469e+00    3.666688e+00
  5.227220e+00    3.649185e+00
  5.258971e+00    3.647597e+00
  5.290722e+00    3.673028e+00
  5.322474e+00    3.658706e+00
  5.354225e+00    3.676135e+00
  5.385976e+00    3.606986e+00
  5.417727e+00    3.578959e+00
  5.449478e+00    3.607357e+00
  5.481229e+00    3.591520e+00
  5.512980e+00    3.658245e+00
  5.544732e+00    3.624068e+00
  5.576483e+00    3.596962e+00
  5.608234e+00    3.502629e+00
  5.639985e+00    3.558248e+00
  5.671736e+00    3.669648e+00
  5.703487e+00    3.602839e+00
  5.735238e+00    3.549216e+00
  5.766990e+00    3.674197e+00
  5.798741e+00    3.513493e+00
  5.830492e+00    3.529536e+00
  5.862243e+00    3.470558e+00
  5.893994e+00    3.605794e+00
  5.925745e+00    3.604013e+00
  5.957497e+00    3.474181e+00
  5.989248e+00    3.510102e+00
  6.020999e+00    3.605515e+00
  6.052750e+00    3.522866e+00
  6.084501e+00    3.648658e+00
  6.116252e+00    3.621055e+00
  6.148003e+00    3.657951e+00
  6.179755e+00    3.596704e+00
  6.211506e+00    3.559502e+00
  6.243257e+00    3.626333e+00
  6.275008e+00    3.651992e+00
  6.306759e+00    3.550324e+00
  6.338510e+00    3.497307e+00
  6.370261e+00    3.541672e+00
  6.402013e+00    3.496625e+00
  6.433764e+00    3.547862e+00
  6.465515e+00    3.503122e+00
  6.497266e+00    3.560105e+00
  6.529017e+00    3.594406e+00
  6.560768e+00    3.561251e+00
  6.592519e+00    3.517053e+00
  6.624271e+00    3.605720e+00
  6.656022e+00    3.510043e+00
  6.687773e+00    3.549554e+00
  6.719524e+00    3.653271e+00
  6.751275e+00    3.612503e+00
  6.783026e+00    3.581658e+00
  6.814777e+00    3.473344e+00
  6.846529e+00    3.454202e+00
  6.878280e+00    3.580006e+00
  6.910031e+00    3.531332e+00
  6.941782e+00    3.533417e+00
  6.973533e+00    3.482037e+00
  7.005284e+00    3.431569e+00
  7.037036e+00    3.548663e+00
  7.068787e+00    3.569779e+00
  7.100538e+00    3.519722e+00
  7.132289e+00    3.553476e+00
  7.164040e+00    3.511190e+00
  7.195791e+00    3.556785e+00
  7.227542e+00    3.554394e+00
  7.259294e+00    3.559686e+00
  7.291045e+00    3.402629e+00
  7.322796e+00    3.541927e+00
  7.354547e+00    3.513935e+00
  7.386298e+00    3.523289e+00
  7.418049e+00    3.516653e+00
  7.449800e+00    3.511656e+00
  7.481552e+00    3.394908e+00
  7.513303e+00    3.499290e+00
  7.545054e+00    3.398355e+00
  7.576805e+00    3.532823e+00
  7.608556e+00    3.456034e+00
  7.640307e+00    3.498159e+00
  7.672058e+00    3.442259e+00
  7.703810e+00    3.508636e+00
  7.735561e+00    3.376139e+00
  7.767312e+00    3.438394e+00
  7.799063e+00    3.517408e+00
  7.830814e+00    3.465079e+00
  7.862565e+00    3.402160e+00
  7.894317e+00    3.510103e+00
  7.926068e+00    3.503691e+00
  7.957819e+00    3.422919e+00
  7.989570e+00    3.384516e+00
  8.021321e+00    3.479838e+00
  8.053072e+00    3.349122e+00
  8.084823e+00    3.434956e+00
  8.116575e+00    3.476600e+00
  8.148326e+00    3.494181e+00
  8.180077e+00    3.442424e+00
  8.211828e+00    3.428134e+00
  8.243579e+00    3.475634e+00
  8.275330e+00    3.343451e+00
  8.307081e+00    3.445051e+00
  8.338833e+00    3.393383e+00
  8.370584e+00    3.389438e+00
  8.402335e+00    3.397023e+00
  8.434086e+00    3.408444e+00
  8.465837e+00    3.383150e+00
  8.497588e+00    3.404422e+00
  8.529339e+00    3.408557e+00
  8.561091e+00    3.398553e+00
  8.592842e+00    3.360743e+00
  8.624593e+00    3.271551e+00
  8.656344e+00    3.354718e+00
  8.688095e+00    3.337555e+00
  8.719846e+00    3.362643e+00
  8.751598e+00    3.336323e+00
  8.783349e+00    3.321266e+00
  8.815100e+00    3.324423e+00
  8.846851e+00    3.326409e+00
  8.878602e+00    3.355418e+00
  8.910353e+00    3.304662e+00
  8.942104e+00    3.273620e+00
  8.973856e+00    3.273331e+00
  9.005607e+00    3.276465e+00
  9.037358e+00    3.326456e+00
  9.069109e+00    3.236777e+00
  9.100860e+00    3.282068e+00
  9.132611e+00    3.319375e+00
  9.164362e+00    3.271733e+00
  9.196114e+00    3.297478e+00
  9.227865e+00    3.212536e+00
  9.259616e+00    3.230741e+00
  9.291367e+00    3.237488e+00
  9.323118e+00    3.195499e+00
  9.354869e+00    3.237443e+00
  9.386620e+00    3.317141e+00
  9.418372e+00    3.229798e+00
  9.450123e+00    3.189009e+00
  9.481874e+00    3.198566e+00
  9.513625e+00    3.187547e+00
  9.545376e+00    3.191172e+00
  9.577127e+00    3.281672e+00
  9.608878e+00    3.194817e+00
  9.640630e+00    3.194090e+00
  9.672381e+00    3.252027e+00
  9.704132e+00    3.172029e+00
  9.735883e+00    3.193249e+00
  9.767634e+00    3.126636e+00
  9.799385e+00    3.158739e+00
  9.831137e+00    3.177353e+00
  9.862888e+00    3.153590e+00
  9.894639e+00    3.140505e+00
  9.926390e+00    3.125431e+00
  9.958141e+00    3.113221e+00
  9.989892e+00    3.161515e+00
  1.002164e+01    3.124675e+00
  1.005339e+01    3.054783e+00
  1.008515e+01    3.089031e+00
  1.011690e+01    3.118512e+00
  1.014865e+01    3.123454e+00
  1.018040e+01    3.007003e+00
  1.021215e+01    3.033808e+00
  1.024390e+01    3.087048e+00
  1.027565e+01    3.069784e+00
  1.030740e+01    2.987284e+00
  1.033915e+01    3.006821e+00
  1.037091e+01    2.992924e+00
  1.040266e+01    3.123259e+00
  1.043441e+01    3.045029e+00
  1.046616e+01    3.005997e+00
  1.049791e+01    2.993227e+00
  1.052966e+01    3.055372e+00
  1.056141e+01    3.041411e+00
  1.059316e+01    3.044953e+00
  1.062492e+01    3.033157e+00
  1.065667e+01    3.018800e+00
  1.068842e+01    3.028214e+00
  1.072017e+01    2.926906e+00
  1.075192e+01    2.975838e+00
  1.078367e+01    2.949107e+00
  1.081542e+01    2.883645e+00
  1.084717e+01    2.990725e+00
  1.087892e+01    2.934206e+00
  1.091068e+01    2.951166e+00
  1.094243e+01    2.925509e+00
  1.097418e+01    2.840776e+00
  1.100593e+01    2.945178e+00
  1.103768e+01    2.924157e+00
  1.106943e+01    2.903039e+00
  1.110118e+01    2.845907e+00
  1.113293e+01    2.909849e+00
  1.116468e+01    2.851527e+00
  1.119644e+01    2.865021e+00
  1.122819e+01    2.883225e+00
  1.125994e+01    2.874098e+00
  1.129169e+01    2.821193e+00
  1.132344e+01    2.812649e+00
  1.135519e+01    2.849885e+00
  1.138694e+01    2.786976e+00
  1.141869e+01    2.795003e+00
  1.145045e+01    2.816879e+00
  1.148220e+01    2.822033e+00
  1.151395e+01    2.806118e+00
  1.154570e+01    2.733349e+00
  1.157745e+01    2.765194e+00
  1.160920e+01    2.811484e+00
  1.164095e+01    2.764042e+00
  1.167270e+01    2.780826e+00
  1.170445e+01    2.694125e+00
  1.173621e+01    2.678380e+00
  1.176796e+01    2.719555e+00
  1.179971e+01    2.764262e+00
  1.183146e+01    2.743314e+00
  1.186321e+01    2.741355e+00
  1.189496e+01    2.726726e+00
  1.192671e+01    2.694810e+00
  1.195846e+01    2.634676e+00
  1.199021e+01    2.710791e+00
  1.202197e+01    2.705455e+00
  1.205372e+01    2.702061e+00
  1.208547e+01    2.725976e+00
  1.211722e+01    2.696649e+00
  1.214897e+01    2.649967e+00
  1.218072e+01    2.707839e+00
  1.221247e+01    2.678713e+00
  1.224422e+01    2.701208e+00
  1.227597e+01    2.688259e+00
  1.230773e+01    2.742934e+00
  1.233948e+01    2.660687e+00
  1.237123e+01    2.684638e+00
  1.240298e+01    2.694452e+00
  1.243473e+01    2.664262e+00
  1.246648e+01    2.649738e+00
  1.249823e+01    2.711306e+00
  1.252998e+01    2.711700e+00
  1.256174e+01    2.707000e+00
  1.259349e+01    2.684758e+00
  1.262524e+01    2.752456e+00
  1.265699e+01    2.770999e+00
  1.268874e+01    2.818397e+00
  1.272049e+01    2.851381e+00
  1.275224e+01    2.905082e+00
  1.278399e+01    2.925415e+00
  1.281574e+01    3.032645e+00
  1.284750e+01    3.171909e+00
  1.287925e+01    3.403753e+00
  1.291100e+01    3.675889e+00
  1.294275e+01    4.052568e+00
  1.297450e+01    4.701367e+00
  1.300625e+01    5.861750e+00
  1.303800e+01    7.624729e+00
  1.306975e+01    9.972885e+00
  1.310150e+01    1.271852e+01
  1.313326e+01    1.478326e+01
  1.316501e+01    1.622632e+01
  1.319676e+01    1.559671e+01
  1.322851e+01    1.245881e+01
  1.326026e+01    9.078410e+00
  1.329201e+01    6.800252e+00
  1.332376e+01    5.284411e+00
  1.335551e+01    4.417795e+00
  1.338727e+01    3.795825e+00
  1.341902e+01    3.486499e+00
  1.345077e+01    3.198283e+00
  1.348252e+01    3.024792e+00
  1.351427e+01    2.867118e+00
  1.354602e+01    2.821591e+00
  1.357777e+01    2.756581e+00
  1.360952e+01    2.648216e+00
  1.364127e+01    2.627074e+00
  1.367303e+01    2.592044e+00
  1.370478e+01    2.558033e+00
  1.373653e+01    2.464311e+00
  1.376828e+01    2.476068e+00
  1.380003e+01    2.432945e+00
  1.383178e+01    2.479797e+00
  1.386353e+01    2.452191e+00
  1.389528e+01    2.437576e+00
  1.392703e+01    2.428604e+00
  1.395879e+01    2.405008e+00
  1.399054e+01    2.354401e+00
  1.402229e+01    2.366622e+00
  1.405404e+01    2.310127e+00
  1.408579e+01    2.325094e+00
  1.411754e+01    2.285174e+00
  1.414929e+01    2.272887e+00
  1.418104e+01    2.304525e+00
  1.421279e+01    2.319120e+00
  1.424455e+01    2.250350e+00
  1.427630e+01    2.281486e+00
  1.430805e+01    2.278075e+00
  1.433980e+01    2.257551e+00
  1.437155e+01    2.264122e+00
  1.440330e+01    2.254937e+00
  1.443505e+01    2.224071e+00
  1.446680e+01    2.161101e+00
  1.449856e+01    2.212990e+00
  1.453031e+01    2.213760e+00
  1.456206e+01    2.228945e+00
  1.459381e+01    2.237811e+00
  1.462556e+01    2.226350e+00
  1.465731e+01    2.204450e+00
  1.468906e+01    2.135896e+00
  1.472081e+01    2.173990e+00
  1.475256e+01    2.223285e+00
  1.478432e+01    2.185560e+00
  1.481607e+01    2.176586e+00
  1.484782e+01    2.214394e+00
  1.487957e+01    2.260664e+00
  1.491132e+01    2.260230e+00
  1.494307e+01    2.262124e+00
  1.497482e+01    2.326565e+00
  1.500657e+01    2.445571e+00
  1.503832e+01    2.556331e+00
  1.507008e+01    2.828489e+00
  1.510183e+01    3.222321e+00
  1.513358e+01    3.790253e+00
  1.516533e+01    4.489421e+00
  1.519708e+01    5.222498e+00
  1.522883e+01    5.538424e+00
  1.526058e+01    5.807456e+00
  1.529233e+01    5.379737e+00
  1.532409e+01    4.727119e+00
  1.535584e+01    3.792336e+00
  1.538759e+01    3.139830e+00
  1.541934e+01    2.754247e+00
  1.545109e+01    2.514659e+00
  1.548284e+01    2.354977e+00
  1.551459e+01    2.267542e+00
  1.554634e+01    2.161222e+00
  1.557809e+01    2.156451e+00
  1.560985e+01    2.082429e+00
  1.564160e+01    2.003509e+00
  1.567335e+01    1.997958e+00
  1.570510e+01    1.989065e+00
  1.573685e+01    2.043054e+00
  1.576860e+01    1.941743e+00
  1.580035e+01    1.928529e+00
  1.583210e+01    1.887567e+00
  1.586385e+01    1.931552e+00
  1.589561e+01    1.877517e+00
  1.592736e+01    1.894618e+00
  1.595911e+01    1.890303e+00
  1.599086e+01    1.879393e+00
  1.602261e+01    1.841839e+00
  1.605436e+01    1.858534e+00
  1.608611e+01    1.867866e+00
  1.611786e+01    1.857020e+00
  1.614961e+01    1.817224e+00
  1.618137e+01    1.876897e+00
  1.621312e+01    1.821846e+00
  1.624487e+01    1.818556e+00
  1.627662e+01    1.789306e+00
  1.630837e+01    1.802748e+00
  1.634012e+01    1.766667e+00
  1.637187e+01    1.806573e+00
  1.640362e+01    1.759632e+00
  1.643538e+01    1.758572e+00
  1.646713e+01    1.745507e+00
  1.649888e+01    1.726943e+00
  1.653063e+01    1.732895e+00
  1.656238e+01    1.753261e+00
  1.659413e+01    1.727214e+00
  1.662588e+01    1.757186e+00
  1.665763e+01    1.688788e+00
  1.668938e+01    1.732285e+00
  1.672114e+01    1.734662e+00
  1.675289e+01    1.695889e+00
  1.678464e+01    1.717877e+00
  1.681639e+01    1.668234e+00
  1.684814e+01    1.659261e+00
  1.687989e+01    1.698106e+00
  1.691164e+01    1.650671e+00
  1.694339e+01    1.647979e+00
  1.697514e+01    1.671520e+00
  1.700690e+01    1.664824e+00
  1.703865e+01    1.646341e+00
  1.707040e+01    1.614082e+00
  1.710215e+01    1.640807e+00
  1.713390e+01    1.656987e+00
  1.716565e+01    1.596421e+00
  1.719740e+01    1.597224e+00
  1.722915e+01    1.633827e+00
  1.726091e+01    1.636541e+00
  1.729266e+01    1.665045e+00
  1.732441e+01    1.605664e+00
  1.735616e+01    1.626539e+00
  1.738791e+01    1.632592e+00
  1.741966e+01    1.610466e+00
  1.745141e+01    1.581348e+00
  1.748316e+01    1.555786e+00
  1.751491e+01    1.608156e+00
  1.754667e+01    1.562204e+00
  1.757842e+01    1.590944e+00
  1.761017e+01    1.564941e+00
  1.764192e+01    1.553125e+00
  1.767367e+01    1.552190e+00
  1.770542e+01    1.551895e+00
  1.773717e+01    1.551453e+00
  1.776892e+01    1.538655e+00
  1.780067e+01    1.543700e+00
  1.783243e+01    1.531533e+00
  1.786418e+01    1.543025e+00
  1.789593e+01    1.527805e+00
  1.792768e+01    1.540791e+00
  1.795943e+01    1.520024e+00
  1.799118e+01    1.505531e+00
  1.802293e+01    1.498890e+00
  1.805468e+01    1.501144e+00
  1.808643e+01    1.472018e+00
  1.811819e+01    1.489122e+00
  1.814994e+01    1.480050e+00
  1.818169e+01    1.504369e+00
  1.821344e+01    1.455344e+00
  1.824519e+01    1.471611e+00
  1.827694e+01    1.491155e+00
  1.830869e+01    1.481027e+00
  1.834044e+01    1.452118e+00
  1.837220e+01    1.471733e+00
  1.840395e+01    1.447173e+00
  1.843570e+01    1.447931e+00
  1.846745e+01    1.425874e+00
  1.849920e+01    1.433806e+00
  1.853095e+01    1.439304e+00
  1.856270e+01    1.454414e+00
  1.859445e+01    1.447358e+00
  1.862620e+01    1.413288e+00
  1.865796e+01    1.395867e+00
  1.868971e+01    1.405370e+00
  1.872146e+01    1.413888e+00
  1.875321e+01    1.418303e+00
  1.878496e+01    1.415960e+00
  1.881671e+01    1.402030e+00
  1.884846e+01    1.386595e+00
  1.888021e+01    1.378910e+00
  1.891196e+01    1.381830e+00
  1.894372e+01    1.382444e+00
  1.897547e+01    1.367502e+00
  1.900722e+01    1.398820e+00
  1.903897e+01    1.389029e+00
  1.907072e+01    1.367891e+00
  1.910247e+01    1.386306e+00
  1.913422e+01    1.354623e+00
  1.916597e+01    1.372523e+00
  1.919773e+01    1.344993e+00
  1.922948e+01    1.370171e+00
  1.926123e+01    1.354977e+00
  1.929298e+01    1.361976e+00
  1.932473e+01    1.353272e+00
  1.935648e+01    1.361033e+00
  1.938823e+01    1.341622e+00
  1.941998e+01    1.341498e+00
  1.945173e+01    1.346081e+00
  1.948349e+01    1.339587e+00
  1.951524e+01    1.333014e+00
  1.954699e+01    1.333337e+00
  1.957874e+01    1.333616e+00
  1.961049e+01    1.315765e+00
  1.964224e+01    1.314978e+00
  1.967399e+01    1.284184e+00
  1.970574e+01    1.337526e+00
  1.973749e+01    1.324955e+00
  1.976925e+01    1.308394e+00
  1.980100e+01    1.315998e+00
  1.983275e+01    1.297007e+00
  1.986450e+01    1.294717e+00
  1.989625e+01    1.282010e+00
  1.992800e+01    1.301875e+00
  1.995975e+01    1.294625e+00
  1.999150e+01    1.270153e+00
  2.002325e+01    1.263727e+00
  2.005501e+01    1.269201e+00
  2.008676e+01    1.274408e+00
  2.011851e+01    1.251215e+00
  2.015026e+01    1.282655e+00
  2.018201e+01    1.294230e+00
  2.021376e+01    1.264237e+00
  2.024551e+01    1.265821e+00
  2.027726e+01    1.265449e+00
  2.030902e+01    1.282690e+00
  2.034077e+01    1.250097e+00
  2.037252e+01    1.258878e+00
  2.040427e+01    1.247118e+00
  2.043602e+01    1.218908e+00
  2.046777e+01    1.265342e+00
  2.049952e+01    1.235959e+00
  2.053127e+01    1.222606e+00
  2.056302e+01    1.239988e+00
  2.059478e+01    1.254012e+00
  2.062653e+01    1.229638e+00
  2.065828e+01    1.216754e+00
  2.069003e+01    1.213464e+00
  2.072178e+01    1.240637e+00
  2.075353e+01    1.211928e+00
  2.078528e+01    1.230806e+00
  2.081703e+01    1.226099e+00
  2.084878e+01    1.248024e+00
  2.088054e+01    1.231457e+00
  2.091229e+01    1.219614e+00
  2.094404e+01    1.218184e+00
  2.097579e+01    1.206311e+00
  2.100754e+01    1.221251e+00
  2.103929e+01    1.238853e+00
  2.107104e+01    1.225392e+00
  2.110279e+01    1.235401e+00
  2.113455e+01    1.233947e+00
  2.116630e+01    1.245907e+00
  2.119805e+01    1.253692e+00
  2.122980e+01    1.254012e+00
  2.126155e+01    1.244864e+00
  2.129330e+01    1.268570e+00
  2.132505e+01    1.282305e+00
  2.135680e+01    1.277448e+00
  2.138855e+01    1.274443e+00
  2.142031e+01    1.334119e+00
  2.145206e+01    1.339432e+00
  2.148381e+01    1.367129e+00
  2.151556e+01    1.457941e+00
  2.154731e+01    1.520670e+00
  2.157906e+01    1.607639e+00
  2.161081e+01    1.736193e+00
  2.164256e+01    1.960517e+00
  2.167431e+01    2.252912e+00
  2.170607e+01    2.743102e+00
  2.173782e+01    3.498006e+00
  2.176957e+01    4.562709e+00
  2.180132e+01    5.744737e+00
  2.183307e+01    7.103702e+00
  2.186482e+01    8.316237e+00
  2.189657e+01    8.874980e+00
  2.192832e+01    8.246297e+00
  2.196007e+01    6.677789e+00
  2.199183e+01    4.910102e+00
  2.202358e+01    3.641193e+00
  2.205533e+01    2.867145e+00
  2.208708e+01    2.337852e+00
  2.211883e+01    1.995893e+00
  2.215058e+01    1.777500e+00
  2.218233e+01    1.618674e+00
  2.221408e+01    1.511790e+00
  2.224584e+01    1.418822e+00
  2.227759e+01    1.322546e+00
  2.230934e+01    1.289832e+00
  2.234109e+01    1.250969e+00
  2.237284e+01    1.225146e+00
  2.240459e+01    1.191862e+00
  2.243634e+01    1.174107e+00
  2.246809e+01    1.173040e+00
  2.249984e+01    1.146535e+00
  2.253160e+01    1.124839e+00
  2.256335e+01    1.122623e+00
  2.259510e+01    1.120108e+00
  2.262685e+01    1.106241e+00
  2.265860e+01    1.099909e+00
  2.269035e+01    1.086971e+00
  2.272210e+01    1.074065e+00
  2.275385e+01    1.087345e+00
  2.278560e+01    1.057587e+00
  2.281736e+01    1.043674e+00
  2.284911e+01    1.056674e+00
  2.288086e+01    1.038206e+00
  2.291261e+01    1.038112e+00
  2.294436e+01    1.019986e+00
  2.297611e+01    1.038060e+00
  2.300786e+01    1.028588e+00
  2.303961e+01    1.031985e+00
  2.307137e+01    1.001451e+00
  2.310312e+01    9.977405e-01
  2.313487e+01    1.014291e+00
  2.316662e+01    9.966690e-01
  2.319837e+01    1.022716e+00
  2.323012e+01    9.874694e-01
  2.326187e+01    9.625040e-01
  2.329362e+01    9.854671e-01
  2.332537e+01    9.878401e-01
  2.335713e+01    9.823743e-01
  2.338888e+01    9.787141e-01
  2.342063e+01    9.632965e-01
  2.345238e+01    9.628106e-01
  2.348413e+01    9.512571e-01
  2.351588e+01    9.659835e-01
  2.354763e+01    9.374842e-01
  2.357938e+01    9.557734e-01
  2.361113e+01    9.511153e-01
  2.364289e+01    9.588689e-01
  2.367464e+01    9.404076e-01
  2.370639e+01    9.598114e-01
  2.373814e+01    9.272596e-01
  2.376989e+01    9.232917e-01
  2.380164e+01    9.116921e-01
  2.383339e+01    9.224018e-01
  2.386514e+01    8.938267e-01
  2.389689e+01    9.337847e-01
  2.392865e+01    9.110052e-01
  2.396040e+01    9.026064e-01
  2.399215e+01    9.017921e-01
  2.402390e+01    9.119113e-01
  2.405565e+01    9.056846e-01
  2.408740e+01    8.722730e-01
  2.411915e+01    8.868169e-01
  2.415090e+01    8.847043e-01
  2.418266e+01    8.773465e-01
  2.421441e+01    8.806489e-01
  2.424616e+01    8.601178e-01
  2.427791e+01    9.020991e-01
  2.430966e+01    8.968327e-01
  2.434141e+01    8.794382e-01
  2.437316e+01    8.967769e-01
  2.440491e+01    8.818669e-01
  2.443666e+01    9.147778e-01
  2.446842e+01    8.932155e-01
  2.450017e+01    8.820049e-01
  2.453192e+01    9.033299e-01
  2.456367e+01    8.862743e-01
  2.459542e+01    9.088209e-01
  2.462717e+01    8.894673e-01
  2.465892e+01    8.935438e-01
  2.469067e+01    9.046543e-01
  2.472242e+01    8.826567e-01
  2.475418e+01    9.013818e-01
  2.478593e+01    8.759183e-01
  2.481768e+01    8.716840e-01
  2.484943e+01    9.024441e-01
  2.488118e+01    8.933893e-01
  2.491293e+01    8.869767e-01
  2.494468e+01    8.997627e-01
  2.497643e+01    8.957455e-01
  2.500819e+01    8.976923e-01
  2.503994e+01    9.133790e-01
  2.507169e+01    8.984293e-01
  2.510344e+01    9.058455e-01
  2.513519e+01    9.029704e-01
  2.516694e+01    8.961493e-01
  2.519869e+01    9.336434e-01
  2.523044e+01    9.299886e-01
  2.526219e+01    9.382516e-01
  2.529395e+01    9.683558e-01
  2.532570e+01    9.542168e-01
  2.535745e+01    9.741409e-01
  2.538920e+01    1.000742e+00
  2.542095e+01    1.029505e+00
  2.545270e+01    1.019096e+00
  2.548445e+01    1.036623e+00
  2.551620e+01    1.075028e+00
  2.554795e+01    1.116707e+00
  2.557971e+01    1.142857e+00
  2.561146e+01    1.223039e+00
  2.564321e+01    1.309844e+00
  2.567496e+01    1.415283e+00
  2.570671e+01    1.588958e+00
  2.573846e+01    1.817837e+00
  2.577021e+01    2.207942e+00
  2.580196e+01    2.726667e+00
  2.583371e+01    3.561356e+00
  2.586547e+01    4.601475e+00
  2.589722e+01    5.701568e+00
  2.592897e+01    6.628533e+00
  2.596072e+01    7.061228e+00
  2.599247e+01    6.566002e+00
  2.602422e+01    5.284267e+00
  2.605597e+01    4.038745e+00
  2.608772e+01    3.009833e+00
  2.611948e+01    2.403054e+00
  2.615123e+01    1.968503e+00
  2.618298e+01    1.684787e+00
  2.621473e+01    1.477289e+00
  2.624648e+01    1.337640e+00
  2.627823e+01    1.238484e+00
  2.630998e+01    1.179111e+00
  2.634173e+01    1.103566e+00
  2.637348e+01    1.064387e+00
  2.640524e+01    1.070212e+00
  2.643699e+01    1.015971e+00
  2.646874e+01    1.002719e+00
  2.650049e+01    9.948055e-01
  2.653224e+01    9.942497e-01
  2.656399e+01    1.002813e+00
  2.659574e+01    9.828749e-01
  2.662749e+01    9.733467e-01
  2.665924e+01    9.650488e-01
  2.669100e+01    9.608394e-01
  2.672275e+01    9.458480e-01
  2.675450e+01    9.839712e-01
  2.678625e+01    9.601075e-01
  2.681800e+01    9.723661e-01
  2.684975e+01    9.851171e-01
  2.688150e+01    9.878699e-01
  2.691325e+01    1.022393e+00
  2.694501e+01    1.032596e+00
  2.697676e+01    1.036209e+00
  2.700851e+01    1.082477e+00
  2.704026e+01    1.174214e+00
  2.707201e+01    1.290202e+00
  2.710376e+01    1.465246e+00
  2.713551e+01    1.733490e+00
  2.716726e+01    1.958731e+00
  2.719901e+01    2.130268e+00
  2.723077e+01    2.162606e+00
  2.726252e+01    1.982896e+00
  2.729427e+01    1.708327e+00
  2.732602e+01    1.435725e+00
  2.735777e+01    1.268847e+00
  2.738952e+01    1.184825e+00
  2.742127e+01    1.082022e+00
  2.745302e+01    1.036587e+00
  2.748477e+01    1.018747e+00
  2.751653e+01    9.665678e-01
  2.754828e+01    9.547903e-01
  2.758003e+01    9.177336e-01
  2.761178e+01    9.246624e-01
  2.764353e+01    9.055662e-01
  2.767528e+01    9.406157e-01
  2.770703e+01    9.288694e-01
  2.773878e+01    9.117876e-01
  2.777054e+01    8.716612e-01
  2.780229e+01    8.668557e-01
  2.783404e+01    8.932194e-01
  2.786579e+01    8.546235e-01
  2.789754e+01    8.728573e-01
  2.792929e+01    8.699031e-01
  2.796104e+01    8.478470e-01
  2.799279e+01    8.752753e-01
  2.802454e+01    8.618465e-01
  2.805630e+01    8.664079e-01
  2.808805e+01    8.812856e-01
  2.811980e+01    8.608638e-01
  2.815155e+01    8.474038e-01
  2.818330e+01    8.594895e-01
  2.821505e+01    8.448005e-01
  2.824680e+01    8.543297e-01
  2.827855e+01    8.523267e-01
  2.831030e+01    8.492183e-01
  2.834206e+01    8.302916e-01
  2.837381e+01    8.245287e-01
  2.840556e+01    8.354496e-01
  2.843731e+01    8.571815e-01
  2.846906e+01    8.395312e-01
  2.850081e+01    8.359111e-01
  2.853256e+01    8.509477e-01
  2.856431e+01    8.334748e-01
  2.859606e+01    8.379110e-01
  2.862782e+01    8.245978e-01
  2.865957e+01    8.222795e-01
  2.869132e+01    8.335994e-01
  2.872307e+01    8.382486e-01
  2.875482e+01    8.356784e-01
  2.878657e+01    8.307778e-01
  2.881832e+01    8.231745e-01
  2.885007e+01    8.081573e-01
  2.888183e+01    8.247275e-01
  2.891358e+01    7.988794e-01
  2.894533e+01    8.419425e-01
  2.897708e+01    8.195870e-01
  2.900883e+01    8.111324e-01
  2.904058e+01    8.106246e-01
  2.907233e+01    8.027828e-01
  2.910408e+01    8.132201e-01
  2.913583e+01    8.070758e-01
  2.916759e+01    8.182587e-01
  2.919934e+01    8.227615e-01
  2.923109e+01    7.995778e-01
  2.926284e+01    8.042730e-01
  2.929459e+01    8.008056e-01
  2.932634e+01    7.935885e-01
  2.935809e+01    8.170106e-01
  2.938984e+01    8.290128e-01
  2.942159e+01    7.936115e-01
  2.945335e+01    7.927352e-01
  2.948510e+01    7.821864e-01
  2.951685e+01    8.137596e-01
  2.954860e+01    8.110195e-01
  2.958035e+01    7.842332e-01
  2.961210e+01    8.070102e-01
  2.964385e+01    8.070759e-01
  2.967560e+01    8.034242e-01
  2.970736e+01    7.824391e-01
  2.973911e+01    7.846200e-01
  2.977086e+01    7.747454e-01
  2.980261e+01    7.919331e-01
  2.983436e+01    7.668799e-01
  2.986611e+01    8.031037e-01
  2.989786e+01    8.027908e-01
  2.992961e+01    7.782882e-01
  2.996136e+01    7.946354e-01
  2.999312e+01    8.019481e-01
  3.002487e+01    7.949067e-01
  3.005662e+01    8.235189e-01
  3.008837e+01    8.291380e-01
  3.012012e+01    7.973333e-01
  3.015187e+01    7.935267e-01
  3.018362e+01    7.916982e-01
  3.021537e+01    7.874867e-01
  3.024712e+01    7.949210e-01
  3.027888e+01    7.911179e-01
  3.031063e+01    7.907928e-01
  3.034238e+01    7.658852e-01
  3.037413e+01    8.006775e-01
  3.040588e+01    7.777215e-01
  3.043763e+01    7.876819e-01
  3.046938e+01    7.868195e-01
  3.050113e+01    7.857971e-01
  3.053288e+01    7.696733e-01
  3.056464e+01    7.998119e-01
  3.059639e+01    7.645396e-01
  3.062814e+01    7.784576e-01
  3.065989e+01    7.749801e-01
  3.069164e+01    7.939103e-01
  3.072339e+01    7.533378e-01
  3.075514e+01    8.102045e-01
  3.078689e+01    7.770162e-01
  3.081865e+01    7.774415e-01
  3.085040e+01    7.808581e-01
  3.088215e+01    7.828007e-01
  3.091390e+01    7.906455e-01
  3.094565e+01    7.968084e-01
  3.097740e+01    7.990848e-01
  3.100915e+01    8.052591e-01
  3.104090e+01    7.768646e-01
  3.107265e+01    7.788657e-01
  3.110441e+01    7.843994e-01
  3.113616e+01    7.838235e-01
  3.116791e+01    7.890093e-01
  3.119966e+01    7.762886e-01
  3.123141e+01    7.995937e-01
  3.126316e+01    7.999145e-01
  3.129491e+01    7.982128e-01
  3.132666e+01    7.960140e-01
  3.135841e+01    7.931973e-01
  3.139017e+01    8.088494e-01
  3.142192e+01    7.968711e-01
  3.145367e+01    8.304363e-01
  3.148542e+01    8.168869e-01
  3.151717e+01    8.103148e-01
  3.154892e+01    8.162214e-01
  3.158067e+01    8.881307e-01
  3.161242e+01    8.917081e-01
  3.164418e+01    9.007003e-01
  3.167593e+01    9.150194e-01
  3.170768e+01    1.030370e+00
  3.173943e+01    1.112662e+00
  3.177118e+01    1.243109e+00
  3.180293e+01    1.421425e+00
  3.183468e+01    1.681036e+00
  3.186643e+01    1.890978e+00
  3.189818e+01    2.113160e+00
  3.192994e+01    2.023636e+00
  3.196169e+01    1.835036e+00
  3.199344e+01    1.563452e+00
  3.202519e+01    1.324080e+00
  3.205694e+01    1.161417e+00
  3.208869e+01    1.063644e+00
  3.212044e+01    9.590515e-01
  3.215219e+01    9.229215e-01
  3.218394e+01    8.829421e-01
  3.221570e+01    8.662911e-01
  3.224745e+01    8.353300e-01
  3.227920e+01    8.129222e-01
  3.231095e+01    8.233104e-01
  3.234270e+01    8.043656e-01
  3.237445e+01    7.862346e-01
  3.240620e+01    7.780238e-01
  3.243795e+01    7.774432e-01
  3.246970e+01    7.658749e-01
  3.250146e+01    7.664033e-01
  3.253321e+01    7.616197e-01
  3.254908e+01    7.587575e-01