File: XRD/Reaction conditions/2024-07-27_003_Ru-CGO-ex_Reaction_dwell_000023_data_000006.dat
# == pyFAI calibration ==
# Distance Sample to Detector: 0.4 m
# PONI: 9.750e-02, 1.135e-01 m
# Rotations: -0.000175 0.000000 -0.000000 rad
#
# == Fit2d calibration ==
# Distance Sample-beamCenter: 400.000 mm
# Center: x=1514.000, y=1300.000 pix
# Tilt: 0.010 deg  TiltPlanRot: 0.010 deg
#
# Detector Detector	 Spline= None	 PixelSize= 7.500e-05, 7.500e-05 m
#    Detector has a mask: False
#    Detector has a dark current: False
#    detector has a flat field: False
#
# Wavelength: 6.888e-11 m
# Mask applied: user provided
# Dark current applied: False
# Flat field applied: False
# Polarization factor: 0.99
# Normalization factor: 1.0
# --> /home/myspot/data/2024_07_Rosario/Ru-CGO-ex/2024-07-27_003_Ru-CGO-ex_Reaction_dwell_000023_data_000006.dat
#       q_nm^-1             I
  2.003187e-02    0.000000e+00
  5.178302e-02    1.012208e-01
  8.353417e-02    1.433775e-01
  1.152853e-01    1.012968e-01
  1.470365e-01    1.646052e-02
  1.787876e-01    2.921974e-02
  2.105388e-01    4.925485e-02
  2.422899e-01    3.920800e-02
  2.740411e-01    4.304346e-02
  3.057922e-01    7.205034e-02
  3.375433e-01    3.994397e-02
  3.692945e-01    5.820633e-02
  4.010456e-01    3.622361e-02
  4.327968e-01    6.040666e-02
  4.645479e-01    3.651351e-02
  4.962991e-01    4.497132e-02
  5.280502e-01    3.574075e-02
  5.598014e-01    2.808493e-02
  5.915525e-01    4.595907e-02
  6.233037e-01    4.429988e-02
  6.550548e-01    5.522429e-02
  6.868060e-01    2.589289e-02
  7.185571e-01    4.954126e-02
  7.503083e-01    5.454972e-02
  7.820594e-01    1.198301e-01
  8.138106e-01    2.080820e-01
  8.455617e-01    3.976260e-01
  8.773129e-01    4.157785e-01
  9.090640e-01    6.005153e-01
  9.408152e-01    8.179339e-01
  9.725663e-01    9.681283e-01
  1.004317e+00    1.215094e+00
  1.036069e+00    1.402941e+00
  1.067820e+00    1.387553e+00
  1.099571e+00    1.643099e+00
  1.131322e+00    1.670589e+00
  1.163073e+00    1.716954e+00
  1.194824e+00    1.810008e+00
  1.226575e+00    2.117677e+00
  1.258327e+00    2.458341e+00
  1.290078e+00    2.655097e+00
  1.321829e+00    2.612259e+00
  1.353580e+00    2.806805e+00
  1.385331e+00    2.953236e+00
  1.417082e+00    2.967638e+00
  1.448834e+00    2.979096e+00
  1.480585e+00    3.087040e+00
  1.512336e+00    3.136333e+00
  1.544087e+00    3.235811e+00
  1.575838e+00    3.203632e+00
  1.607589e+00    3.199018e+00
  1.639340e+00    3.199651e+00
  1.671092e+00    3.203186e+00
  1.702843e+00    3.142458e+00
  1.734594e+00    3.224241e+00
  1.766345e+00    3.006783e+00
  1.798096e+00    3.167563e+00
  1.829847e+00    3.137085e+00
  1.861598e+00    3.095357e+00
  1.893350e+00    3.110693e+00
  1.925101e+00    3.006010e+00
  1.956852e+00    3.082544e+00
  1.988603e+00    3.090965e+00
  2.020354e+00    3.040137e+00
  2.052105e+00    3.032959e+00
  2.083856e+00    3.195668e+00
  2.115608e+00    3.234614e+00
  2.147359e+00    3.120103e+00
  2.179110e+00    3.099964e+00
  2.210861e+00    3.118836e+00
  2.242612e+00    3.065195e+00
  2.274363e+00    3.104289e+00
  2.306115e+00    3.236493e+00
  2.337866e+00    3.193322e+00
  2.369617e+00    3.262644e+00
  2.401368e+00    3.130741e+00
  2.433119e+00    3.118913e+00
  2.464870e+00    3.194778e+00
  2.496621e+00    3.184702e+00
  2.528373e+00    3.167897e+00
  2.560124e+00    3.196652e+00
  2.591875e+00    3.251474e+00
  2.623626e+00    3.213724e+00
  2.655377e+00    3.322277e+00
  2.687128e+00    3.255548e+00
  2.718879e+00    3.270008e+00
  2.750631e+00    3.205652e+00
  2.782382e+00    3.262658e+00
  2.814133e+00    3.369919e+00
  2.845884e+00    3.291644e+00
  2.877635e+00    3.355635e+00
  2.909386e+00    3.451243e+00
  2.941137e+00    3.271608e+00
  2.972889e+00    3.346252e+00
  3.004640e+00    3.394647e+00
  3.036391e+00    3.355834e+00
  3.068142e+00    3.422795e+00
  3.099893e+00    3.276317e+00
  3.131644e+00    3.296995e+00
  3.163395e+00    3.429718e+00
  3.195147e+00    3.382692e+00
  3.226898e+00    3.319602e+00
  3.258649e+00    3.405741e+00
  3.290400e+00    3.359512e+00
  3.322151e+00    3.468986e+00
  3.353902e+00    3.423685e+00
  3.385654e+00    3.439580e+00
  3.417405e+00    3.420597e+00
  3.449156e+00    3.476854e+00
  3.480907e+00    3.497301e+00
  3.512658e+00    3.508873e+00
  3.544409e+00    3.586907e+00
  3.576160e+00    3.461407e+00
  3.607912e+00    3.426454e+00
  3.639663e+00    3.452180e+00
  3.671414e+00    3.529207e+00
  3.703165e+00    3.541331e+00
  3.734916e+00    3.517435e+00
  3.766667e+00    3.438281e+00
  3.798418e+00    3.479912e+00
  3.830170e+00    3.577062e+00
  3.861921e+00    3.462217e+00
  3.893672e+00    3.548283e+00
  3.925423e+00    3.566594e+00
  3.957174e+00    3.662624e+00
  3.988925e+00    3.615407e+00
  4.020676e+00    3.600919e+00
  4.052428e+00    3.504362e+00
  4.084179e+00    3.479171e+00
  4.115930e+00    3.702974e+00
  4.147681e+00    3.570068e+00
  4.179432e+00    3.593708e+00
  4.211183e+00    3.696945e+00
  4.242935e+00    3.608867e+00
  4.274686e+00    3.607845e+00
  4.306437e+00    3.583522e+00
  4.338188e+00    3.593345e+00
  4.369939e+00    3.566560e+00
  4.401690e+00    3.606897e+00
  4.433441e+00    3.600997e+00
  4.465193e+00    3.633669e+00
  4.496944e+00    3.659224e+00
  4.528695e+00    3.611465e+00
  4.560446e+00    3.645370e+00
  4.592197e+00    3.663470e+00
  4.623948e+00    3.641990e+00
  4.655699e+00    3.606675e+00
  4.687451e+00    3.642554e+00
  4.719202e+00    3.665591e+00
  4.750953e+00    3.601739e+00
  4.782704e+00    3.635246e+00
  4.814455e+00    3.535374e+00
  4.846206e+00    3.630095e+00
  4.877957e+00    3.664649e+00
  4.909709e+00    3.657300e+00
  4.941460e+00    3.564376e+00
  4.973211e+00    3.675440e+00
  5.004962e+00    3.727427e+00
  5.036713e+00    3.742365e+00
  5.068464e+00    3.635689e+00
  5.100216e+00    3.730972e+00
  5.131967e+00    3.612079e+00
  5.163718e+00    3.632921e+00
  5.195469e+00    3.720683e+00
  5.227220e+00    3.636494e+00
  5.258971e+00    3.648456e+00
  5.290722e+00    3.648754e+00
  5.322474e+00    3.605190e+00
  5.354225e+00    3.676372e+00
  5.385976e+00    3.734643e+00
  5.417727e+00    3.607109e+00
  5.449478e+00    3.515449e+00
  5.481229e+00    3.578280e+00
  5.512980e+00    3.536548e+00
  5.544732e+00    3.572010e+00
  5.576483e+00    3.602353e+00
  5.608234e+00    3.627490e+00
  5.639985e+00    3.602133e+00
  5.671736e+00    3.677878e+00
  5.703487e+00    3.591255e+00
  5.735238e+00    3.604333e+00
  5.766990e+00    3.634685e+00
  5.798741e+00    3.681600e+00
  5.830492e+00    3.601663e+00
  5.862243e+00    3.591907e+00
  5.893994e+00    3.522261e+00
  5.925745e+00    3.632401e+00
  5.957497e+00    3.592990e+00
  5.989248e+00    3.415682e+00
  6.020999e+00    3.640151e+00
  6.052750e+00    3.470392e+00
  6.084501e+00    3.483786e+00
  6.116252e+00    3.668884e+00
  6.148003e+00    3.634887e+00
  6.179755e+00    3.718959e+00
  6.211506e+00    3.537092e+00
  6.243257e+00    3.639327e+00
  6.275008e+00    3.619145e+00
  6.306759e+00    3.529372e+00
  6.338510e+00    3.522379e+00
  6.370261e+00    3.589841e+00
  6.402013e+00    3.624732e+00
  6.433764e+00    3.556910e+00
  6.465515e+00    3.495902e+00
  6.497266e+00    3.615795e+00
  6.529017e+00    3.548776e+00
  6.560768e+00    3.653366e+00
  6.592519e+00    3.641666e+00
  6.624271e+00    3.524307e+00
  6.656022e+00    3.613351e+00
  6.687773e+00    3.527830e+00
  6.719524e+00    3.657765e+00
  6.751275e+00    3.565876e+00
  6.783026e+00    3.576679e+00
  6.814777e+00    3.519519e+00
  6.846529e+00    3.599004e+00
  6.878280e+00    3.579076e+00
  6.910031e+00    3.609186e+00
  6.941782e+00    3.558048e+00
  6.973533e+00    3.445066e+00
  7.005284e+00    3.637048e+00
  7.037036e+00    3.446282e+00
  7.068787e+00    3.559541e+00
  7.100538e+00    3.512712e+00
  7.132289e+00    3.531097e+00
  7.164040e+00    3.567207e+00
  7.195791e+00    3.515260e+00
  7.227542e+00    3.513725e+00
  7.259294e+00    3.473546e+00
  7.291045e+00    3.544821e+00
  7.322796e+00    3.463795e+00
  7.354547e+00    3.577751e+00
  7.386298e+00    3.511182e+00
  7.418049e+00    3.521625e+00
  7.449800e+00    3.529632e+00
  7.481552e+00    3.477252e+00
  7.513303e+00    3.568007e+00
  7.545054e+00    3.489677e+00
  7.576805e+00    3.560139e+00
  7.608556e+00    3.498539e+00
  7.640307e+00    3.462600e+00
  7.672058e+00    3.462526e+00
  7.703810e+00    3.512727e+00
  7.735561e+00    3.567885e+00
  7.767312e+00    3.492372e+00
  7.799063e+00    3.366228e+00
  7.830814e+00    3.447535e+00
  7.862565e+00    3.432467e+00
  7.894317e+00    3.440016e+00
  7.926068e+00    3.421028e+00
  7.957819e+00    3.468180e+00
  7.989570e+00    3.391794e+00
  8.021321e+00    3.428466e+00
  8.053072e+00    3.469131e+00
  8.084823e+00    3.435697e+00
  8.116575e+00    3.475296e+00
  8.148326e+00    3.542404e+00
  8.180077e+00    3.450923e+00
  8.211828e+00    3.503935e+00
  8.243579e+00    3.472119e+00
  8.275330e+00    3.389076e+00
  8.307081e+00    3.387572e+00
  8.338833e+00    3.345725e+00
  8.370584e+00    3.468606e+00
  8.402335e+00    3.484342e+00
  8.434086e+00    3.453653e+00
  8.465837e+00    3.360905e+00
  8.497588e+00    3.391870e+00
  8.529339e+00    3.446635e+00
  8.561091e+00    3.331212e+00
  8.592842e+00    3.350182e+00
  8.624593e+00    3.322515e+00
  8.656344e+00    3.327329e+00
  8.688095e+00    3.365799e+00
  8.719846e+00    3.360758e+00
  8.751598e+00    3.392234e+00
  8.783349e+00    3.389923e+00
  8.815100e+00    3.362352e+00
  8.846851e+00    3.329483e+00
  8.878602e+00    3.306508e+00
  8.910353e+00    3.410525e+00
  8.942104e+00    3.358560e+00
  8.973856e+00    3.336831e+00
  9.005607e+00    3.313382e+00
  9.037358e+00    3.376028e+00
  9.069109e+00    3.357629e+00
  9.100860e+00    3.364766e+00
  9.132611e+00    3.334816e+00
  9.164362e+00    3.270097e+00
  9.196114e+00    3.301090e+00
  9.227865e+00    3.287085e+00
  9.259616e+00    3.231426e+00
  9.291367e+00    3.268288e+00
  9.323118e+00    3.305509e+00
  9.354869e+00    3.240991e+00
  9.386620e+00    3.287848e+00
  9.418372e+00    3.284538e+00
  9.450123e+00    3.227885e+00
  9.481874e+00    3.211959e+00
  9.513625e+00    3.180255e+00
  9.545376e+00    3.230225e+00
  9.577127e+00    3.240173e+00
  9.608878e+00    3.217850e+00
  9.640630e+00    3.265122e+00
  9.672381e+00    3.262062e+00
  9.704132e+00    3.219347e+00
  9.735883e+00    3.171660e+00
  9.767634e+00    3.221462e+00
  9.799385e+00    3.112703e+00
  9.831137e+00    3.172423e+00
  9.862888e+00    3.217395e+00
  9.894639e+00    3.163756e+00
  9.926390e+00    3.172455e+00
  9.958141e+00    3.108448e+00
  9.989892e+00    3.166521e+00
  1.002164e+01    3.149417e+00
  1.005339e+01    3.123543e+00
  1.008515e+01    3.128134e+00
  1.011690e+01    3.124699e+00
  1.014865e+01    3.070782e+00
  1.018040e+01    3.041798e+00
  1.021215e+01    3.110657e+00
  1.024390e+01    3.080287e+00
  1.027565e+01    3.027484e+00
  1.030740e+01    3.130529e+00
  1.033915e+01    3.008968e+00
  1.037091e+01    3.094387e+00
  1.040266e+01    3.015036e+00
  1.043441e+01    3.061129e+00
  1.046616e+01    3.040311e+00
  1.049791e+01    2.997272e+00
  1.052966e+01    3.017027e+00
  1.056141e+01    2.984674e+00
  1.059316e+01    3.021974e+00
  1.062492e+01    3.023797e+00
  1.065667e+01    2.979513e+00
  1.068842e+01    2.998277e+00
  1.072017e+01    2.979003e+00
  1.075192e+01    3.024472e+00
  1.078367e+01    2.956632e+00
  1.081542e+01    2.945923e+00
  1.084717e+01    2.973948e+00
  1.087892e+01    2.951951e+00
  1.091068e+01    2.966596e+00
  1.094243e+01    2.957776e+00
  1.097418e+01    2.930180e+00
  1.100593e+01    2.901881e+00
  1.103768e+01    2.899150e+00
  1.106943e+01    2.954835e+00
  1.110118e+01    2.928332e+00
  1.113293e+01    2.879297e+00
  1.116468e+01    2.912347e+00
  1.119644e+01    2.924134e+00
  1.122819e+01    2.866819e+00
  1.125994e+01    2.843238e+00
  1.129169e+01    2.815458e+00
  1.132344e+01    2.858857e+00
  1.135519e+01    2.842047e+00
  1.138694e+01    2.822280e+00
  1.141869e+01    2.891356e+00
  1.145045e+01    2.877125e+00
  1.148220e+01    2.810888e+00
  1.151395e+01    2.790430e+00
  1.154570e+01    2.805960e+00
  1.157745e+01    2.842459e+00
  1.160920e+01    2.795778e+00
  1.164095e+01    2.736389e+00
  1.167270e+01    2.738276e+00
  1.170445e+01    2.787907e+00
  1.173621e+01    2.807627e+00
  1.176796e+01    2.745903e+00
  1.179971e+01    2.709623e+00
  1.183146e+01    2.726027e+00
  1.186321e+01    2.728651e+00
  1.189496e+01    2.692545e+00
  1.192671e+01    2.730375e+00
  1.195846e+01    2.737365e+00
  1.199021e+01    2.737494e+00
  1.202197e+01    2.739324e+00
  1.205372e+01    2.709132e+00
  1.208547e+01    2.734761e+00
  1.211722e+01    2.708813e+00
  1.214897e+01    2.726589e+00
  1.218072e+01    2.730274e+00
  1.221247e+01    2.698610e+00
  1.224422e+01    2.709968e+00
  1.227597e+01    2.731797e+00
  1.230773e+01    2.713839e+00
  1.233948e+01    2.706283e+00
  1.237123e+01    2.678134e+00
  1.240298e+01    2.690959e+00
  1.243473e+01    2.769059e+00
  1.246648e+01    2.723389e+00
  1.249823e+01    2.727520e+00
  1.252998e+01    2.740794e+00
  1.256174e+01    2.783742e+00
  1.259349e+01    2.748552e+00
  1.262524e+01    2.763023e+00
  1.265699e+01    2.794605e+00
  1.268874e+01    2.830737e+00
  1.272049e+01    2.822049e+00
  1.275224e+01    2.870933e+00
  1.278399e+01    2.944663e+00
  1.281574e+01    3.012911e+00
  1.284750e+01    3.151138e+00
  1.287925e+01    3.404840e+00
  1.291100e+01    3.715911e+00
  1.294275e+01    4.052057e+00
  1.297450e+01    4.745296e+00
  1.300625e+01    5.962753e+00
  1.303800e+01    7.603187e+00
  1.306975e+01    1.009031e+01
  1.310150e+01    1.270674e+01
  1.313326e+01    1.478303e+01
  1.316501e+01    1.620720e+01
  1.319676e+01    1.569744e+01
  1.322851e+01    1.242691e+01
  1.326026e+01    9.056505e+00
  1.329201e+01    6.781035e+00
  1.332376e+01    5.312407e+00
  1.335551e+01    4.462873e+00
  1.338727e+01    3.881095e+00
  1.341902e+01    3.514078e+00
  1.345077e+01    3.271631e+00
  1.348252e+01    3.060602e+00
  1.351427e+01    2.927158e+00
  1.354602e+01    2.799761e+00
  1.357777e+01    2.743223e+00
  1.360952e+01    2.704130e+00
  1.364127e+01    2.661559e+00
  1.367303e+01    2.591364e+00
  1.370478e+01    2.521148e+00
  1.373653e+01    2.505019e+00
  1.376828e+01    2.511028e+00
  1.380003e+01    2.472567e+00
  1.383178e+01    2.475628e+00
  1.386353e+01    2.460152e+00
  1.389528e+01    2.398359e+00
  1.392703e+01    2.434280e+00
  1.395879e+01    2.405877e+00
  1.399054e+01    2.369966e+00
  1.402229e+01    2.374805e+00
  1.405404e+01    2.344926e+00
  1.408579e+01    2.364434e+00
  1.411754e+01    2.325795e+00
  1.414929e+01    2.339298e+00
  1.418104e+01    2.296862e+00
  1.421279e+01    2.293806e+00
  1.424455e+01    2.291143e+00
  1.427630e+01    2.290165e+00
  1.430805e+01    2.241481e+00
  1.433980e+01    2.268330e+00
  1.437155e+01    2.231230e+00
  1.440330e+01    2.228315e+00
  1.443505e+01    2.278254e+00
  1.446680e+01    2.244565e+00
  1.449856e+01    2.244075e+00
  1.453031e+01    2.189733e+00
  1.456206e+01    2.187881e+00
  1.459381e+01    2.261257e+00
  1.462556e+01    2.237212e+00
  1.465731e+01    2.253766e+00
  1.468906e+01    2.195926e+00
  1.472081e+01    2.222291e+00
  1.475256e+01    2.208336e+00
  1.478432e+01    2.178252e+00
  1.481607e+01    2.246192e+00
  1.484782e+01    2.243894e+00
  1.487957e+01    2.240963e+00
  1.491132e+01    2.207878e+00
  1.494307e+01    2.327155e+00
  1.497482e+01    2.315376e+00
  1.500657e+01    2.454325e+00
  1.503832e+01    2.630515e+00
  1.507008e+01    2.801366e+00
  1.510183e+01    3.180898e+00
  1.513358e+01    3.774497e+00
  1.516533e+01    4.537610e+00
  1.519708e+01    5.112030e+00
  1.522883e+01    5.575877e+00
  1.526058e+01    5.789351e+00
  1.529233e+01    5.487551e+00
  1.532409e+01    4.631182e+00
  1.535584e+01    3.791767e+00
  1.538759e+01    3.143912e+00
  1.541934e+01    2.820243e+00
  1.545109e+01    2.511275e+00
  1.548284e+01    2.405313e+00
  1.551459e+01    2.308096e+00
  1.554634e+01    2.178910e+00
  1.557809e+01    2.161842e+00
  1.560985e+01    2.066474e+00
  1.564160e+01    2.022768e+00
  1.567335e+01    2.030151e+00
  1.570510e+01    2.048655e+00
  1.573685e+01    1.981010e+00
  1.576860e+01    1.977098e+00
  1.580035e+01    1.928710e+00
  1.583210e+01    1.944773e+00
  1.586385e+01    1.968171e+00
  1.589561e+01    1.923125e+00
  1.592736e+01    1.933155e+00
  1.595911e+01    1.874324e+00
  1.599086e+01    1.887114e+00
  1.602261e+01    1.858709e+00
  1.605436e+01    1.866499e+00
  1.608611e+01    1.880461e+00
  1.611786e+01    1.854193e+00
  1.614961e+01    1.860071e+00
  1.618137e+01    1.818568e+00
  1.621312e+01    1.844746e+00
  1.624487e+01    1.834628e+00
  1.627662e+01    1.822140e+00
  1.630837e+01    1.815652e+00
  1.634012e+01    1.822987e+00
  1.637187e+01    1.842573e+00
  1.640362e+01    1.767857e+00
  1.643538e+01    1.784068e+00
  1.646713e+01    1.810375e+00
  1.649888e+01    1.757797e+00
  1.653063e+01    1.743909e+00
  1.656238e+01    1.761860e+00
  1.659413e+01    1.756459e+00
  1.662588e+01    1.744399e+00
  1.665763e+01    1.721267e+00
  1.668938e+01    1.725103e+00
  1.672114e+01    1.725215e+00
  1.675289e+01    1.693261e+00
  1.678464e+01    1.716444e+00
  1.681639e+01    1.731412e+00
  1.684814e+01    1.713789e+00
  1.687989e+01    1.680410e+00
  1.691164e+01    1.701533e+00
  1.694339e+01    1.684293e+00
  1.697514e+01    1.713509e+00
  1.700690e+01    1.663488e+00
  1.703865e+01    1.683535e+00
  1.707040e+01    1.665104e+00
  1.710215e+01    1.677539e+00
  1.713390e+01    1.642422e+00
  1.716565e+01    1.634005e+00
  1.719740e+01    1.638628e+00
  1.722915e+01    1.662619e+00
  1.726091e+01    1.645125e+00
  1.729266e+01    1.621847e+00
  1.732441e+01    1.604526e+00
  1.735616e+01    1.594776e+00
  1.738791e+01    1.623062e+00
  1.741966e+01    1.624052e+00
  1.745141e+01    1.596838e+00
  1.748316e+01    1.584557e+00
  1.751491e+01    1.552219e+00
  1.754667e+01    1.551629e+00
  1.757842e+01    1.581247e+00
  1.761017e+01    1.573145e+00
  1.764192e+01    1.561469e+00
  1.767367e+01    1.581658e+00
  1.770542e+01    1.563627e+00
  1.773717e+01    1.556281e+00
  1.776892e+01    1.547077e+00
  1.780067e+01    1.562541e+00
  1.783243e+01    1.554925e+00
  1.786418e+01    1.528255e+00
  1.789593e+01    1.531692e+00
  1.792768e+01    1.513018e+00
  1.795943e+01    1.513479e+00
  1.799118e+01    1.509573e+00
  1.802293e+01    1.487625e+00
  1.805468e+01    1.508377e+00
  1.808643e+01    1.485527e+00
  1.811819e+01    1.473472e+00
  1.814994e+01    1.493846e+00
  1.818169e+01    1.479339e+00
  1.821344e+01    1.490509e+00
  1.824519e+01    1.493218e+00
  1.827694e+01    1.471784e+00
  1.830869e+01    1.463795e+00
  1.834044e+01    1.445199e+00
  1.837220e+01    1.462850e+00
  1.840395e+01    1.480258e+00
  1.843570e+01    1.479386e+00
  1.846745e+01    1.449094e+00
  1.849920e+01    1.455727e+00
  1.853095e+01    1.466805e+00
  1.856270e+01    1.436690e+00
  1.859445e+01    1.457080e+00
  1.862620e+01    1.437992e+00
  1.865796e+01    1.407035e+00
  1.868971e+01    1.432330e+00
  1.872146e+01    1.436155e+00
  1.875321e+01    1.443755e+00
  1.878496e+01    1.453707e+00
  1.881671e+01    1.399613e+00
  1.884846e+01    1.402411e+00
  1.888021e+01    1.397709e+00
  1.891196e+01    1.422916e+00
  1.894372e+01    1.400188e+00
  1.897547e+01    1.390225e+00
  1.900722e+01    1.431249e+00
  1.903897e+01    1.374764e+00
  1.907072e+01    1.382129e+00
  1.910247e+01    1.387926e+00
  1.913422e+01    1.379421e+00
  1.916597e+01    1.384708e+00
  1.919773e+01    1.349345e+00
  1.922948e+01    1.379069e+00
  1.926123e+01    1.361745e+00
  1.929298e+01    1.337619e+00
  1.932473e+01    1.338593e+00
  1.935648e+01    1.359852e+00
  1.938823e+01    1.365270e+00
  1.941998e+01    1.351056e+00
  1.945173e+01    1.359849e+00
  1.948349e+01    1.335116e+00
  1.951524e+01    1.330574e+00
  1.954699e+01    1.331607e+00
  1.957874e+01    1.319419e+00
  1.961049e+01    1.337968e+00
  1.964224e+01    1.295489e+00
  1.967399e+01    1.334353e+00
  1.970574e+01    1.290379e+00
  1.973749e+01    1.283879e+00
  1.976925e+01    1.305137e+00
  1.980100e+01    1.309831e+00
  1.983275e+01    1.291939e+00
  1.986450e+01    1.289426e+00
  1.989625e+01    1.290841e+00
  1.992800e+01    1.297218e+00
  1.995975e+01    1.276251e+00
  1.999150e+01    1.287080e+00
  2.002325e+01    1.302577e+00
  2.005501e+01    1.290169e+00
  2.008676e+01    1.287817e+00
  2.011851e+01    1.295822e+00
  2.015026e+01    1.275743e+00
  2.018201e+01    1.264157e+00
  2.021376e+01    1.268170e+00
  2.024551e+01    1.258867e+00
  2.027726e+01    1.251119e+00
  2.030902e+01    1.269073e+00
  2.034077e+01    1.273071e+00
  2.037252e+01    1.257200e+00
  2.040427e+01    1.270216e+00
  2.043602e+01    1.254275e+00
  2.046777e+01    1.234002e+00
  2.049952e+01    1.263639e+00
  2.053127e+01    1.260182e+00
  2.056302e+01    1.255949e+00
  2.059478e+01    1.240928e+00
  2.062653e+01    1.250260e+00
  2.065828e+01    1.229978e+00
  2.069003e+01    1.255522e+00
  2.072178e+01    1.230247e+00
  2.075353e+01    1.231916e+00
  2.078528e+01    1.254752e+00
  2.081703e+01    1.240234e+00
  2.084878e+01    1.248499e+00
  2.088054e+01    1.244194e+00
  2.091229e+01    1.241167e+00
  2.094404e+01    1.245912e+00
  2.097579e+01    1.219123e+00
  2.100754e+01    1.219679e+00
  2.103929e+01    1.223847e+00
  2.107104e+01    1.216708e+00
  2.110279e+01    1.228141e+00
  2.113455e+01    1.242437e+00
  2.116630e+01    1.235256e+00
  2.119805e+01    1.257292e+00
  2.122980e+01    1.248296e+00
  2.126155e+01    1.227074e+00
  2.129330e+01    1.267496e+00
  2.132505e+01    1.275250e+00
  2.135680e+01    1.263227e+00
  2.138855e+01    1.333767e+00
  2.142031e+01    1.340586e+00
  2.145206e+01    1.349876e+00
  2.148381e+01    1.402647e+00
  2.151556e+01    1.431341e+00
  2.154731e+01    1.505957e+00
  2.157906e+01    1.610480e+00
  2.161081e+01    1.737876e+00
  2.164256e+01    1.982044e+00
  2.167431e+01    2.280387e+00
  2.170607e+01    2.795262e+00
  2.173782e+01    3.479855e+00
  2.176957e+01    4.546526e+00
  2.180132e+01    5.834868e+00
  2.183307e+01    7.137987e+00
  2.186482e+01    8.357561e+00
  2.189657e+01    8.910892e+00
  2.192832e+01    8.262225e+00
  2.196007e+01    6.631510e+00
  2.199183e+01    4.875742e+00
  2.202358e+01    3.695521e+00
  2.205533e+01    2.828037e+00
  2.208708e+01    2.353592e+00
  2.211883e+01    1.992941e+00
  2.215058e+01    1.766482e+00
  2.218233e+01    1.590379e+00
  2.221408e+01    1.497579e+00
  2.224584e+01    1.412568e+00
  2.227759e+01    1.328686e+00
  2.230934e+01    1.292652e+00
  2.234109e+01    1.271854e+00
  2.237284e+01    1.249557e+00
  2.240459e+01    1.220600e+00
  2.243634e+01    1.185222e+00
  2.246809e+01    1.172535e+00
  2.249984e+01    1.147152e+00
  2.253160e+01    1.125433e+00
  2.256335e+01    1.141157e+00
  2.259510e+01    1.109935e+00
  2.262685e+01    1.102946e+00
  2.265860e+01    1.119614e+00
  2.269035e+01    1.083808e+00
  2.272210e+01    1.082814e+00
  2.275385e+01    1.079182e+00
  2.278560e+01    1.075482e+00
  2.281736e+01    1.066820e+00
  2.284911e+01    1.032144e+00
  2.288086e+01    1.028609e+00
  2.291261e+01    1.035777e+00
  2.294436e+01    1.031662e+00
  2.297611e+01    1.047948e+00
  2.300786e+01    1.031762e+00
  2.303961e+01    1.032601e+00
  2.307137e+01    9.925070e-01
  2.310312e+01    1.007589e+00
  2.313487e+01    1.002161e+00
  2.316662e+01    9.904848e-01
  2.319837e+01    1.005911e+00
  2.323012e+01    9.784899e-01
  2.326187e+01    9.891014e-01
  2.329362e+01    9.853660e-01
  2.332537e+01    9.664984e-01
  2.335713e+01    9.803181e-01
  2.338888e+01    9.657807e-01
  2.342063e+01    9.892543e-01
  2.345238e+01    9.700196e-01
  2.348413e+01    9.846578e-01
  2.351588e+01    9.708195e-01
  2.354763e+01    9.753852e-01
  2.357938e+01    9.693425e-01
  2.361113e+01    9.614948e-01
  2.364289e+01    9.728774e-01
  2.367464e+01    9.389014e-01
  2.370639e+01    9.428136e-01
  2.373814e+01    9.604895e-01
  2.376989e+01    9.308108e-01
  2.380164e+01    9.286292e-01
  2.383339e+01    9.065945e-01
  2.386514e+01    9.014001e-01
  2.389689e+01    9.290750e-01
  2.392865e+01    9.068978e-01
  2.396040e+01    9.129794e-01
  2.399215e+01    9.027414e-01
  2.402390e+01    9.085263e-01
  2.405565e+01    8.979937e-01
  2.408740e+01    8.961393e-01
  2.411915e+01    8.800013e-01
  2.415090e+01    9.075153e-01
  2.418266e+01    8.835532e-01
  2.421441e+01    8.952350e-01
  2.424616e+01    8.845372e-01
  2.427791e+01    9.055970e-01
  2.430966e+01    8.802040e-01
  2.434141e+01    8.891313e-01
  2.437316e+01    8.921963e-01
  2.440491e+01    9.034681e-01
  2.443666e+01    8.806134e-01
  2.446842e+01    8.937033e-01
  2.450017e+01    9.017957e-01
  2.453192e+01    9.028580e-01
  2.456367e+01    9.018224e-01
  2.459542e+01    8.895688e-01
  2.462717e+01    9.009113e-01
  2.465892e+01    9.055011e-01
  2.469067e+01    8.880830e-01
  2.472242e+01    9.128646e-01
  2.475418e+01    8.876756e-01
  2.478593e+01    9.007538e-01
  2.481768e+01    8.809153e-01
  2.484943e+01    8.762117e-01
  2.488118e+01    8.867912e-01
  2.491293e+01    8.889211e-01
  2.494468e+01    8.970363e-01
  2.497643e+01    8.952140e-01
  2.500819e+01    9.001197e-01
  2.503994e+01    8.887389e-01
  2.507169e+01    9.012077e-01
  2.510344e+01    8.908129e-01
  2.513519e+01    9.167278e-01
  2.516694e+01    9.055430e-01
  2.519869e+01    9.406807e-01
  2.523044e+01    9.259909e-01
  2.526219e+01    9.486808e-01
  2.529395e+01    9.600902e-01
  2.532570e+01    9.596706e-01
  2.535745e+01    9.599349e-01
  2.538920e+01    9.905476e-01
  2.542095e+01    1.020882e+00
  2.545270e+01    1.017290e+00
  2.548445e+01    1.038330e+00
  2.551620e+01    1.089367e+00
  2.554795e+01    1.100128e+00
  2.557971e+01    1.157356e+00
  2.561146e+01    1.221547e+00
  2.564321e+01    1.303292e+00
  2.567496e+01    1.406405e+00
  2.570671e+01    1.599107e+00
  2.573846e+01    1.826811e+00
  2.577021e+01    2.172673e+00
  2.580196e+01    2.813956e+00
  2.583371e+01    3.574963e+00
  2.586547e+01    4.645465e+00
  2.589722e+01    5.801521e+00
  2.592897e+01    6.741711e+00
  2.596072e+01    7.121973e+00
  2.599247e+01    6.595866e+00
  2.602422e+01    5.362032e+00
  2.605597e+01    4.005007e+00
  2.608772e+01    3.053640e+00
  2.611948e+01    2.397014e+00
  2.615123e+01    1.933601e+00
  2.618298e+01    1.699274e+00
  2.621473e+01    1.483794e+00
  2.624648e+01    1.357623e+00
  2.627823e+01    1.238152e+00
  2.630998e+01    1.174548e+00
  2.634173e+01    1.116071e+00
  2.637348e+01    1.077413e+00
  2.640524e+01    1.086059e+00
  2.643699e+01    1.021298e+00
  2.646874e+01    1.020655e+00
  2.650049e+01    1.018424e+00
  2.653224e+01    9.980072e-01
  2.656399e+01    9.698375e-01
  2.659574e+01    9.958751e-01
  2.662749e+01    9.666691e-01
  2.665924e+01    9.808901e-01
  2.669100e+01    9.666662e-01
  2.672275e+01    9.570388e-01
  2.675450e+01    9.425223e-01
  2.678625e+01    9.759654e-01
  2.681800e+01    9.500216e-01
  2.684975e+01    9.713442e-01
  2.688150e+01    1.002283e+00
  2.691325e+01    1.002173e+00
  2.694501e+01    1.026135e+00
  2.697676e+01    1.080608e+00
  2.700851e+01    1.127497e+00
  2.704026e+01    1.194273e+00
  2.707201e+01    1.327936e+00
  2.710376e+01    1.495283e+00
  2.713551e+01    1.709349e+00
  2.716726e+01    1.945434e+00
  2.719901e+01    2.132034e+00
  2.723077e+01    2.177362e+00
  2.726252e+01    1.992003e+00
  2.729427e+01    1.710231e+00
  2.732602e+01    1.435900e+00
  2.735777e+01    1.280782e+00
  2.738952e+01    1.180859e+00
  2.742127e+01    1.087369e+00
  2.745302e+01    1.032473e+00
  2.748477e+01    9.808315e-01
  2.751653e+01    9.766420e-01
  2.754828e+01    9.627606e-01
  2.758003e+01    9.416116e-01
  2.761178e+01    9.159002e-01
  2.764353e+01    9.005276e-01
  2.767528e+01    9.129164e-01
  2.770703e+01    8.860915e-01
  2.773878e+01    8.925861e-01
  2.777054e+01    9.058443e-01
  2.780229e+01    9.076287e-01
  2.783404e+01    9.016291e-01
  2.786579e+01    8.813208e-01
  2.789754e+01    8.826135e-01
  2.792929e+01    8.875535e-01
  2.796104e+01    8.872800e-01
  2.799279e+01    8.449200e-01
  2.802454e+01    8.673052e-01
  2.805630e+01    8.645588e-01
  2.808805e+01    8.625259e-01
  2.811980e+01    8.656849e-01
  2.815155e+01    8.498942e-01
  2.818330e+01    8.494238e-01
  2.821505e+01    8.662168e-01
  2.824680e+01    8.623888e-01
  2.827855e+01    8.408251e-01
  2.831030e+01    8.463214e-01
  2.834206e+01    8.639653e-01
  2.837381e+01    8.527618e-01
  2.840556e+01    8.417941e-01
  2.843731e+01    8.580136e-01
  2.846906e+01    8.423382e-01
  2.850081e+01    8.435478e-01
  2.853256e+01    8.553568e-01
  2.856431e+01    8.471152e-01
  2.859606e+01    8.423074e-01
  2.862782e+01    8.540155e-01
  2.865957e+01    8.428000e-01
  2.869132e+01    8.344777e-01
  2.872307e+01    8.496683e-01
  2.875482e+01    8.170725e-01
  2.878657e+01    8.437958e-01
  2.881832e+01    8.322856e-01
  2.885007e+01    8.043055e-01
  2.888183e+01    8.281416e-01
  2.891358e+01    8.297750e-01
  2.894533e+01    8.192374e-01
  2.897708e+01    8.284138e-01
  2.900883e+01    8.190455e-01
  2.904058e+01    8.224325e-01
  2.907233e+01    7.934837e-01
  2.910408e+01    8.066446e-01
  2.913583e+01    8.270917e-01
  2.916759e+01    8.086839e-01
  2.919934e+01    8.100633e-01
  2.923109e+01    8.250530e-01
  2.926284e+01    8.075376e-01
  2.929459e+01    8.291211e-01
  2.932634e+01    8.182955e-01
  2.935809e+01    7.840210e-01
  2.938984e+01    8.068753e-01
  2.942159e+01    7.979251e-01
  2.945335e+01    8.237501e-01
  2.948510e+01    8.251271e-01
  2.951685e+01    8.112350e-01
  2.954860e+01    7.902027e-01
  2.958035e+01    8.008544e-01
  2.961210e+01    7.990410e-01
  2.964385e+01    7.832910e-01
  2.967560e+01    8.060980e-01
  2.970736e+01    8.182541e-01
  2.973911e+01    7.922220e-01
  2.977086e+01    8.001890e-01
  2.980261e+01    8.087279e-01
  2.983436e+01    8.011469e-01
  2.986611e+01    8.046843e-01
  2.989786e+01    8.047745e-01
  2.992961e+01    7.793820e-01
  2.996136e+01    8.040090e-01
  2.999312e+01    8.106244e-01
  3.002487e+01    8.204011e-01
  3.005662e+01    8.371570e-01
  3.008837e+01    8.143781e-01
  3.012012e+01    8.272313e-01
  3.015187e+01    7.882855e-01
  3.018362e+01    7.992643e-01
  3.021537e+01    7.791307e-01
  3.024712e+01    8.026820e-01
  3.027888e+01    7.840273e-01
  3.031063e+01    8.129059e-01
  3.034238e+01    7.939922e-01
  3.037413e+01    7.922381e-01
  3.040588e+01    7.856780e-01
  3.043763e+01    7.933626e-01
  3.046938e+01    7.778432e-01
  3.050113e+01    7.664933e-01
  3.053288e+01    7.887490e-01
  3.056464e+01    8.103380e-01
  3.059639e+01    7.867808e-01
  3.062814e+01    7.986581e-01
  3.065989e+01    7.769904e-01
  3.069164e+01    7.853484e-01
  3.072339e+01    7.672876e-01
  3.075514e+01    7.902835e-01
  3.078689e+01    7.869551e-01
  3.081865e+01    7.925240e-01
  3.085040e+01    8.087521e-01
  3.088215e+01    7.750677e-01
  3.091390e+01    7.887033e-01
  3.094565e+01    7.711555e-01
  3.097740e+01    7.835250e-01
  3.100915e+01    7.997416e-01
  3.104090e+01    8.212819e-01
  3.107265e+01    7.942635e-01
  3.110441e+01    7.822382e-01
  3.113616e+01    7.901005e-01
  3.116791e+01    7.751628e-01
  3.119966e+01    7.875104e-01
  3.123141e+01    7.874192e-01
  3.126316e+01    8.001300e-01
  3.129491e+01    7.873082e-01
  3.132666e+01    8.072003e-01
  3.135841e+01    8.021120e-01
  3.139017e+01    8.105778e-01
  3.142192e+01    8.108276e-01
  3.145367e+01    8.297992e-01
  3.148542e+01    8.369279e-01
  3.151717e+01    8.378175e-01
  3.154892e+01    8.444397e-01
  3.158067e+01    8.731158e-01
  3.161242e+01    9.037622e-01
  3.164418e+01    9.283136e-01
  3.167593e+01    9.565598e-01
  3.170768e+01    1.016432e+00
  3.173943e+01    1.134439e+00
  3.177118e+01    1.261737e+00
  3.180293e+01    1.415244e+00
  3.183468e+01    1.691563e+00
  3.186643e+01    1.914523e+00
  3.189818e+01    2.093882e+00
  3.192994e+01    1.987566e+00
  3.196169e+01    1.839398e+00
  3.199344e+01    1.562890e+00
  3.202519e+01    1.327071e+00
  3.205694e+01    1.171487e+00
  3.208869e+01    1.068821e+00
  3.212044e+01    1.000653e+00
  3.215219e+01    8.976721e-01
  3.218394e+01    8.891478e-01
  3.221570e+01    8.508343e-01
  3.224745e+01    8.447524e-01
  3.227920e+01    8.326722e-01
  3.231095e+01    8.054452e-01
  3.234270e+01    7.876675e-01
  3.237445e+01    8.047011e-01
  3.240620e+01    7.899618e-01
  3.243795e+01    7.808750e-01
  3.246970e+01    7.813290e-01
  3.250146e+01    7.955800e-01
  3.253321e+01    7.619061e-01
  3.254908e+01    7.787363e-01