File: XRD/Reaction conditions/2024-07-27_003_Ru-CGO-ex_Reaction_dwell_000023_data_000120.dat
# == pyFAI calibration ==
# Distance Sample to Detector: 0.4 m
# PONI: 9.750e-02, 1.135e-01 m
# Rotations: -0.000175 0.000000 -0.000000 rad
#
# == Fit2d calibration ==
# Distance Sample-beamCenter: 400.000 mm
# Center: x=1514.000, y=1300.000 pix
# Tilt: 0.010 deg  TiltPlanRot: 0.010 deg
#
# Detector Detector	 Spline= None	 PixelSize= 7.500e-05, 7.500e-05 m
#    Detector has a mask: False
#    Detector has a dark current: False
#    detector has a flat field: False
#
# Wavelength: 6.888e-11 m
# Mask applied: user provided
# Dark current applied: False
# Flat field applied: False
# Polarization factor: 0.99
# Normalization factor: 1.0
# --> /home/myspot/data/2024_07_Rosario/Ru-CGO-ex/2024-07-27_003_Ru-CGO-ex_Reaction_dwell_000023_data_000120.dat
#       q_nm^-1             I
  2.003187e-02    0.000000e+00
  5.178302e-02    1.655832e-01
  8.353417e-02    1.400117e-01
  1.152853e-01    5.198106e-02
  1.470365e-01    6.700265e-03
  1.787876e-01    1.797042e-03
  2.105388e-01    3.719848e-02
  2.422899e-01    5.163159e-02
  2.740411e-01    3.872972e-02
  3.057922e-01    4.629171e-02
  3.375433e-01    4.991864e-02
  3.692945e-01    6.477815e-02
  4.010456e-01    2.514761e-02
  4.327968e-01    3.441531e-02
  4.645479e-01    4.265846e-02
  4.962991e-01    3.260883e-02
  5.280502e-01    5.673594e-02
  5.598014e-01    6.639180e-02
  5.915525e-01    1.319412e-02
  6.233037e-01    2.126499e-02
  6.550548e-01    1.714428e-02
  6.868060e-01    7.631213e-02
  7.185571e-01    4.266366e-02
  7.503083e-01    6.973817e-02
  7.820594e-01    8.426130e-02
  8.138106e-01    2.139488e-01
  8.455617e-01    3.518733e-01
  8.773129e-01    5.728321e-01
  9.090640e-01    7.224371e-01
  9.408152e-01    7.537325e-01
  9.725663e-01    8.955250e-01
  1.004317e+00    1.223243e+00
  1.036069e+00    1.347034e+00
  1.067820e+00    1.559502e+00
  1.099571e+00    1.526496e+00
  1.131322e+00    1.660335e+00
  1.163073e+00    1.592756e+00
  1.194824e+00    1.874123e+00
  1.226575e+00    2.283833e+00
  1.258327e+00    2.436047e+00
  1.290078e+00    2.763361e+00
  1.321829e+00    2.675630e+00
  1.353580e+00    2.903750e+00
  1.385331e+00    2.746820e+00
  1.417082e+00    2.836122e+00
  1.448834e+00    2.947222e+00
  1.480585e+00    3.124003e+00
  1.512336e+00    3.150689e+00
  1.544087e+00    3.328276e+00
  1.575838e+00    3.135682e+00
  1.607589e+00    3.073753e+00
  1.639340e+00    3.103375e+00
  1.671092e+00    3.081581e+00
  1.702843e+00    3.107651e+00
  1.734594e+00    3.090526e+00
  1.766345e+00    3.155257e+00
  1.798096e+00    2.999041e+00
  1.829847e+00    3.212050e+00
  1.861598e+00    3.046893e+00
  1.893350e+00    3.008360e+00
  1.925101e+00    2.990302e+00
  1.956852e+00    3.160310e+00
  1.988603e+00    2.991312e+00
  2.020354e+00    3.030463e+00
  2.052105e+00    3.084062e+00
  2.083856e+00    3.031148e+00
  2.115608e+00    3.085589e+00
  2.147359e+00    3.153035e+00
  2.179110e+00    3.146311e+00
  2.210861e+00    3.171930e+00
  2.242612e+00    3.149021e+00
  2.274363e+00    3.044705e+00
  2.306115e+00    3.158841e+00
  2.337866e+00    3.212012e+00
  2.369617e+00    3.113998e+00
  2.401368e+00    3.183088e+00
  2.433119e+00    3.202063e+00
  2.464870e+00    3.086269e+00
  2.496621e+00    3.201343e+00
  2.528373e+00    3.259041e+00
  2.560124e+00    3.189575e+00
  2.591875e+00    3.228550e+00
  2.623626e+00    3.207562e+00
  2.655377e+00    3.175025e+00
  2.687128e+00    3.264796e+00
  2.718879e+00    3.286508e+00
  2.750631e+00    3.329801e+00
  2.782382e+00    3.356041e+00
  2.814133e+00    3.359486e+00
  2.845884e+00    3.253790e+00
  2.877635e+00    3.268418e+00
  2.909386e+00    3.338279e+00
  2.941137e+00    3.269723e+00
  2.972889e+00    3.348934e+00
  3.004640e+00    3.344235e+00
  3.036391e+00    3.312826e+00
  3.068142e+00    3.339428e+00
  3.099893e+00    3.333122e+00
  3.131644e+00    3.273893e+00
  3.163395e+00    3.365964e+00
  3.195147e+00    3.365337e+00
  3.226898e+00    3.422486e+00
  3.258649e+00    3.312210e+00
  3.290400e+00    3.448857e+00
  3.322151e+00    3.418735e+00
  3.353902e+00    3.355497e+00
  3.385654e+00    3.404993e+00
  3.417405e+00    3.449596e+00
  3.449156e+00    3.408258e+00
  3.480907e+00    3.401292e+00
  3.512658e+00    3.438653e+00
  3.544409e+00    3.642864e+00
  3.576160e+00    3.439415e+00
  3.607912e+00    3.505131e+00
  3.639663e+00    3.487716e+00
  3.671414e+00    3.429259e+00
  3.703165e+00    3.521722e+00
  3.734916e+00    3.483061e+00
  3.766667e+00    3.441588e+00
  3.798418e+00    3.539445e+00
  3.830170e+00    3.510599e+00
  3.861921e+00    3.505747e+00
  3.893672e+00    3.556175e+00
  3.925423e+00    3.508480e+00
  3.957174e+00    3.651430e+00
  3.988925e+00    3.487777e+00
  4.020676e+00    3.571245e+00
  4.052428e+00    3.479337e+00
  4.084179e+00    3.533740e+00
  4.115930e+00    3.489318e+00
  4.147681e+00    3.576043e+00
  4.179432e+00    3.556078e+00
  4.211183e+00    3.582238e+00
  4.242935e+00    3.508906e+00
  4.274686e+00    3.496279e+00
  4.306437e+00    3.618809e+00
  4.338188e+00    3.523812e+00
  4.369939e+00    3.544445e+00
  4.401690e+00    3.556922e+00
  4.433441e+00    3.581279e+00
  4.465193e+00    3.668034e+00
  4.496944e+00    3.520254e+00
  4.528695e+00    3.603384e+00
  4.560446e+00    3.588991e+00
  4.592197e+00    3.524434e+00
  4.623948e+00    3.551375e+00
  4.655699e+00    3.545463e+00
  4.687451e+00    3.616138e+00
  4.719202e+00    3.607957e+00
  4.750953e+00    3.598701e+00
  4.782704e+00    3.731408e+00
  4.814455e+00    3.750362e+00
  4.846206e+00    3.580234e+00
  4.877957e+00    3.650123e+00
  4.909709e+00    3.717128e+00
  4.941460e+00    3.536094e+00
  4.973211e+00    3.646509e+00
  5.004962e+00    3.706997e+00
  5.036713e+00    3.596055e+00
  5.068464e+00    3.622356e+00
  5.100216e+00    3.661290e+00
  5.131967e+00    3.632499e+00
  5.163718e+00    3.667987e+00
  5.195469e+00    3.626762e+00
  5.227220e+00    3.634661e+00
  5.258971e+00    3.602502e+00
  5.290722e+00    3.572254e+00
  5.322474e+00    3.682568e+00
  5.354225e+00    3.624409e+00
  5.385976e+00    3.680162e+00
  5.417727e+00    3.659587e+00
  5.449478e+00    3.687195e+00
  5.481229e+00    3.603779e+00
  5.512980e+00    3.524974e+00
  5.544732e+00    3.638534e+00
  5.576483e+00    3.681314e+00
  5.608234e+00    3.520775e+00
  5.639985e+00    3.550882e+00
  5.671736e+00    3.577790e+00
  5.703487e+00    3.625788e+00
  5.735238e+00    3.544343e+00
  5.766990e+00    3.623026e+00
  5.798741e+00    3.534992e+00
  5.830492e+00    3.451592e+00
  5.862243e+00    3.564880e+00
  5.893994e+00    3.479196e+00
  5.925745e+00    3.535722e+00
  5.957497e+00    3.491764e+00
  5.989248e+00    3.569227e+00
  6.020999e+00    3.509553e+00
  6.052750e+00    3.462713e+00
  6.084501e+00    3.562528e+00
  6.116252e+00    3.579203e+00
  6.148003e+00    3.514033e+00
  6.179755e+00    3.534288e+00
  6.211506e+00    3.564888e+00
  6.243257e+00    3.599200e+00
  6.275008e+00    3.512702e+00
  6.306759e+00    3.546551e+00
  6.338510e+00    3.523144e+00
  6.370261e+00    3.541541e+00
  6.402013e+00    3.538796e+00
  6.433764e+00    3.613785e+00
  6.465515e+00    3.518489e+00
  6.497266e+00    3.516512e+00
  6.529017e+00    3.567712e+00
  6.560768e+00    3.563431e+00
  6.592519e+00    3.545856e+00
  6.624271e+00    3.574473e+00
  6.656022e+00    3.475395e+00
  6.687773e+00    3.500118e+00
  6.719524e+00    3.545023e+00
  6.751275e+00    3.605943e+00
  6.783026e+00    3.512899e+00
  6.814777e+00    3.498080e+00
  6.846529e+00    3.494777e+00
  6.878280e+00    3.574564e+00
  6.910031e+00    3.541025e+00
  6.941782e+00    3.596553e+00
  6.973533e+00    3.601823e+00
  7.005284e+00    3.545488e+00
  7.037036e+00    3.554498e+00
  7.068787e+00    3.508024e+00
  7.100538e+00    3.502527e+00
  7.132289e+00    3.506570e+00
  7.164040e+00    3.533266e+00
  7.195791e+00    3.524099e+00
  7.227542e+00    3.530700e+00
  7.259294e+00    3.538963e+00
  7.291045e+00    3.485758e+00
  7.322796e+00    3.554623e+00
  7.354547e+00    3.473860e+00
  7.386298e+00    3.466730e+00
  7.418049e+00    3.539272e+00
  7.449800e+00    3.482250e+00
  7.481552e+00    3.582296e+00
  7.513303e+00    3.538698e+00
  7.545054e+00    3.470237e+00
  7.576805e+00    3.419979e+00
  7.608556e+00    3.499120e+00
  7.640307e+00    3.449177e+00
  7.672058e+00    3.448430e+00
  7.703810e+00    3.408462e+00
  7.735561e+00    3.449567e+00
  7.767312e+00    3.464540e+00
  7.799063e+00    3.441080e+00
  7.830814e+00    3.444462e+00
  7.862565e+00    3.504744e+00
  7.894317e+00    3.454849e+00
  7.926068e+00    3.338553e+00
  7.957819e+00    3.396307e+00
  7.989570e+00    3.430898e+00
  8.021321e+00    3.474449e+00
  8.053072e+00    3.400418e+00
  8.084823e+00    3.356826e+00
  8.116575e+00    3.420677e+00
  8.148326e+00    3.468624e+00
  8.180077e+00    3.432964e+00
  8.211828e+00    3.431730e+00
  8.243579e+00    3.420863e+00
  8.275330e+00    3.423211e+00
  8.307081e+00    3.415016e+00
  8.338833e+00    3.356878e+00
  8.370584e+00    3.347295e+00
  8.402335e+00    3.407666e+00
  8.434086e+00    3.337702e+00
  8.465837e+00    3.380237e+00
  8.497588e+00    3.341309e+00
  8.529339e+00    3.397923e+00
  8.561091e+00    3.332358e+00
  8.592842e+00    3.393429e+00
  8.624593e+00    3.301347e+00
  8.656344e+00    3.337818e+00
  8.688095e+00    3.341770e+00
  8.719846e+00    3.381934e+00
  8.751598e+00    3.398328e+00
  8.783349e+00    3.296959e+00
  8.815100e+00    3.366987e+00
  8.846851e+00    3.275540e+00
  8.878602e+00    3.285664e+00
  8.910353e+00    3.298478e+00
  8.942104e+00    3.404320e+00
  8.973856e+00    3.319807e+00
  9.005607e+00    3.313848e+00
  9.037358e+00    3.284799e+00
  9.069109e+00    3.245133e+00
  9.100860e+00    3.341444e+00
  9.132611e+00    3.265880e+00
  9.164362e+00    3.238666e+00
  9.196114e+00    3.273931e+00
  9.227865e+00    3.220246e+00
  9.259616e+00    3.329594e+00
  9.291367e+00    3.258982e+00
  9.323118e+00    3.206164e+00
  9.354869e+00    3.226694e+00
  9.386620e+00    3.204282e+00
  9.418372e+00    3.205359e+00
  9.450123e+00    3.212502e+00
  9.481874e+00    3.155460e+00
  9.513625e+00    3.198919e+00
  9.545376e+00    3.223977e+00
  9.577127e+00    3.147607e+00
  9.608878e+00    3.249144e+00
  9.640630e+00    3.226795e+00
  9.672381e+00    3.090352e+00
  9.704132e+00    3.183437e+00
  9.735883e+00    3.215903e+00
  9.767634e+00    3.187339e+00
  9.799385e+00    3.122224e+00
  9.831137e+00    3.100195e+00
  9.862888e+00    3.124235e+00
  9.894639e+00    3.100821e+00
  9.926390e+00    3.192476e+00
  9.958141e+00    3.079767e+00
  9.989892e+00    3.098951e+00
  1.002164e+01    3.141537e+00
  1.005339e+01    3.141953e+00
  1.008515e+01    3.065485e+00
  1.011690e+01    3.066284e+00
  1.014865e+01    3.079349e+00
  1.018040e+01    3.066879e+00
  1.021215e+01    3.081078e+00
  1.024390e+01    3.062550e+00
  1.027565e+01    3.016081e+00
  1.030740e+01    3.049683e+00
  1.033915e+01    3.063777e+00
  1.037091e+01    3.075885e+00
  1.040266e+01    3.046568e+00
  1.043441e+01    3.037102e+00
  1.046616e+01    3.003236e+00
  1.049791e+01    2.979457e+00
  1.052966e+01    3.007443e+00
  1.056141e+01    3.004119e+00
  1.059316e+01    3.018305e+00
  1.062492e+01    3.041866e+00
  1.065667e+01    2.987252e+00
  1.068842e+01    2.979561e+00
  1.072017e+01    2.945614e+00
  1.075192e+01    2.962908e+00
  1.078367e+01    2.966787e+00
  1.081542e+01    2.983937e+00
  1.084717e+01    2.895601e+00
  1.087892e+01    2.904140e+00
  1.091068e+01    2.904475e+00
  1.094243e+01    2.934539e+00
  1.097418e+01    2.923884e+00
  1.100593e+01    2.895972e+00
  1.103768e+01    2.903367e+00
  1.106943e+01    2.858950e+00
  1.110118e+01    2.917183e+00
  1.113293e+01    2.894682e+00
  1.116468e+01    2.895385e+00
  1.119644e+01    2.865807e+00
  1.122819e+01    2.845528e+00
  1.125994e+01    2.834142e+00
  1.129169e+01    2.812173e+00
  1.132344e+01    2.841322e+00
  1.135519e+01    2.823303e+00
  1.138694e+01    2.816040e+00
  1.141869e+01    2.818862e+00
  1.145045e+01    2.777818e+00
  1.148220e+01    2.841554e+00
  1.151395e+01    2.823916e+00
  1.154570e+01    2.758519e+00
  1.157745e+01    2.808944e+00
  1.160920e+01    2.797659e+00
  1.164095e+01    2.782827e+00
  1.167270e+01    2.791031e+00
  1.170445e+01    2.821457e+00
  1.173621e+01    2.696138e+00
  1.176796e+01    2.730001e+00
  1.179971e+01    2.750827e+00
  1.183146e+01    2.773705e+00
  1.186321e+01    2.735904e+00
  1.189496e+01    2.713965e+00
  1.192671e+01    2.686386e+00
  1.195846e+01    2.666948e+00
  1.199021e+01    2.726836e+00
  1.202197e+01    2.695394e+00
  1.205372e+01    2.719477e+00
  1.208547e+01    2.682165e+00
  1.211722e+01    2.683371e+00
  1.214897e+01    2.670269e+00
  1.218072e+01    2.695142e+00
  1.221247e+01    2.735560e+00
  1.224422e+01    2.718990e+00
  1.227597e+01    2.604650e+00
  1.230773e+01    2.649627e+00
  1.233948e+01    2.695532e+00
  1.237123e+01    2.685619e+00
  1.240298e+01    2.668885e+00
  1.243473e+01    2.740661e+00
  1.246648e+01    2.664621e+00
  1.249823e+01    2.745658e+00
  1.252998e+01    2.685699e+00
  1.256174e+01    2.699116e+00
  1.259349e+01    2.745939e+00
  1.262524e+01    2.757851e+00
  1.265699e+01    2.758136e+00
  1.268874e+01    2.801989e+00
  1.272049e+01    2.809462e+00
  1.275224e+01    2.920347e+00
  1.278399e+01    2.955582e+00
  1.281574e+01    3.047048e+00
  1.284750e+01    3.173923e+00
  1.287925e+01    3.387908e+00
  1.291100e+01    3.657132e+00
  1.294275e+01    4.089027e+00
  1.297450e+01    4.818943e+00
  1.300625e+01    5.864079e+00
  1.303800e+01    7.679932e+00
  1.306975e+01    1.016639e+01
  1.310150e+01    1.270017e+01
  1.313326e+01    1.481165e+01
  1.316501e+01    1.620915e+01
  1.319676e+01    1.587034e+01
  1.322851e+01    1.253962e+01
  1.326026e+01    9.100253e+00
  1.329201e+01    6.741202e+00
  1.332376e+01    5.333394e+00
  1.335551e+01    4.434583e+00
  1.338727e+01    3.767254e+00
  1.341902e+01    3.443952e+00
  1.345077e+01    3.218483e+00
  1.348252e+01    3.004500e+00
  1.351427e+01    2.917212e+00
  1.354602e+01    2.820682e+00
  1.357777e+01    2.764786e+00
  1.360952e+01    2.650918e+00
  1.364127e+01    2.630485e+00
  1.367303e+01    2.576148e+00
  1.370478e+01    2.599466e+00
  1.373653e+01    2.530163e+00
  1.376828e+01    2.543736e+00
  1.380003e+01    2.485162e+00
  1.383178e+01    2.434100e+00
  1.386353e+01    2.463843e+00
  1.389528e+01    2.439065e+00
  1.392703e+01    2.431551e+00
  1.395879e+01    2.400193e+00
  1.399054e+01    2.428431e+00
  1.402229e+01    2.319910e+00
  1.405404e+01    2.291063e+00
  1.408579e+01    2.327667e+00
  1.411754e+01    2.338612e+00
  1.414929e+01    2.337510e+00
  1.418104e+01    2.297863e+00
  1.421279e+01    2.282647e+00
  1.424455e+01    2.282546e+00
  1.427630e+01    2.260062e+00
  1.430805e+01    2.285197e+00
  1.433980e+01    2.235737e+00
  1.437155e+01    2.224163e+00
  1.440330e+01    2.213752e+00
  1.443505e+01    2.195904e+00
  1.446680e+01    2.210623e+00
  1.449856e+01    2.219308e+00
  1.453031e+01    2.229712e+00
  1.456206e+01    2.211553e+00
  1.459381e+01    2.222553e+00
  1.462556e+01    2.281547e+00
  1.465731e+01    2.243667e+00
  1.468906e+01    2.227908e+00
  1.472081e+01    2.224515e+00
  1.475256e+01    2.183711e+00
  1.478432e+01    2.190241e+00
  1.481607e+01    2.210880e+00
  1.484782e+01    2.208570e+00
  1.487957e+01    2.198838e+00
  1.491132e+01    2.233694e+00
  1.494307e+01    2.336964e+00
  1.497482e+01    2.382430e+00
  1.500657e+01    2.498341e+00
  1.503832e+01    2.611305e+00
  1.507008e+01    2.858443e+00
  1.510183e+01    3.287791e+00
  1.513358e+01    3.778341e+00
  1.516533e+01    4.560525e+00
  1.519708e+01    5.139688e+00
  1.522883e+01    5.657557e+00
  1.526058e+01    5.740303e+00
  1.529233e+01    5.470608e+00
  1.532409e+01    4.693645e+00
  1.535584e+01    3.746305e+00
  1.538759e+01    3.123176e+00
  1.541934e+01    2.750927e+00
  1.545109e+01    2.483678e+00
  1.548284e+01    2.366278e+00
  1.551459e+01    2.262973e+00
  1.554634e+01    2.187165e+00
  1.557809e+01    2.163287e+00
  1.560985e+01    2.080894e+00
  1.564160e+01    2.005806e+00
  1.567335e+01    2.038571e+00
  1.570510e+01    2.014405e+00
  1.573685e+01    2.000308e+00
  1.576860e+01    1.970705e+00
  1.580035e+01    1.989782e+00
  1.583210e+01    1.893616e+00
  1.586385e+01    1.885215e+00
  1.589561e+01    1.874859e+00
  1.592736e+01    1.885512e+00
  1.595911e+01    1.910329e+00
  1.599086e+01    1.891472e+00
  1.602261e+01    1.901208e+00
  1.605436e+01    1.860226e+00
  1.608611e+01    1.853855e+00
  1.611786e+01    1.851298e+00
  1.614961e+01    1.827011e+00
  1.618137e+01    1.790856e+00
  1.621312e+01    1.826286e+00
  1.624487e+01    1.840671e+00
  1.627662e+01    1.818301e+00
  1.630837e+01    1.794119e+00
  1.634012e+01    1.835528e+00
  1.637187e+01    1.781828e+00
  1.640362e+01    1.791337e+00
  1.643538e+01    1.790602e+00
  1.646713e+01    1.771501e+00
  1.649888e+01    1.755883e+00
  1.653063e+01    1.786447e+00
  1.656238e+01    1.719852e+00
  1.659413e+01    1.758354e+00
  1.662588e+01    1.756879e+00
  1.665763e+01    1.756131e+00
  1.668938e+01    1.700814e+00
  1.672114e+01    1.699747e+00
  1.675289e+01    1.707386e+00
  1.678464e+01    1.719389e+00
  1.681639e+01    1.693176e+00
  1.684814e+01    1.665835e+00
  1.687989e+01    1.691540e+00
  1.691164e+01    1.717454e+00
  1.694339e+01    1.680735e+00
  1.697514e+01    1.675225e+00
  1.700690e+01    1.661620e+00
  1.703865e+01    1.662689e+00
  1.707040e+01    1.644749e+00
  1.710215e+01    1.645239e+00
  1.713390e+01    1.632679e+00
  1.716565e+01    1.633668e+00
  1.719740e+01    1.621326e+00
  1.722915e+01    1.589468e+00
  1.726091e+01    1.624242e+00
  1.729266e+01    1.643314e+00
  1.732441e+01    1.601424e+00
  1.735616e+01    1.575137e+00
  1.738791e+01    1.596491e+00
  1.741966e+01    1.583503e+00
  1.745141e+01    1.581437e+00
  1.748316e+01    1.606931e+00
  1.751491e+01    1.584698e+00
  1.754667e+01    1.543691e+00
  1.757842e+01    1.594706e+00
  1.761017e+01    1.602952e+00
  1.764192e+01    1.573640e+00
  1.767367e+01    1.559462e+00
  1.770542e+01    1.524837e+00
  1.773717e+01    1.556371e+00
  1.776892e+01    1.544211e+00
  1.780067e+01    1.559761e+00
  1.783243e+01    1.596664e+00
  1.786418e+01    1.541507e+00
  1.789593e+01    1.506030e+00
  1.792768e+01    1.528156e+00
  1.795943e+01    1.497734e+00
  1.799118e+01    1.529693e+00
  1.802293e+01    1.478284e+00
  1.805468e+01    1.514834e+00
  1.808643e+01    1.522208e+00
  1.811819e+01    1.520465e+00
  1.814994e+01    1.517392e+00
  1.818169e+01    1.483671e+00
  1.821344e+01    1.496616e+00
  1.824519e+01    1.491503e+00
  1.827694e+01    1.471768e+00
  1.830869e+01    1.503122e+00
  1.834044e+01    1.509311e+00
  1.837220e+01    1.467261e+00
  1.840395e+01    1.495574e+00
  1.843570e+01    1.438250e+00
  1.846745e+01    1.432920e+00
  1.849920e+01    1.428060e+00
  1.853095e+01    1.471043e+00
  1.856270e+01    1.472804e+00
  1.859445e+01    1.431826e+00
  1.862620e+01    1.405754e+00
  1.865796e+01    1.444389e+00
  1.868971e+01    1.406910e+00
  1.872146e+01    1.424893e+00
  1.875321e+01    1.393299e+00
  1.878496e+01    1.436185e+00
  1.881671e+01    1.411517e+00
  1.884846e+01    1.407222e+00
  1.888021e+01    1.405691e+00
  1.891196e+01    1.407201e+00
  1.894372e+01    1.392750e+00
  1.897547e+01    1.392153e+00
  1.900722e+01    1.398781e+00
  1.903897e+01    1.380563e+00
  1.907072e+01    1.343785e+00
  1.910247e+01    1.354459e+00
  1.913422e+01    1.336636e+00
  1.916597e+01    1.364292e+00
  1.919773e+01    1.374012e+00
  1.922948e+01    1.350552e+00
  1.926123e+01    1.330723e+00
  1.929298e+01    1.349414e+00
  1.932473e+01    1.344955e+00
  1.935648e+01    1.375073e+00
  1.938823e+01    1.339134e+00
  1.941998e+01    1.348031e+00
  1.945173e+01    1.329167e+00
  1.948349e+01    1.324606e+00
  1.951524e+01    1.337451e+00
  1.954699e+01    1.324067e+00
  1.957874e+01    1.341263e+00
  1.961049e+01    1.304376e+00
  1.964224e+01    1.324712e+00
  1.967399e+01    1.308737e+00
  1.970574e+01    1.312464e+00
  1.973749e+01    1.300426e+00
  1.976925e+01    1.295821e+00
  1.980100e+01    1.302529e+00
  1.983275e+01    1.295133e+00
  1.986450e+01    1.304719e+00
  1.989625e+01    1.300616e+00
  1.992800e+01    1.312522e+00
  1.995975e+01    1.296533e+00
  1.999150e+01    1.274878e+00
  2.002325e+01    1.278272e+00
  2.005501e+01    1.323988e+00
  2.008676e+01    1.279050e+00
  2.011851e+01    1.273739e+00
  2.015026e+01    1.275928e+00
  2.018201e+01    1.260219e+00
  2.021376e+01    1.266202e+00
  2.024551e+01    1.258562e+00
  2.027726e+01    1.234190e+00
  2.030902e+01    1.286251e+00
  2.034077e+01    1.248928e+00
  2.037252e+01    1.237673e+00
  2.040427e+01    1.238326e+00
  2.043602e+01    1.243420e+00
  2.046777e+01    1.214844e+00
  2.049952e+01    1.228885e+00
  2.053127e+01    1.231242e+00
  2.056302e+01    1.261733e+00
  2.059478e+01    1.245258e+00
  2.062653e+01    1.238173e+00
  2.065828e+01    1.229174e+00
  2.069003e+01    1.216345e+00
  2.072178e+01    1.236303e+00
  2.075353e+01    1.205545e+00
  2.078528e+01    1.203549e+00
  2.081703e+01    1.215394e+00
  2.084878e+01    1.251483e+00
  2.088054e+01    1.253272e+00
  2.091229e+01    1.222523e+00
  2.094404e+01    1.247146e+00
  2.097579e+01    1.233453e+00
  2.100754e+01    1.234603e+00
  2.103929e+01    1.238554e+00
  2.107104e+01    1.208448e+00
  2.110279e+01    1.249489e+00
  2.113455e+01    1.209943e+00
  2.116630e+01    1.209930e+00
  2.119805e+01    1.252025e+00
  2.122980e+01    1.230960e+00
  2.126155e+01    1.246647e+00
  2.129330e+01    1.258480e+00
  2.132505e+01    1.265240e+00
  2.135680e+01    1.279660e+00
  2.138855e+01    1.286163e+00
  2.142031e+01    1.314336e+00
  2.145206e+01    1.351528e+00
  2.148381e+01    1.400512e+00
  2.151556e+01    1.471781e+00
  2.154731e+01    1.530798e+00
  2.157906e+01    1.611795e+00
  2.161081e+01    1.744490e+00
  2.164256e+01    1.965633e+00
  2.167431e+01    2.318897e+00
  2.170607e+01    2.773196e+00
  2.173782e+01    3.559288e+00
  2.176957e+01    4.604640e+00
  2.180132e+01    5.879594e+00
  2.183307e+01    7.205653e+00
  2.186482e+01    8.380601e+00
  2.189657e+01    8.899568e+00
  2.192832e+01    8.298261e+00
  2.196007e+01    6.538110e+00
  2.199183e+01    4.820699e+00
  2.202358e+01    3.622397e+00
  2.205533e+01    2.821692e+00
  2.208708e+01    2.338651e+00
  2.211883e+01    1.978775e+00
  2.215058e+01    1.775797e+00
  2.218233e+01    1.603389e+00
  2.221408e+01    1.494439e+00
  2.224584e+01    1.390133e+00
  2.227759e+01    1.330053e+00
  2.230934e+01    1.327606e+00
  2.234109e+01    1.246088e+00
  2.237284e+01    1.232105e+00
  2.240459e+01    1.188139e+00
  2.243634e+01    1.205296e+00
  2.246809e+01    1.163552e+00
  2.249984e+01    1.136896e+00
  2.253160e+01    1.116471e+00
  2.256335e+01    1.136432e+00
  2.259510e+01    1.134141e+00
  2.262685e+01    1.081726e+00
  2.265860e+01    1.092266e+00
  2.269035e+01    1.086542e+00
  2.272210e+01    1.077549e+00
  2.275385e+01    1.062475e+00
  2.278560e+01    1.071055e+00
  2.281736e+01    1.055271e+00
  2.284911e+01    1.051813e+00
  2.288086e+01    1.070931e+00
  2.291261e+01    1.018428e+00
  2.294436e+01    1.050844e+00
  2.297611e+01    1.029740e+00
  2.300786e+01    1.026130e+00
  2.303961e+01    1.020071e+00
  2.307137e+01    1.009164e+00
  2.310312e+01    1.001387e+00
  2.313487e+01    9.909953e-01
  2.316662e+01    1.003618e+00
  2.319837e+01    9.895976e-01
  2.323012e+01    1.002663e+00
  2.326187e+01    9.864300e-01
  2.329362e+01    9.584646e-01
  2.332537e+01    9.747553e-01
  2.335713e+01    9.727299e-01
  2.338888e+01    9.590850e-01
  2.342063e+01    9.539797e-01
  2.345238e+01    9.690078e-01
  2.348413e+01    9.670298e-01
  2.351588e+01    9.674404e-01
  2.354763e+01    9.568815e-01
  2.357938e+01    9.678851e-01
  2.361113e+01    9.673102e-01
  2.364289e+01    9.635561e-01
  2.367464e+01    9.473289e-01
  2.370639e+01    9.361627e-01
  2.373814e+01    9.308352e-01
  2.376989e+01    9.268962e-01
  2.380164e+01    9.017428e-01
  2.383339e+01    9.050964e-01
  2.386514e+01    8.943124e-01
  2.389689e+01    9.008895e-01
  2.392865e+01    9.289787e-01
  2.396040e+01    9.069183e-01
  2.399215e+01    9.032286e-01
  2.402390e+01    9.013665e-01
  2.405565e+01    8.885955e-01
  2.408740e+01    8.900107e-01
  2.411915e+01    9.055198e-01
  2.415090e+01    8.694937e-01
  2.418266e+01    8.924794e-01
  2.421441e+01    8.779679e-01
  2.424616e+01    8.788043e-01
  2.427791e+01    9.154828e-01
  2.430966e+01    8.933127e-01
  2.434141e+01    9.100810e-01
  2.437316e+01    8.846582e-01
  2.440491e+01    8.782482e-01
  2.443666e+01    8.984441e-01
  2.446842e+01    8.981838e-01
  2.450017e+01    9.308188e-01
  2.453192e+01    8.970656e-01
  2.456367e+01    8.893239e-01
  2.459542e+01    8.897724e-01
  2.462717e+01    8.865246e-01
  2.465892e+01    8.978701e-01
  2.469067e+01    8.872358e-01
  2.472242e+01    8.863337e-01
  2.475418e+01    9.112613e-01
  2.478593e+01    9.018648e-01
  2.481768e+01    9.093126e-01
  2.484943e+01    9.010491e-01
  2.488118e+01    8.851402e-01
  2.491293e+01    8.714721e-01
  2.494468e+01    9.004467e-01
  2.497643e+01    9.254467e-01
  2.500819e+01    8.869637e-01
  2.503994e+01    9.208592e-01
  2.507169e+01    9.054524e-01
  2.510344e+01    9.080314e-01
  2.513519e+01    8.956082e-01
  2.516694e+01    9.084904e-01
  2.519869e+01    9.479675e-01
  2.523044e+01    9.317144e-01
  2.526219e+01    9.211053e-01
  2.529395e+01    9.327329e-01
  2.532570e+01    9.584219e-01
  2.535745e+01    9.866729e-01
  2.538920e+01    9.994220e-01
  2.542095e+01    1.002128e+00
  2.545270e+01    1.038276e+00
  2.548445e+01    1.046223e+00
  2.551620e+01    1.053182e+00
  2.554795e+01    1.094812e+00
  2.557971e+01    1.148590e+00
  2.561146e+01    1.213670e+00
  2.564321e+01    1.305464e+00
  2.567496e+01    1.403200e+00
  2.570671e+01    1.592443e+00
  2.573846e+01    1.833856e+00
  2.577021e+01    2.192241e+00
  2.580196e+01    2.811917e+00
  2.583371e+01    3.640588e+00
  2.586547e+01    4.638781e+00
  2.589722e+01    5.816963e+00
  2.592897e+01    6.791226e+00
  2.596072e+01    7.129825e+00
  2.599247e+01    6.538066e+00
  2.602422e+01    5.286312e+00
  2.605597e+01    3.923015e+00
  2.608772e+01    2.993852e+00
  2.611948e+01    2.355336e+00
  2.615123e+01    1.960370e+00
  2.618298e+01    1.676431e+00
  2.621473e+01    1.501358e+00
  2.624648e+01    1.331074e+00
  2.627823e+01    1.263232e+00
  2.630998e+01    1.183653e+00
  2.634173e+01    1.122328e+00
  2.637348e+01    1.105543e+00
  2.640524e+01    1.031618e+00
  2.643699e+01    1.025924e+00
  2.646874e+01    1.027990e+00
  2.650049e+01    9.860498e-01
  2.653224e+01    9.943628e-01
  2.656399e+01    9.699904e-01
  2.659574e+01    1.009543e+00
  2.662749e+01    9.906252e-01
  2.665924e+01    9.794521e-01
  2.669100e+01    9.597850e-01
  2.672275e+01    9.826912e-01
  2.675450e+01    9.708708e-01
  2.678625e+01    9.934360e-01
  2.681800e+01    9.792400e-01
  2.684975e+01    9.911737e-01
  2.688150e+01    9.980316e-01
  2.691325e+01    1.012151e+00
  2.694501e+01    1.020937e+00
  2.697676e+01    1.055622e+00
  2.700851e+01    1.093091e+00
  2.704026e+01    1.189077e+00
  2.707201e+01    1.311338e+00
  2.710376e+01    1.486937e+00
  2.713551e+01    1.763798e+00
  2.716726e+01    1.952511e+00
  2.719901e+01    2.171363e+00
  2.723077e+01    2.200722e+00
  2.726252e+01    1.971928e+00
  2.729427e+01    1.720142e+00
  2.732602e+01    1.470603e+00
  2.735777e+01    1.289907e+00
  2.738952e+01    1.181512e+00
  2.742127e+01    1.092809e+00
  2.745302e+01    1.043597e+00
  2.748477e+01    9.971377e-01
  2.751653e+01    9.804139e-01
  2.754828e+01    9.728969e-01
  2.758003e+01    9.452261e-01
  2.761178e+01    9.394149e-01
  2.764353e+01    9.297949e-01
  2.767528e+01    9.203414e-01
  2.770703e+01    9.141853e-01
  2.773878e+01    8.986310e-01
  2.777054e+01    8.923848e-01
  2.780229e+01    9.110377e-01
  2.783404e+01    8.658894e-01
  2.786579e+01    8.732384e-01
  2.789754e+01    8.964384e-01
  2.792929e+01    8.721127e-01
  2.796104e+01    8.691980e-01
  2.799279e+01    8.640329e-01
  2.802454e+01    8.559793e-01
  2.805630e+01    8.701974e-01
  2.808805e+01    8.732505e-01
  2.811980e+01    8.801701e-01
  2.815155e+01    8.661892e-01
  2.818330e+01    8.615339e-01
  2.821505e+01    8.638262e-01
  2.824680e+01    8.589111e-01
  2.827855e+01    8.471842e-01
  2.831030e+01    8.390906e-01
  2.834206e+01    8.546280e-01
  2.837381e+01    8.528013e-01
  2.840556e+01    8.502115e-01
  2.843731e+01    8.547360e-01
  2.846906e+01    8.382732e-01
  2.850081e+01    8.265978e-01
  2.853256e+01    8.538202e-01
  2.856431e+01    8.299146e-01
  2.859606e+01    8.171689e-01
  2.862782e+01    8.517408e-01
  2.865957e+01    8.308178e-01
  2.869132e+01    8.396773e-01
  2.872307e+01    8.249720e-01
  2.875482e+01    8.305354e-01
  2.878657e+01    8.106211e-01
  2.881832e+01    8.318503e-01
  2.885007e+01    8.331373e-01
  2.888183e+01    8.277562e-01
  2.891358e+01    8.003268e-01
  2.894533e+01    8.327937e-01
  2.897708e+01    8.197522e-01
  2.900883e+01    8.065594e-01
  2.904058e+01    8.066981e-01
  2.907233e+01    8.182470e-01
  2.910408e+01    7.978174e-01
  2.913583e+01    8.241925e-01
  2.916759e+01    8.283973e-01
  2.919934e+01    8.071603e-01
  2.923109e+01    8.100793e-01
  2.926284e+01    7.752227e-01
  2.929459e+01    8.018300e-01
  2.932634e+01    8.118910e-01
  2.935809e+01    7.945346e-01
  2.938984e+01    7.867274e-01
  2.942159e+01    8.073575e-01
  2.945335e+01    7.995402e-01
  2.948510e+01    8.033901e-01
  2.951685e+01    7.953679e-01
  2.954860e+01    7.749680e-01
  2.958035e+01    8.244879e-01
  2.961210e+01    7.987685e-01
  2.964385e+01    7.914222e-01
  2.967560e+01    7.920167e-01
  2.970736e+01    8.272062e-01
  2.973911e+01    7.868411e-01
  2.977086e+01    7.903321e-01
  2.980261e+01    8.246197e-01
  2.983436e+01    8.032785e-01
  2.986611e+01    8.044395e-01
  2.989786e+01    8.053100e-01
  2.992961e+01    8.226400e-01
  2.996136e+01    7.840163e-01
  2.999312e+01    8.335387e-01
  3.002487e+01    8.214082e-01
  3.005662e+01    8.014729e-01
  3.008837e+01    8.012929e-01
  3.012012e+01    8.129216e-01
  3.015187e+01    7.989724e-01
  3.018362e+01    7.856121e-01
  3.021537e+01    7.817511e-01
  3.024712e+01    7.648237e-01
  3.027888e+01    7.990773e-01
  3.031063e+01    7.753087e-01
  3.034238e+01    7.939636e-01
  3.037413e+01    7.667677e-01
  3.040588e+01    7.724701e-01
  3.043763e+01    7.749580e-01
  3.046938e+01    7.890574e-01
  3.050113e+01    7.926478e-01
  3.053288e+01    8.011036e-01
  3.056464e+01    7.814162e-01
  3.059639e+01    7.879045e-01
  3.062814e+01    7.898372e-01
  3.065989e+01    7.853622e-01
  3.069164e+01    7.770460e-01
  3.072339e+01    7.860807e-01
  3.075514e+01    7.667253e-01
  3.078689e+01    7.567960e-01
  3.081865e+01    7.697851e-01
  3.085040e+01    7.813089e-01
  3.088215e+01    7.940304e-01
  3.091390e+01    7.625256e-01
  3.094565e+01    7.916597e-01
  3.097740e+01    7.853669e-01
  3.100915e+01    7.940381e-01
  3.104090e+01    7.962408e-01
  3.107265e+01    7.837800e-01
  3.110441e+01    7.854790e-01
  3.113616e+01    7.769347e-01
  3.116791e+01    7.916312e-01
  3.119966e+01    8.099455e-01
  3.123141e+01    8.101496e-01
  3.126316e+01    8.078765e-01
  3.129491e+01    7.919978e-01
  3.132666e+01    7.896317e-01
  3.135841e+01    7.941955e-01
  3.139017e+01    8.216347e-01
  3.142192e+01    8.050944e-01
  3.145367e+01    8.069648e-01
  3.148542e+01    8.322876e-01
  3.151717e+01    8.126166e-01
  3.154892e+01    8.625706e-01
  3.158067e+01    8.807501e-01
  3.161242e+01    8.920676e-01
  3.164418e+01    9.159831e-01
  3.167593e+01    9.546161e-01
  3.170768e+01    1.018455e+00
  3.173943e+01    1.141871e+00
  3.177118e+01    1.262220e+00
  3.180293e+01    1.467166e+00
  3.183468e+01    1.725822e+00
  3.186643e+01    1.965124e+00
  3.189818e+01    2.095174e+00
  3.192994e+01    2.041356e+00
  3.196169e+01    1.827343e+00
  3.199344e+01    1.530806e+00
  3.202519e+01    1.325696e+00
  3.205694e+01    1.167790e+00
  3.208869e+01    1.044345e+00
  3.212044e+01    9.878134e-01
  3.215219e+01    9.372141e-01
  3.218394e+01    8.914234e-01
  3.221570e+01    8.700911e-01
  3.224745e+01    8.288823e-01
  3.227920e+01    8.157248e-01
  3.231095e+01    8.018185e-01
  3.234270e+01    8.233843e-01
  3.237445e+01    8.041767e-01
  3.240620e+01    7.896149e-01
  3.243795e+01    7.749577e-01
  3.246970e+01    7.562342e-01
  3.250146e+01    7.762222e-01
  3.253321e+01    7.871192e-01
  3.254908e+01    7.736268e-01