File: XRD/Reaction conditions/2024-07-27_003_Ru-CGO-ex_Reaction_dwell_000023_data_000136.dat
# == pyFAI calibration ==
# Distance Sample to Detector: 0.4 m
# PONI: 9.750e-02, 1.135e-01 m
# Rotations: -0.000175 0.000000 -0.000000 rad
#
# == Fit2d calibration ==
# Distance Sample-beamCenter: 400.000 mm
# Center: x=1514.000, y=1300.000 pix
# Tilt: 0.010 deg  TiltPlanRot: 0.010 deg
#
# Detector Detector	 Spline= None	 PixelSize= 7.500e-05, 7.500e-05 m
#    Detector has a mask: False
#    Detector has a dark current: False
#    detector has a flat field: False
#
# Wavelength: 6.888e-11 m
# Mask applied: user provided
# Dark current applied: False
# Flat field applied: False
# Polarization factor: 0.99
# Normalization factor: 1.0
# --> /home/myspot/data/2024_07_Rosario/Ru-CGO-ex/2024-07-27_003_Ru-CGO-ex_Reaction_dwell_000023_data_000136.dat
#       q_nm^-1             I
  2.003187e-02    1.424646e-01
  5.178302e-02    4.982497e-02
  8.353417e-02    2.818921e-01
  1.152853e-01    4.232726e-02
  1.470365e-01    2.206131e-02
  1.787876e-01    2.078226e-02
  2.105388e-01    1.646701e-02
  2.422899e-01    1.117430e-02
  2.740411e-01    4.017438e-02
  3.057922e-01    3.379780e-02
  3.375433e-01    2.846784e-02
  3.692945e-01    3.297025e-02
  4.010456e-01    4.537663e-02
  4.327968e-01    3.029495e-02
  4.645479e-01    3.060217e-02
  4.962991e-01    6.042961e-02
  5.280502e-01    2.253277e-02
  5.598014e-01    2.617676e-02
  5.915525e-01    1.866388e-02
  6.233037e-01    3.881088e-02
  6.550548e-01    6.562937e-02
  6.868060e-01    5.128345e-02
  7.185571e-01    6.889370e-02
  7.503083e-01    7.128108e-02
  7.820594e-01    1.279212e-01
  8.138106e-01    1.778210e-01
  8.455617e-01    3.523300e-01
  8.773129e-01    4.602344e-01
  9.090640e-01    5.603951e-01
  9.408152e-01    8.288200e-01
  9.725663e-01    9.941958e-01
  1.004317e+00    1.231308e+00
  1.036069e+00    1.320816e+00
  1.067820e+00    1.438508e+00
  1.099571e+00    1.555069e+00
  1.131322e+00    1.579922e+00
  1.163073e+00    1.642221e+00
  1.194824e+00    1.840363e+00
  1.226575e+00    2.135796e+00
  1.258327e+00    2.430656e+00
  1.290078e+00    2.710021e+00
  1.321829e+00    2.860700e+00
  1.353580e+00    2.879995e+00
  1.385331e+00    2.804135e+00
  1.417082e+00    2.886374e+00
  1.448834e+00    2.925980e+00
  1.480585e+00    3.050665e+00
  1.512336e+00    3.142860e+00
  1.544087e+00    3.322460e+00
  1.575838e+00    3.176995e+00
  1.607589e+00    3.105043e+00
  1.639340e+00    3.117146e+00
  1.671092e+00    3.129640e+00
  1.702843e+00    3.265237e+00
  1.734594e+00    3.002223e+00
  1.766345e+00    2.939261e+00
  1.798096e+00    3.066455e+00
  1.829847e+00    2.948756e+00
  1.861598e+00    3.078912e+00
  1.893350e+00    3.107494e+00
  1.925101e+00    3.099136e+00
  1.956852e+00    3.122444e+00
  1.988603e+00    3.102711e+00
  2.020354e+00    3.115682e+00
  2.052105e+00    3.212157e+00
  2.083856e+00    3.123929e+00
  2.115608e+00    3.112343e+00
  2.147359e+00    3.143499e+00
  2.179110e+00    3.036990e+00
  2.210861e+00    2.949450e+00
  2.242612e+00    3.081813e+00
  2.274363e+00    3.062993e+00
  2.306115e+00    3.136145e+00
  2.337866e+00    3.213458e+00
  2.369617e+00    3.172038e+00
  2.401368e+00    3.162287e+00
  2.433119e+00    3.187392e+00
  2.464870e+00    3.221077e+00
  2.496621e+00    3.218628e+00
  2.528373e+00    3.265053e+00
  2.560124e+00    3.192079e+00
  2.591875e+00    3.231078e+00
  2.623626e+00    3.251196e+00
  2.655377e+00    3.268435e+00
  2.687128e+00    3.263026e+00
  2.718879e+00    3.200773e+00
  2.750631e+00    3.175089e+00
  2.782382e+00    3.139691e+00
  2.814133e+00    3.288243e+00
  2.845884e+00    3.252501e+00
  2.877635e+00    3.319782e+00
  2.909386e+00    3.260835e+00
  2.941137e+00    3.320703e+00
  2.972889e+00    3.344626e+00
  3.004640e+00    3.355005e+00
  3.036391e+00    3.357201e+00
  3.068142e+00    3.301288e+00
  3.099893e+00    3.328846e+00
  3.131644e+00    3.373993e+00
  3.163395e+00    3.391627e+00
  3.195147e+00    3.413423e+00
  3.226898e+00    3.471877e+00
  3.258649e+00    3.458240e+00
  3.290400e+00    3.418003e+00
  3.322151e+00    3.388443e+00
  3.353902e+00    3.356294e+00
  3.385654e+00    3.399691e+00
  3.417405e+00    3.476333e+00
  3.449156e+00    3.420811e+00
  3.480907e+00    3.474043e+00
  3.512658e+00    3.492944e+00
  3.544409e+00    3.474639e+00
  3.576160e+00    3.394698e+00
  3.607912e+00    3.517071e+00
  3.639663e+00    3.499189e+00
  3.671414e+00    3.364787e+00
  3.703165e+00    3.367599e+00
  3.734916e+00    3.423944e+00
  3.766667e+00    3.469456e+00
  3.798418e+00    3.434706e+00
  3.830170e+00    3.500267e+00
  3.861921e+00    3.515697e+00
  3.893672e+00    3.472377e+00
  3.925423e+00    3.511439e+00
  3.957174e+00    3.491426e+00
  3.988925e+00    3.563349e+00
  4.020676e+00    3.456767e+00
  4.052428e+00    3.537235e+00
  4.084179e+00    3.518988e+00
  4.115930e+00    3.553556e+00
  4.147681e+00    3.586865e+00
  4.179432e+00    3.565270e+00
  4.211183e+00    3.613860e+00
  4.242935e+00    3.462689e+00
  4.274686e+00    3.574878e+00
  4.306437e+00    3.557325e+00
  4.338188e+00    3.538057e+00
  4.369939e+00    3.510192e+00
  4.401690e+00    3.745545e+00
  4.433441e+00    3.609425e+00
  4.465193e+00    3.576996e+00
  4.496944e+00    3.620410e+00
  4.528695e+00    3.655467e+00
  4.560446e+00    3.571848e+00
  4.592197e+00    3.580638e+00
  4.623948e+00    3.689481e+00
  4.655699e+00    3.529333e+00
  4.687451e+00    3.632136e+00
  4.719202e+00    3.616420e+00
  4.750953e+00    3.703119e+00
  4.782704e+00    3.636070e+00
  4.814455e+00    3.638220e+00
  4.846206e+00    3.663085e+00
  4.877957e+00    3.622296e+00
  4.909709e+00    3.628286e+00
  4.941460e+00    3.619052e+00
  4.973211e+00    3.645181e+00
  5.004962e+00    3.662149e+00
  5.036713e+00    3.659984e+00
  5.068464e+00    3.697190e+00
  5.100216e+00    3.666590e+00
  5.131967e+00    3.650360e+00
  5.163718e+00    3.710583e+00
  5.195469e+00    3.692058e+00
  5.227220e+00    3.656169e+00
  5.258971e+00    3.725627e+00
  5.290722e+00    3.652087e+00
  5.322474e+00    3.715310e+00
  5.354225e+00    3.676081e+00
  5.385976e+00    3.612029e+00
  5.417727e+00    3.660969e+00
  5.449478e+00    3.704183e+00
  5.481229e+00    3.572769e+00
  5.512980e+00    3.590367e+00
  5.544732e+00    3.610637e+00
  5.576483e+00    3.603652e+00
  5.608234e+00    3.523582e+00
  5.639985e+00    3.636885e+00
  5.671736e+00    3.655295e+00
  5.703487e+00    3.629944e+00
  5.735238e+00    3.545801e+00
  5.766990e+00    3.621994e+00
  5.798741e+00    3.580526e+00
  5.830492e+00    3.547999e+00
  5.862243e+00    3.513926e+00
  5.893994e+00    3.556641e+00
  5.925745e+00    3.578647e+00
  5.957497e+00    3.540339e+00
  5.989248e+00    3.497336e+00
  6.020999e+00    3.610345e+00
  6.052750e+00    3.506770e+00
  6.084501e+00    3.558641e+00
  6.116252e+00    3.644224e+00
  6.148003e+00    3.569219e+00
  6.179755e+00    3.614513e+00
  6.211506e+00    3.539739e+00
  6.243257e+00    3.685248e+00
  6.275008e+00    3.577464e+00
  6.306759e+00    3.560421e+00
  6.338510e+00    3.565753e+00
  6.370261e+00    3.522651e+00
  6.402013e+00    3.574462e+00
  6.433764e+00    3.627496e+00
  6.465515e+00    3.487789e+00
  6.497266e+00    3.576135e+00
  6.529017e+00    3.495996e+00
  6.560768e+00    3.627797e+00
  6.592519e+00    3.567554e+00
  6.624271e+00    3.511777e+00
  6.656022e+00    3.526504e+00
  6.687773e+00    3.438614e+00
  6.719524e+00    3.542857e+00
  6.751275e+00    3.501540e+00
  6.783026e+00    3.549082e+00
  6.814777e+00    3.498932e+00
  6.846529e+00    3.546001e+00
  6.878280e+00    3.549710e+00
  6.910031e+00    3.555750e+00
  6.941782e+00    3.562300e+00
  6.973533e+00    3.587559e+00
  7.005284e+00    3.571391e+00
  7.037036e+00    3.568702e+00
  7.068787e+00    3.561661e+00
  7.100538e+00    3.509850e+00
  7.132289e+00    3.455728e+00
  7.164040e+00    3.529739e+00
  7.195791e+00    3.510444e+00
  7.227542e+00    3.554225e+00
  7.259294e+00    3.459683e+00
  7.291045e+00    3.524559e+00
  7.322796e+00    3.515295e+00
  7.354547e+00    3.497576e+00
  7.386298e+00    3.433455e+00
  7.418049e+00    3.529731e+00
  7.449800e+00    3.544567e+00
  7.481552e+00    3.504801e+00
  7.513303e+00    3.434230e+00
  7.545054e+00    3.472453e+00
  7.576805e+00    3.436227e+00
  7.608556e+00    3.450393e+00
  7.640307e+00    3.451625e+00
  7.672058e+00    3.532469e+00
  7.703810e+00    3.441162e+00
  7.735561e+00    3.537795e+00
  7.767312e+00    3.469344e+00
  7.799063e+00    3.491567e+00
  7.830814e+00    3.469301e+00
  7.862565e+00    3.433888e+00
  7.894317e+00    3.541704e+00
  7.926068e+00    3.461089e+00
  7.957819e+00    3.454186e+00
  7.989570e+00    3.455950e+00
  8.021321e+00    3.474225e+00
  8.053072e+00    3.406859e+00
  8.084823e+00    3.332177e+00
  8.116575e+00    3.470687e+00
  8.148326e+00    3.446388e+00
  8.180077e+00    3.502331e+00
  8.211828e+00    3.469348e+00
  8.243579e+00    3.485937e+00
  8.275330e+00    3.386246e+00
  8.307081e+00    3.500014e+00
  8.338833e+00    3.460493e+00
  8.370584e+00    3.426217e+00
  8.402335e+00    3.386376e+00
  8.434086e+00    3.397782e+00
  8.465837e+00    3.356862e+00
  8.497588e+00    3.328501e+00
  8.529339e+00    3.388290e+00
  8.561091e+00    3.399490e+00
  8.592842e+00    3.396771e+00
  8.624593e+00    3.282339e+00
  8.656344e+00    3.330931e+00
  8.688095e+00    3.327406e+00
  8.719846e+00    3.383076e+00
  8.751598e+00    3.332464e+00
  8.783349e+00    3.362773e+00
  8.815100e+00    3.381338e+00
  8.846851e+00    3.362226e+00
  8.878602e+00    3.394528e+00
  8.910353e+00    3.297763e+00
  8.942104e+00    3.281581e+00
  8.973856e+00    3.304597e+00
  9.005607e+00    3.241816e+00
  9.037358e+00    3.241170e+00
  9.069109e+00    3.287800e+00
  9.100860e+00    3.299303e+00
  9.132611e+00    3.338321e+00
  9.164362e+00    3.318155e+00
  9.196114e+00    3.229960e+00
  9.227865e+00    3.277656e+00
  9.259616e+00    3.256611e+00
  9.291367e+00    3.199760e+00
  9.323118e+00    3.188313e+00
  9.354869e+00    3.295536e+00
  9.386620e+00    3.232001e+00
  9.418372e+00    3.181302e+00
  9.450123e+00    3.190593e+00
  9.481874e+00    3.233299e+00
  9.513625e+00    3.251738e+00
  9.545376e+00    3.223981e+00
  9.577127e+00    3.227632e+00
  9.608878e+00    3.228081e+00
  9.640630e+00    3.183688e+00
  9.672381e+00    3.162462e+00
  9.704132e+00    3.168582e+00
  9.735883e+00    3.181317e+00
  9.767634e+00    3.138071e+00
  9.799385e+00    3.139470e+00
  9.831137e+00    3.167642e+00
  9.862888e+00    3.103640e+00
  9.894639e+00    3.241974e+00
  9.926390e+00    3.129557e+00
  9.958141e+00    3.123016e+00
  9.989892e+00    3.150347e+00
  1.002164e+01    3.074609e+00
  1.005339e+01    3.140193e+00
  1.008515e+01    3.110549e+00
  1.011690e+01    3.084857e+00
  1.014865e+01    3.143530e+00
  1.018040e+01    3.089947e+00
  1.021215e+01    2.978637e+00
  1.024390e+01    3.111646e+00
  1.027565e+01    3.055500e+00
  1.030740e+01    3.050814e+00
  1.033915e+01    3.043596e+00
  1.037091e+01    3.028228e+00
  1.040266e+01    3.049262e+00
  1.043441e+01    3.039989e+00
  1.046616e+01    3.079096e+00
  1.049791e+01    3.010582e+00
  1.052966e+01    3.006884e+00
  1.056141e+01    2.995485e+00
  1.059316e+01    2.982007e+00
  1.062492e+01    3.002042e+00
  1.065667e+01    2.965425e+00
  1.068842e+01    2.970911e+00
  1.072017e+01    2.984918e+00
  1.075192e+01    2.962571e+00
  1.078367e+01    2.953381e+00
  1.081542e+01    2.909047e+00
  1.084717e+01    2.903255e+00
  1.087892e+01    2.899573e+00
  1.091068e+01    2.982352e+00
  1.094243e+01    2.951043e+00
  1.097418e+01    2.936439e+00
  1.100593e+01    2.898080e+00
  1.103768e+01    2.927699e+00
  1.106943e+01    2.915920e+00
  1.110118e+01    2.916505e+00
  1.113293e+01    2.846214e+00
  1.116468e+01    2.910391e+00
  1.119644e+01    2.880337e+00
  1.122819e+01    2.816110e+00
  1.125994e+01    2.947777e+00
  1.129169e+01    2.808625e+00
  1.132344e+01    2.797689e+00
  1.135519e+01    2.842260e+00
  1.138694e+01    2.747968e+00
  1.141869e+01    2.784871e+00
  1.145045e+01    2.787717e+00
  1.148220e+01    2.769572e+00
  1.151395e+01    2.755050e+00
  1.154570e+01    2.806164e+00
  1.157745e+01    2.807125e+00
  1.160920e+01    2.774564e+00
  1.164095e+01    2.813921e+00
  1.167270e+01    2.746746e+00
  1.170445e+01    2.743201e+00
  1.173621e+01    2.753956e+00
  1.176796e+01    2.795634e+00
  1.179971e+01    2.716016e+00
  1.183146e+01    2.755502e+00
  1.186321e+01    2.726001e+00
  1.189496e+01    2.712223e+00
  1.192671e+01    2.712860e+00
  1.195846e+01    2.732777e+00
  1.199021e+01    2.752707e+00
  1.202197e+01    2.705563e+00
  1.205372e+01    2.743380e+00
  1.208547e+01    2.740094e+00
  1.211722e+01    2.701395e+00
  1.214897e+01    2.680992e+00
  1.218072e+01    2.727917e+00
  1.221247e+01    2.749912e+00
  1.224422e+01    2.651332e+00
  1.227597e+01    2.717786e+00
  1.230773e+01    2.665581e+00
  1.233948e+01    2.618176e+00
  1.237123e+01    2.687873e+00
  1.240298e+01    2.686453e+00
  1.243473e+01    2.715814e+00
  1.246648e+01    2.724060e+00
  1.249823e+01    2.713577e+00
  1.252998e+01    2.728543e+00
  1.256174e+01    2.689274e+00
  1.259349e+01    2.703290e+00
  1.262524e+01    2.789645e+00
  1.265699e+01    2.779933e+00
  1.268874e+01    2.832511e+00
  1.272049e+01    2.873060e+00
  1.275224e+01    2.864045e+00
  1.278399e+01    2.960523e+00
  1.281574e+01    3.074240e+00
  1.284750e+01    3.173528e+00
  1.287925e+01    3.362930e+00
  1.291100e+01    3.633641e+00
  1.294275e+01    4.103806e+00
  1.297450e+01    4.819546e+00
  1.300625e+01    5.960651e+00
  1.303800e+01    7.746110e+00
  1.306975e+01    1.017076e+01
  1.310150e+01    1.261554e+01
  1.313326e+01    1.483415e+01
  1.316501e+01    1.605958e+01
  1.319676e+01    1.565543e+01
  1.322851e+01    1.247766e+01
  1.326026e+01    9.093009e+00
  1.329201e+01    6.727633e+00
  1.332376e+01    5.293731e+00
  1.335551e+01    4.514631e+00
  1.338727e+01    3.897409e+00
  1.341902e+01    3.496458e+00
  1.345077e+01    3.242277e+00
  1.348252e+01    3.025107e+00
  1.351427e+01    2.949070e+00
  1.354602e+01    2.851264e+00
  1.357777e+01    2.764918e+00
  1.360952e+01    2.671797e+00
  1.364127e+01    2.642214e+00
  1.367303e+01    2.571186e+00
  1.370478e+01    2.564786e+00
  1.373653e+01    2.559382e+00
  1.376828e+01    2.505598e+00
  1.380003e+01    2.481901e+00
  1.383178e+01    2.482010e+00
  1.386353e+01    2.428208e+00
  1.389528e+01    2.415515e+00
  1.392703e+01    2.410366e+00
  1.395879e+01    2.416887e+00
  1.399054e+01    2.313555e+00
  1.402229e+01    2.358389e+00
  1.405404e+01    2.307031e+00
  1.408579e+01    2.312577e+00
  1.411754e+01    2.275009e+00
  1.414929e+01    2.295094e+00
  1.418104e+01    2.277889e+00
  1.421279e+01    2.291841e+00
  1.424455e+01    2.267534e+00
  1.427630e+01    2.264296e+00
  1.430805e+01    2.283931e+00
  1.433980e+01    2.261509e+00
  1.437155e+01    2.256558e+00
  1.440330e+01    2.266392e+00
  1.443505e+01    2.231456e+00
  1.446680e+01    2.229455e+00
  1.449856e+01    2.224720e+00
  1.453031e+01    2.198445e+00
  1.456206e+01    2.194680e+00
  1.459381e+01    2.203765e+00
  1.462556e+01    2.176808e+00
  1.465731e+01    2.230238e+00
  1.468906e+01    2.220106e+00
  1.472081e+01    2.193279e+00
  1.475256e+01    2.193051e+00
  1.478432e+01    2.237237e+00
  1.481607e+01    2.202852e+00
  1.484782e+01    2.199735e+00
  1.487957e+01    2.222178e+00
  1.491132e+01    2.270469e+00
  1.494307e+01    2.266623e+00
  1.497482e+01    2.322456e+00
  1.500657e+01    2.459973e+00
  1.503832e+01    2.605958e+00
  1.507008e+01    2.809647e+00
  1.510183e+01    3.233895e+00
  1.513358e+01    3.771297e+00
  1.516533e+01    4.525012e+00
  1.519708e+01    5.198418e+00
  1.522883e+01    5.568174e+00
  1.526058e+01    5.727334e+00
  1.529233e+01    5.434099e+00
  1.532409e+01    4.626766e+00
  1.535584e+01    3.763612e+00
  1.538759e+01    3.173095e+00
  1.541934e+01    2.796447e+00
  1.545109e+01    2.477475e+00
  1.548284e+01    2.352866e+00
  1.551459e+01    2.254443e+00
  1.554634e+01    2.185872e+00
  1.557809e+01    2.141843e+00
  1.560985e+01    2.047459e+00
  1.564160e+01    2.097494e+00
  1.567335e+01    2.010534e+00
  1.570510e+01    2.006422e+00
  1.573685e+01    1.964543e+00
  1.576860e+01    1.967599e+00
  1.580035e+01    1.925225e+00
  1.583210e+01    1.896266e+00
  1.586385e+01    1.896406e+00
  1.589561e+01    1.915622e+00
  1.592736e+01    1.896054e+00
  1.595911e+01    1.888700e+00
  1.599086e+01    1.890439e+00
  1.602261e+01    1.911224e+00
  1.605436e+01    1.850170e+00
  1.608611e+01    1.825120e+00
  1.611786e+01    1.866601e+00
  1.614961e+01    1.821155e+00
  1.618137e+01    1.836239e+00
  1.621312e+01    1.856698e+00
  1.624487e+01    1.832919e+00
  1.627662e+01    1.798934e+00
  1.630837e+01    1.765090e+00
  1.634012e+01    1.750396e+00
  1.637187e+01    1.766943e+00
  1.640362e+01    1.798307e+00
  1.643538e+01    1.785418e+00
  1.646713e+01    1.735712e+00
  1.649888e+01    1.773937e+00
  1.653063e+01    1.744621e+00
  1.656238e+01    1.738371e+00
  1.659413e+01    1.747787e+00
  1.662588e+01    1.702783e+00
  1.665763e+01    1.716425e+00
  1.668938e+01    1.717287e+00
  1.672114e+01    1.739031e+00
  1.675289e+01    1.718413e+00
  1.678464e+01    1.695958e+00
  1.681639e+01    1.692275e+00
  1.684814e+01    1.703019e+00
  1.687989e+01    1.676218e+00
  1.691164e+01    1.686912e+00
  1.694339e+01    1.684789e+00
  1.697514e+01    1.689687e+00
  1.700690e+01    1.674806e+00
  1.703865e+01    1.683278e+00
  1.707040e+01    1.645757e+00
  1.710215e+01    1.631567e+00
  1.713390e+01    1.644492e+00
  1.716565e+01    1.658045e+00
  1.719740e+01    1.631176e+00
  1.722915e+01    1.606346e+00
  1.726091e+01    1.623878e+00
  1.729266e+01    1.607160e+00
  1.732441e+01    1.613683e+00
  1.735616e+01    1.602113e+00
  1.738791e+01    1.596699e+00
  1.741966e+01    1.574677e+00
  1.745141e+01    1.587239e+00
  1.748316e+01    1.602532e+00
  1.751491e+01    1.562013e+00
  1.754667e+01    1.583121e+00
  1.757842e+01    1.573243e+00
  1.761017e+01    1.562543e+00
  1.764192e+01    1.573985e+00
  1.767367e+01    1.586767e+00
  1.770542e+01    1.588548e+00
  1.773717e+01    1.527630e+00
  1.776892e+01    1.517019e+00
  1.780067e+01    1.560167e+00
  1.783243e+01    1.528065e+00
  1.786418e+01    1.524593e+00
  1.789593e+01    1.547838e+00
  1.792768e+01    1.516319e+00
  1.795943e+01    1.511057e+00
  1.799118e+01    1.519454e+00
  1.802293e+01    1.496520e+00
  1.805468e+01    1.511836e+00
  1.808643e+01    1.506059e+00
  1.811819e+01    1.487331e+00
  1.814994e+01    1.494627e+00
  1.818169e+01    1.465288e+00
  1.821344e+01    1.475089e+00
  1.824519e+01    1.466199e+00
  1.827694e+01    1.507097e+00
  1.830869e+01    1.450139e+00
  1.834044e+01    1.484615e+00
  1.837220e+01    1.473539e+00
  1.840395e+01    1.457198e+00
  1.843570e+01    1.481972e+00
  1.846745e+01    1.441965e+00
  1.849920e+01    1.426785e+00
  1.853095e+01    1.444435e+00
  1.856270e+01    1.467580e+00
  1.859445e+01    1.428989e+00
  1.862620e+01    1.416467e+00
  1.865796e+01    1.449923e+00
  1.868971e+01    1.407463e+00
  1.872146e+01    1.403563e+00
  1.875321e+01    1.419876e+00
  1.878496e+01    1.431671e+00
  1.881671e+01    1.395865e+00
  1.884846e+01    1.416813e+00
  1.888021e+01    1.405073e+00
  1.891196e+01    1.398255e+00
  1.894372e+01    1.402538e+00
  1.897547e+01    1.380574e+00
  1.900722e+01    1.392027e+00
  1.903897e+01    1.398237e+00
  1.907072e+01    1.369780e+00
  1.910247e+01    1.388769e+00
  1.913422e+01    1.392651e+00
  1.916597e+01    1.374417e+00
  1.919773e+01    1.345120e+00
  1.922948e+01    1.365497e+00
  1.926123e+01    1.356213e+00
  1.929298e+01    1.375892e+00
  1.932473e+01    1.363620e+00
  1.935648e+01    1.372861e+00
  1.938823e+01    1.369322e+00
  1.941998e+01    1.329048e+00
  1.945173e+01    1.330224e+00
  1.948349e+01    1.340582e+00
  1.951524e+01    1.332011e+00
  1.954699e+01    1.321207e+00
  1.957874e+01    1.329811e+00
  1.961049e+01    1.295339e+00
  1.964224e+01    1.334794e+00
  1.967399e+01    1.346214e+00
  1.970574e+01    1.293998e+00
  1.973749e+01    1.332100e+00
  1.976925e+01    1.318732e+00
  1.980100e+01    1.300144e+00
  1.983275e+01    1.279732e+00
  1.986450e+01    1.283984e+00
  1.989625e+01    1.282740e+00
  1.992800e+01    1.305042e+00
  1.995975e+01    1.242411e+00
  1.999150e+01    1.294632e+00
  2.002325e+01    1.268283e+00
  2.005501e+01    1.270113e+00
  2.008676e+01    1.265561e+00
  2.011851e+01    1.262392e+00
  2.015026e+01    1.284071e+00
  2.018201e+01    1.249893e+00
  2.021376e+01    1.262475e+00
  2.024551e+01    1.280060e+00
  2.027726e+01    1.249397e+00
  2.030902e+01    1.237861e+00
  2.034077e+01    1.251971e+00
  2.037252e+01    1.249719e+00
  2.040427e+01    1.248001e+00
  2.043602e+01    1.225648e+00
  2.046777e+01    1.243360e+00
  2.049952e+01    1.208386e+00
  2.053127e+01    1.239105e+00
  2.056302e+01    1.228644e+00
  2.059478e+01    1.224297e+00
  2.062653e+01    1.218991e+00
  2.065828e+01    1.232014e+00
  2.069003e+01    1.250977e+00
  2.072178e+01    1.208375e+00
  2.075353e+01    1.213751e+00
  2.078528e+01    1.247017e+00
  2.081703e+01    1.247966e+00
  2.084878e+01    1.249460e+00
  2.088054e+01    1.240011e+00
  2.091229e+01    1.245365e+00
  2.094404e+01    1.214605e+00
  2.097579e+01    1.246972e+00
  2.100754e+01    1.237969e+00
  2.103929e+01    1.247620e+00
  2.107104e+01    1.230960e+00
  2.110279e+01    1.253682e+00
  2.113455e+01    1.219957e+00
  2.116630e+01    1.227995e+00
  2.119805e+01    1.217443e+00
  2.122980e+01    1.236503e+00
  2.126155e+01    1.251911e+00
  2.129330e+01    1.268692e+00
  2.132505e+01    1.282316e+00
  2.135680e+01    1.287105e+00
  2.138855e+01    1.288517e+00
  2.142031e+01    1.324513e+00
  2.145206e+01    1.353892e+00
  2.148381e+01    1.384386e+00
  2.151556e+01    1.445700e+00
  2.154731e+01    1.516163e+00
  2.157906e+01    1.598993e+00
  2.161081e+01    1.747025e+00
  2.164256e+01    1.954383e+00
  2.167431e+01    2.275698e+00
  2.170607e+01    2.771543e+00
  2.173782e+01    3.542288e+00
  2.176957e+01    4.593731e+00
  2.180132e+01    5.820560e+00
  2.183307e+01    7.157015e+00
  2.186482e+01    8.291273e+00
  2.189657e+01    8.849745e+00
  2.192832e+01    8.265215e+00
  2.196007e+01    6.573503e+00
  2.199183e+01    4.846949e+00
  2.202358e+01    3.628431e+00
  2.205533e+01    2.847689e+00
  2.208708e+01    2.319788e+00
  2.211883e+01    1.975507e+00
  2.215058e+01    1.767563e+00
  2.218233e+01    1.587952e+00
  2.221408e+01    1.516072e+00
  2.224584e+01    1.429668e+00
  2.227759e+01    1.346563e+00
  2.230934e+01    1.288465e+00
  2.234109e+01    1.238532e+00
  2.237284e+01    1.218828e+00
  2.240459e+01    1.187313e+00
  2.243634e+01    1.194553e+00
  2.246809e+01    1.161362e+00
  2.249984e+01    1.152363e+00
  2.253160e+01    1.141611e+00
  2.256335e+01    1.120193e+00
  2.259510e+01    1.109363e+00
  2.262685e+01    1.099457e+00
  2.265860e+01    1.085116e+00
  2.269035e+01    1.090504e+00
  2.272210e+01    1.086706e+00
  2.275385e+01    1.066807e+00
  2.278560e+01    1.054595e+00
  2.281736e+01    1.019459e+00
  2.284911e+01    1.037307e+00
  2.288086e+01    1.048241e+00
  2.291261e+01    1.015241e+00
  2.294436e+01    1.021780e+00
  2.297611e+01    1.049012e+00
  2.300786e+01    1.028705e+00
  2.303961e+01    1.033960e+00
  2.307137e+01    9.841516e-01
  2.310312e+01    9.945056e-01
  2.313487e+01    1.009785e+00
  2.316662e+01    1.012504e+00
  2.319837e+01    1.010244e+00
  2.323012e+01    1.009431e+00
  2.326187e+01    9.890009e-01
  2.329362e+01    9.691749e-01
  2.332537e+01    9.759698e-01
  2.335713e+01    9.754639e-01
  2.338888e+01    9.791161e-01
  2.342063e+01    9.499133e-01
  2.345238e+01    9.730049e-01
  2.348413e+01    9.502167e-01
  2.351588e+01    9.571509e-01
  2.354763e+01    9.552960e-01
  2.357938e+01    9.580780e-01
  2.361113e+01    9.528018e-01
  2.364289e+01    9.575099e-01
  2.367464e+01    9.461338e-01
  2.370639e+01    9.535936e-01
  2.373814e+01    9.189186e-01
  2.376989e+01    9.180607e-01
  2.380164e+01    9.278264e-01
  2.383339e+01    9.092007e-01
  2.386514e+01    9.185790e-01
  2.389689e+01    9.261914e-01
  2.392865e+01    9.119334e-01
  2.396040e+01    9.122783e-01
  2.399215e+01    9.067190e-01
  2.402390e+01    8.832406e-01
  2.405565e+01    8.751862e-01
  2.408740e+01    8.555718e-01
  2.411915e+01    9.183506e-01
  2.415090e+01    8.735650e-01
  2.418266e+01    8.878530e-01
  2.421441e+01    8.676398e-01
  2.424616e+01    8.829219e-01
  2.427791e+01    8.966884e-01
  2.430966e+01    8.953841e-01
  2.434141e+01    8.985473e-01
  2.437316e+01    8.951834e-01
  2.440491e+01    9.021248e-01
  2.443666e+01    9.029327e-01
  2.446842e+01    8.835301e-01
  2.450017e+01    8.819928e-01
  2.453192e+01    9.167077e-01
  2.456367e+01    8.763083e-01
  2.459542e+01    8.794513e-01
  2.462717e+01    8.763760e-01
  2.465892e+01    8.867735e-01
  2.469067e+01    8.856210e-01
  2.472242e+01    8.646970e-01
  2.475418e+01    8.704884e-01
  2.478593e+01    8.919347e-01
  2.481768e+01    9.129519e-01
  2.484943e+01    8.879851e-01
  2.488118e+01    8.923491e-01
  2.491293e+01    8.800077e-01
  2.494468e+01    8.862458e-01
  2.497643e+01    9.059311e-01
  2.500819e+01    9.077871e-01
  2.503994e+01    9.152499e-01
  2.507169e+01    8.958665e-01
  2.510344e+01    9.176892e-01
  2.513519e+01    9.058942e-01
  2.516694e+01    9.322010e-01
  2.519869e+01    9.295835e-01
  2.523044e+01    9.171851e-01
  2.526219e+01    9.431241e-01
  2.529395e+01    9.214169e-01
  2.532570e+01    9.545413e-01
  2.535745e+01    9.741156e-01
  2.538920e+01    9.828705e-01
  2.542095e+01    9.994059e-01
  2.545270e+01    1.005785e+00
  2.548445e+01    1.064764e+00
  2.551620e+01    1.095915e+00
  2.554795e+01    1.098815e+00
  2.557971e+01    1.173378e+00
  2.561146e+01    1.236721e+00
  2.564321e+01    1.287521e+00
  2.567496e+01    1.426208e+00
  2.570671e+01    1.583934e+00
  2.573846e+01    1.857568e+00
  2.577021e+01    2.223713e+00
  2.580196e+01    2.821469e+00
  2.583371e+01    3.656776e+00
  2.586547e+01    4.688041e+00
  2.589722e+01    5.787543e+00
  2.592897e+01    6.728342e+00
  2.596072e+01    7.098086e+00
  2.599247e+01    6.501289e+00
  2.602422e+01    5.279438e+00
  2.605597e+01    3.964294e+00
  2.608772e+01    3.039988e+00
  2.611948e+01    2.341987e+00
  2.615123e+01    1.921457e+00
  2.618298e+01    1.670595e+00
  2.621473e+01    1.484187e+00
  2.624648e+01    1.332166e+00
  2.627823e+01    1.257756e+00
  2.630998e+01    1.175786e+00
  2.634173e+01    1.128821e+00
  2.637348e+01    1.101696e+00
  2.640524e+01    1.038442e+00
  2.643699e+01    1.048253e+00
  2.646874e+01    1.010813e+00
  2.650049e+01    1.026961e+00
  2.653224e+01    9.948030e-01
  2.656399e+01    1.003079e+00
  2.659574e+01    9.870600e-01
  2.662749e+01    9.956423e-01
  2.665924e+01    9.690343e-01
  2.669100e+01    9.547247e-01
  2.672275e+01    9.897529e-01
  2.675450e+01    9.580447e-01
  2.678625e+01    9.785150e-01
  2.681800e+01    9.875255e-01
  2.684975e+01    9.692597e-01
  2.688150e+01    9.708313e-01
  2.691325e+01    1.002511e+00
  2.694501e+01    1.032925e+00
  2.697676e+01    1.072209e+00
  2.700851e+01    1.110065e+00
  2.704026e+01    1.199304e+00
  2.707201e+01    1.330220e+00
  2.710376e+01    1.490357e+00
  2.713551e+01    1.749133e+00
  2.716726e+01    1.986755e+00
  2.719901e+01    2.126928e+00
  2.723077e+01    2.168236e+00
  2.726252e+01    1.953035e+00
  2.729427e+01    1.706548e+00
  2.732602e+01    1.497026e+00
  2.735777e+01    1.285830e+00
  2.738952e+01    1.179060e+00
  2.742127e+01    1.058382e+00
  2.745302e+01    1.027690e+00
  2.748477e+01    1.008701e+00
  2.751653e+01    9.922723e-01
  2.754828e+01    9.348811e-01
  2.758003e+01    9.387302e-01
  2.761178e+01    9.254425e-01
  2.764353e+01    9.159304e-01
  2.767528e+01    9.282653e-01
  2.770703e+01    9.134597e-01
  2.773878e+01    8.920723e-01
  2.777054e+01    8.851597e-01
  2.780229e+01    8.916388e-01
  2.783404e+01    8.840799e-01
  2.786579e+01    8.789415e-01
  2.789754e+01    9.024760e-01
  2.792929e+01    8.711649e-01
  2.796104e+01    8.681692e-01
  2.799279e+01    8.564079e-01
  2.802454e+01    8.786567e-01
  2.805630e+01    8.616857e-01
  2.808805e+01    8.660576e-01
  2.811980e+01    8.685389e-01
  2.815155e+01    8.682091e-01
  2.818330e+01    8.357075e-01
  2.821505e+01    8.698059e-01
  2.824680e+01    8.477881e-01
  2.827855e+01    8.575846e-01
  2.831030e+01    8.499836e-01
  2.834206e+01    8.393905e-01
  2.837381e+01    8.512684e-01
  2.840556e+01    8.557298e-01
  2.843731e+01    8.136265e-01
  2.846906e+01    8.667996e-01
  2.850081e+01    8.467847e-01
  2.853256e+01    8.569959e-01
  2.856431e+01    8.220992e-01
  2.859606e+01    8.190531e-01
  2.862782e+01    8.154065e-01
  2.865957e+01    8.292312e-01
  2.869132e+01    8.176949e-01
  2.872307e+01    8.505586e-01
  2.875482e+01    8.383057e-01
  2.878657e+01    8.416640e-01
  2.881832e+01    8.299614e-01
  2.885007e+01    8.393296e-01
  2.888183e+01    8.267365e-01
  2.891358e+01    8.245705e-01
  2.894533e+01    8.052867e-01
  2.897708e+01    8.117434e-01
  2.900883e+01    8.344626e-01
  2.904058e+01    8.424622e-01
  2.907233e+01    8.132579e-01
  2.910408e+01    8.125011e-01
  2.913583e+01    8.173450e-01
  2.916759e+01    8.138126e-01
  2.919934e+01    8.240938e-01
  2.923109e+01    8.210207e-01
  2.926284e+01    7.958606e-01
  2.929459e+01    8.128245e-01
  2.932634e+01    8.190308e-01
  2.935809e+01    8.070930e-01
  2.938984e+01    8.095985e-01
  2.942159e+01    8.082643e-01
  2.945335e+01    7.999600e-01
  2.948510e+01    8.251637e-01
  2.951685e+01    7.953731e-01
  2.954860e+01    7.963927e-01
  2.958035e+01    7.982014e-01
  2.961210e+01    7.891560e-01
  2.964385e+01    7.898483e-01
  2.967560e+01    7.998547e-01
  2.970736e+01    7.982612e-01
  2.973911e+01    8.096349e-01
  2.977086e+01    7.800980e-01
  2.980261e+01    7.986528e-01
  2.983436e+01    8.055974e-01
  2.986611e+01    8.153465e-01
  2.989786e+01    8.021964e-01
  2.992961e+01    8.049538e-01
  2.996136e+01    7.947523e-01
  2.999312e+01    8.098246e-01
  3.002487e+01    7.986633e-01
  3.005662e+01    8.086210e-01
  3.008837e+01    8.073777e-01
  3.012012e+01    7.884312e-01
  3.015187e+01    7.884647e-01
  3.018362e+01    8.045363e-01
  3.021537e+01    7.769951e-01
  3.024712e+01    7.844877e-01
  3.027888e+01    7.823809e-01
  3.031063e+01    8.045007e-01
  3.034238e+01    8.150803e-01
  3.037413e+01    7.975251e-01
  3.040588e+01    7.936967e-01
  3.043763e+01    7.763359e-01
  3.046938e+01    7.899505e-01
  3.050113e+01    7.780164e-01
  3.053288e+01    7.694739e-01
  3.056464e+01    7.988536e-01
  3.059639e+01    7.823519e-01
  3.062814e+01    7.667755e-01
  3.065989e+01    7.897937e-01
  3.069164e+01    7.994213e-01
  3.072339e+01    7.945172e-01
  3.075514e+01    7.761118e-01
  3.078689e+01    7.939394e-01
  3.081865e+01    7.828286e-01
  3.085040e+01    7.761580e-01
  3.088215e+01    7.951113e-01
  3.091390e+01    7.908989e-01
  3.094565e+01    7.920108e-01
  3.097740e+01    7.847357e-01
  3.100915e+01    7.916917e-01
  3.104090e+01    7.712341e-01
  3.107265e+01    8.192178e-01
  3.110441e+01    8.055514e-01
  3.113616e+01    7.986739e-01
  3.116791e+01    7.844059e-01
  3.119966e+01    7.913659e-01
  3.123141e+01    8.004056e-01
  3.126316e+01    7.969467e-01
  3.129491e+01    8.064807e-01
  3.132666e+01    8.005036e-01
  3.135841e+01    8.054917e-01
  3.139017e+01    8.054092e-01
  3.142192e+01    7.936885e-01
  3.145367e+01    8.065265e-01
  3.148542e+01    8.216759e-01
  3.151717e+01    8.517039e-01
  3.154892e+01    8.622043e-01
  3.158067e+01    8.742689e-01
  3.161242e+01    8.953928e-01
  3.164418e+01    9.219037e-01
  3.167593e+01    9.477288e-01
  3.170768e+01    1.007475e+00
  3.173943e+01    1.104730e+00
  3.177118e+01    1.239593e+00
  3.180293e+01    1.460575e+00
  3.183468e+01    1.682961e+00
  3.186643e+01    1.926025e+00
  3.189818e+01    2.093678e+00
  3.192994e+01    2.047850e+00
  3.196169e+01    1.830188e+00
  3.199344e+01    1.569990e+00
  3.202519e+01    1.297204e+00
  3.205694e+01    1.167508e+00
  3.208869e+01    1.041656e+00
  3.212044e+01    9.867469e-01
  3.215219e+01    9.378543e-01
  3.218394e+01    8.971341e-01
  3.221570e+01    8.552989e-01
  3.224745e+01    8.186445e-01
  3.227920e+01    8.108864e-01
  3.231095e+01    8.277378e-01
  3.234270e+01    8.179654e-01
  3.237445e+01    8.026842e-01
  3.240620e+01    8.054379e-01
  3.243795e+01    7.730825e-01
  3.246970e+01    7.711208e-01
  3.250146e+01    7.585233e-01
  3.253321e+01    8.055116e-01
  3.254908e+01    7.762716e-01