File: XRD/Reaction conditions/2024-07-27_003_Ru-CGO-ex_Reaction_dwell_000023_data_000188.dat
# == pyFAI calibration ==
# Distance Sample to Detector: 0.4 m
# PONI: 9.750e-02, 1.135e-01 m
# Rotations: -0.000175 0.000000 -0.000000 rad
#
# == Fit2d calibration ==
# Distance Sample-beamCenter: 400.000 mm
# Center: x=1514.000, y=1300.000 pix
# Tilt: 0.010 deg  TiltPlanRot: 0.010 deg
#
# Detector Detector	 Spline= None	 PixelSize= 7.500e-05, 7.500e-05 m
#    Detector has a mask: False
#    Detector has a dark current: False
#    detector has a flat field: False
#
# Wavelength: 6.888e-11 m
# Mask applied: user provided
# Dark current applied: False
# Flat field applied: False
# Polarization factor: 0.99
# Normalization factor: 1.0
# --> /home/myspot/data/2024_07_Rosario/Ru-CGO-ex/2024-07-27_003_Ru-CGO-ex_Reaction_dwell_000023_data_000188.dat
#       q_nm^-1             I
  2.003187e-02    0.000000e+00
  5.178302e-02    0.000000e+00
  8.353417e-02    1.812922e-01
  1.152853e-01    5.690903e-02
  1.470365e-01    1.667995e-02
  1.787876e-01    0.000000e+00
  2.105388e-01    6.473486e-02
  2.422899e-01    2.884522e-02
  2.740411e-01    3.275544e-02
  3.057922e-01    4.474375e-02
  3.375433e-01    4.762294e-02
  3.692945e-01    4.488159e-02
  4.010456e-01    5.292230e-02
  4.327968e-01    3.234919e-02
  4.645479e-01    6.060113e-02
  4.962991e-01    8.497990e-03
  5.280502e-01    2.693150e-02
  5.598014e-01    8.203299e-02
  5.915525e-01    1.786651e-02
  6.233037e-01    4.399003e-02
  6.550548e-01    3.416933e-02
  6.868060e-01    2.373431e-02
  7.185571e-01    3.267752e-02
  7.503083e-01    4.435124e-02
  7.820594e-01    1.015559e-01
  8.138106e-01    2.234987e-01
  8.455617e-01    3.400049e-01
  8.773129e-01    4.142363e-01
  9.090640e-01    5.865455e-01
  9.408152e-01    7.601215e-01
  9.725663e-01    1.131638e+00
  1.004317e+00    1.184628e+00
  1.036069e+00    1.428367e+00
  1.067820e+00    1.576380e+00
  1.099571e+00    1.471989e+00
  1.131322e+00    1.625428e+00
  1.163073e+00    1.711156e+00
  1.194824e+00    1.732495e+00
  1.226575e+00    2.279414e+00
  1.258327e+00    2.407322e+00
  1.290078e+00    2.642996e+00
  1.321829e+00    2.731318e+00
  1.353580e+00    2.828885e+00
  1.385331e+00    2.811250e+00
  1.417082e+00    2.891132e+00
  1.448834e+00    3.036717e+00
  1.480585e+00    3.037851e+00
  1.512336e+00    2.989106e+00
  1.544087e+00    3.199491e+00
  1.575838e+00    3.180000e+00
  1.607589e+00    3.107028e+00
  1.639340e+00    3.202434e+00
  1.671092e+00    3.122967e+00
  1.702843e+00    3.068501e+00
  1.734594e+00    3.061514e+00
  1.766345e+00    2.921863e+00
  1.798096e+00    2.956091e+00
  1.829847e+00    2.912641e+00
  1.861598e+00    3.042883e+00
  1.893350e+00    3.037015e+00
  1.925101e+00    3.052899e+00
  1.956852e+00    3.034713e+00
  1.988603e+00    3.009823e+00
  2.020354e+00    3.034460e+00
  2.052105e+00    3.038289e+00
  2.083856e+00    3.068058e+00
  2.115608e+00    3.119756e+00
  2.147359e+00    3.092814e+00
  2.179110e+00    3.092274e+00
  2.210861e+00    3.167373e+00
  2.242612e+00    3.031657e+00
  2.274363e+00    3.061615e+00
  2.306115e+00    3.070880e+00
  2.337866e+00    3.093042e+00
  2.369617e+00    3.233275e+00
  2.401368e+00    3.087741e+00
  2.433119e+00    3.239714e+00
  2.464870e+00    3.116507e+00
  2.496621e+00    3.177413e+00
  2.528373e+00    3.145620e+00
  2.560124e+00    3.169674e+00
  2.591875e+00    3.207435e+00
  2.623626e+00    3.305732e+00
  2.655377e+00    3.155004e+00
  2.687128e+00    3.141839e+00
  2.718879e+00    3.188208e+00
  2.750631e+00    3.319107e+00
  2.782382e+00    3.157040e+00
  2.814133e+00    3.224124e+00
  2.845884e+00    3.284539e+00
  2.877635e+00    3.342014e+00
  2.909386e+00    3.343704e+00
  2.941137e+00    3.300020e+00
  2.972889e+00    3.230417e+00
  3.004640e+00    3.225908e+00
  3.036391e+00    3.132669e+00
  3.068142e+00    3.267651e+00
  3.099893e+00    3.305415e+00
  3.131644e+00    3.328664e+00
  3.163395e+00    3.330122e+00
  3.195147e+00    3.421034e+00
  3.226898e+00    3.271509e+00
  3.258649e+00    3.344991e+00
  3.290400e+00    3.343843e+00
  3.322151e+00    3.367604e+00
  3.353902e+00    3.351999e+00
  3.385654e+00    3.453522e+00
  3.417405e+00    3.392728e+00
  3.449156e+00    3.356525e+00
  3.480907e+00    3.338366e+00
  3.512658e+00    3.383802e+00
  3.544409e+00    3.450873e+00
  3.576160e+00    3.472797e+00
  3.607912e+00    3.501612e+00
  3.639663e+00    3.521331e+00
  3.671414e+00    3.437159e+00
  3.703165e+00    3.472252e+00
  3.734916e+00    3.450765e+00
  3.766667e+00    3.351511e+00
  3.798418e+00    3.494459e+00
  3.830170e+00    3.381402e+00
  3.861921e+00    3.370329e+00
  3.893672e+00    3.404396e+00
  3.925423e+00    3.558477e+00
  3.957174e+00    3.438691e+00
  3.988925e+00    3.409980e+00
  4.020676e+00    3.505743e+00
  4.052428e+00    3.408130e+00
  4.084179e+00    3.520137e+00
  4.115930e+00    3.511495e+00
  4.147681e+00    3.454431e+00
  4.179432e+00    3.488817e+00
  4.211183e+00    3.453957e+00
  4.242935e+00    3.464461e+00
  4.274686e+00    3.454236e+00
  4.306437e+00    3.563420e+00
  4.338188e+00    3.498813e+00
  4.369939e+00    3.410324e+00
  4.401690e+00    3.516102e+00
  4.433441e+00    3.524413e+00
  4.465193e+00    3.491251e+00
  4.496944e+00    3.551030e+00
  4.528695e+00    3.490739e+00
  4.560446e+00    3.455728e+00
  4.592197e+00    3.619587e+00
  4.623948e+00    3.570820e+00
  4.655699e+00    3.553562e+00
  4.687451e+00    3.510466e+00
  4.719202e+00    3.542541e+00
  4.750953e+00    3.531121e+00
  4.782704e+00    3.501088e+00
  4.814455e+00    3.530057e+00
  4.846206e+00    3.598157e+00
  4.877957e+00    3.695833e+00
  4.909709e+00    3.550222e+00
  4.941460e+00    3.597530e+00
  4.973211e+00    3.565871e+00
  5.004962e+00    3.507796e+00
  5.036713e+00    3.544225e+00
  5.068464e+00    3.602380e+00
  5.100216e+00    3.513311e+00
  5.131967e+00    3.582409e+00
  5.163718e+00    3.532094e+00
  5.195469e+00    3.483840e+00
  5.227220e+00    3.542679e+00
  5.258971e+00    3.543193e+00
  5.290722e+00    3.601358e+00
  5.322474e+00    3.583927e+00
  5.354225e+00    3.588191e+00
  5.385976e+00    3.647483e+00
  5.417727e+00    3.543303e+00
  5.449478e+00    3.508676e+00
  5.481229e+00    3.580448e+00
  5.512980e+00    3.541682e+00
  5.544732e+00    3.570418e+00
  5.576483e+00    3.531706e+00
  5.608234e+00    3.484085e+00
  5.639985e+00    3.528619e+00
  5.671736e+00    3.554232e+00
  5.703487e+00    3.597418e+00
  5.735238e+00    3.540023e+00
  5.766990e+00    3.464286e+00
  5.798741e+00    3.542061e+00
  5.830492e+00    3.615720e+00
  5.862243e+00    3.483411e+00
  5.893994e+00    3.502251e+00
  5.925745e+00    3.475436e+00
  5.957497e+00    3.507799e+00
  5.989248e+00    3.430634e+00
  6.020999e+00    3.459957e+00
  6.052750e+00    3.498122e+00
  6.084501e+00    3.504590e+00
  6.116252e+00    3.477477e+00
  6.148003e+00    3.602724e+00
  6.179755e+00    3.518040e+00
  6.211506e+00    3.483333e+00
  6.243257e+00    3.498470e+00
  6.275008e+00    3.440736e+00
  6.306759e+00    3.367324e+00
  6.338510e+00    3.446407e+00
  6.370261e+00    3.492661e+00
  6.402013e+00    3.504123e+00
  6.433764e+00    3.545275e+00
  6.465515e+00    3.442717e+00
  6.497266e+00    3.457276e+00
  6.529017e+00    3.489743e+00
  6.560768e+00    3.499952e+00
  6.592519e+00    3.470342e+00
  6.624271e+00    3.457389e+00
  6.656022e+00    3.513674e+00
  6.687773e+00    3.539191e+00
  6.719524e+00    3.497755e+00
  6.751275e+00    3.439543e+00
  6.783026e+00    3.475443e+00
  6.814777e+00    3.466971e+00
  6.846529e+00    3.471584e+00
  6.878280e+00    3.471859e+00
  6.910031e+00    3.439549e+00
  6.941782e+00    3.464639e+00
  6.973533e+00    3.493069e+00
  7.005284e+00    3.521232e+00
  7.037036e+00    3.507213e+00
  7.068787e+00    3.554570e+00
  7.100538e+00    3.528332e+00
  7.132289e+00    3.461679e+00
  7.164040e+00    3.513934e+00
  7.195791e+00    3.447103e+00
  7.227542e+00    3.473308e+00
  7.259294e+00    3.385305e+00
  7.291045e+00    3.445282e+00
  7.322796e+00    3.499483e+00
  7.354547e+00    3.419863e+00
  7.386298e+00    3.427287e+00
  7.418049e+00    3.414614e+00
  7.449800e+00    3.407714e+00
  7.481552e+00    3.430049e+00
  7.513303e+00    3.406856e+00
  7.545054e+00    3.307561e+00
  7.576805e+00    3.430683e+00
  7.608556e+00    3.416917e+00
  7.640307e+00    3.394073e+00
  7.672058e+00    3.352382e+00
  7.703810e+00    3.335768e+00
  7.735561e+00    3.434206e+00
  7.767312e+00    3.398470e+00
  7.799063e+00    3.394601e+00
  7.830814e+00    3.430723e+00
  7.862565e+00    3.412897e+00
  7.894317e+00    3.348304e+00
  7.926068e+00    3.363360e+00
  7.957819e+00    3.403506e+00
  7.989570e+00    3.379520e+00
  8.021321e+00    3.359779e+00
  8.053072e+00    3.301716e+00
  8.084823e+00    3.347742e+00
  8.116575e+00    3.387034e+00
  8.148326e+00    3.407565e+00
  8.180077e+00    3.386926e+00
  8.211828e+00    3.443963e+00
  8.243579e+00    3.390412e+00
  8.275330e+00    3.391762e+00
  8.307081e+00    3.315365e+00
  8.338833e+00    3.328784e+00
  8.370584e+00    3.331829e+00
  8.402335e+00    3.367613e+00
  8.434086e+00    3.318414e+00
  8.465837e+00    3.366425e+00
  8.497588e+00    3.281753e+00
  8.529339e+00    3.333736e+00
  8.561091e+00    3.312784e+00
  8.592842e+00    3.255753e+00
  8.624593e+00    3.339859e+00
  8.656344e+00    3.284881e+00
  8.688095e+00    3.316116e+00
  8.719846e+00    3.274068e+00
  8.751598e+00    3.243647e+00
  8.783349e+00    3.269161e+00
  8.815100e+00    3.344649e+00
  8.846851e+00    3.208338e+00
  8.878602e+00    3.302331e+00
  8.910353e+00    3.198152e+00
  8.942104e+00    3.270699e+00
  8.973856e+00    3.235289e+00
  9.005607e+00    3.255961e+00
  9.037358e+00    3.209932e+00
  9.069109e+00    3.169385e+00
  9.100860e+00    3.221644e+00
  9.132611e+00    3.227271e+00
  9.164362e+00    3.251175e+00
  9.196114e+00    3.148297e+00
  9.227865e+00    3.211401e+00
  9.259616e+00    3.207985e+00
  9.291367e+00    3.187487e+00
  9.323118e+00    3.127120e+00
  9.354869e+00    3.217157e+00
  9.386620e+00    3.192906e+00
  9.418372e+00    3.158194e+00
  9.450123e+00    3.097864e+00
  9.481874e+00    3.183938e+00
  9.513625e+00    3.167195e+00
  9.545376e+00    3.234239e+00
  9.577127e+00    3.117112e+00
  9.608878e+00    3.131707e+00
  9.640630e+00    3.171349e+00
  9.672381e+00    3.142869e+00
  9.704132e+00    3.166010e+00
  9.735883e+00    3.190195e+00
  9.767634e+00    3.120268e+00
  9.799385e+00    3.133326e+00
  9.831137e+00    3.089295e+00
  9.862888e+00    3.153313e+00
  9.894639e+00    3.048902e+00
  9.926390e+00    3.101021e+00
  9.958141e+00    3.094872e+00
  9.989892e+00    3.081952e+00
  1.002164e+01    3.042382e+00
  1.005339e+01    3.024207e+00
  1.008515e+01    2.987890e+00
  1.011690e+01    3.047499e+00
  1.014865e+01    3.067380e+00
  1.018040e+01    3.024051e+00
  1.021215e+01    3.048537e+00
  1.024390e+01    3.014096e+00
  1.027565e+01    3.023242e+00
  1.030740e+01    2.964252e+00
  1.033915e+01    3.029686e+00
  1.037091e+01    2.992284e+00
  1.040266e+01    2.964755e+00
  1.043441e+01    2.988439e+00
  1.046616e+01    2.976892e+00
  1.049791e+01    2.936781e+00
  1.052966e+01    2.960281e+00
  1.056141e+01    2.947785e+00
  1.059316e+01    2.990461e+00
  1.062492e+01    2.960659e+00
  1.065667e+01    2.886622e+00
  1.068842e+01    2.938337e+00
  1.072017e+01    2.858683e+00
  1.075192e+01    2.976911e+00
  1.078367e+01    2.900716e+00
  1.081542e+01    2.886618e+00
  1.084717e+01    2.886527e+00
  1.087892e+01    2.880193e+00
  1.091068e+01    2.886208e+00
  1.094243e+01    2.872580e+00
  1.097418e+01    2.861518e+00
  1.100593e+01    2.902589e+00
  1.103768e+01    2.870525e+00
  1.106943e+01    2.819070e+00
  1.110118e+01    2.862677e+00
  1.113293e+01    2.763899e+00
  1.116468e+01    2.817287e+00
  1.119644e+01    2.833745e+00
  1.122819e+01    2.831115e+00
  1.125994e+01    2.760462e+00
  1.129169e+01    2.823139e+00
  1.132344e+01    2.741649e+00
  1.135519e+01    2.787543e+00
  1.138694e+01    2.811797e+00
  1.141869e+01    2.769608e+00
  1.145045e+01    2.763359e+00
  1.148220e+01    2.749600e+00
  1.151395e+01    2.778708e+00
  1.154570e+01    2.706212e+00
  1.157745e+01    2.753637e+00
  1.160920e+01    2.737844e+00
  1.164095e+01    2.729299e+00
  1.167270e+01    2.724494e+00
  1.170445e+01    2.705096e+00
  1.173621e+01    2.731505e+00
  1.176796e+01    2.685719e+00
  1.179971e+01    2.718008e+00
  1.183146e+01    2.699022e+00
  1.186321e+01    2.702475e+00
  1.189496e+01    2.676943e+00
  1.192671e+01    2.679932e+00
  1.195846e+01    2.669783e+00
  1.199021e+01    2.646630e+00
  1.202197e+01    2.670359e+00
  1.205372e+01    2.632201e+00
  1.208547e+01    2.665387e+00
  1.211722e+01    2.652374e+00
  1.214897e+01    2.667985e+00
  1.218072e+01    2.672007e+00
  1.221247e+01    2.651296e+00
  1.224422e+01    2.631805e+00
  1.227597e+01    2.647943e+00
  1.230773e+01    2.623084e+00
  1.233948e+01    2.618212e+00
  1.237123e+01    2.651325e+00
  1.240298e+01    2.658396e+00
  1.243473e+01    2.574358e+00
  1.246648e+01    2.678393e+00
  1.249823e+01    2.634671e+00
  1.252998e+01    2.657785e+00
  1.256174e+01    2.701616e+00
  1.259349e+01    2.709773e+00
  1.262524e+01    2.688710e+00
  1.265699e+01    2.731773e+00
  1.268874e+01    2.774149e+00
  1.272049e+01    2.773936e+00
  1.275224e+01    2.854130e+00
  1.278399e+01    2.878075e+00
  1.281574e+01    3.021984e+00
  1.284750e+01    3.144077e+00
  1.287925e+01    3.353109e+00
  1.291100e+01    3.624983e+00
  1.294275e+01    4.037251e+00
  1.297450e+01    4.653699e+00
  1.300625e+01    5.817897e+00
  1.303800e+01    7.599482e+00
  1.306975e+01    9.990449e+00
  1.310150e+01    1.254169e+01
  1.313326e+01    1.458621e+01
  1.316501e+01    1.600908e+01
  1.319676e+01    1.531612e+01
  1.322851e+01    1.226614e+01
  1.326026e+01    8.899292e+00
  1.329201e+01    6.573776e+00
  1.332376e+01    5.243019e+00
  1.335551e+01    4.329518e+00
  1.338727e+01    3.775813e+00
  1.341902e+01    3.440289e+00
  1.345077e+01    3.153816e+00
  1.348252e+01    3.006881e+00
  1.351427e+01    2.822495e+00
  1.354602e+01    2.749407e+00
  1.357777e+01    2.680755e+00
  1.360952e+01    2.597681e+00
  1.364127e+01    2.605788e+00
  1.367303e+01    2.500925e+00
  1.370478e+01    2.551036e+00
  1.373653e+01    2.489403e+00
  1.376828e+01    2.478040e+00
  1.380003e+01    2.428459e+00
  1.383178e+01    2.422319e+00
  1.386353e+01    2.391816e+00
  1.389528e+01    2.371840e+00
  1.392703e+01    2.351942e+00
  1.395879e+01    2.356900e+00
  1.399054e+01    2.352204e+00
  1.402229e+01    2.380815e+00
  1.405404e+01    2.323147e+00
  1.408579e+01    2.329156e+00
  1.411754e+01    2.254832e+00
  1.414929e+01    2.301191e+00
  1.418104e+01    2.309406e+00
  1.421279e+01    2.268426e+00
  1.424455e+01    2.259293e+00
  1.427630e+01    2.247679e+00
  1.430805e+01    2.226061e+00
  1.433980e+01    2.227262e+00
  1.437155e+01    2.188649e+00
  1.440330e+01    2.181297e+00
  1.443505e+01    2.175124e+00
  1.446680e+01    2.171754e+00
  1.449856e+01    2.158445e+00
  1.453031e+01    2.169525e+00
  1.456206e+01    2.193953e+00
  1.459381e+01    2.165432e+00
  1.462556e+01    2.192936e+00
  1.465731e+01    2.138745e+00
  1.468906e+01    2.171495e+00
  1.472081e+01    2.138684e+00
  1.475256e+01    2.157404e+00
  1.478432e+01    2.175136e+00
  1.481607e+01    2.176154e+00
  1.484782e+01    2.150289e+00
  1.487957e+01    2.199931e+00
  1.491132e+01    2.244827e+00
  1.494307e+01    2.270796e+00
  1.497482e+01    2.333696e+00
  1.500657e+01    2.400909e+00
  1.503832e+01    2.563362e+00
  1.507008e+01    2.749780e+00
  1.510183e+01    3.184545e+00
  1.513358e+01    3.766626e+00
  1.516533e+01    4.546464e+00
  1.519708e+01    5.121312e+00
  1.522883e+01    5.470191e+00
  1.526058e+01    5.688595e+00
  1.529233e+01    5.381341e+00
  1.532409e+01    4.613290e+00
  1.535584e+01    3.657088e+00
  1.538759e+01    3.107785e+00
  1.541934e+01    2.683487e+00
  1.545109e+01    2.463374e+00
  1.548284e+01    2.353360e+00
  1.551459e+01    2.196136e+00
  1.554634e+01    2.149184e+00
  1.557809e+01    2.114600e+00
  1.560985e+01    2.041240e+00
  1.564160e+01    2.027961e+00
  1.567335e+01    1.976067e+00
  1.570510e+01    1.981884e+00
  1.573685e+01    1.947469e+00
  1.576860e+01    1.946625e+00
  1.580035e+01    1.895331e+00
  1.583210e+01    1.881989e+00
  1.586385e+01    1.875075e+00
  1.589561e+01    1.885978e+00
  1.592736e+01    1.858927e+00
  1.595911e+01    1.851535e+00
  1.599086e+01    1.837194e+00
  1.602261e+01    1.885001e+00
  1.605436e+01    1.815020e+00
  1.608611e+01    1.806591e+00
  1.611786e+01    1.830046e+00
  1.614961e+01    1.825146e+00
  1.618137e+01    1.798491e+00
  1.621312e+01    1.736670e+00
  1.624487e+01    1.784681e+00
  1.627662e+01    1.745958e+00
  1.630837e+01    1.766777e+00
  1.634012e+01    1.785764e+00
  1.637187e+01    1.733417e+00
  1.640362e+01    1.749803e+00
  1.643538e+01    1.744562e+00
  1.646713e+01    1.721786e+00
  1.649888e+01    1.725602e+00
  1.653063e+01    1.729009e+00
  1.656238e+01    1.696505e+00
  1.659413e+01    1.736116e+00
  1.662588e+01    1.689620e+00
  1.665763e+01    1.674631e+00
  1.668938e+01    1.699356e+00
  1.672114e+01    1.705287e+00
  1.675289e+01    1.689950e+00
  1.678464e+01    1.680889e+00
  1.681639e+01    1.672454e+00
  1.684814e+01    1.651401e+00
  1.687989e+01    1.668791e+00
  1.691164e+01    1.623469e+00
  1.694339e+01    1.628601e+00
  1.697514e+01    1.653744e+00
  1.700690e+01    1.639352e+00
  1.703865e+01    1.624532e+00
  1.707040e+01    1.623640e+00
  1.710215e+01    1.624820e+00
  1.713390e+01    1.587087e+00
  1.716565e+01    1.619386e+00
  1.719740e+01    1.612297e+00
  1.722915e+01    1.621965e+00
  1.726091e+01    1.590759e+00
  1.729266e+01    1.613104e+00
  1.732441e+01    1.602380e+00
  1.735616e+01    1.593820e+00
  1.738791e+01    1.543560e+00
  1.741966e+01    1.588265e+00
  1.745141e+01    1.567379e+00
  1.748316e+01    1.580016e+00
  1.751491e+01    1.569611e+00
  1.754667e+01    1.569882e+00
  1.757842e+01    1.553155e+00
  1.761017e+01    1.547908e+00
  1.764192e+01    1.566258e+00
  1.767367e+01    1.570163e+00
  1.770542e+01    1.536911e+00
  1.773717e+01    1.542284e+00
  1.776892e+01    1.539525e+00
  1.780067e+01    1.483405e+00
  1.783243e+01    1.492718e+00
  1.786418e+01    1.495243e+00
  1.789593e+01    1.504519e+00
  1.792768e+01    1.513559e+00
  1.795943e+01    1.457579e+00
  1.799118e+01    1.487183e+00
  1.802293e+01    1.523583e+00
  1.805468e+01    1.464270e+00
  1.808643e+01    1.484409e+00
  1.811819e+01    1.475299e+00
  1.814994e+01    1.457075e+00
  1.818169e+01    1.442877e+00
  1.821344e+01    1.465082e+00
  1.824519e+01    1.448837e+00
  1.827694e+01    1.439609e+00
  1.830869e+01    1.446867e+00
  1.834044e+01    1.426303e+00
  1.837220e+01    1.457384e+00
  1.840395e+01    1.463732e+00
  1.843570e+01    1.475410e+00
  1.846745e+01    1.428445e+00
  1.849920e+01    1.426563e+00
  1.853095e+01    1.421279e+00
  1.856270e+01    1.413600e+00
  1.859445e+01    1.419872e+00
  1.862620e+01    1.425466e+00
  1.865796e+01    1.351439e+00
  1.868971e+01    1.400394e+00
  1.872146e+01    1.396863e+00
  1.875321e+01    1.404607e+00
  1.878496e+01    1.377300e+00
  1.881671e+01    1.389070e+00
  1.884846e+01    1.367557e+00
  1.888021e+01    1.360238e+00
  1.891196e+01    1.403563e+00
  1.894372e+01    1.360956e+00
  1.897547e+01    1.394985e+00
  1.900722e+01    1.346708e+00
  1.903897e+01    1.382356e+00
  1.907072e+01    1.337845e+00
  1.910247e+01    1.356348e+00
  1.913422e+01    1.348409e+00
  1.916597e+01    1.356803e+00
  1.919773e+01    1.353773e+00
  1.922948e+01    1.354074e+00
  1.926123e+01    1.310661e+00
  1.929298e+01    1.323859e+00
  1.932473e+01    1.326696e+00
  1.935648e+01    1.324668e+00
  1.938823e+01    1.316676e+00
  1.941998e+01    1.315217e+00
  1.945173e+01    1.316295e+00
  1.948349e+01    1.321123e+00
  1.951524e+01    1.303621e+00
  1.954699e+01    1.347350e+00
  1.957874e+01    1.308920e+00
  1.961049e+01    1.306141e+00
  1.964224e+01    1.299825e+00
  1.967399e+01    1.271348e+00
  1.970574e+01    1.286005e+00
  1.973749e+01    1.292760e+00
  1.976925e+01    1.303140e+00
  1.980100e+01    1.290800e+00
  1.983275e+01    1.251442e+00
  1.986450e+01    1.272690e+00
  1.989625e+01    1.272775e+00
  1.992800e+01    1.250508e+00
  1.995975e+01    1.270245e+00
  1.999150e+01    1.268591e+00
  2.002325e+01    1.248403e+00
  2.005501e+01    1.213812e+00
  2.008676e+01    1.234061e+00
  2.011851e+01    1.268082e+00
  2.015026e+01    1.244847e+00
  2.018201e+01    1.213778e+00
  2.021376e+01    1.244966e+00
  2.024551e+01    1.223706e+00
  2.027726e+01    1.253661e+00
  2.030902e+01    1.203330e+00
  2.034077e+01    1.271910e+00
  2.037252e+01    1.233070e+00
  2.040427e+01    1.253176e+00
  2.043602e+01    1.231831e+00
  2.046777e+01    1.220757e+00
  2.049952e+01    1.239484e+00
  2.053127e+01    1.221091e+00
  2.056302e+01    1.233610e+00
  2.059478e+01    1.229099e+00
  2.062653e+01    1.205461e+00
  2.065828e+01    1.208166e+00
  2.069003e+01    1.215628e+00
  2.072178e+01    1.213107e+00
  2.075353e+01    1.222895e+00
  2.078528e+01    1.229621e+00
  2.081703e+01    1.190000e+00
  2.084878e+01    1.224119e+00
  2.088054e+01    1.185633e+00
  2.091229e+01    1.220288e+00
  2.094404e+01    1.207998e+00
  2.097579e+01    1.219169e+00
  2.100754e+01    1.204195e+00
  2.103929e+01    1.189503e+00
  2.107104e+01    1.203234e+00
  2.110279e+01    1.182907e+00
  2.113455e+01    1.202698e+00
  2.116630e+01    1.226229e+00
  2.119805e+01    1.218865e+00
  2.122980e+01    1.225508e+00
  2.126155e+01    1.218440e+00
  2.129330e+01    1.224093e+00
  2.132505e+01    1.219012e+00
  2.135680e+01    1.237283e+00
  2.138855e+01    1.294047e+00
  2.142031e+01    1.283255e+00
  2.145206e+01    1.313417e+00
  2.148381e+01    1.391835e+00
  2.151556e+01    1.406680e+00
  2.154731e+01    1.502140e+00
  2.157906e+01    1.615880e+00
  2.161081e+01    1.731426e+00
  2.164256e+01    1.944504e+00
  2.167431e+01    2.239550e+00
  2.170607e+01    2.727986e+00
  2.173782e+01    3.506096e+00
  2.176957e+01    4.553540e+00
  2.180132e+01    5.764875e+00
  2.183307e+01    7.053069e+00
  2.186482e+01    8.295430e+00
  2.189657e+01    8.736865e+00
  2.192832e+01    8.057006e+00
  2.196007e+01    6.433805e+00
  2.199183e+01    4.743026e+00
  2.202358e+01    3.500175e+00
  2.205533e+01    2.754971e+00
  2.208708e+01    2.264691e+00
  2.211883e+01    1.949050e+00
  2.215058e+01    1.695176e+00
  2.218233e+01    1.569544e+00
  2.221408e+01    1.483361e+00
  2.224584e+01    1.375910e+00
  2.227759e+01    1.316164e+00
  2.230934e+01    1.295696e+00
  2.234109e+01    1.227545e+00
  2.237284e+01    1.201421e+00
  2.240459e+01    1.157042e+00
  2.243634e+01    1.138889e+00
  2.246809e+01    1.156384e+00
  2.249984e+01    1.154151e+00
  2.253160e+01    1.101779e+00
  2.256335e+01    1.114779e+00
  2.259510e+01    1.098849e+00
  2.262685e+01    1.081045e+00
  2.265860e+01    1.080840e+00
  2.269035e+01    1.059413e+00
  2.272210e+01    1.065489e+00
  2.275385e+01    1.064142e+00
  2.278560e+01    1.037456e+00
  2.281736e+01    1.034207e+00
  2.284911e+01    1.037540e+00
  2.288086e+01    1.011751e+00
  2.291261e+01    1.015820e+00
  2.294436e+01    1.004081e+00
  2.297611e+01    9.983545e-01
  2.300786e+01    9.951960e-01
  2.303961e+01    1.001797e+00
  2.307137e+01    9.895318e-01
  2.310312e+01    9.969604e-01
  2.313487e+01    9.607936e-01
  2.316662e+01    9.982187e-01
  2.319837e+01    9.696006e-01
  2.323012e+01    9.532096e-01
  2.326187e+01    9.616305e-01
  2.329362e+01    9.838527e-01
  2.332537e+01    9.739935e-01
  2.335713e+01    9.692457e-01
  2.338888e+01    9.435012e-01
  2.342063e+01    9.268332e-01
  2.345238e+01    9.738825e-01
  2.348413e+01    9.415750e-01
  2.351588e+01    9.558097e-01
  2.354763e+01    9.237403e-01
  2.357938e+01    9.344450e-01
  2.361113e+01    9.578132e-01
  2.364289e+01    9.310631e-01
  2.367464e+01    9.331955e-01
  2.370639e+01    9.249085e-01
  2.373814e+01    9.149373e-01
  2.376989e+01    9.278492e-01
  2.380164e+01    8.926378e-01
  2.383339e+01    9.073037e-01
  2.386514e+01    8.991933e-01
  2.389689e+01    9.028731e-01
  2.392865e+01    8.855239e-01
  2.396040e+01    8.967188e-01
  2.399215e+01    8.942863e-01
  2.402390e+01    8.948802e-01
  2.405565e+01    8.838324e-01
  2.408740e+01    8.798912e-01
  2.411915e+01    8.685850e-01
  2.415090e+01    8.671120e-01
  2.418266e+01    8.828540e-01
  2.421441e+01    8.664480e-01
  2.424616e+01    8.553119e-01
  2.427791e+01    8.754183e-01
  2.430966e+01    8.800892e-01
  2.434141e+01    8.794134e-01
  2.437316e+01    8.815253e-01
  2.440491e+01    8.789646e-01
  2.443666e+01    8.969395e-01
  2.446842e+01    8.736297e-01
  2.450017e+01    8.742788e-01
  2.453192e+01    8.773633e-01
  2.456367e+01    8.806623e-01
  2.459542e+01    8.624471e-01
  2.462717e+01    8.638021e-01
  2.465892e+01    8.850820e-01
  2.469067e+01    8.784278e-01
  2.472242e+01    8.675892e-01
  2.475418e+01    8.843152e-01
  2.478593e+01    8.837430e-01
  2.481768e+01    8.588094e-01
  2.484943e+01    8.706827e-01
  2.488118e+01    8.869516e-01
  2.491293e+01    8.642793e-01
  2.494468e+01    8.826976e-01
  2.497643e+01    8.767202e-01
  2.500819e+01    8.744870e-01
  2.503994e+01    8.731119e-01
  2.507169e+01    8.730663e-01
  2.510344e+01    8.862005e-01
  2.513519e+01    8.846634e-01
  2.516694e+01    8.949621e-01
  2.519869e+01    9.030125e-01
  2.523044e+01    9.098452e-01
  2.526219e+01    9.228693e-01
  2.529395e+01    9.320647e-01
  2.532570e+01    9.404948e-01
  2.535745e+01    9.793587e-01
  2.538920e+01    9.688726e-01
  2.542095e+01    9.893535e-01
  2.545270e+01    1.030470e+00
  2.548445e+01    1.021385e+00
  2.551620e+01    1.052724e+00
  2.554795e+01    1.090778e+00
  2.557971e+01    1.118705e+00
  2.561146e+01    1.197831e+00
  2.564321e+01    1.287427e+00
  2.567496e+01    1.412889e+00
  2.570671e+01    1.569415e+00
  2.573846e+01    1.804639e+00
  2.577021e+01    2.162995e+00
  2.580196e+01    2.805233e+00
  2.583371e+01    3.613429e+00
  2.586547e+01    4.612598e+00
  2.589722e+01    5.724607e+00
  2.592897e+01    6.680984e+00
  2.596072e+01    6.971717e+00
  2.599247e+01    6.342766e+00
  2.602422e+01    5.082699e+00
  2.605597e+01    3.847481e+00
  2.608772e+01    2.938452e+00
  2.611948e+01    2.304100e+00
  2.615123e+01    1.889074e+00
  2.618298e+01    1.639145e+00
  2.621473e+01    1.444894e+00
  2.624648e+01    1.343416e+00
  2.627823e+01    1.232389e+00
  2.630998e+01    1.140420e+00
  2.634173e+01    1.076359e+00
  2.637348e+01    1.066293e+00
  2.640524e+01    1.066532e+00
  2.643699e+01    1.005007e+00
  2.646874e+01    1.009028e+00
  2.650049e+01    9.772589e-01
  2.653224e+01    9.980668e-01
  2.656399e+01    9.661896e-01
  2.659574e+01    9.653179e-01
  2.662749e+01    9.577147e-01
  2.665924e+01    9.522945e-01
  2.669100e+01    9.346215e-01
  2.672275e+01    9.789867e-01
  2.675450e+01    9.309829e-01
  2.678625e+01    9.488247e-01
  2.681800e+01    9.512239e-01
  2.684975e+01    9.426091e-01
  2.688150e+01    9.732358e-01
  2.691325e+01    9.922245e-01
  2.694501e+01    1.021809e+00
  2.697676e+01    1.070007e+00
  2.700851e+01    1.112155e+00
  2.704026e+01    1.188174e+00
  2.707201e+01    1.280943e+00
  2.710376e+01    1.507109e+00
  2.713551e+01    1.688080e+00
  2.716726e+01    1.958195e+00
  2.719901e+01    2.094566e+00
  2.723077e+01    2.108654e+00
  2.726252e+01    1.922320e+00
  2.729427e+01    1.654517e+00
  2.732602e+01    1.417902e+00
  2.735777e+01    1.278564e+00
  2.738952e+01    1.118775e+00
  2.742127e+01    1.060895e+00
  2.745302e+01    1.021913e+00
  2.748477e+01    9.816486e-01
  2.751653e+01    9.632084e-01
  2.754828e+01    9.412577e-01
  2.758003e+01    9.241607e-01
  2.761178e+01    9.052620e-01
  2.764353e+01    8.909379e-01
  2.767528e+01    8.833540e-01
  2.770703e+01    9.082071e-01
  2.773878e+01    8.558494e-01
  2.777054e+01    8.780939e-01
  2.780229e+01    8.775756e-01
  2.783404e+01    8.716395e-01
  2.786579e+01    8.600695e-01
  2.789754e+01    8.604344e-01
  2.792929e+01    8.506402e-01
  2.796104e+01    8.435821e-01
  2.799279e+01    8.462312e-01
  2.802454e+01    8.641614e-01
  2.805630e+01    8.604679e-01
  2.808805e+01    8.172703e-01
  2.811980e+01    8.540558e-01
  2.815155e+01    8.619684e-01
  2.818330e+01    8.310851e-01
  2.821505e+01    8.276997e-01
  2.824680e+01    8.580236e-01
  2.827855e+01    8.373680e-01
  2.831030e+01    8.295248e-01
  2.834206e+01    8.182055e-01
  2.837381e+01    8.367804e-01
  2.840556e+01    8.482680e-01
  2.843731e+01    8.286731e-01
  2.846906e+01    8.425249e-01
  2.850081e+01    8.346211e-01
  2.853256e+01    8.213341e-01
  2.856431e+01    8.131891e-01
  2.859606e+01    8.211144e-01
  2.862782e+01    8.412156e-01
  2.865957e+01    8.154321e-01
  2.869132e+01    8.148140e-01
  2.872307e+01    8.058997e-01
  2.875482e+01    8.221157e-01
  2.878657e+01    8.240467e-01
  2.881832e+01    8.475006e-01
  2.885007e+01    8.210375e-01
  2.888183e+01    8.242902e-01
  2.891358e+01    8.287994e-01
  2.894533e+01    8.083761e-01
  2.897708e+01    8.094834e-01
  2.900883e+01    7.919799e-01
  2.904058e+01    7.882231e-01
  2.907233e+01    8.308077e-01
  2.910408e+01    8.114949e-01
  2.913583e+01    7.960377e-01
  2.916759e+01    8.080376e-01
  2.919934e+01    8.081961e-01
  2.923109e+01    7.913236e-01
  2.926284e+01    7.937190e-01
  2.929459e+01    7.797622e-01
  2.932634e+01    7.735547e-01
  2.935809e+01    7.874323e-01
  2.938984e+01    7.896408e-01
  2.942159e+01    7.797887e-01
  2.945335e+01    7.945129e-01
  2.948510e+01    7.911183e-01
  2.951685e+01    7.842754e-01
  2.954860e+01    7.742435e-01
  2.958035e+01    7.883132e-01
  2.961210e+01    7.953705e-01
  2.964385e+01    7.866108e-01
  2.967560e+01    7.931691e-01
  2.970736e+01    8.108004e-01
  2.973911e+01    7.705680e-01
  2.977086e+01    7.784314e-01
  2.980261e+01    7.916433e-01
  2.983436e+01    7.985283e-01
  2.986611e+01    7.542574e-01
  2.989786e+01    7.851455e-01
  2.992961e+01    7.666313e-01
  2.996136e+01    8.031184e-01
  2.999312e+01    8.152611e-01
  3.002487e+01    7.839921e-01
  3.005662e+01    7.864730e-01
  3.008837e+01    8.059991e-01
  3.012012e+01    7.882725e-01
  3.015187e+01    7.720704e-01
  3.018362e+01    7.802141e-01
  3.021537e+01    8.060446e-01
  3.024712e+01    8.070544e-01
  3.027888e+01    7.637868e-01
  3.031063e+01    7.822415e-01
  3.034238e+01    7.625511e-01
  3.037413e+01    7.726378e-01
  3.040588e+01    7.779572e-01
  3.043763e+01    7.697922e-01
  3.046938e+01    7.961563e-01
  3.050113e+01    7.724679e-01
  3.053288e+01    7.796471e-01
  3.056464e+01    7.686937e-01
  3.059639e+01    7.771761e-01
  3.062814e+01    7.437442e-01
  3.065989e+01    7.777157e-01
  3.069164e+01    7.883041e-01
  3.072339e+01    7.730647e-01
  3.075514e+01    7.739568e-01
  3.078689e+01    7.559049e-01
  3.081865e+01    7.747483e-01
  3.085040e+01    7.702661e-01
  3.088215e+01    7.618479e-01
  3.091390e+01    7.729244e-01
  3.094565e+01    7.657362e-01
  3.097740e+01    7.909970e-01
  3.100915e+01    7.663046e-01
  3.104090e+01    7.758187e-01
  3.107265e+01    7.808205e-01
  3.110441e+01    7.881983e-01
  3.113616e+01    7.804399e-01
  3.116791e+01    7.854787e-01
  3.119966e+01    7.682658e-01
  3.123141e+01    7.812828e-01
  3.126316e+01    7.935364e-01
  3.129491e+01    7.880940e-01
  3.132666e+01    7.778802e-01
  3.135841e+01    7.909650e-01
  3.139017e+01    7.801796e-01
  3.142192e+01    7.923090e-01
  3.145367e+01    7.985998e-01
  3.148542e+01    8.061575e-01
  3.151717e+01    8.400323e-01
  3.154892e+01    8.265097e-01
  3.158067e+01    8.454782e-01
  3.161242e+01    8.504900e-01
  3.164418e+01    9.193461e-01
  3.167593e+01    9.620156e-01
  3.170768e+01    1.003791e+00
  3.173943e+01    1.083812e+00
  3.177118e+01    1.232804e+00
  3.180293e+01    1.429713e+00
  3.183468e+01    1.694833e+00
  3.186643e+01    1.912371e+00
  3.189818e+01    2.099882e+00
  3.192994e+01    2.001513e+00
  3.196169e+01    1.778720e+00
  3.199344e+01    1.510267e+00
  3.202519e+01    1.292418e+00
  3.205694e+01    1.134572e+00
  3.208869e+01    1.020949e+00
  3.212044e+01    9.559886e-01
  3.215219e+01    8.951066e-01
  3.218394e+01    8.517484e-01
  3.221570e+01    8.129419e-01
  3.224745e+01    8.313558e-01
  3.227920e+01    8.014956e-01
  3.231095e+01    7.821940e-01
  3.234270e+01    8.005844e-01
  3.237445e+01    7.838052e-01
  3.240620e+01    7.545505e-01
  3.243795e+01    7.891985e-01
  3.246970e+01    7.594346e-01
  3.250146e+01    7.945832e-01
  3.253321e+01    7.593049e-01
  3.254908e+01    7.661729e-01