File: XRD/Reaction conditions/2024-07-27_003_Ru-CGO-ex_Reaction_dwell_000023_data_000121.dat
# == pyFAI calibration ==
# Distance Sample to Detector: 0.4 m
# PONI: 9.750e-02, 1.135e-01 m
# Rotations: -0.000175 0.000000 -0.000000 rad
#
# == Fit2d calibration ==
# Distance Sample-beamCenter: 400.000 mm
# Center: x=1514.000, y=1300.000 pix
# Tilt: 0.010 deg  TiltPlanRot: 0.010 deg
#
# Detector Detector	 Spline= None	 PixelSize= 7.500e-05, 7.500e-05 m
#    Detector has a mask: False
#    Detector has a dark current: False
#    detector has a flat field: False
#
# Wavelength: 6.888e-11 m
# Mask applied: user provided
# Dark current applied: False
# Flat field applied: False
# Polarization factor: 0.99
# Normalization factor: 1.0
# --> /home/myspot/data/2024_07_Rosario/Ru-CGO-ex/2024-07-27_003_Ru-CGO-ex_Reaction_dwell_000023_data_000121.dat
#       q_nm^-1             I
  2.003187e-02    0.000000e+00
  5.178302e-02    0.000000e+00
  8.353417e-02    3.919208e-02
  1.152853e-01    0.000000e+00
  1.470365e-01    8.692576e-02
  1.787876e-01    2.652757e-02
  2.105388e-01    5.320426e-02
  2.422899e-01    5.106962e-02
  2.740411e-01    2.674501e-02
  3.057922e-01    1.937865e-02
  3.375433e-01    4.055063e-02
  3.692945e-01    3.651413e-02
  4.010456e-01    5.930426e-02
  4.327968e-01    2.320847e-02
  4.645479e-01    1.612840e-02
  4.962991e-01    6.703058e-02
  5.280502e-01    2.347136e-02
  5.598014e-01    2.987892e-02
  5.915525e-01    2.300766e-02
  6.233037e-01    7.371890e-02
  6.550548e-01    4.792278e-02
  6.868060e-01    5.006801e-02
  7.185571e-01    3.398759e-02
  7.503083e-01    4.913310e-02
  7.820594e-01    1.148168e-01
  8.138106e-01    2.376303e-01
  8.455617e-01    3.180414e-01
  8.773129e-01    4.515710e-01
  9.090640e-01    6.379209e-01
  9.408152e-01    8.001456e-01
  9.725663e-01    9.037237e-01
  1.004317e+00    1.170108e+00
  1.036069e+00    1.324050e+00
  1.067820e+00    1.479280e+00
  1.099571e+00    1.540507e+00
  1.131322e+00    1.605764e+00
  1.163073e+00    1.630943e+00
  1.194824e+00    1.970925e+00
  1.226575e+00    2.156746e+00
  1.258327e+00    2.467016e+00
  1.290078e+00    2.508518e+00
  1.321829e+00    2.652581e+00
  1.353580e+00    2.819666e+00
  1.385331e+00    2.891145e+00
  1.417082e+00    2.834811e+00
  1.448834e+00    3.020575e+00
  1.480585e+00    3.098902e+00
  1.512336e+00    3.019600e+00
  1.544087e+00    3.178680e+00
  1.575838e+00    3.233862e+00
  1.607589e+00    3.164077e+00
  1.639340e+00    3.095554e+00
  1.671092e+00    3.185236e+00
  1.702843e+00    3.273930e+00
  1.734594e+00    3.092655e+00
  1.766345e+00    3.023115e+00
  1.798096e+00    3.093163e+00
  1.829847e+00    3.102226e+00
  1.861598e+00    3.135385e+00
  1.893350e+00    3.060707e+00
  1.925101e+00    3.068359e+00
  1.956852e+00    2.992737e+00
  1.988603e+00    3.172599e+00
  2.020354e+00    3.079591e+00
  2.052105e+00    3.219128e+00
  2.083856e+00    3.067728e+00
  2.115608e+00    3.150956e+00
  2.147359e+00    3.197293e+00
  2.179110e+00    3.028593e+00
  2.210861e+00    3.095394e+00
  2.242612e+00    3.045956e+00
  2.274363e+00    3.049296e+00
  2.306115e+00    3.020075e+00
  2.337866e+00    3.143266e+00
  2.369617e+00    3.106932e+00
  2.401368e+00    3.206017e+00
  2.433119e+00    3.260402e+00
  2.464870e+00    3.252585e+00
  2.496621e+00    3.170107e+00
  2.528373e+00    3.268078e+00
  2.560124e+00    3.224205e+00
  2.591875e+00    3.098795e+00
  2.623626e+00    3.234905e+00
  2.655377e+00    3.237740e+00
  2.687128e+00    3.201149e+00
  2.718879e+00    3.317421e+00
  2.750631e+00    3.198497e+00
  2.782382e+00    3.383966e+00
  2.814133e+00    3.197765e+00
  2.845884e+00    3.416628e+00
  2.877635e+00    3.239787e+00
  2.909386e+00    3.346828e+00
  2.941137e+00    3.299495e+00
  2.972889e+00    3.336999e+00
  3.004640e+00    3.343160e+00
  3.036391e+00    3.264794e+00
  3.068142e+00    3.289102e+00
  3.099893e+00    3.266255e+00
  3.131644e+00    3.310901e+00
  3.163395e+00    3.398888e+00
  3.195147e+00    3.308532e+00
  3.226898e+00    3.386511e+00
  3.258649e+00    3.377469e+00
  3.290400e+00    3.402645e+00
  3.322151e+00    3.367076e+00
  3.353902e+00    3.342858e+00
  3.385654e+00    3.387732e+00
  3.417405e+00    3.511661e+00
  3.449156e+00    3.444115e+00
  3.480907e+00    3.382783e+00
  3.512658e+00    3.425875e+00
  3.544409e+00    3.438444e+00
  3.576160e+00    3.415332e+00
  3.607912e+00    3.488040e+00
  3.639663e+00    3.538008e+00
  3.671414e+00    3.491323e+00
  3.703165e+00    3.515474e+00
  3.734916e+00    3.489613e+00
  3.766667e+00    3.520427e+00
  3.798418e+00    3.417723e+00
  3.830170e+00    3.475006e+00
  3.861921e+00    3.447586e+00
  3.893672e+00    3.487557e+00
  3.925423e+00    3.486216e+00
  3.957174e+00    3.594097e+00
  3.988925e+00    3.490449e+00
  4.020676e+00    3.461590e+00
  4.052428e+00    3.545997e+00
  4.084179e+00    3.562429e+00
  4.115930e+00    3.484253e+00
  4.147681e+00    3.616839e+00
  4.179432e+00    3.499941e+00
  4.211183e+00    3.588947e+00
  4.242935e+00    3.564565e+00
  4.274686e+00    3.472907e+00
  4.306437e+00    3.625772e+00
  4.338188e+00    3.602702e+00
  4.369939e+00    3.530751e+00
  4.401690e+00    3.592083e+00
  4.433441e+00    3.602043e+00
  4.465193e+00    3.432703e+00
  4.496944e+00    3.481036e+00
  4.528695e+00    3.518477e+00
  4.560446e+00    3.600686e+00
  4.592197e+00    3.607817e+00
  4.623948e+00    3.555466e+00
  4.655699e+00    3.643615e+00
  4.687451e+00    3.619904e+00
  4.719202e+00    3.580111e+00
  4.750953e+00    3.637026e+00
  4.782704e+00    3.607153e+00
  4.814455e+00    3.691436e+00
  4.846206e+00    3.603601e+00
  4.877957e+00    3.673998e+00
  4.909709e+00    3.610335e+00
  4.941460e+00    3.625798e+00
  4.973211e+00    3.616868e+00
  5.004962e+00    3.571829e+00
  5.036713e+00    3.697691e+00
  5.068464e+00    3.676301e+00
  5.100216e+00    3.651360e+00
  5.131967e+00    3.683209e+00
  5.163718e+00    3.612209e+00
  5.195469e+00    3.664648e+00
  5.227220e+00    3.720033e+00
  5.258971e+00    3.639684e+00
  5.290722e+00    3.641780e+00
  5.322474e+00    3.603962e+00
  5.354225e+00    3.606144e+00
  5.385976e+00    3.630246e+00
  5.417727e+00    3.732749e+00
  5.449478e+00    3.684088e+00
  5.481229e+00    3.572710e+00
  5.512980e+00    3.642035e+00
  5.544732e+00    3.673165e+00
  5.576483e+00    3.532732e+00
  5.608234e+00    3.560318e+00
  5.639985e+00    3.653530e+00
  5.671736e+00    3.618797e+00
  5.703487e+00    3.633985e+00
  5.735238e+00    3.544009e+00
  5.766990e+00    3.666515e+00
  5.798741e+00    3.542501e+00
  5.830492e+00    3.581745e+00
  5.862243e+00    3.577244e+00
  5.893994e+00    3.481529e+00
  5.925745e+00    3.618328e+00
  5.957497e+00    3.484509e+00
  5.989248e+00    3.611857e+00
  6.020999e+00    3.503283e+00
  6.052750e+00    3.571790e+00
  6.084501e+00    3.540563e+00
  6.116252e+00    3.586910e+00
  6.148003e+00    3.562041e+00
  6.179755e+00    3.532672e+00
  6.211506e+00    3.576486e+00
  6.243257e+00    3.545279e+00
  6.275008e+00    3.553595e+00
  6.306759e+00    3.525712e+00
  6.338510e+00    3.515392e+00
  6.370261e+00    3.580541e+00
  6.402013e+00    3.547633e+00
  6.433764e+00    3.549965e+00
  6.465515e+00    3.541350e+00
  6.497266e+00    3.663270e+00
  6.529017e+00    3.581622e+00
  6.560768e+00    3.540714e+00
  6.592519e+00    3.564390e+00
  6.624271e+00    3.486376e+00
  6.656022e+00    3.572817e+00
  6.687773e+00    3.566548e+00
  6.719524e+00    3.605797e+00
  6.751275e+00    3.532998e+00
  6.783026e+00    3.590280e+00
  6.814777e+00    3.507284e+00
  6.846529e+00    3.497398e+00
  6.878280e+00    3.583798e+00
  6.910031e+00    3.566160e+00
  6.941782e+00    3.529172e+00
  6.973533e+00    3.506341e+00
  7.005284e+00    3.496340e+00
  7.037036e+00    3.571506e+00
  7.068787e+00    3.536253e+00
  7.100538e+00    3.612168e+00
  7.132289e+00    3.451810e+00
  7.164040e+00    3.472862e+00
  7.195791e+00    3.486980e+00
  7.227542e+00    3.568799e+00
  7.259294e+00    3.476037e+00
  7.291045e+00    3.448279e+00
  7.322796e+00    3.464817e+00
  7.354547e+00    3.511989e+00
  7.386298e+00    3.452396e+00
  7.418049e+00    3.497881e+00
  7.449800e+00    3.446877e+00
  7.481552e+00    3.515363e+00
  7.513303e+00    3.567988e+00
  7.545054e+00    3.430465e+00
  7.576805e+00    3.462896e+00
  7.608556e+00    3.498843e+00
  7.640307e+00    3.412224e+00
  7.672058e+00    3.477944e+00
  7.703810e+00    3.440881e+00
  7.735561e+00    3.338536e+00
  7.767312e+00    3.466800e+00
  7.799063e+00    3.435044e+00
  7.830814e+00    3.452808e+00
  7.862565e+00    3.404476e+00
  7.894317e+00    3.401621e+00
  7.926068e+00    3.391091e+00
  7.957819e+00    3.453497e+00
  7.989570e+00    3.395431e+00
  8.021321e+00    3.439734e+00
  8.053072e+00    3.330534e+00
  8.084823e+00    3.438957e+00
  8.116575e+00    3.445899e+00
  8.148326e+00    3.370086e+00
  8.180077e+00    3.485082e+00
  8.211828e+00    3.495907e+00
  8.243579e+00    3.470416e+00
  8.275330e+00    3.359561e+00
  8.307081e+00    3.446402e+00
  8.338833e+00    3.399854e+00
  8.370584e+00    3.373542e+00
  8.402335e+00    3.383937e+00
  8.434086e+00    3.408841e+00
  8.465837e+00    3.322621e+00
  8.497588e+00    3.304230e+00
  8.529339e+00    3.274788e+00
  8.561091e+00    3.446290e+00
  8.592842e+00    3.378511e+00
  8.624593e+00    3.303868e+00
  8.656344e+00    3.382446e+00
  8.688095e+00    3.291124e+00
  8.719846e+00    3.299847e+00
  8.751598e+00    3.353441e+00
  8.783349e+00    3.325335e+00
  8.815100e+00    3.319722e+00
  8.846851e+00    3.330785e+00
  8.878602e+00    3.337657e+00
  8.910353e+00    3.351707e+00
  8.942104e+00    3.333781e+00
  8.973856e+00    3.303550e+00
  9.005607e+00    3.254506e+00
  9.037358e+00    3.295654e+00
  9.069109e+00    3.278104e+00
  9.100860e+00    3.228068e+00
  9.132611e+00    3.202001e+00
  9.164362e+00    3.290369e+00
  9.196114e+00    3.268501e+00
  9.227865e+00    3.156748e+00
  9.259616e+00    3.237706e+00
  9.291367e+00    3.244915e+00
  9.323118e+00    3.179535e+00
  9.354869e+00    3.223596e+00
  9.386620e+00    3.197629e+00
  9.418372e+00    3.215638e+00
  9.450123e+00    3.238498e+00
  9.481874e+00    3.227301e+00
  9.513625e+00    3.278060e+00
  9.545376e+00    3.205032e+00
  9.577127e+00    3.242022e+00
  9.608878e+00    3.163003e+00
  9.640630e+00    3.220230e+00
  9.672381e+00    3.129147e+00
  9.704132e+00    3.195597e+00
  9.735883e+00    3.206934e+00
  9.767634e+00    3.165073e+00
  9.799385e+00    3.152190e+00
  9.831137e+00    3.161583e+00
  9.862888e+00    3.151846e+00
  9.894639e+00    3.164909e+00
  9.926390e+00    3.137831e+00
  9.958141e+00    3.090315e+00
  9.989892e+00    3.147439e+00
  1.002164e+01    3.144377e+00
  1.005339e+01    3.094144e+00
  1.008515e+01    3.033769e+00
  1.011690e+01    3.130986e+00
  1.014865e+01    3.060779e+00
  1.018040e+01    3.115519e+00
  1.021215e+01    3.062941e+00
  1.024390e+01    3.034024e+00
  1.027565e+01    3.049456e+00
  1.030740e+01    3.007454e+00
  1.033915e+01    3.106799e+00
  1.037091e+01    3.045365e+00
  1.040266e+01    3.038763e+00
  1.043441e+01    3.046576e+00
  1.046616e+01    3.068355e+00
  1.049791e+01    3.028299e+00
  1.052966e+01    2.994375e+00
  1.056141e+01    2.941152e+00
  1.059316e+01    3.040558e+00
  1.062492e+01    3.011956e+00
  1.065667e+01    2.986565e+00
  1.068842e+01    2.909286e+00
  1.072017e+01    2.938894e+00
  1.075192e+01    2.999336e+00
  1.078367e+01    2.984463e+00
  1.081542e+01    2.998399e+00
  1.084717e+01    2.950737e+00
  1.087892e+01    2.933484e+00
  1.091068e+01    2.897635e+00
  1.094243e+01    2.915597e+00
  1.097418e+01    2.939839e+00
  1.100593e+01    2.851416e+00
  1.103768e+01    2.914878e+00
  1.106943e+01    2.928802e+00
  1.110118e+01    2.861345e+00
  1.113293e+01    2.896244e+00
  1.116468e+01    2.905426e+00
  1.119644e+01    2.888498e+00
  1.122819e+01    2.865200e+00
  1.125994e+01    2.931858e+00
  1.129169e+01    2.815845e+00
  1.132344e+01    2.819544e+00
  1.135519e+01    2.817477e+00
  1.138694e+01    2.819592e+00
  1.141869e+01    2.811003e+00
  1.145045e+01    2.799479e+00
  1.148220e+01    2.790641e+00
  1.151395e+01    2.829542e+00
  1.154570e+01    2.762261e+00
  1.157745e+01    2.783120e+00
  1.160920e+01    2.765458e+00
  1.164095e+01    2.768503e+00
  1.167270e+01    2.760233e+00
  1.170445e+01    2.758493e+00
  1.173621e+01    2.763845e+00
  1.176796e+01    2.777683e+00
  1.179971e+01    2.786016e+00
  1.183146e+01    2.681808e+00
  1.186321e+01    2.758450e+00
  1.189496e+01    2.686110e+00
  1.192671e+01    2.760474e+00
  1.195846e+01    2.720937e+00
  1.199021e+01    2.721123e+00
  1.202197e+01    2.676604e+00
  1.205372e+01    2.660398e+00
  1.208547e+01    2.721306e+00
  1.211722e+01    2.719959e+00
  1.214897e+01    2.676616e+00
  1.218072e+01    2.680964e+00
  1.221247e+01    2.691533e+00
  1.224422e+01    2.748490e+00
  1.227597e+01    2.668127e+00
  1.230773e+01    2.679711e+00
  1.233948e+01    2.695779e+00
  1.237123e+01    2.688778e+00
  1.240298e+01    2.681405e+00
  1.243473e+01    2.709172e+00
  1.246648e+01    2.693504e+00
  1.249823e+01    2.691043e+00
  1.252998e+01    2.697392e+00
  1.256174e+01    2.739353e+00
  1.259349e+01    2.688055e+00
  1.262524e+01    2.751561e+00
  1.265699e+01    2.746351e+00
  1.268874e+01    2.819751e+00
  1.272049e+01    2.867947e+00
  1.275224e+01    2.892793e+00
  1.278399e+01    2.963275e+00
  1.281574e+01    3.004686e+00
  1.284750e+01    3.146808e+00
  1.287925e+01    3.325540e+00
  1.291100e+01    3.632530e+00
  1.294275e+01    4.089859e+00
  1.297450e+01    4.810046e+00
  1.300625e+01    5.872367e+00
  1.303800e+01    7.609884e+00
  1.306975e+01    1.015384e+01
  1.310150e+01    1.264346e+01
  1.313326e+01    1.486907e+01
  1.316501e+01    1.622844e+01
  1.319676e+01    1.572246e+01
  1.322851e+01    1.260856e+01
  1.326026e+01    9.141481e+00
  1.329201e+01    6.790172e+00
  1.332376e+01    5.279748e+00
  1.335551e+01    4.426586e+00
  1.338727e+01    3.893787e+00
  1.341902e+01    3.525602e+00
  1.345077e+01    3.231398e+00
  1.348252e+01    3.069882e+00
  1.351427e+01    2.980927e+00
  1.354602e+01    2.814014e+00
  1.357777e+01    2.763229e+00
  1.360952e+01    2.682899e+00
  1.364127e+01    2.618391e+00
  1.367303e+01    2.574456e+00
  1.370478e+01    2.558870e+00
  1.373653e+01    2.508125e+00
  1.376828e+01    2.484128e+00
  1.380003e+01    2.507928e+00
  1.383178e+01    2.421479e+00
  1.386353e+01    2.396000e+00
  1.389528e+01    2.404459e+00
  1.392703e+01    2.380542e+00
  1.395879e+01    2.452006e+00
  1.399054e+01    2.383607e+00
  1.402229e+01    2.355088e+00
  1.405404e+01    2.333837e+00
  1.408579e+01    2.322732e+00
  1.411754e+01    2.315785e+00
  1.414929e+01    2.320843e+00
  1.418104e+01    2.300711e+00
  1.421279e+01    2.278251e+00
  1.424455e+01    2.289886e+00
  1.427630e+01    2.225987e+00
  1.430805e+01    2.288502e+00
  1.433980e+01    2.229120e+00
  1.437155e+01    2.250180e+00
  1.440330e+01    2.242556e+00
  1.443505e+01    2.241873e+00
  1.446680e+01    2.200302e+00
  1.449856e+01    2.232202e+00
  1.453031e+01    2.223958e+00
  1.456206e+01    2.232120e+00
  1.459381e+01    2.225856e+00
  1.462556e+01    2.208817e+00
  1.465731e+01    2.208711e+00
  1.468906e+01    2.180331e+00
  1.472081e+01    2.190566e+00
  1.475256e+01    2.190568e+00
  1.478432e+01    2.211304e+00
  1.481607e+01    2.158119e+00
  1.484782e+01    2.210321e+00
  1.487957e+01    2.202526e+00
  1.491132e+01    2.259001e+00
  1.494307e+01    2.323951e+00
  1.497482e+01    2.336976e+00
  1.500657e+01    2.453160e+00
  1.503832e+01    2.553738e+00
  1.507008e+01    2.853667e+00
  1.510183e+01    3.179446e+00
  1.513358e+01    3.819686e+00
  1.516533e+01    4.516289e+00
  1.519708e+01    5.192591e+00
  1.522883e+01    5.590576e+00
  1.526058e+01    5.838540e+00
  1.529233e+01    5.466769e+00
  1.532409e+01    4.647779e+00
  1.535584e+01    3.789251e+00
  1.538759e+01    3.132888e+00
  1.541934e+01    2.767681e+00
  1.545109e+01    2.538384e+00
  1.548284e+01    2.361065e+00
  1.551459e+01    2.231624e+00
  1.554634e+01    2.176345e+00
  1.557809e+01    2.111779e+00
  1.560985e+01    2.045347e+00
  1.564160e+01    2.058199e+00
  1.567335e+01    1.990417e+00
  1.570510e+01    2.027336e+00
  1.573685e+01    1.921245e+00
  1.576860e+01    1.946563e+00
  1.580035e+01    1.948085e+00
  1.583210e+01    1.925798e+00
  1.586385e+01    1.925407e+00
  1.589561e+01    1.921722e+00
  1.592736e+01    1.897376e+00
  1.595911e+01    1.887582e+00
  1.599086e+01    1.864727e+00
  1.602261e+01    1.860819e+00
  1.605436e+01    1.823394e+00
  1.608611e+01    1.865381e+00
  1.611786e+01    1.873729e+00
  1.614961e+01    1.838905e+00
  1.618137e+01    1.820263e+00
  1.621312e+01    1.840860e+00
  1.624487e+01    1.825938e+00
  1.627662e+01    1.776587e+00
  1.630837e+01    1.783227e+00
  1.634012e+01    1.794076e+00
  1.637187e+01    1.787792e+00
  1.640362e+01    1.767199e+00
  1.643538e+01    1.751109e+00
  1.646713e+01    1.765990e+00
  1.649888e+01    1.764042e+00
  1.653063e+01    1.766259e+00
  1.656238e+01    1.757066e+00
  1.659413e+01    1.750419e+00
  1.662588e+01    1.736847e+00
  1.665763e+01    1.734028e+00
  1.668938e+01    1.695681e+00
  1.672114e+01    1.733781e+00
  1.675289e+01    1.704224e+00
  1.678464e+01    1.735698e+00
  1.681639e+01    1.697581e+00
  1.684814e+01    1.686046e+00
  1.687989e+01    1.665117e+00
  1.691164e+01    1.672489e+00
  1.694339e+01    1.672515e+00
  1.697514e+01    1.710712e+00
  1.700690e+01    1.676816e+00
  1.703865e+01    1.639021e+00
  1.707040e+01    1.643548e+00
  1.710215e+01    1.642499e+00
  1.713390e+01    1.652998e+00
  1.716565e+01    1.650800e+00
  1.719740e+01    1.642049e+00
  1.722915e+01    1.627497e+00
  1.726091e+01    1.608745e+00
  1.729266e+01    1.592198e+00
  1.732441e+01    1.611457e+00
  1.735616e+01    1.624512e+00
  1.738791e+01    1.603056e+00
  1.741966e+01    1.615118e+00
  1.745141e+01    1.571758e+00
  1.748316e+01    1.557271e+00
  1.751491e+01    1.597922e+00
  1.754667e+01    1.543478e+00
  1.757842e+01    1.555018e+00
  1.761017e+01    1.572309e+00
  1.764192e+01    1.522322e+00
  1.767367e+01    1.555310e+00
  1.770542e+01    1.577810e+00
  1.773717e+01    1.550475e+00
  1.776892e+01    1.529963e+00
  1.780067e+01    1.537915e+00
  1.783243e+01    1.504127e+00
  1.786418e+01    1.527441e+00
  1.789593e+01    1.530888e+00
  1.792768e+01    1.519310e+00
  1.795943e+01    1.461589e+00
  1.799118e+01    1.508725e+00
  1.802293e+01    1.514930e+00
  1.805468e+01    1.499415e+00
  1.808643e+01    1.502420e+00
  1.811819e+01    1.484805e+00
  1.814994e+01    1.488471e+00
  1.818169e+01    1.491465e+00
  1.821344e+01    1.488497e+00
  1.824519e+01    1.479988e+00
  1.827694e+01    1.438041e+00
  1.830869e+01    1.473213e+00
  1.834044e+01    1.445947e+00
  1.837220e+01    1.474619e+00
  1.840395e+01    1.470602e+00
  1.843570e+01    1.466385e+00
  1.846745e+01    1.455388e+00
  1.849920e+01    1.427038e+00
  1.853095e+01    1.419241e+00
  1.856270e+01    1.439379e+00
  1.859445e+01    1.449798e+00
  1.862620e+01    1.417680e+00
  1.865796e+01    1.428753e+00
  1.868971e+01    1.422273e+00
  1.872146e+01    1.409383e+00
  1.875321e+01    1.446736e+00
  1.878496e+01    1.400424e+00
  1.881671e+01    1.406571e+00
  1.884846e+01    1.393194e+00
  1.888021e+01    1.393440e+00
  1.891196e+01    1.395791e+00
  1.894372e+01    1.389706e+00
  1.897547e+01    1.398961e+00
  1.900722e+01    1.392525e+00
  1.903897e+01    1.392992e+00
  1.907072e+01    1.368392e+00
  1.910247e+01    1.369455e+00
  1.913422e+01    1.346047e+00
  1.916597e+01    1.366740e+00
  1.919773e+01    1.346422e+00
  1.922948e+01    1.354213e+00
  1.926123e+01    1.343942e+00
  1.929298e+01    1.366938e+00
  1.932473e+01    1.370866e+00
  1.935648e+01    1.351733e+00
  1.938823e+01    1.330377e+00
  1.941998e+01    1.331614e+00
  1.945173e+01    1.375896e+00
  1.948349e+01    1.328690e+00
  1.951524e+01    1.306370e+00
  1.954699e+01    1.331274e+00
  1.957874e+01    1.336712e+00
  1.961049e+01    1.340540e+00
  1.964224e+01    1.336655e+00
  1.967399e+01    1.334143e+00
  1.970574e+01    1.317606e+00
  1.973749e+01    1.315104e+00
  1.976925e+01    1.291221e+00
  1.980100e+01    1.339595e+00
  1.983275e+01    1.295455e+00
  1.986450e+01    1.297234e+00
  1.989625e+01    1.294054e+00
  1.992800e+01    1.288868e+00
  1.995975e+01    1.279442e+00
  1.999150e+01    1.274864e+00
  2.002325e+01    1.272795e+00
  2.005501e+01    1.260742e+00
  2.008676e+01    1.280301e+00
  2.011851e+01    1.279506e+00
  2.015026e+01    1.253240e+00
  2.018201e+01    1.258044e+00
  2.021376e+01    1.266378e+00
  2.024551e+01    1.237455e+00
  2.027726e+01    1.244818e+00
  2.030902e+01    1.228871e+00
  2.034077e+01    1.258882e+00
  2.037252e+01    1.246234e+00
  2.040427e+01    1.272099e+00
  2.043602e+01    1.234445e+00
  2.046777e+01    1.235371e+00
  2.049952e+01    1.250886e+00
  2.053127e+01    1.268486e+00
  2.056302e+01    1.239565e+00
  2.059478e+01    1.234260e+00
  2.062653e+01    1.208366e+00
  2.065828e+01    1.248643e+00
  2.069003e+01    1.230420e+00
  2.072178e+01    1.229897e+00
  2.075353e+01    1.201192e+00
  2.078528e+01    1.194688e+00
  2.081703e+01    1.233849e+00
  2.084878e+01    1.233766e+00
  2.088054e+01    1.237727e+00
  2.091229e+01    1.217362e+00
  2.094404e+01    1.200339e+00
  2.097579e+01    1.213828e+00
  2.100754e+01    1.204688e+00
  2.103929e+01    1.228638e+00
  2.107104e+01    1.236992e+00
  2.110279e+01    1.228127e+00
  2.113455e+01    1.239294e+00
  2.116630e+01    1.222465e+00
  2.119805e+01    1.242384e+00
  2.122980e+01    1.251887e+00
  2.126155e+01    1.268797e+00
  2.129330e+01    1.255585e+00
  2.132505e+01    1.261612e+00
  2.135680e+01    1.290613e+00
  2.138855e+01    1.287015e+00
  2.142031e+01    1.320464e+00
  2.145206e+01    1.347046e+00
  2.148381e+01    1.395136e+00
  2.151556e+01    1.418342e+00
  2.154731e+01    1.513385e+00
  2.157906e+01    1.613279e+00
  2.161081e+01    1.759463e+00
  2.164256e+01    1.975363e+00
  2.167431e+01    2.309824e+00
  2.170607e+01    2.792746e+00
  2.173782e+01    3.527539e+00
  2.176957e+01    4.554421e+00
  2.180132e+01    5.913182e+00
  2.183307e+01    7.240320e+00
  2.186482e+01    8.417540e+00
  2.189657e+01    8.975000e+00
  2.192832e+01    8.311337e+00
  2.196007e+01    6.576076e+00
  2.199183e+01    4.836226e+00
  2.202358e+01    3.632599e+00
  2.205533e+01    2.816725e+00
  2.208708e+01    2.329594e+00
  2.211883e+01    1.997921e+00
  2.215058e+01    1.757828e+00
  2.218233e+01    1.583997e+00
  2.221408e+01    1.518145e+00
  2.224584e+01    1.428285e+00
  2.227759e+01    1.339845e+00
  2.230934e+01    1.304547e+00
  2.234109e+01    1.263607e+00
  2.237284e+01    1.230122e+00
  2.240459e+01    1.197802e+00
  2.243634e+01    1.169494e+00
  2.246809e+01    1.153203e+00
  2.249984e+01    1.152809e+00
  2.253160e+01    1.151866e+00
  2.256335e+01    1.119401e+00
  2.259510e+01    1.093703e+00
  2.262685e+01    1.073402e+00
  2.265860e+01    1.078327e+00
  2.269035e+01    1.123472e+00
  2.272210e+01    1.072951e+00
  2.275385e+01    1.080620e+00
  2.278560e+01    1.034625e+00
  2.281736e+01    1.049785e+00
  2.284911e+01    1.050243e+00
  2.288086e+01    1.052173e+00
  2.291261e+01    1.024553e+00
  2.294436e+01    1.039191e+00
  2.297611e+01    1.000522e+00
  2.300786e+01    1.016133e+00
  2.303961e+01    1.011444e+00
  2.307137e+01    1.023589e+00
  2.310312e+01    1.010746e+00
  2.313487e+01    1.003216e+00
  2.316662e+01    9.884098e-01
  2.319837e+01    1.003442e+00
  2.323012e+01    9.983148e-01
  2.326187e+01    9.765593e-01
  2.329362e+01    9.797242e-01
  2.332537e+01    9.817221e-01
  2.335713e+01    9.928560e-01
  2.338888e+01    9.730523e-01
  2.342063e+01    9.794709e-01
  2.345238e+01    9.630142e-01
  2.348413e+01    9.658477e-01
  2.351588e+01    9.692837e-01
  2.354763e+01    9.683621e-01
  2.357938e+01    9.836872e-01
  2.361113e+01    9.596446e-01
  2.364289e+01    9.516200e-01
  2.367464e+01    9.308075e-01
  2.370639e+01    9.398231e-01
  2.373814e+01    9.172119e-01
  2.376989e+01    9.135862e-01
  2.380164e+01    9.511656e-01
  2.383339e+01    9.311591e-01
  2.386514e+01    9.136572e-01
  2.389689e+01    9.014622e-01
  2.392865e+01    9.296675e-01
  2.396040e+01    9.132461e-01
  2.399215e+01    8.961680e-01
  2.402390e+01    8.948630e-01
  2.405565e+01    8.896883e-01
  2.408740e+01    9.022793e-01
  2.411915e+01    8.865916e-01
  2.415090e+01    9.053932e-01
  2.418266e+01    8.807552e-01
  2.421441e+01    8.913977e-01
  2.424616e+01    8.596021e-01
  2.427791e+01    8.937426e-01
  2.430966e+01    8.909263e-01
  2.434141e+01    8.783948e-01
  2.437316e+01    8.899122e-01
  2.440491e+01    8.904696e-01
  2.443666e+01    8.691674e-01
  2.446842e+01    9.023211e-01
  2.450017e+01    8.740889e-01
  2.453192e+01    8.939731e-01
  2.456367e+01    8.687163e-01
  2.459542e+01    8.796552e-01
  2.462717e+01    8.947459e-01
  2.465892e+01    8.796430e-01
  2.469067e+01    8.956540e-01
  2.472242e+01    9.067193e-01
  2.475418e+01    8.885377e-01
  2.478593e+01    8.931731e-01
  2.481768e+01    9.122280e-01
  2.484943e+01    8.754116e-01
  2.488118e+01    8.807195e-01
  2.491293e+01    8.752231e-01
  2.494468e+01    8.971431e-01
  2.497643e+01    9.016127e-01
  2.500819e+01    9.024727e-01
  2.503994e+01    8.996863e-01
  2.507169e+01    9.065695e-01
  2.510344e+01    8.940113e-01
  2.513519e+01    9.086404e-01
  2.516694e+01    9.110140e-01
  2.519869e+01    9.126123e-01
  2.523044e+01    9.253451e-01
  2.526219e+01    9.402449e-01
  2.529395e+01    9.276151e-01
  2.532570e+01    9.624644e-01
  2.535745e+01    9.793252e-01
  2.538920e+01    9.899109e-01
  2.542095e+01    9.724356e-01
  2.545270e+01    1.004742e+00
  2.548445e+01    1.041200e+00
  2.551620e+01    1.070823e+00
  2.554795e+01    1.131859e+00
  2.557971e+01    1.166818e+00
  2.561146e+01    1.243299e+00
  2.564321e+01    1.282791e+00
  2.567496e+01    1.413537e+00
  2.570671e+01    1.609622e+00
  2.573846e+01    1.874808e+00
  2.577021e+01    2.222130e+00
  2.580196e+01    2.793018e+00
  2.583371e+01    3.614903e+00
  2.586547e+01    4.674738e+00
  2.589722e+01    5.826039e+00
  2.592897e+01    6.791656e+00
  2.596072e+01    7.180734e+00
  2.599247e+01    6.609379e+00
  2.602422e+01    5.302058e+00
  2.605597e+01    4.019083e+00
  2.608772e+01    3.026611e+00
  2.611948e+01    2.355230e+00
  2.615123e+01    1.936134e+00
  2.618298e+01    1.647337e+00
  2.621473e+01    1.499302e+00
  2.624648e+01    1.335780e+00
  2.627823e+01    1.278425e+00
  2.630998e+01    1.194682e+00
  2.634173e+01    1.115213e+00
  2.637348e+01    1.074953e+00
  2.640524e+01    1.051223e+00
  2.643699e+01    1.049598e+00
  2.646874e+01    1.033936e+00
  2.650049e+01    9.974473e-01
  2.653224e+01    9.949185e-01
  2.656399e+01    1.013786e+00
  2.659574e+01    9.971302e-01
  2.662749e+01    9.924964e-01
  2.665924e+01    9.652672e-01
  2.669100e+01    9.735395e-01
  2.672275e+01    9.392691e-01
  2.675450e+01    9.596536e-01
  2.678625e+01    9.811285e-01
  2.681800e+01    9.835334e-01
  2.684975e+01    9.943177e-01
  2.688150e+01    9.990180e-01
  2.691325e+01    1.013329e+00
  2.694501e+01    1.035706e+00
  2.697676e+01    1.037705e+00
  2.700851e+01    1.114022e+00
  2.704026e+01    1.201233e+00
  2.707201e+01    1.314292e+00
  2.710376e+01    1.506464e+00
  2.713551e+01    1.716054e+00
  2.716726e+01    2.018173e+00
  2.719901e+01    2.172070e+00
  2.723077e+01    2.158861e+00
  2.726252e+01    1.990233e+00
  2.729427e+01    1.697370e+00
  2.732602e+01    1.462388e+00
  2.735777e+01    1.295199e+00
  2.738952e+01    1.175900e+00
  2.742127e+01    1.087062e+00
  2.745302e+01    1.053412e+00
  2.748477e+01    1.019700e+00
  2.751653e+01    9.790810e-01
  2.754828e+01    9.641956e-01
  2.758003e+01    9.399199e-01
  2.761178e+01    9.315683e-01
  2.764353e+01    9.151344e-01
  2.767528e+01    9.175670e-01
  2.770703e+01    9.162292e-01
  2.773878e+01    9.058271e-01
  2.777054e+01    9.043918e-01
  2.780229e+01    8.881180e-01
  2.783404e+01    8.682452e-01
  2.786579e+01    8.673139e-01
  2.789754e+01    8.863508e-01
  2.792929e+01    8.596324e-01
  2.796104e+01    8.813559e-01
  2.799279e+01    8.694170e-01
  2.802454e+01    8.723052e-01
  2.805630e+01    8.755238e-01
  2.808805e+01    8.514727e-01
  2.811980e+01    8.722041e-01
  2.815155e+01    8.462544e-01
  2.818330e+01    8.801902e-01
  2.821505e+01    8.458716e-01
  2.824680e+01    8.561013e-01
  2.827855e+01    8.576915e-01
  2.831030e+01    8.667518e-01
  2.834206e+01    8.477382e-01
  2.837381e+01    8.570293e-01
  2.840556e+01    8.556132e-01
  2.843731e+01    8.362791e-01
  2.846906e+01    8.509822e-01
  2.850081e+01    8.505360e-01
  2.853256e+01    8.214282e-01
  2.856431e+01    8.360639e-01
  2.859606e+01    8.553973e-01
  2.862782e+01    8.310906e-01
  2.865957e+01    8.448777e-01
  2.869132e+01    8.308759e-01
  2.872307e+01    8.144443e-01
  2.875482e+01    8.204618e-01
  2.878657e+01    8.433092e-01
  2.881832e+01    7.990494e-01
  2.885007e+01    8.121185e-01
  2.888183e+01    8.460587e-01
  2.891358e+01    8.056903e-01
  2.894533e+01    8.269511e-01
  2.897708e+01    8.255486e-01
  2.900883e+01    8.325366e-01
  2.904058e+01    8.128703e-01
  2.907233e+01    8.082038e-01
  2.910408e+01    8.030471e-01
  2.913583e+01    8.153231e-01
  2.916759e+01    8.011307e-01
  2.919934e+01    8.090364e-01
  2.923109e+01    8.015481e-01
  2.926284e+01    8.451992e-01
  2.929459e+01    8.015926e-01
  2.932634e+01    7.995911e-01
  2.935809e+01    8.180541e-01
  2.938984e+01    8.283221e-01
  2.942159e+01    7.961906e-01
  2.945335e+01    7.772328e-01
  2.948510e+01    8.130498e-01
  2.951685e+01    8.115774e-01
  2.954860e+01    7.814738e-01
  2.958035e+01    7.952927e-01
  2.961210e+01    7.916836e-01
  2.964385e+01    7.899378e-01
  2.967560e+01    7.865965e-01
  2.970736e+01    8.040547e-01
  2.973911e+01    8.071458e-01
  2.977086e+01    7.849509e-01
  2.980261e+01    7.879214e-01
  2.983436e+01    7.949415e-01
  2.986611e+01    7.631127e-01
  2.989786e+01    7.994965e-01
  2.992961e+01    7.714463e-01
  2.996136e+01    7.929432e-01
  2.999312e+01    7.920626e-01
  3.002487e+01    8.126361e-01
  3.005662e+01    8.271850e-01
  3.008837e+01    8.035921e-01
  3.012012e+01    7.967613e-01
  3.015187e+01    8.267327e-01
  3.018362e+01    7.801991e-01
  3.021537e+01    7.698883e-01
  3.024712e+01    7.734677e-01
  3.027888e+01    7.935625e-01
  3.031063e+01    7.820783e-01
  3.034238e+01    7.785708e-01
  3.037413e+01    7.660437e-01
  3.040588e+01    7.691759e-01
  3.043763e+01    7.878272e-01
  3.046938e+01    7.905787e-01
  3.050113e+01    7.826430e-01
  3.053288e+01    7.882652e-01
  3.056464e+01    7.817214e-01
  3.059639e+01    7.847858e-01
  3.062814e+01    7.933366e-01
  3.065989e+01    7.911961e-01
  3.069164e+01    7.900403e-01
  3.072339e+01    7.974458e-01
  3.075514e+01    7.871706e-01
  3.078689e+01    8.031667e-01
  3.081865e+01    7.911398e-01
  3.085040e+01    8.014222e-01
  3.088215e+01    7.825924e-01
  3.091390e+01    8.071973e-01
  3.094565e+01    7.901445e-01
  3.097740e+01    7.898088e-01
  3.100915e+01    7.869000e-01
  3.104090e+01    7.769640e-01
  3.107265e+01    7.959677e-01
  3.110441e+01    7.918981e-01
  3.113616e+01    8.005522e-01
  3.116791e+01    7.678819e-01
  3.119966e+01    8.124982e-01
  3.123141e+01    7.930067e-01
  3.126316e+01    7.999474e-01
  3.129491e+01    7.846709e-01
  3.132666e+01    8.070630e-01
  3.135841e+01    7.992834e-01
  3.139017e+01    8.141420e-01
  3.142192e+01    8.115306e-01
  3.145367e+01    7.961423e-01
  3.148542e+01    7.935003e-01
  3.151717e+01    8.537223e-01
  3.154892e+01    8.390165e-01
  3.158067e+01    8.636422e-01
  3.161242e+01    8.687370e-01
  3.164418e+01    9.144286e-01
  3.167593e+01    9.622584e-01
  3.170768e+01    1.019867e+00
  3.173943e+01    1.103383e+00
  3.177118e+01    1.236701e+00
  3.180293e+01    1.439270e+00
  3.183468e+01    1.709924e+00
  3.186643e+01    1.936210e+00
  3.189818e+01    2.107097e+00
  3.192994e+01    2.033979e+00
  3.196169e+01    1.852971e+00
  3.199344e+01    1.574114e+00
  3.202519e+01    1.330126e+00
  3.205694e+01    1.181617e+00
  3.208869e+01    1.051939e+00
  3.212044e+01    9.687709e-01
  3.215219e+01    8.968906e-01
  3.218394e+01    8.848656e-01
  3.221570e+01    8.593031e-01
  3.224745e+01    8.249198e-01
  3.227920e+01    8.233066e-01
  3.231095e+01    8.261146e-01
  3.234270e+01    7.842773e-01
  3.237445e+01    8.278946e-01
  3.240620e+01    7.815833e-01
  3.243795e+01    8.061519e-01
  3.246970e+01    7.985263e-01
  3.250146e+01    7.685466e-01
  3.253321e+01    7.692713e-01
  3.254908e+01    7.673893e-01