File: XRD/Reaction conditions/2024-07-27_003_Ru-CGO-ex_Reaction_dwell_000023_data_000151.dat
# == pyFAI calibration ==
# Distance Sample to Detector: 0.4 m
# PONI: 9.750e-02, 1.135e-01 m
# Rotations: -0.000175 0.000000 -0.000000 rad
#
# == Fit2d calibration ==
# Distance Sample-beamCenter: 400.000 mm
# Center: x=1514.000, y=1300.000 pix
# Tilt: 0.010 deg  TiltPlanRot: 0.010 deg
#
# Detector Detector	 Spline= None	 PixelSize= 7.500e-05, 7.500e-05 m
#    Detector has a mask: False
#    Detector has a dark current: False
#    detector has a flat field: False
#
# Wavelength: 6.888e-11 m
# Mask applied: user provided
# Dark current applied: False
# Flat field applied: False
# Polarization factor: 0.99
# Normalization factor: 1.0
# --> /home/myspot/data/2024_07_Rosario/Ru-CGO-ex/2024-07-27_003_Ru-CGO-ex_Reaction_dwell_000023_data_000151.dat
#       q_nm^-1             I
  2.003187e-02    0.000000e+00
  5.178302e-02    1.157481e-01
  8.353417e-02    1.444702e-01
  1.152853e-01    1.541139e-01
  1.470365e-01    1.301150e-02
  1.787876e-01    5.096930e-02
  2.105388e-01    6.557638e-02
  2.422899e-01    9.378976e-02
  2.740411e-01    4.430502e-02
  3.057922e-01    3.029277e-02
  3.375433e-01    9.899574e-03
  3.692945e-01    7.390236e-02
  4.010456e-01    1.831387e-02
  4.327968e-01    2.313286e-02
  4.645479e-01    4.801528e-02
  4.962991e-01    3.909677e-02
  5.280502e-01    1.435924e-02
  5.598014e-01    7.017427e-02
  5.915525e-01    4.267599e-02
  6.233037e-01    4.164769e-02
  6.550548e-01    4.862591e-02
  6.868060e-01    3.184688e-02
  7.185571e-01    4.613490e-02
  7.503083e-01    5.828409e-02
  7.820594e-01    9.036045e-02
  8.138106e-01    2.583015e-01
  8.455617e-01    2.761608e-01
  8.773129e-01    5.433887e-01
  9.090640e-01    7.289010e-01
  9.408152e-01    8.647253e-01
  9.725663e-01    1.016831e+00
  1.004317e+00    1.278198e+00
  1.036069e+00    1.429070e+00
  1.067820e+00    1.407892e+00
  1.099571e+00    1.525499e+00
  1.131322e+00    1.629014e+00
  1.163073e+00    1.833827e+00
  1.194824e+00    1.825047e+00
  1.226575e+00    2.208120e+00
  1.258327e+00    2.537287e+00
  1.290078e+00    2.637862e+00
  1.321829e+00    2.584245e+00
  1.353580e+00    2.836201e+00
  1.385331e+00    2.839227e+00
  1.417082e+00    3.014720e+00
  1.448834e+00    2.920514e+00
  1.480585e+00    3.056884e+00
  1.512336e+00    3.089126e+00
  1.544087e+00    3.206226e+00
  1.575838e+00    3.171266e+00
  1.607589e+00    3.248111e+00
  1.639340e+00    3.068647e+00
  1.671092e+00    3.165333e+00
  1.702843e+00    3.115820e+00
  1.734594e+00    3.130830e+00
  1.766345e+00    3.000093e+00
  1.798096e+00    3.024768e+00
  1.829847e+00    3.041136e+00
  1.861598e+00    2.905993e+00
  1.893350e+00    2.925233e+00
  1.925101e+00    3.096028e+00
  1.956852e+00    3.090434e+00
  1.988603e+00    3.060838e+00
  2.020354e+00    3.121408e+00
  2.052105e+00    3.120589e+00
  2.083856e+00    2.980775e+00
  2.115608e+00    3.042923e+00
  2.147359e+00    3.077495e+00
  2.179110e+00    3.071468e+00
  2.210861e+00    3.061030e+00
  2.242612e+00    3.109161e+00
  2.274363e+00    3.178066e+00
  2.306115e+00    3.137195e+00
  2.337866e+00    3.145731e+00
  2.369617e+00    3.083343e+00
  2.401368e+00    3.214126e+00
  2.433119e+00    3.243038e+00
  2.464870e+00    3.123579e+00
  2.496621e+00    3.152253e+00
  2.528373e+00    3.106726e+00
  2.560124e+00    3.173339e+00
  2.591875e+00    3.216339e+00
  2.623626e+00    3.154927e+00
  2.655377e+00    3.179578e+00
  2.687128e+00    3.222393e+00
  2.718879e+00    3.141618e+00
  2.750631e+00    3.289168e+00
  2.782382e+00    3.398937e+00
  2.814133e+00    3.262644e+00
  2.845884e+00    3.260402e+00
  2.877635e+00    3.249544e+00
  2.909386e+00    3.351966e+00
  2.941137e+00    3.353552e+00
  2.972889e+00    3.295985e+00
  3.004640e+00    3.276549e+00
  3.036391e+00    3.292751e+00
  3.068142e+00    3.387408e+00
  3.099893e+00    3.368085e+00
  3.131644e+00    3.314655e+00
  3.163395e+00    3.410026e+00
  3.195147e+00    3.352426e+00
  3.226898e+00    3.465421e+00
  3.258649e+00    3.373198e+00
  3.290400e+00    3.427000e+00
  3.322151e+00    3.333617e+00
  3.353902e+00    3.445416e+00
  3.385654e+00    3.408236e+00
  3.417405e+00    3.280955e+00
  3.449156e+00    3.363435e+00
  3.480907e+00    3.410539e+00
  3.512658e+00    3.351934e+00
  3.544409e+00    3.502654e+00
  3.576160e+00    3.531877e+00
  3.607912e+00    3.364130e+00
  3.639663e+00    3.397347e+00
  3.671414e+00    3.377348e+00
  3.703165e+00    3.429213e+00
  3.734916e+00    3.498713e+00
  3.766667e+00    3.526665e+00
  3.798418e+00    3.479532e+00
  3.830170e+00    3.503946e+00
  3.861921e+00    3.591877e+00
  3.893672e+00    3.493493e+00
  3.925423e+00    3.553063e+00
  3.957174e+00    3.474268e+00
  3.988925e+00    3.494606e+00
  4.020676e+00    3.441233e+00
  4.052428e+00    3.648460e+00
  4.084179e+00    3.546627e+00
  4.115930e+00    3.583547e+00
  4.147681e+00    3.520478e+00
  4.179432e+00    3.530286e+00
  4.211183e+00    3.605704e+00
  4.242935e+00    3.586288e+00
  4.274686e+00    3.518639e+00
  4.306437e+00    3.543270e+00
  4.338188e+00    3.546354e+00
  4.369939e+00    3.547125e+00
  4.401690e+00    3.636188e+00
  4.433441e+00    3.549668e+00
  4.465193e+00    3.644912e+00
  4.496944e+00    3.568393e+00
  4.528695e+00    3.574477e+00
  4.560446e+00    3.591299e+00
  4.592197e+00    3.545039e+00
  4.623948e+00    3.521454e+00
  4.655699e+00    3.621340e+00
  4.687451e+00    3.581516e+00
  4.719202e+00    3.610079e+00
  4.750953e+00    3.651007e+00
  4.782704e+00    3.655378e+00
  4.814455e+00    3.635580e+00
  4.846206e+00    3.664998e+00
  4.877957e+00    3.696054e+00
  4.909709e+00    3.616436e+00
  4.941460e+00    3.573301e+00
  4.973211e+00    3.675934e+00
  5.004962e+00    3.586995e+00
  5.036713e+00    3.631278e+00
  5.068464e+00    3.619560e+00
  5.100216e+00    3.629765e+00
  5.131967e+00    3.648429e+00
  5.163718e+00    3.689345e+00
  5.195469e+00    3.687687e+00
  5.227220e+00    3.623288e+00
  5.258971e+00    3.712513e+00
  5.290722e+00    3.560515e+00
  5.322474e+00    3.579197e+00
  5.354225e+00    3.632445e+00
  5.385976e+00    3.627670e+00
  5.417727e+00    3.646428e+00
  5.449478e+00    3.625703e+00
  5.481229e+00    3.630748e+00
  5.512980e+00    3.566191e+00
  5.544732e+00    3.611002e+00
  5.576483e+00    3.719840e+00
  5.608234e+00    3.595526e+00
  5.639985e+00    3.591457e+00
  5.671736e+00    3.489378e+00
  5.703487e+00    3.508840e+00
  5.735238e+00    3.546835e+00
  5.766990e+00    3.633512e+00
  5.798741e+00    3.616933e+00
  5.830492e+00    3.512316e+00
  5.862243e+00    3.534790e+00
  5.893994e+00    3.668767e+00
  5.925745e+00    3.522603e+00
  5.957497e+00    3.598843e+00
  5.989248e+00    3.564542e+00
  6.020999e+00    3.474049e+00
  6.052750e+00    3.525533e+00
  6.084501e+00    3.566475e+00
  6.116252e+00    3.523881e+00
  6.148003e+00    3.534456e+00
  6.179755e+00    3.586538e+00
  6.211506e+00    3.619263e+00
  6.243257e+00    3.552727e+00
  6.275008e+00    3.486680e+00
  6.306759e+00    3.576280e+00
  6.338510e+00    3.497579e+00
  6.370261e+00    3.580295e+00
  6.402013e+00    3.600662e+00
  6.433764e+00    3.498952e+00
  6.465515e+00    3.503256e+00
  6.497266e+00    3.522938e+00
  6.529017e+00    3.575472e+00
  6.560768e+00    3.580378e+00
  6.592519e+00    3.479957e+00
  6.624271e+00    3.481447e+00
  6.656022e+00    3.541723e+00
  6.687773e+00    3.527756e+00
  6.719524e+00    3.516376e+00
  6.751275e+00    3.520113e+00
  6.783026e+00    3.548627e+00
  6.814777e+00    3.505835e+00
  6.846529e+00    3.547677e+00
  6.878280e+00    3.523293e+00
  6.910031e+00    3.455915e+00
  6.941782e+00    3.466545e+00
  6.973533e+00    3.560577e+00
  7.005284e+00    3.500911e+00
  7.037036e+00    3.478826e+00
  7.068787e+00    3.471141e+00
  7.100538e+00    3.516456e+00
  7.132289e+00    3.476422e+00
  7.164040e+00    3.527867e+00
  7.195791e+00    3.546343e+00
  7.227542e+00    3.430559e+00
  7.259294e+00    3.431420e+00
  7.291045e+00    3.510356e+00
  7.322796e+00    3.580096e+00
  7.354547e+00    3.532163e+00
  7.386298e+00    3.499691e+00
  7.418049e+00    3.386057e+00
  7.449800e+00    3.565938e+00
  7.481552e+00    3.495981e+00
  7.513303e+00    3.540501e+00
  7.545054e+00    3.475796e+00
  7.576805e+00    3.464113e+00
  7.608556e+00    3.419386e+00
  7.640307e+00    3.479324e+00
  7.672058e+00    3.443866e+00
  7.703810e+00    3.435896e+00
  7.735561e+00    3.365420e+00
  7.767312e+00    3.388510e+00
  7.799063e+00    3.365650e+00
  7.830814e+00    3.483675e+00
  7.862565e+00    3.426974e+00
  7.894317e+00    3.358648e+00
  7.926068e+00    3.373035e+00
  7.957819e+00    3.339610e+00
  7.989570e+00    3.462524e+00
  8.021321e+00    3.398322e+00
  8.053072e+00    3.425664e+00
  8.084823e+00    3.449770e+00
  8.116575e+00    3.479154e+00
  8.148326e+00    3.410902e+00
  8.180077e+00    3.451641e+00
  8.211828e+00    3.431633e+00
  8.243579e+00    3.362871e+00
  8.275330e+00    3.388353e+00
  8.307081e+00    3.417440e+00
  8.338833e+00    3.366617e+00
  8.370584e+00    3.331831e+00
  8.402335e+00    3.382088e+00
  8.434086e+00    3.366702e+00
  8.465837e+00    3.307455e+00
  8.497588e+00    3.286601e+00
  8.529339e+00    3.330737e+00
  8.561091e+00    3.346989e+00
  8.592842e+00    3.360798e+00
  8.624593e+00    3.361627e+00
  8.656344e+00    3.297424e+00
  8.688095e+00    3.328099e+00
  8.719846e+00    3.274997e+00
  8.751598e+00    3.315211e+00
  8.783349e+00    3.274398e+00
  8.815100e+00    3.317250e+00
  8.846851e+00    3.314471e+00
  8.878602e+00    3.210302e+00
  8.910353e+00    3.281013e+00
  8.942104e+00    3.325933e+00
  8.973856e+00    3.304064e+00
  9.005607e+00    3.347156e+00
  9.037358e+00    3.258191e+00
  9.069109e+00    3.231727e+00
  9.100860e+00    3.242735e+00
  9.132611e+00    3.289455e+00
  9.164362e+00    3.197540e+00
  9.196114e+00    3.238758e+00
  9.227865e+00    3.196138e+00
  9.259616e+00    3.201460e+00
  9.291367e+00    3.341419e+00
  9.323118e+00    3.233918e+00
  9.354869e+00    3.211398e+00
  9.386620e+00    3.174144e+00
  9.418372e+00    3.223317e+00
  9.450123e+00    3.234202e+00
  9.481874e+00    3.190975e+00
  9.513625e+00    3.227838e+00
  9.545376e+00    3.192087e+00
  9.577127e+00    3.218627e+00
  9.608878e+00    3.213815e+00
  9.640630e+00    3.208959e+00
  9.672381e+00    3.148986e+00
  9.704132e+00    3.154525e+00
  9.735883e+00    3.130403e+00
  9.767634e+00    3.140373e+00
  9.799385e+00    3.099950e+00
  9.831137e+00    3.139749e+00
  9.862888e+00    3.094362e+00
  9.894639e+00    3.056818e+00
  9.926390e+00    3.087454e+00
  9.958141e+00    3.186334e+00
  9.989892e+00    3.160611e+00
  1.002164e+01    3.036711e+00
  1.005339e+01    3.106207e+00
  1.008515e+01    3.071815e+00
  1.011690e+01    3.032863e+00
  1.014865e+01    3.069321e+00
  1.018040e+01    3.059043e+00
  1.021215e+01    3.035490e+00
  1.024390e+01    3.068857e+00
  1.027565e+01    3.030598e+00
  1.030740e+01    3.059449e+00
  1.033915e+01    3.046779e+00
  1.037091e+01    3.036501e+00
  1.040266e+01    3.007753e+00
  1.043441e+01    3.016043e+00
  1.046616e+01    3.045079e+00
  1.049791e+01    2.962843e+00
  1.052966e+01    2.962173e+00
  1.056141e+01    2.983061e+00
  1.059316e+01    3.001730e+00
  1.062492e+01    2.965318e+00
  1.065667e+01    2.914597e+00
  1.068842e+01    3.017566e+00
  1.072017e+01    2.951872e+00
  1.075192e+01    2.999306e+00
  1.078367e+01    2.981085e+00
  1.081542e+01    2.904252e+00
  1.084717e+01    2.902198e+00
  1.087892e+01    2.839325e+00
  1.091068e+01    2.898267e+00
  1.094243e+01    2.851165e+00
  1.097418e+01    2.854325e+00
  1.100593e+01    2.889546e+00
  1.103768e+01    2.863068e+00
  1.106943e+01    2.896669e+00
  1.110118e+01    2.873653e+00
  1.113293e+01    2.833659e+00
  1.116468e+01    2.837993e+00
  1.119644e+01    2.826900e+00
  1.122819e+01    2.854854e+00
  1.125994e+01    2.871234e+00
  1.129169e+01    2.814034e+00
  1.132344e+01    2.802572e+00
  1.135519e+01    2.811561e+00
  1.138694e+01    2.794353e+00
  1.141869e+01    2.803810e+00
  1.145045e+01    2.812248e+00
  1.148220e+01    2.774126e+00
  1.151395e+01    2.780574e+00
  1.154570e+01    2.850238e+00
  1.157745e+01    2.748338e+00
  1.160920e+01    2.735166e+00
  1.164095e+01    2.740660e+00
  1.167270e+01    2.711262e+00
  1.170445e+01    2.725668e+00
  1.173621e+01    2.703843e+00
  1.176796e+01    2.725924e+00
  1.179971e+01    2.700540e+00
  1.183146e+01    2.748769e+00
  1.186321e+01    2.741414e+00
  1.189496e+01    2.732679e+00
  1.192671e+01    2.735039e+00
  1.195846e+01    2.719625e+00
  1.199021e+01    2.709222e+00
  1.202197e+01    2.708788e+00
  1.205372e+01    2.709895e+00
  1.208547e+01    2.701139e+00
  1.211722e+01    2.699453e+00
  1.214897e+01    2.709818e+00
  1.218072e+01    2.678815e+00
  1.221247e+01    2.651559e+00
  1.224422e+01    2.670830e+00
  1.227597e+01    2.668914e+00
  1.230773e+01    2.710858e+00
  1.233948e+01    2.618488e+00
  1.237123e+01    2.671061e+00
  1.240298e+01    2.632081e+00
  1.243473e+01    2.695223e+00
  1.246648e+01    2.742722e+00
  1.249823e+01    2.658636e+00
  1.252998e+01    2.677465e+00
  1.256174e+01    2.639059e+00
  1.259349e+01    2.681066e+00
  1.262524e+01    2.725726e+00
  1.265699e+01    2.789308e+00
  1.268874e+01    2.792401e+00
  1.272049e+01    2.821387e+00
  1.275224e+01    2.892902e+00
  1.278399e+01    2.997653e+00
  1.281574e+01    3.074075e+00
  1.284750e+01    3.127403e+00
  1.287925e+01    3.306708e+00
  1.291100e+01    3.634684e+00
  1.294275e+01    4.065815e+00
  1.297450e+01    4.771667e+00
  1.300625e+01    5.844912e+00
  1.303800e+01    7.702344e+00
  1.306975e+01    1.006968e+01
  1.310150e+01    1.254310e+01
  1.313326e+01    1.474955e+01
  1.316501e+01    1.616937e+01
  1.319676e+01    1.548990e+01
  1.322851e+01    1.243253e+01
  1.326026e+01    9.084421e+00
  1.329201e+01    6.738864e+00
  1.332376e+01    5.324275e+00
  1.335551e+01    4.403749e+00
  1.338727e+01    3.828079e+00
  1.341902e+01    3.452369e+00
  1.345077e+01    3.185552e+00
  1.348252e+01    3.070498e+00
  1.351427e+01    2.870481e+00
  1.354602e+01    2.826694e+00
  1.357777e+01    2.695334e+00
  1.360952e+01    2.675611e+00
  1.364127e+01    2.635461e+00
  1.367303e+01    2.578028e+00
  1.370478e+01    2.588019e+00
  1.373653e+01    2.502086e+00
  1.376828e+01    2.492955e+00
  1.380003e+01    2.429869e+00
  1.383178e+01    2.405121e+00
  1.386353e+01    2.471591e+00
  1.389528e+01    2.431060e+00
  1.392703e+01    2.424910e+00
  1.395879e+01    2.378774e+00
  1.399054e+01    2.373022e+00
  1.402229e+01    2.375848e+00
  1.405404e+01    2.358958e+00
  1.408579e+01    2.329777e+00
  1.411754e+01    2.293664e+00
  1.414929e+01    2.323607e+00
  1.418104e+01    2.306103e+00
  1.421279e+01    2.321107e+00
  1.424455e+01    2.282482e+00
  1.427630e+01    2.295331e+00
  1.430805e+01    2.275738e+00
  1.433980e+01    2.240006e+00
  1.437155e+01    2.242757e+00
  1.440330e+01    2.248731e+00
  1.443505e+01    2.238017e+00
  1.446680e+01    2.215543e+00
  1.449856e+01    2.187677e+00
  1.453031e+01    2.167889e+00
  1.456206e+01    2.224119e+00
  1.459381e+01    2.189619e+00
  1.462556e+01    2.180479e+00
  1.465731e+01    2.169229e+00
  1.468906e+01    2.197323e+00
  1.472081e+01    2.228644e+00
  1.475256e+01    2.200423e+00
  1.478432e+01    2.196846e+00
  1.481607e+01    2.163296e+00
  1.484782e+01    2.202792e+00
  1.487957e+01    2.215146e+00
  1.491132e+01    2.248236e+00
  1.494307e+01    2.332245e+00
  1.497482e+01    2.285724e+00
  1.500657e+01    2.410187e+00
  1.503832e+01    2.571869e+00
  1.507008e+01    2.838458e+00
  1.510183e+01    3.200980e+00
  1.513358e+01    3.785613e+00
  1.516533e+01    4.472647e+00
  1.519708e+01    5.110255e+00
  1.522883e+01    5.628125e+00
  1.526058e+01    5.793975e+00
  1.529233e+01    5.437880e+00
  1.532409e+01    4.614375e+00
  1.535584e+01    3.731634e+00
  1.538759e+01    3.195188e+00
  1.541934e+01    2.763735e+00
  1.545109e+01    2.499532e+00
  1.548284e+01    2.326725e+00
  1.551459e+01    2.251124e+00
  1.554634e+01    2.158978e+00
  1.557809e+01    2.139496e+00
  1.560985e+01    2.061110e+00
  1.564160e+01    2.080736e+00
  1.567335e+01    1.976709e+00
  1.570510e+01    1.994607e+00
  1.573685e+01    1.950490e+00
  1.576860e+01    1.945890e+00
  1.580035e+01    1.937060e+00
  1.583210e+01    1.913149e+00
  1.586385e+01    1.909924e+00
  1.589561e+01    1.896804e+00
  1.592736e+01    1.862071e+00
  1.595911e+01    1.854564e+00
  1.599086e+01    1.874726e+00
  1.602261e+01    1.884780e+00
  1.605436e+01    1.835162e+00
  1.608611e+01    1.852463e+00
  1.611786e+01    1.858989e+00
  1.614961e+01    1.835510e+00
  1.618137e+01    1.840172e+00
  1.621312e+01    1.824716e+00
  1.624487e+01    1.779862e+00
  1.627662e+01    1.837096e+00
  1.630837e+01    1.787941e+00
  1.634012e+01    1.777714e+00
  1.637187e+01    1.763180e+00
  1.640362e+01    1.798469e+00
  1.643538e+01    1.759256e+00
  1.646713e+01    1.763807e+00
  1.649888e+01    1.748336e+00
  1.653063e+01    1.773832e+00
  1.656238e+01    1.743545e+00
  1.659413e+01    1.737482e+00
  1.662588e+01    1.714858e+00
  1.665763e+01    1.713299e+00
  1.668938e+01    1.745723e+00
  1.672114e+01    1.724320e+00
  1.675289e+01    1.701471e+00
  1.678464e+01    1.692790e+00
  1.681639e+01    1.707215e+00
  1.684814e+01    1.721908e+00
  1.687989e+01    1.728900e+00
  1.691164e+01    1.657176e+00
  1.694339e+01    1.676390e+00
  1.697514e+01    1.666110e+00
  1.700690e+01    1.648079e+00
  1.703865e+01    1.683290e+00
  1.707040e+01    1.650287e+00
  1.710215e+01    1.652614e+00
  1.713390e+01    1.619835e+00
  1.716565e+01    1.587920e+00
  1.719740e+01    1.623934e+00
  1.722915e+01    1.630265e+00
  1.726091e+01    1.605856e+00
  1.729266e+01    1.585628e+00
  1.732441e+01    1.572368e+00
  1.735616e+01    1.576603e+00
  1.738791e+01    1.578521e+00
  1.741966e+01    1.568786e+00
  1.745141e+01    1.610992e+00
  1.748316e+01    1.567811e+00
  1.751491e+01    1.586550e+00
  1.754667e+01    1.597060e+00
  1.757842e+01    1.549289e+00
  1.761017e+01    1.572308e+00
  1.764192e+01    1.546035e+00
  1.767367e+01    1.522319e+00
  1.770542e+01    1.551221e+00
  1.773717e+01    1.501438e+00
  1.776892e+01    1.528375e+00
  1.780067e+01    1.541611e+00
  1.783243e+01    1.537371e+00
  1.786418e+01    1.523466e+00
  1.789593e+01    1.528681e+00
  1.792768e+01    1.506483e+00
  1.795943e+01    1.526619e+00
  1.799118e+01    1.511463e+00
  1.802293e+01    1.494145e+00
  1.805468e+01    1.518174e+00
  1.808643e+01    1.513274e+00
  1.811819e+01    1.494582e+00
  1.814994e+01    1.471516e+00
  1.818169e+01    1.474531e+00
  1.821344e+01    1.449144e+00
  1.824519e+01    1.483149e+00
  1.827694e+01    1.463330e+00
  1.830869e+01    1.456125e+00
  1.834044e+01    1.454288e+00
  1.837220e+01    1.454272e+00
  1.840395e+01    1.394861e+00
  1.843570e+01    1.467014e+00
  1.846745e+01    1.438180e+00
  1.849920e+01    1.438208e+00
  1.853095e+01    1.460855e+00
  1.856270e+01    1.403081e+00
  1.859445e+01    1.445565e+00
  1.862620e+01    1.437058e+00
  1.865796e+01    1.418544e+00
  1.868971e+01    1.400241e+00
  1.872146e+01    1.422997e+00
  1.875321e+01    1.414879e+00
  1.878496e+01    1.425805e+00
  1.881671e+01    1.420073e+00
  1.884846e+01    1.381809e+00
  1.888021e+01    1.393460e+00
  1.891196e+01    1.407202e+00
  1.894372e+01    1.367572e+00
  1.897547e+01    1.410383e+00
  1.900722e+01    1.359060e+00
  1.903897e+01    1.370448e+00
  1.907072e+01    1.381676e+00
  1.910247e+01    1.367391e+00
  1.913422e+01    1.366098e+00
  1.916597e+01    1.370527e+00
  1.919773e+01    1.370756e+00
  1.922948e+01    1.365875e+00
  1.926123e+01    1.356629e+00
  1.929298e+01    1.332536e+00
  1.932473e+01    1.329571e+00
  1.935648e+01    1.352749e+00
  1.938823e+01    1.335556e+00
  1.941998e+01    1.345127e+00
  1.945173e+01    1.326415e+00
  1.948349e+01    1.319594e+00
  1.951524e+01    1.329259e+00
  1.954699e+01    1.298794e+00
  1.957874e+01    1.315031e+00
  1.961049e+01    1.270839e+00
  1.964224e+01    1.312686e+00
  1.967399e+01    1.322363e+00
  1.970574e+01    1.282247e+00
  1.973749e+01    1.294365e+00
  1.976925e+01    1.310206e+00
  1.980100e+01    1.260906e+00
  1.983275e+01    1.308732e+00
  1.986450e+01    1.268223e+00
  1.989625e+01    1.302479e+00
  1.992800e+01    1.297707e+00
  1.995975e+01    1.260569e+00
  1.999150e+01    1.282343e+00
  2.002325e+01    1.305100e+00
  2.005501e+01    1.265894e+00
  2.008676e+01    1.304088e+00
  2.011851e+01    1.260272e+00
  2.015026e+01    1.275880e+00
  2.018201e+01    1.256294e+00
  2.021376e+01    1.258823e+00
  2.024551e+01    1.277559e+00
  2.027726e+01    1.266160e+00
  2.030902e+01    1.259530e+00
  2.034077e+01    1.230656e+00
  2.037252e+01    1.237850e+00
  2.040427e+01    1.221439e+00
  2.043602e+01    1.256576e+00
  2.046777e+01    1.229611e+00
  2.049952e+01    1.244573e+00
  2.053127e+01    1.226582e+00
  2.056302e+01    1.199051e+00
  2.059478e+01    1.208900e+00
  2.062653e+01    1.224981e+00
  2.065828e+01    1.211353e+00
  2.069003e+01    1.213347e+00
  2.072178e+01    1.211754e+00
  2.075353e+01    1.210603e+00
  2.078528e+01    1.235325e+00
  2.081703e+01    1.200524e+00
  2.084878e+01    1.227390e+00
  2.088054e+01    1.212423e+00
  2.091229e+01    1.215770e+00
  2.094404e+01    1.213895e+00
  2.097579e+01    1.230372e+00
  2.100754e+01    1.220803e+00
  2.103929e+01    1.223107e+00
  2.107104e+01    1.209556e+00
  2.110279e+01    1.223309e+00
  2.113455e+01    1.199290e+00
  2.116630e+01    1.211602e+00
  2.119805e+01    1.236048e+00
  2.122980e+01    1.250259e+00
  2.126155e+01    1.252661e+00
  2.129330e+01    1.250519e+00
  2.132505e+01    1.249613e+00
  2.135680e+01    1.264636e+00
  2.138855e+01    1.305531e+00
  2.142031e+01    1.304832e+00
  2.145206e+01    1.346720e+00
  2.148381e+01    1.405263e+00
  2.151556e+01    1.430848e+00
  2.154731e+01    1.537387e+00
  2.157906e+01    1.626650e+00
  2.161081e+01    1.722666e+00
  2.164256e+01    1.957767e+00
  2.167431e+01    2.286935e+00
  2.170607e+01    2.722916e+00
  2.173782e+01    3.499843e+00
  2.176957e+01    4.572980e+00
  2.180132e+01    5.804282e+00
  2.183307e+01    7.154099e+00
  2.186482e+01    8.230725e+00
  2.189657e+01    8.920953e+00
  2.192832e+01    8.197058e+00
  2.196007e+01    6.567052e+00
  2.199183e+01    4.872596e+00
  2.202358e+01    3.615593e+00
  2.205533e+01    2.854678e+00
  2.208708e+01    2.341270e+00
  2.211883e+01    1.970754e+00
  2.215058e+01    1.761036e+00
  2.218233e+01    1.611026e+00
  2.221408e+01    1.501481e+00
  2.224584e+01    1.404697e+00
  2.227759e+01    1.343680e+00
  2.230934e+01    1.288883e+00
  2.234109e+01    1.252205e+00
  2.237284e+01    1.244369e+00
  2.240459e+01    1.207935e+00
  2.243634e+01    1.173235e+00
  2.246809e+01    1.163220e+00
  2.249984e+01    1.119465e+00
  2.253160e+01    1.126583e+00
  2.256335e+01    1.117365e+00
  2.259510e+01    1.094884e+00
  2.262685e+01    1.081203e+00
  2.265860e+01    1.096700e+00
  2.269035e+01    1.069808e+00
  2.272210e+01    1.070160e+00
  2.275385e+01    1.083815e+00
  2.278560e+01    1.068119e+00
  2.281736e+01    1.062665e+00
  2.284911e+01    1.051252e+00
  2.288086e+01    1.048735e+00
  2.291261e+01    1.021682e+00
  2.294436e+01    1.019293e+00
  2.297611e+01    1.025001e+00
  2.300786e+01    1.037634e+00
  2.303961e+01    1.001901e+00
  2.307137e+01    1.003884e+00
  2.310312e+01    9.941400e-01
  2.313487e+01    9.758502e-01
  2.316662e+01    1.015012e+00
  2.319837e+01    9.730135e-01
  2.323012e+01    9.857519e-01
  2.326187e+01    9.814615e-01
  2.329362e+01    9.923654e-01
  2.332537e+01    9.958664e-01
  2.335713e+01    9.773941e-01
  2.338888e+01    9.769817e-01
  2.342063e+01    9.768978e-01
  2.345238e+01    9.634382e-01
  2.348413e+01    9.645942e-01
  2.351588e+01    9.622329e-01
  2.354763e+01    9.475474e-01
  2.357938e+01    9.372988e-01
  2.361113e+01    9.355500e-01
  2.364289e+01    9.583837e-01
  2.367464e+01    9.201948e-01
  2.370639e+01    9.250134e-01
  2.373814e+01    9.236873e-01
  2.376989e+01    9.099112e-01
  2.380164e+01    9.287335e-01
  2.383339e+01    9.022419e-01
  2.386514e+01    9.162866e-01
  2.389689e+01    9.135296e-01
  2.392865e+01    9.107198e-01
  2.396040e+01    8.982626e-01
  2.399215e+01    8.965528e-01
  2.402390e+01    8.716896e-01
  2.405565e+01    8.987488e-01
  2.408740e+01    9.075346e-01
  2.411915e+01    8.916454e-01
  2.415090e+01    9.015075e-01
  2.418266e+01    8.897951e-01
  2.421441e+01    8.914729e-01
  2.424616e+01    8.916414e-01
  2.427791e+01    8.877500e-01
  2.430966e+01    8.642759e-01
  2.434141e+01    8.869755e-01
  2.437316e+01    9.024690e-01
  2.440491e+01    8.932260e-01
  2.443666e+01    8.760100e-01
  2.446842e+01    8.768765e-01
  2.450017e+01    8.719525e-01
  2.453192e+01    8.798761e-01
  2.456367e+01    9.043637e-01
  2.459542e+01    8.837253e-01
  2.462717e+01    8.891361e-01
  2.465892e+01    8.574099e-01
  2.469067e+01    8.951576e-01
  2.472242e+01    8.861908e-01
  2.475418e+01    8.718172e-01
  2.478593e+01    8.866846e-01
  2.481768e+01    8.673595e-01
  2.484943e+01    8.680748e-01
  2.488118e+01    8.744701e-01
  2.491293e+01    9.059886e-01
  2.494468e+01    8.899414e-01
  2.497643e+01    8.925678e-01
  2.500819e+01    8.671798e-01
  2.503994e+01    8.850147e-01
  2.507169e+01    8.875340e-01
  2.510344e+01    9.105121e-01
  2.513519e+01    8.718615e-01
  2.516694e+01    9.115238e-01
  2.519869e+01    9.122579e-01
  2.523044e+01    9.349375e-01
  2.526219e+01    9.442627e-01
  2.529395e+01    9.455364e-01
  2.532570e+01    9.516249e-01
  2.535745e+01    9.480538e-01
  2.538920e+01    9.840838e-01
  2.542095e+01    9.841098e-01
  2.545270e+01    1.012763e+00
  2.548445e+01    1.059932e+00
  2.551620e+01    1.062586e+00
  2.554795e+01    1.079090e+00
  2.557971e+01    1.161271e+00
  2.561146e+01    1.203992e+00
  2.564321e+01    1.308274e+00
  2.567496e+01    1.391289e+00
  2.570671e+01    1.596901e+00
  2.573846e+01    1.868350e+00
  2.577021e+01    2.200584e+00
  2.580196e+01    2.753107e+00
  2.583371e+01    3.597573e+00
  2.586547e+01    4.644628e+00
  2.589722e+01    5.766429e+00
  2.592897e+01    6.721370e+00
  2.596072e+01    7.066199e+00
  2.599247e+01    6.554719e+00
  2.602422e+01    5.255058e+00
  2.605597e+01    3.959164e+00
  2.608772e+01    2.996798e+00
  2.611948e+01    2.345500e+00
  2.615123e+01    1.959731e+00
  2.618298e+01    1.627963e+00
  2.621473e+01    1.458740e+00
  2.624648e+01    1.342049e+00
  2.627823e+01    1.235886e+00
  2.630998e+01    1.170609e+00
  2.634173e+01    1.110500e+00
  2.637348e+01    1.081933e+00
  2.640524e+01    1.049572e+00
  2.643699e+01    1.028251e+00
  2.646874e+01    1.032047e+00
  2.650049e+01    1.005354e+00
  2.653224e+01    9.935821e-01
  2.656399e+01    9.815003e-01
  2.659574e+01    9.993091e-01
  2.662749e+01    9.890014e-01
  2.665924e+01    9.704369e-01
  2.669100e+01    9.849134e-01
  2.672275e+01    9.657173e-01
  2.675450e+01    9.618509e-01
  2.678625e+01    9.676112e-01
  2.681800e+01    9.576243e-01
  2.684975e+01    9.852999e-01
  2.688150e+01    9.870102e-01
  2.691325e+01    9.802743e-01
  2.694501e+01    9.958791e-01
  2.697676e+01    1.033874e+00
  2.700851e+01    1.097903e+00
  2.704026e+01    1.198556e+00
  2.707201e+01    1.314297e+00
  2.710376e+01    1.490374e+00
  2.713551e+01    1.722680e+00
  2.716726e+01    1.956840e+00
  2.719901e+01    2.140505e+00
  2.723077e+01    2.138467e+00
  2.726252e+01    1.968495e+00
  2.729427e+01    1.703761e+00
  2.732602e+01    1.427252e+00
  2.735777e+01    1.276727e+00
  2.738952e+01    1.182618e+00
  2.742127e+01    1.096641e+00
  2.745302e+01    1.029863e+00
  2.748477e+01    9.938294e-01
  2.751653e+01    9.708325e-01
  2.754828e+01    9.369739e-01
  2.758003e+01    9.402970e-01
  2.761178e+01    9.119114e-01
  2.764353e+01    8.999053e-01
  2.767528e+01    8.670042e-01
  2.770703e+01    8.855032e-01
  2.773878e+01    9.009098e-01
  2.777054e+01    8.867930e-01
  2.780229e+01    8.744272e-01
  2.783404e+01    8.700297e-01
  2.786579e+01    8.775104e-01
  2.789754e+01    8.685711e-01
  2.792929e+01    8.707256e-01
  2.796104e+01    8.540004e-01
  2.799279e+01    8.561555e-01
  2.802454e+01    8.602830e-01
  2.805630e+01    8.761816e-01
  2.808805e+01    8.366346e-01
  2.811980e+01    8.515636e-01
  2.815155e+01    8.314848e-01
  2.818330e+01    8.480230e-01
  2.821505e+01    8.557584e-01
  2.824680e+01    8.398570e-01
  2.827855e+01    8.422996e-01
  2.831030e+01    8.636757e-01
  2.834206e+01    8.310607e-01
  2.837381e+01    8.450129e-01
  2.840556e+01    8.499678e-01
  2.843731e+01    8.423950e-01
  2.846906e+01    8.410041e-01
  2.850081e+01    8.373803e-01
  2.853256e+01    8.270551e-01
  2.856431e+01    8.320250e-01
  2.859606e+01    8.406420e-01
  2.862782e+01    8.546853e-01
  2.865957e+01    8.360904e-01
  2.869132e+01    8.367877e-01
  2.872307e+01    8.385854e-01
  2.875482e+01    8.384233e-01
  2.878657e+01    8.006321e-01
  2.881832e+01    8.292623e-01
  2.885007e+01    7.950478e-01
  2.888183e+01    8.227952e-01
  2.891358e+01    8.112205e-01
  2.894533e+01    8.269542e-01
  2.897708e+01    8.274049e-01
  2.900883e+01    8.199264e-01
  2.904058e+01    8.005727e-01
  2.907233e+01    8.078960e-01
  2.910408e+01    8.187398e-01
  2.913583e+01    7.867538e-01
  2.916759e+01    7.900615e-01
  2.919934e+01    7.902997e-01
  2.923109e+01    8.094521e-01
  2.926284e+01    8.019981e-01
  2.929459e+01    8.160342e-01
  2.932634e+01    8.055086e-01
  2.935809e+01    7.941276e-01
  2.938984e+01    7.863749e-01
  2.942159e+01    7.981249e-01
  2.945335e+01    8.107072e-01
  2.948510e+01    7.916908e-01
  2.951685e+01    7.849628e-01
  2.954860e+01    8.144572e-01
  2.958035e+01    8.079949e-01
  2.961210e+01    7.670247e-01
  2.964385e+01    7.921745e-01
  2.967560e+01    7.844119e-01
  2.970736e+01    7.877804e-01
  2.973911e+01    8.002415e-01
  2.977086e+01    8.071836e-01
  2.980261e+01    8.108377e-01
  2.983436e+01    7.660381e-01
  2.986611e+01    7.938645e-01
  2.989786e+01    7.946051e-01
  2.992961e+01    7.792375e-01
  2.996136e+01    8.075205e-01
  2.999312e+01    7.974094e-01
  3.002487e+01    7.947992e-01
  3.005662e+01    8.058965e-01
  3.008837e+01    7.986074e-01
  3.012012e+01    7.898914e-01
  3.015187e+01    7.884272e-01
  3.018362e+01    7.783461e-01
  3.021537e+01    7.910600e-01
  3.024712e+01    7.665993e-01
  3.027888e+01    7.741880e-01
  3.031063e+01    7.882220e-01
  3.034238e+01    7.686943e-01
  3.037413e+01    7.875053e-01
  3.040588e+01    7.885701e-01
  3.043763e+01    7.617225e-01
  3.046938e+01    7.838551e-01
  3.050113e+01    7.814021e-01
  3.053288e+01    7.796234e-01
  3.056464e+01    7.927166e-01
  3.059639e+01    7.768769e-01
  3.062814e+01    7.743996e-01
  3.065989e+01    7.801757e-01
  3.069164e+01    7.629584e-01
  3.072339e+01    7.751257e-01
  3.075514e+01    7.630200e-01
  3.078689e+01    7.643351e-01
  3.081865e+01    7.765884e-01
  3.085040e+01    7.640932e-01
  3.088215e+01    7.682389e-01
  3.091390e+01    8.041230e-01
  3.094565e+01    7.714307e-01
  3.097740e+01    8.056300e-01
  3.100915e+01    7.714467e-01
  3.104090e+01    7.766325e-01
  3.107265e+01    7.915817e-01
  3.110441e+01    7.889904e-01
  3.113616e+01    7.785829e-01
  3.116791e+01    7.871206e-01
  3.119966e+01    8.014590e-01
  3.123141e+01    7.973872e-01
  3.126316e+01    7.946922e-01
  3.129491e+01    7.798110e-01
  3.132666e+01    7.912602e-01
  3.135841e+01    7.973490e-01
  3.139017e+01    7.874581e-01
  3.142192e+01    8.175480e-01
  3.145367e+01    7.980327e-01
  3.148542e+01    8.146117e-01
  3.151717e+01    8.230714e-01
  3.154892e+01    8.432093e-01
  3.158067e+01    8.586263e-01
  3.161242e+01    8.444253e-01
  3.164418e+01    9.267092e-01
  3.167593e+01    9.759260e-01
  3.170768e+01    1.027603e+00
  3.173943e+01    1.111620e+00
  3.177118e+01    1.238448e+00
  3.180293e+01    1.445796e+00
  3.183468e+01    1.697611e+00
  3.186643e+01    1.930768e+00
  3.189818e+01    2.072140e+00
  3.192994e+01    2.014947e+00
  3.196169e+01    1.815053e+00
  3.199344e+01    1.535396e+00
  3.202519e+01    1.303328e+00
  3.205694e+01    1.137621e+00
  3.208869e+01    1.038724e+00
  3.212044e+01    9.892232e-01
  3.215219e+01    9.004500e-01
  3.218394e+01    8.723219e-01
  3.221570e+01    8.482381e-01
  3.224745e+01    7.918685e-01
  3.227920e+01    7.980681e-01
  3.231095e+01    8.099418e-01
  3.234270e+01    8.001819e-01
  3.237445e+01    7.838674e-01
  3.240620e+01    7.802295e-01
  3.243795e+01    7.505605e-01
  3.246970e+01    7.713279e-01
  3.250146e+01    7.651994e-01
  3.253321e+01    7.576263e-01
  3.254908e+01    7.670066e-01