File: XRD/Reaction conditions/2024-07-27_003_Ru-CGO-ex_Reaction_dwell_000023_data_000030.dat
# == pyFAI calibration ==
# Distance Sample to Detector: 0.4 m
# PONI: 9.750e-02, 1.135e-01 m
# Rotations: -0.000175 0.000000 -0.000000 rad
#
# == Fit2d calibration ==
# Distance Sample-beamCenter: 400.000 mm
# Center: x=1514.000, y=1300.000 pix
# Tilt: 0.010 deg  TiltPlanRot: 0.010 deg
#
# Detector Detector	 Spline= None	 PixelSize= 7.500e-05, 7.500e-05 m
#    Detector has a mask: False
#    Detector has a dark current: False
#    detector has a flat field: False
#
# Wavelength: 6.888e-11 m
# Mask applied: user provided
# Dark current applied: False
# Flat field applied: False
# Polarization factor: 0.99
# Normalization factor: 1.0
# --> /home/myspot/data/2024_07_Rosario/Ru-CGO-ex/2024-07-27_003_Ru-CGO-ex_Reaction_dwell_000023_data_000030.dat
#       q_nm^-1             I
  2.003187e-02    9.938470e-02
  5.178302e-02    1.910478e-02
  8.353417e-02    1.556468e-01
  1.152853e-01    5.198565e-02
  1.470365e-01    5.760422e-02
  1.787876e-01    6.362924e-02
  2.105388e-01    6.456271e-02
  2.422899e-01    6.253635e-03
  2.740411e-01    5.111294e-02
  3.057922e-01    5.130352e-02
  3.375433e-01    4.944372e-02
  3.692945e-01    4.521212e-02
  4.010456e-01    4.906477e-02
  4.327968e-01    3.812177e-02
  4.645479e-01    5.533807e-02
  4.962991e-01    1.866323e-02
  5.280502e-01    2.923350e-02
  5.598014e-01    4.850382e-02
  5.915525e-01    1.666701e-02
  6.233037e-01    3.207912e-02
  6.550548e-01    3.694298e-02
  6.868060e-01    5.517610e-02
  7.185571e-01    3.435655e-02
  7.503083e-01    2.857233e-02
  7.820594e-01    1.443441e-01
  8.138106e-01    2.501871e-01
  8.455617e-01    3.503960e-01
  8.773129e-01    4.744844e-01
  9.090640e-01    6.852368e-01
  9.408152e-01    8.555483e-01
  9.725663e-01    1.020402e+00
  1.004317e+00    1.082699e+00
  1.036069e+00    1.357055e+00
  1.067820e+00    1.678070e+00
  1.099571e+00    1.685069e+00
  1.131322e+00    1.587403e+00
  1.163073e+00    1.610121e+00
  1.194824e+00    1.845925e+00
  1.226575e+00    2.324496e+00
  1.258327e+00    2.540626e+00
  1.290078e+00    2.584325e+00
  1.321829e+00    2.744328e+00
  1.353580e+00    2.767913e+00
  1.385331e+00    2.760790e+00
  1.417082e+00    2.936368e+00
  1.448834e+00    2.977318e+00
  1.480585e+00    2.989030e+00
  1.512336e+00    3.121519e+00
  1.544087e+00    3.191849e+00
  1.575838e+00    3.268147e+00
  1.607589e+00    3.138993e+00
  1.639340e+00    3.194808e+00
  1.671092e+00    3.215947e+00
  1.702843e+00    3.186899e+00
  1.734594e+00    3.024808e+00
  1.766345e+00    3.009791e+00
  1.798096e+00    3.131027e+00
  1.829847e+00    2.891868e+00
  1.861598e+00    3.087390e+00
  1.893350e+00    2.980424e+00
  1.925101e+00    3.030125e+00
  1.956852e+00    3.086825e+00
  1.988603e+00    3.116428e+00
  2.020354e+00    3.144343e+00
  2.052105e+00    3.155030e+00
  2.083856e+00    3.143210e+00
  2.115608e+00    3.020171e+00
  2.147359e+00    3.278116e+00
  2.179110e+00    3.166502e+00
  2.210861e+00    3.186431e+00
  2.242612e+00    3.177367e+00
  2.274363e+00    3.196868e+00
  2.306115e+00    3.237406e+00
  2.337866e+00    3.098457e+00
  2.369617e+00    3.200181e+00
  2.401368e+00    3.159540e+00
  2.433119e+00    3.230406e+00
  2.464870e+00    3.162177e+00
  2.496621e+00    3.115113e+00
  2.528373e+00    3.227291e+00
  2.560124e+00    3.061677e+00
  2.591875e+00    3.260461e+00
  2.623626e+00    3.237395e+00
  2.655377e+00    3.218166e+00
  2.687128e+00    3.344012e+00
  2.718879e+00    3.266530e+00
  2.750631e+00    3.307193e+00
  2.782382e+00    3.250325e+00
  2.814133e+00    3.246053e+00
  2.845884e+00    3.323894e+00
  2.877635e+00    3.392706e+00
  2.909386e+00    3.352793e+00
  2.941137e+00    3.377135e+00
  2.972889e+00    3.344909e+00
  3.004640e+00    3.353302e+00
  3.036391e+00    3.268134e+00
  3.068142e+00    3.296339e+00
  3.099893e+00    3.420097e+00
  3.131644e+00    3.454341e+00
  3.163395e+00    3.396608e+00
  3.195147e+00    3.220858e+00
  3.226898e+00    3.354259e+00
  3.258649e+00    3.375979e+00
  3.290400e+00    3.399185e+00
  3.322151e+00    3.417576e+00
  3.353902e+00    3.424335e+00
  3.385654e+00    3.390069e+00
  3.417405e+00    3.483405e+00
  3.449156e+00    3.494630e+00
  3.480907e+00    3.376935e+00
  3.512658e+00    3.458842e+00
  3.544409e+00    3.410457e+00
  3.576160e+00    3.547404e+00
  3.607912e+00    3.556020e+00
  3.639663e+00    3.608616e+00
  3.671414e+00    3.537029e+00
  3.703165e+00    3.439654e+00
  3.734916e+00    3.541869e+00
  3.766667e+00    3.558125e+00
  3.798418e+00    3.489398e+00
  3.830170e+00    3.451631e+00
  3.861921e+00    3.535052e+00
  3.893672e+00    3.499013e+00
  3.925423e+00    3.533616e+00
  3.957174e+00    3.505815e+00
  3.988925e+00    3.517681e+00
  4.020676e+00    3.536070e+00
  4.052428e+00    3.564372e+00
  4.084179e+00    3.562120e+00
  4.115930e+00    3.541922e+00
  4.147681e+00    3.488730e+00
  4.179432e+00    3.482020e+00
  4.211183e+00    3.591730e+00
  4.242935e+00    3.543252e+00
  4.274686e+00    3.598469e+00
  4.306437e+00    3.650581e+00
  4.338188e+00    3.651186e+00
  4.369939e+00    3.539130e+00
  4.401690e+00    3.525275e+00
  4.433441e+00    3.656846e+00
  4.465193e+00    3.657287e+00
  4.496944e+00    3.616780e+00
  4.528695e+00    3.639780e+00
  4.560446e+00    3.677330e+00
  4.592197e+00    3.653728e+00
  4.623948e+00    3.676192e+00
  4.655699e+00    3.650359e+00
  4.687451e+00    3.675445e+00
  4.719202e+00    3.626163e+00
  4.750953e+00    3.713330e+00
  4.782704e+00    3.633613e+00
  4.814455e+00    3.651957e+00
  4.846206e+00    3.652653e+00
  4.877957e+00    3.617222e+00
  4.909709e+00    3.631501e+00
  4.941460e+00    3.615981e+00
  4.973211e+00    3.678773e+00
  5.004962e+00    3.711785e+00
  5.036713e+00    3.575753e+00
  5.068464e+00    3.577518e+00
  5.100216e+00    3.680838e+00
  5.131967e+00    3.614139e+00
  5.163718e+00    3.574468e+00
  5.195469e+00    3.646206e+00
  5.227220e+00    3.681726e+00
  5.258971e+00    3.707962e+00
  5.290722e+00    3.655099e+00
  5.322474e+00    3.707903e+00
  5.354225e+00    3.684874e+00
  5.385976e+00    3.712395e+00
  5.417727e+00    3.658718e+00
  5.449478e+00    3.632622e+00
  5.481229e+00    3.616804e+00
  5.512980e+00    3.693987e+00
  5.544732e+00    3.534739e+00
  5.576483e+00    3.701319e+00
  5.608234e+00    3.652276e+00
  5.639985e+00    3.614887e+00
  5.671736e+00    3.600758e+00
  5.703487e+00    3.619560e+00
  5.735238e+00    3.620328e+00
  5.766990e+00    3.629135e+00
  5.798741e+00    3.564209e+00
  5.830492e+00    3.535564e+00
  5.862243e+00    3.625358e+00
  5.893994e+00    3.612306e+00
  5.925745e+00    3.404412e+00
  5.957497e+00    3.575270e+00
  5.989248e+00    3.480616e+00
  6.020999e+00    3.492788e+00
  6.052750e+00    3.531700e+00
  6.084501e+00    3.581391e+00
  6.116252e+00    3.621615e+00
  6.148003e+00    3.582315e+00
  6.179755e+00    3.581609e+00
  6.211506e+00    3.549757e+00
  6.243257e+00    3.585049e+00
  6.275008e+00    3.532279e+00
  6.306759e+00    3.593137e+00
  6.338510e+00    3.554440e+00
  6.370261e+00    3.570016e+00
  6.402013e+00    3.562694e+00
  6.433764e+00    3.540066e+00
  6.465515e+00    3.513137e+00
  6.497266e+00    3.620046e+00
  6.529017e+00    3.552556e+00
  6.560768e+00    3.578974e+00
  6.592519e+00    3.466333e+00
  6.624271e+00    3.560965e+00
  6.656022e+00    3.536556e+00
  6.687773e+00    3.661894e+00
  6.719524e+00    3.607057e+00
  6.751275e+00    3.571687e+00
  6.783026e+00    3.607440e+00
  6.814777e+00    3.542780e+00
  6.846529e+00    3.564339e+00
  6.878280e+00    3.619477e+00
  6.910031e+00    3.607925e+00
  6.941782e+00    3.511141e+00
  6.973533e+00    3.558870e+00
  7.005284e+00    3.507494e+00
  7.037036e+00    3.408023e+00
  7.068787e+00    3.518657e+00
  7.100538e+00    3.562774e+00
  7.132289e+00    3.601311e+00
  7.164040e+00    3.527209e+00
  7.195791e+00    3.484683e+00
  7.227542e+00    3.495693e+00
  7.259294e+00    3.516340e+00
  7.291045e+00    3.587051e+00
  7.322796e+00    3.516887e+00
  7.354547e+00    3.510677e+00
  7.386298e+00    3.487252e+00
  7.418049e+00    3.396645e+00
  7.449800e+00    3.434797e+00
  7.481552e+00    3.447925e+00
  7.513303e+00    3.440685e+00
  7.545054e+00    3.456466e+00
  7.576805e+00    3.425200e+00
  7.608556e+00    3.441719e+00
  7.640307e+00    3.465220e+00
  7.672058e+00    3.460097e+00
  7.703810e+00    3.443120e+00
  7.735561e+00    3.417697e+00
  7.767312e+00    3.480467e+00
  7.799063e+00    3.504893e+00
  7.830814e+00    3.474231e+00
  7.862565e+00    3.479178e+00
  7.894317e+00    3.420341e+00
  7.926068e+00    3.532654e+00
  7.957819e+00    3.457265e+00
  7.989570e+00    3.446368e+00
  8.021321e+00    3.399848e+00
  8.053072e+00    3.416726e+00
  8.084823e+00    3.430500e+00
  8.116575e+00    3.535746e+00
  8.148326e+00    3.491390e+00
  8.180077e+00    3.499610e+00
  8.211828e+00    3.449714e+00
  8.243579e+00    3.537776e+00
  8.275330e+00    3.489349e+00
  8.307081e+00    3.420225e+00
  8.338833e+00    3.473448e+00
  8.370584e+00    3.437207e+00
  8.402335e+00    3.435525e+00
  8.434086e+00    3.394717e+00
  8.465837e+00    3.359028e+00
  8.497588e+00    3.341664e+00
  8.529339e+00    3.444186e+00
  8.561091e+00    3.381524e+00
  8.592842e+00    3.378911e+00
  8.624593e+00    3.393367e+00
  8.656344e+00    3.407236e+00
  8.688095e+00    3.348882e+00
  8.719846e+00    3.365443e+00
  8.751598e+00    3.321303e+00
  8.783349e+00    3.335205e+00
  8.815100e+00    3.314837e+00
  8.846851e+00    3.402467e+00
  8.878602e+00    3.212088e+00
  8.910353e+00    3.281706e+00
  8.942104e+00    3.288689e+00
  8.973856e+00    3.306496e+00
  9.005607e+00    3.280391e+00
  9.037358e+00    3.246332e+00
  9.069109e+00    3.223188e+00
  9.100860e+00    3.323652e+00
  9.132611e+00    3.245402e+00
  9.164362e+00    3.314656e+00
  9.196114e+00    3.302114e+00
  9.227865e+00    3.289906e+00
  9.259616e+00    3.304550e+00
  9.291367e+00    3.242963e+00
  9.323118e+00    3.202349e+00
  9.354869e+00    3.266652e+00
  9.386620e+00    3.295277e+00
  9.418372e+00    3.256796e+00
  9.450123e+00    3.218806e+00
  9.481874e+00    3.260390e+00
  9.513625e+00    3.229382e+00
  9.545376e+00    3.156203e+00
  9.577127e+00    3.239488e+00
  9.608878e+00    3.198043e+00
  9.640630e+00    3.219726e+00
  9.672381e+00    3.226733e+00
  9.704132e+00    3.241851e+00
  9.735883e+00    3.219587e+00
  9.767634e+00    3.152523e+00
  9.799385e+00    3.146009e+00
  9.831137e+00    3.164822e+00
  9.862888e+00    3.167358e+00
  9.894639e+00    3.179388e+00
  9.926390e+00    3.147324e+00
  9.958141e+00    3.187382e+00
  9.989892e+00    3.161068e+00
  1.002164e+01    3.053321e+00
  1.005339e+01    3.095598e+00
  1.008515e+01    3.120832e+00
  1.011690e+01    3.094245e+00
  1.014865e+01    3.108288e+00
  1.018040e+01    3.079581e+00
  1.021215e+01    3.087813e+00
  1.024390e+01    3.083590e+00
  1.027565e+01    3.052136e+00
  1.030740e+01    3.079192e+00
  1.033915e+01    3.155085e+00
  1.037091e+01    3.032237e+00
  1.040266e+01    2.994850e+00
  1.043441e+01    3.097625e+00
  1.046616e+01    3.015460e+00
  1.049791e+01    3.069961e+00
  1.052966e+01    3.024827e+00
  1.056141e+01    3.024091e+00
  1.059316e+01    3.029811e+00
  1.062492e+01    2.985385e+00
  1.065667e+01    2.979324e+00
  1.068842e+01    3.002876e+00
  1.072017e+01    2.983620e+00
  1.075192e+01    2.879125e+00
  1.078367e+01    2.922126e+00
  1.081542e+01    2.928472e+00
  1.084717e+01    2.999940e+00
  1.087892e+01    2.967606e+00
  1.091068e+01    2.964516e+00
  1.094243e+01    2.964608e+00
  1.097418e+01    2.918499e+00
  1.100593e+01    2.914832e+00
  1.103768e+01    2.886615e+00
  1.106943e+01    2.925979e+00
  1.110118e+01    2.916957e+00
  1.113293e+01    2.838918e+00
  1.116468e+01    2.851097e+00
  1.119644e+01    2.881327e+00
  1.122819e+01    2.896750e+00
  1.125994e+01    2.909712e+00
  1.129169e+01    2.886644e+00
  1.132344e+01    2.849115e+00
  1.135519e+01    2.849182e+00
  1.138694e+01    2.829806e+00
  1.141869e+01    2.772320e+00
  1.145045e+01    2.813214e+00
  1.148220e+01    2.787222e+00
  1.151395e+01    2.833861e+00
  1.154570e+01    2.801795e+00
  1.157745e+01    2.864067e+00
  1.160920e+01    2.807187e+00
  1.164095e+01    2.828418e+00
  1.167270e+01    2.794110e+00
  1.170445e+01    2.783854e+00
  1.173621e+01    2.797600e+00
  1.176796e+01    2.747974e+00
  1.179971e+01    2.685289e+00
  1.183146e+01    2.778831e+00
  1.186321e+01    2.727958e+00
  1.189496e+01    2.668020e+00
  1.192671e+01    2.744038e+00
  1.195846e+01    2.686780e+00
  1.199021e+01    2.703507e+00
  1.202197e+01    2.676976e+00
  1.205372e+01    2.753678e+00
  1.208547e+01    2.752016e+00
  1.211722e+01    2.690746e+00
  1.214897e+01    2.778936e+00
  1.218072e+01    2.689751e+00
  1.221247e+01    2.640605e+00
  1.224422e+01    2.711031e+00
  1.227597e+01    2.688780e+00
  1.230773e+01    2.709177e+00
  1.233948e+01    2.693371e+00
  1.237123e+01    2.674340e+00
  1.240298e+01    2.687744e+00
  1.243473e+01    2.727319e+00
  1.246648e+01    2.679929e+00
  1.249823e+01    2.704553e+00
  1.252998e+01    2.774889e+00
  1.256174e+01    2.704010e+00
  1.259349e+01    2.706958e+00
  1.262524e+01    2.745395e+00
  1.265699e+01    2.808356e+00
  1.268874e+01    2.821832e+00
  1.272049e+01    2.855440e+00
  1.275224e+01    2.865152e+00
  1.278399e+01    2.964459e+00
  1.281574e+01    3.002678e+00
  1.284750e+01    3.162024e+00
  1.287925e+01    3.361849e+00
  1.291100e+01    3.715208e+00
  1.294275e+01    4.094060e+00
  1.297450e+01    4.813454e+00
  1.300625e+01    5.932224e+00
  1.303800e+01    7.882789e+00
  1.306975e+01    1.014773e+01
  1.310150e+01    1.285703e+01
  1.313326e+01    1.484450e+01
  1.316501e+01    1.641929e+01
  1.319676e+01    1.574654e+01
  1.322851e+01    1.253697e+01
  1.326026e+01    9.133231e+00
  1.329201e+01    6.746044e+00
  1.332376e+01    5.354403e+00
  1.335551e+01    4.456293e+00
  1.338727e+01    3.855841e+00
  1.341902e+01    3.492248e+00
  1.345077e+01    3.232017e+00
  1.348252e+01    3.034453e+00
  1.351427e+01    2.963421e+00
  1.354602e+01    2.818697e+00
  1.357777e+01    2.739026e+00
  1.360952e+01    2.695516e+00
  1.364127e+01    2.659909e+00
  1.367303e+01    2.576856e+00
  1.370478e+01    2.551273e+00
  1.373653e+01    2.507169e+00
  1.376828e+01    2.516067e+00
  1.380003e+01    2.448457e+00
  1.383178e+01    2.480542e+00
  1.386353e+01    2.466645e+00
  1.389528e+01    2.413528e+00
  1.392703e+01    2.452467e+00
  1.395879e+01    2.397596e+00
  1.399054e+01    2.423279e+00
  1.402229e+01    2.320954e+00
  1.405404e+01    2.328217e+00
  1.408579e+01    2.313427e+00
  1.411754e+01    2.346436e+00
  1.414929e+01    2.331935e+00
  1.418104e+01    2.360011e+00
  1.421279e+01    2.331554e+00
  1.424455e+01    2.316849e+00
  1.427630e+01    2.251864e+00
  1.430805e+01    2.282096e+00
  1.433980e+01    2.253433e+00
  1.437155e+01    2.256049e+00
  1.440330e+01    2.257586e+00
  1.443505e+01    2.275912e+00
  1.446680e+01    2.253546e+00
  1.449856e+01    2.223533e+00
  1.453031e+01    2.211446e+00
  1.456206e+01    2.180872e+00
  1.459381e+01    2.231172e+00
  1.462556e+01    2.244768e+00
  1.465731e+01    2.243743e+00
  1.468906e+01    2.212911e+00
  1.472081e+01    2.211719e+00
  1.475256e+01    2.239501e+00
  1.478432e+01    2.235142e+00
  1.481607e+01    2.198906e+00
  1.484782e+01    2.209537e+00
  1.487957e+01    2.225808e+00
  1.491132e+01    2.245533e+00
  1.494307e+01    2.323520e+00
  1.497482e+01    2.350126e+00
  1.500657e+01    2.458567e+00
  1.503832e+01    2.583802e+00
  1.507008e+01    2.870145e+00
  1.510183e+01    3.200971e+00
  1.513358e+01    3.826393e+00
  1.516533e+01    4.540340e+00
  1.519708e+01    5.198688e+00
  1.522883e+01    5.583413e+00
  1.526058e+01    5.867764e+00
  1.529233e+01    5.483148e+00
  1.532409e+01    4.686275e+00
  1.535584e+01    3.795427e+00
  1.538759e+01    3.151921e+00
  1.541934e+01    2.765770e+00
  1.545109e+01    2.562389e+00
  1.548284e+01    2.370549e+00
  1.551459e+01    2.312292e+00
  1.554634e+01    2.173036e+00
  1.557809e+01    2.125565e+00
  1.560985e+01    2.106894e+00
  1.564160e+01    2.017838e+00
  1.567335e+01    2.045593e+00
  1.570510e+01    2.020616e+00
  1.573685e+01    1.969378e+00
  1.576860e+01    1.988029e+00
  1.580035e+01    1.966966e+00
  1.583210e+01    1.930713e+00
  1.586385e+01    1.927905e+00
  1.589561e+01    1.907615e+00
  1.592736e+01    1.935933e+00
  1.595911e+01    1.912029e+00
  1.599086e+01    1.873554e+00
  1.602261e+01    1.894399e+00
  1.605436e+01    1.842213e+00
  1.608611e+01    1.847392e+00
  1.611786e+01    1.825651e+00
  1.614961e+01    1.833687e+00
  1.618137e+01    1.855684e+00
  1.621312e+01    1.821155e+00
  1.624487e+01    1.816499e+00
  1.627662e+01    1.773345e+00
  1.630837e+01    1.817160e+00
  1.634012e+01    1.830561e+00
  1.637187e+01    1.806725e+00
  1.640362e+01    1.761766e+00
  1.643538e+01    1.803071e+00
  1.646713e+01    1.775860e+00
  1.649888e+01    1.741049e+00
  1.653063e+01    1.762837e+00
  1.656238e+01    1.769125e+00
  1.659413e+01    1.748079e+00
  1.662588e+01    1.748208e+00
  1.665763e+01    1.752480e+00
  1.668938e+01    1.719960e+00
  1.672114e+01    1.722129e+00
  1.675289e+01    1.684460e+00
  1.678464e+01    1.702269e+00
  1.681639e+01    1.693682e+00
  1.684814e+01    1.718238e+00
  1.687989e+01    1.705012e+00
  1.691164e+01    1.670456e+00
  1.694339e+01    1.682514e+00
  1.697514e+01    1.663037e+00
  1.700690e+01    1.677402e+00
  1.703865e+01    1.642481e+00
  1.707040e+01    1.667012e+00
  1.710215e+01    1.639550e+00
  1.713390e+01    1.669796e+00
  1.716565e+01    1.642572e+00
  1.719740e+01    1.631786e+00
  1.722915e+01    1.610388e+00
  1.726091e+01    1.633884e+00
  1.729266e+01    1.625232e+00
  1.732441e+01    1.624417e+00
  1.735616e+01    1.609801e+00
  1.738791e+01    1.594432e+00
  1.741966e+01    1.621720e+00
  1.745141e+01    1.611351e+00
  1.748316e+01    1.575160e+00
  1.751491e+01    1.580578e+00
  1.754667e+01    1.581459e+00
  1.757842e+01    1.568469e+00
  1.761017e+01    1.534307e+00
  1.764192e+01    1.551609e+00
  1.767367e+01    1.571707e+00
  1.770542e+01    1.550832e+00
  1.773717e+01    1.548203e+00
  1.776892e+01    1.579884e+00
  1.780067e+01    1.552525e+00
  1.783243e+01    1.537464e+00
  1.786418e+01    1.535726e+00
  1.789593e+01    1.559963e+00
  1.792768e+01    1.561736e+00
  1.795943e+01    1.525623e+00
  1.799118e+01    1.510072e+00
  1.802293e+01    1.504129e+00
  1.805468e+01    1.493401e+00
  1.808643e+01    1.513471e+00
  1.811819e+01    1.502512e+00
  1.814994e+01    1.492013e+00
  1.818169e+01    1.465893e+00
  1.821344e+01    1.496636e+00
  1.824519e+01    1.482769e+00
  1.827694e+01    1.484308e+00
  1.830869e+01    1.495203e+00
  1.834044e+01    1.483156e+00
  1.837220e+01    1.437080e+00
  1.840395e+01    1.456459e+00
  1.843570e+01    1.423732e+00
  1.846745e+01    1.465303e+00
  1.849920e+01    1.444819e+00
  1.853095e+01    1.431611e+00
  1.856270e+01    1.445373e+00
  1.859445e+01    1.434828e+00
  1.862620e+01    1.448081e+00
  1.865796e+01    1.447829e+00
  1.868971e+01    1.426536e+00
  1.872146e+01    1.389858e+00
  1.875321e+01    1.424578e+00
  1.878496e+01    1.380324e+00
  1.881671e+01    1.398002e+00
  1.884846e+01    1.424009e+00
  1.888021e+01    1.435533e+00
  1.891196e+01    1.407138e+00
  1.894372e+01    1.408418e+00
  1.897547e+01    1.400993e+00
  1.900722e+01    1.395410e+00
  1.903897e+01    1.388855e+00
  1.907072e+01    1.384080e+00
  1.910247e+01    1.382662e+00
  1.913422e+01    1.367655e+00
  1.916597e+01    1.378467e+00
  1.919773e+01    1.367493e+00
  1.922948e+01    1.379326e+00
  1.926123e+01    1.375160e+00
  1.929298e+01    1.366133e+00
  1.932473e+01    1.367498e+00
  1.935648e+01    1.366326e+00
  1.938823e+01    1.349454e+00
  1.941998e+01    1.375752e+00
  1.945173e+01    1.335462e+00
  1.948349e+01    1.348203e+00
  1.951524e+01    1.327673e+00
  1.954699e+01    1.318399e+00
  1.957874e+01    1.317111e+00
  1.961049e+01    1.345747e+00
  1.964224e+01    1.288594e+00
  1.967399e+01    1.303404e+00
  1.970574e+01    1.279200e+00
  1.973749e+01    1.313241e+00
  1.976925e+01    1.304558e+00
  1.980100e+01    1.288910e+00
  1.983275e+01    1.321090e+00
  1.986450e+01    1.285367e+00
  1.989625e+01    1.327239e+00
  1.992800e+01    1.298335e+00
  1.995975e+01    1.277948e+00
  1.999150e+01    1.256101e+00
  2.002325e+01    1.306855e+00
  2.005501e+01    1.251478e+00
  2.008676e+01    1.268000e+00
  2.011851e+01    1.259481e+00
  2.015026e+01    1.258690e+00
  2.018201e+01    1.263948e+00
  2.021376e+01    1.282892e+00
  2.024551e+01    1.310166e+00
  2.027726e+01    1.292244e+00
  2.030902e+01    1.269063e+00
  2.034077e+01    1.252668e+00
  2.037252e+01    1.248361e+00
  2.040427e+01    1.233779e+00
  2.043602e+01    1.254658e+00
  2.046777e+01    1.243054e+00
  2.049952e+01    1.250411e+00
  2.053127e+01    1.266349e+00
  2.056302e+01    1.232323e+00
  2.059478e+01    1.229297e+00
  2.062653e+01    1.225745e+00
  2.065828e+01    1.217011e+00
  2.069003e+01    1.215571e+00
  2.072178e+01    1.232476e+00
  2.075353e+01    1.236718e+00
  2.078528e+01    1.239372e+00
  2.081703e+01    1.216931e+00
  2.084878e+01    1.216777e+00
  2.088054e+01    1.221614e+00
  2.091229e+01    1.222527e+00
  2.094404e+01    1.219297e+00
  2.097579e+01    1.232928e+00
  2.100754e+01    1.221258e+00
  2.103929e+01    1.245709e+00
  2.107104e+01    1.238593e+00
  2.110279e+01    1.240672e+00
  2.113455e+01    1.243119e+00
  2.116630e+01    1.226283e+00
  2.119805e+01    1.263913e+00
  2.122980e+01    1.249902e+00
  2.126155e+01    1.276818e+00
  2.129330e+01    1.285110e+00
  2.132505e+01    1.251352e+00
  2.135680e+01    1.276431e+00
  2.138855e+01    1.314717e+00
  2.142031e+01    1.325621e+00
  2.145206e+01    1.354378e+00
  2.148381e+01    1.400524e+00
  2.151556e+01    1.472827e+00
  2.154731e+01    1.516047e+00
  2.157906e+01    1.592749e+00
  2.161081e+01    1.754676e+00
  2.164256e+01    1.981642e+00
  2.167431e+01    2.290016e+00
  2.170607e+01    2.788300e+00
  2.173782e+01    3.540613e+00
  2.176957e+01    4.632215e+00
  2.180132e+01    5.905150e+00
  2.183307e+01    7.233090e+00
  2.186482e+01    8.387164e+00
  2.189657e+01    8.911542e+00
  2.192832e+01    8.267225e+00
  2.196007e+01    6.654033e+00
  2.199183e+01    4.856773e+00
  2.202358e+01    3.633634e+00
  2.205533e+01    2.840441e+00
  2.208708e+01    2.330953e+00
  2.211883e+01    2.027617e+00
  2.215058e+01    1.791461e+00
  2.218233e+01    1.602157e+00
  2.221408e+01    1.500522e+00
  2.224584e+01    1.424596e+00
  2.227759e+01    1.330324e+00
  2.230934e+01    1.310592e+00
  2.234109e+01    1.226181e+00
  2.237284e+01    1.199126e+00
  2.240459e+01    1.195231e+00
  2.243634e+01    1.190859e+00
  2.246809e+01    1.152331e+00
  2.249984e+01    1.166601e+00
  2.253160e+01    1.116092e+00
  2.256335e+01    1.108516e+00
  2.259510e+01    1.128568e+00
  2.262685e+01    1.119332e+00
  2.265860e+01    1.072966e+00
  2.269035e+01    1.087325e+00
  2.272210e+01    1.083805e+00
  2.275385e+01    1.061722e+00
  2.278560e+01    1.080703e+00
  2.281736e+01    1.068076e+00
  2.284911e+01    1.035752e+00
  2.288086e+01    1.029827e+00
  2.291261e+01    1.026032e+00
  2.294436e+01    1.026199e+00
  2.297611e+01    1.036251e+00
  2.300786e+01    1.017895e+00
  2.303961e+01    1.026983e+00
  2.307137e+01    9.995252e-01
  2.310312e+01    1.014054e+00
  2.313487e+01    1.017318e+00
  2.316662e+01    1.005768e+00
  2.319837e+01    9.933726e-01
  2.323012e+01    9.914886e-01
  2.326187e+01    9.889035e-01
  2.329362e+01    9.795336e-01
  2.332537e+01    9.795266e-01
  2.335713e+01    9.762592e-01
  2.338888e+01    9.840035e-01
  2.342063e+01    9.709119e-01
  2.345238e+01    9.479746e-01
  2.348413e+01    9.710425e-01
  2.351588e+01    9.751779e-01
  2.354763e+01    9.380542e-01
  2.357938e+01    9.603035e-01
  2.361113e+01    9.536783e-01
  2.364289e+01    9.679372e-01
  2.367464e+01    9.757692e-01
  2.370639e+01    9.436190e-01
  2.373814e+01    9.211278e-01
  2.376989e+01    9.407044e-01
  2.380164e+01    9.212162e-01
  2.383339e+01    9.336041e-01
  2.386514e+01    9.318794e-01
  2.389689e+01    8.969988e-01
  2.392865e+01    9.067016e-01
  2.396040e+01    8.951468e-01
  2.399215e+01    8.985019e-01
  2.402390e+01    9.161355e-01
  2.405565e+01    9.171039e-01
  2.408740e+01    8.924173e-01
  2.411915e+01    8.891301e-01
  2.415090e+01    8.862756e-01
  2.418266e+01    8.708484e-01
  2.421441e+01    8.919657e-01
  2.424616e+01    9.030618e-01
  2.427791e+01    9.012179e-01
  2.430966e+01    9.186307e-01
  2.434141e+01    8.983557e-01
  2.437316e+01    9.106787e-01
  2.440491e+01    8.809429e-01
  2.443666e+01    8.998681e-01
  2.446842e+01    8.950558e-01
  2.450017e+01    9.033601e-01
  2.453192e+01    8.935419e-01
  2.456367e+01    8.954136e-01
  2.459542e+01    8.971565e-01
  2.462717e+01    8.861694e-01
  2.465892e+01    8.841004e-01
  2.469067e+01    9.080796e-01
  2.472242e+01    8.961806e-01
  2.475418e+01    8.798928e-01
  2.478593e+01    9.113817e-01
  2.481768e+01    9.041135e-01
  2.484943e+01    8.893080e-01
  2.488118e+01    8.796031e-01
  2.491293e+01    8.870899e-01
  2.494468e+01    9.000271e-01
  2.497643e+01    8.952910e-01
  2.500819e+01    9.112388e-01
  2.503994e+01    9.161460e-01
  2.507169e+01    9.091303e-01
  2.510344e+01    9.138247e-01
  2.513519e+01    9.144723e-01
  2.516694e+01    8.964193e-01
  2.519869e+01    9.223092e-01
  2.523044e+01    9.280174e-01
  2.526219e+01    9.244962e-01
  2.529395e+01    9.482973e-01
  2.532570e+01    9.458146e-01
  2.535745e+01    9.818905e-01
  2.538920e+01    9.852442e-01
  2.542095e+01    9.955102e-01
  2.545270e+01    1.023525e+00
  2.548445e+01    1.041041e+00
  2.551620e+01    1.064635e+00
  2.554795e+01    1.105094e+00
  2.557971e+01    1.159222e+00
  2.561146e+01    1.224095e+00
  2.564321e+01    1.318381e+00
  2.567496e+01    1.423353e+00
  2.570671e+01    1.593842e+00
  2.573846e+01    1.861259e+00
  2.577021e+01    2.273265e+00
  2.580196e+01    2.842767e+00
  2.583371e+01    3.671541e+00
  2.586547e+01    4.710251e+00
  2.589722e+01    5.849537e+00
  2.592897e+01    6.795842e+00
  2.596072e+01    7.250464e+00
  2.599247e+01    6.588003e+00
  2.602422e+01    5.346310e+00
  2.605597e+01    4.009396e+00
  2.608772e+01    2.987808e+00
  2.611948e+01    2.360120e+00
  2.615123e+01    1.925765e+00
  2.618298e+01    1.651712e+00
  2.621473e+01    1.509249e+00
  2.624648e+01    1.361161e+00
  2.627823e+01    1.249779e+00
  2.630998e+01    1.179865e+00
  2.634173e+01    1.133215e+00
  2.637348e+01    1.086779e+00
  2.640524e+01    1.063872e+00
  2.643699e+01    1.037382e+00
  2.646874e+01    1.039661e+00
  2.650049e+01    1.008922e+00
  2.653224e+01    1.013924e+00
  2.656399e+01    1.001625e+00
  2.659574e+01    9.939844e-01
  2.662749e+01    9.735243e-01
  2.665924e+01    1.003692e+00
  2.669100e+01    9.729957e-01
  2.672275e+01    9.657783e-01
  2.675450e+01    9.777204e-01
  2.678625e+01    9.875748e-01
  2.681800e+01    9.868277e-01
  2.684975e+01    9.919659e-01
  2.688150e+01    9.832283e-01
  2.691325e+01    1.002002e+00
  2.694501e+01    1.036126e+00
  2.697676e+01    1.079552e+00
  2.700851e+01    1.129014e+00
  2.704026e+01    1.194116e+00
  2.707201e+01    1.311731e+00
  2.710376e+01    1.488741e+00
  2.713551e+01    1.701874e+00
  2.716726e+01    2.004087e+00
  2.719901e+01    2.171610e+00
  2.723077e+01    2.178912e+00
  2.726252e+01    1.976669e+00
  2.729427e+01    1.693364e+00
  2.732602e+01    1.477388e+00
  2.735777e+01    1.277293e+00
  2.738952e+01    1.171786e+00
  2.742127e+01    1.084483e+00
  2.745302e+01    1.044474e+00
  2.748477e+01    1.004747e+00
  2.751653e+01    9.787504e-01
  2.754828e+01    9.510934e-01
  2.758003e+01    9.329972e-01
  2.761178e+01    9.193439e-01
  2.764353e+01    9.275524e-01
  2.767528e+01    9.371719e-01
  2.770703e+01    9.161837e-01
  2.773878e+01    9.166652e-01
  2.777054e+01    9.022403e-01
  2.780229e+01    8.877984e-01
  2.783404e+01    8.718084e-01
  2.786579e+01    8.866192e-01
  2.789754e+01    8.846064e-01
  2.792929e+01    8.977553e-01
  2.796104e+01    8.507417e-01
  2.799279e+01    8.722801e-01
  2.802454e+01    8.523651e-01
  2.805630e+01    8.462636e-01
  2.808805e+01    8.711956e-01
  2.811980e+01    8.551270e-01
  2.815155e+01    8.842801e-01
  2.818330e+01    8.686218e-01
  2.821505e+01    8.719563e-01
  2.824680e+01    8.551145e-01
  2.827855e+01    8.179079e-01
  2.831030e+01    8.642179e-01
  2.834206e+01    8.450710e-01
  2.837381e+01    8.556212e-01
  2.840556e+01    8.524669e-01
  2.843731e+01    8.515006e-01
  2.846906e+01    8.407785e-01
  2.850081e+01    8.493961e-01
  2.853256e+01    8.476908e-01
  2.856431e+01    8.263826e-01
  2.859606e+01    8.568797e-01
  2.862782e+01    8.361121e-01
  2.865957e+01    8.300510e-01
  2.869132e+01    8.200036e-01
  2.872307e+01    8.438524e-01
  2.875482e+01    8.220476e-01
  2.878657e+01    8.137631e-01
  2.881832e+01    8.227013e-01
  2.885007e+01    8.261892e-01
  2.888183e+01    8.227405e-01
  2.891358e+01    8.142062e-01
  2.894533e+01    8.054557e-01
  2.897708e+01    8.403394e-01
  2.900883e+01    8.314347e-01
  2.904058e+01    8.180748e-01
  2.907233e+01    8.173315e-01
  2.910408e+01    8.241284e-01
  2.913583e+01    8.030193e-01
  2.916759e+01    8.285258e-01
  2.919934e+01    8.285326e-01
  2.923109e+01    8.185393e-01
  2.926284e+01    8.188534e-01
  2.929459e+01    8.093309e-01
  2.932634e+01    8.111134e-01
  2.935809e+01    7.941907e-01
  2.938984e+01    7.994452e-01
  2.942159e+01    8.049780e-01
  2.945335e+01    7.872409e-01
  2.948510e+01    8.170648e-01
  2.951685e+01    8.152499e-01
  2.954860e+01    8.019558e-01
  2.958035e+01    8.059241e-01
  2.961210e+01    8.128287e-01
  2.964385e+01    8.069378e-01
  2.967560e+01    7.978854e-01
  2.970736e+01    8.184597e-01
  2.973911e+01    8.039005e-01
  2.977086e+01    8.417090e-01
  2.980261e+01    8.127573e-01
  2.983436e+01    7.870771e-01
  2.986611e+01    7.870672e-01
  2.989786e+01    8.007149e-01
  2.992961e+01    8.072059e-01
  2.996136e+01    7.940859e-01
  2.999312e+01    8.084362e-01
  3.002487e+01    8.216878e-01
  3.005662e+01    7.866965e-01
  3.008837e+01    8.016071e-01
  3.012012e+01    8.095032e-01
  3.015187e+01    7.858176e-01
  3.018362e+01    7.681390e-01
  3.021537e+01    7.986714e-01
  3.024712e+01    7.654835e-01
  3.027888e+01    7.878709e-01
  3.031063e+01    7.988434e-01
  3.034238e+01    7.848372e-01
  3.037413e+01    7.782284e-01
  3.040588e+01    8.006240e-01
  3.043763e+01    7.761199e-01
  3.046938e+01    7.688192e-01
  3.050113e+01    8.115737e-01
  3.053288e+01    8.020628e-01
  3.056464e+01    7.910790e-01
  3.059639e+01    7.741260e-01
  3.062814e+01    7.947068e-01
  3.065989e+01    7.680277e-01
  3.069164e+01    7.850405e-01
  3.072339e+01    7.591669e-01
  3.075514e+01    7.995054e-01
  3.078689e+01    7.712052e-01
  3.081865e+01    7.811723e-01
  3.085040e+01    8.034776e-01
  3.088215e+01    7.942858e-01
  3.091390e+01    7.982661e-01
  3.094565e+01    7.834597e-01
  3.097740e+01    7.786947e-01
  3.100915e+01    7.615237e-01
  3.104090e+01    8.007271e-01
  3.107265e+01    7.997855e-01
  3.110441e+01    7.964582e-01
  3.113616e+01    7.924192e-01
  3.116791e+01    7.922978e-01
  3.119966e+01    7.736502e-01
  3.123141e+01    8.064961e-01
  3.126316e+01    8.054558e-01
  3.129491e+01    7.977843e-01
  3.132666e+01    8.133083e-01
  3.135841e+01    8.343665e-01
  3.139017e+01    8.164283e-01
  3.142192e+01    8.090554e-01
  3.145367e+01    8.055174e-01
  3.148542e+01    8.129175e-01
  3.151717e+01    8.335314e-01
  3.154892e+01    8.571411e-01
  3.158067e+01    8.818623e-01
  3.161242e+01    8.942265e-01
  3.164418e+01    9.264190e-01
  3.167593e+01    9.619888e-01
  3.170768e+01    1.026469e+00
  3.173943e+01    1.118198e+00
  3.177118e+01    1.296637e+00
  3.180293e+01    1.463647e+00
  3.183468e+01    1.727647e+00
  3.186643e+01    1.955640e+00
  3.189818e+01    2.107646e+00
  3.192994e+01    2.059008e+00
  3.196169e+01    1.819144e+00
  3.199344e+01    1.588548e+00
  3.202519e+01    1.310970e+00
  3.205694e+01    1.174450e+00
  3.208869e+01    1.053114e+00
  3.212044e+01    9.691139e-01
  3.215219e+01    9.264123e-01
  3.218394e+01    8.900833e-01
  3.221570e+01    8.287165e-01
  3.224745e+01    8.306416e-01
  3.227920e+01    8.299915e-01
  3.231095e+01    8.103346e-01
  3.234270e+01    8.116713e-01
  3.237445e+01    7.857205e-01
  3.240620e+01    7.921303e-01
  3.243795e+01    7.934397e-01
  3.246970e+01    7.874150e-01
  3.250146e+01    7.654109e-01
  3.253321e+01    7.973388e-01
  3.254908e+01    7.667344e-01