File: XRD/Reaction conditions/2024-07-27_003_Ru-CGO-ex_Reaction_dwell_000023_data_000046.dat
# == pyFAI calibration ==
# Distance Sample to Detector: 0.4 m
# PONI: 9.750e-02, 1.135e-01 m
# Rotations: -0.000175 0.000000 -0.000000 rad
#
# == Fit2d calibration ==
# Distance Sample-beamCenter: 400.000 mm
# Center: x=1514.000, y=1300.000 pix
# Tilt: 0.010 deg  TiltPlanRot: 0.010 deg
#
# Detector Detector	 Spline= None	 PixelSize= 7.500e-05, 7.500e-05 m
#    Detector has a mask: False
#    Detector has a dark current: False
#    detector has a flat field: False
#
# Wavelength: 6.888e-11 m
# Mask applied: user provided
# Dark current applied: False
# Flat field applied: False
# Polarization factor: 0.99
# Normalization factor: 1.0
# --> /home/myspot/data/2024_07_Rosario/Ru-CGO-ex/2024-07-27_003_Ru-CGO-ex_Reaction_dwell_000023_data_000046.dat
#       q_nm^-1             I
  2.003187e-02    0.000000e+00
  5.178302e-02    2.632143e-01
  8.353417e-02    6.187828e-02
  1.152853e-01    1.294876e-01
  1.470365e-01    4.395394e-02
  1.787876e-01    3.987149e-02
  2.105388e-01    3.434431e-02
  2.422899e-01    5.273082e-02
  2.740411e-01    2.375713e-02
  3.057922e-01    3.367001e-02
  3.375433e-01    6.274031e-02
  3.692945e-01    3.966062e-02
  4.010456e-01    2.698626e-02
  4.327968e-01    8.964443e-02
  4.645479e-01    2.856985e-02
  4.962991e-01    4.394117e-02
  5.280502e-01    5.066619e-02
  5.598014e-01    1.910026e-02
  5.915525e-01    5.421782e-02
  6.233037e-01    5.158577e-02
  6.550548e-01    4.085856e-02
  6.868060e-01    4.223780e-02
  7.185571e-01    3.765345e-02
  7.503083e-01    7.203699e-02
  7.820594e-01    1.205296e-01
  8.138106e-01    2.860771e-01
  8.455617e-01    3.533481e-01
  8.773129e-01    4.154237e-01
  9.090640e-01    6.819053e-01
  9.408152e-01    8.649046e-01
  9.725663e-01    9.175668e-01
  1.004317e+00    1.154952e+00
  1.036069e+00    1.295738e+00
  1.067820e+00    1.495501e+00
  1.099571e+00    1.554336e+00
  1.131322e+00    1.674833e+00
  1.163073e+00    1.643731e+00
  1.194824e+00    1.741827e+00
  1.226575e+00    2.069066e+00
  1.258327e+00    2.495080e+00
  1.290078e+00    2.598058e+00
  1.321829e+00    2.753430e+00
  1.353580e+00    2.870149e+00
  1.385331e+00    2.581358e+00
  1.417082e+00    2.751789e+00
  1.448834e+00    2.932400e+00
  1.480585e+00    3.071183e+00
  1.512336e+00    3.063907e+00
  1.544087e+00    3.220403e+00
  1.575838e+00    3.190576e+00
  1.607589e+00    3.144352e+00
  1.639340e+00    3.356459e+00
  1.671092e+00    3.185182e+00
  1.702843e+00    3.174480e+00
  1.734594e+00    3.073867e+00
  1.766345e+00    3.203936e+00
  1.798096e+00    3.117261e+00
  1.829847e+00    3.019786e+00
  1.861598e+00    2.995099e+00
  1.893350e+00    3.099149e+00
  1.925101e+00    3.164612e+00
  1.956852e+00    3.022748e+00
  1.988603e+00    3.103569e+00
  2.020354e+00    2.966859e+00
  2.052105e+00    3.019628e+00
  2.083856e+00    3.085638e+00
  2.115608e+00    3.213116e+00
  2.147359e+00    2.979824e+00
  2.179110e+00    3.091088e+00
  2.210861e+00    3.158402e+00
  2.242612e+00    3.121619e+00
  2.274363e+00    3.255871e+00
  2.306115e+00    3.219631e+00
  2.337866e+00    3.229002e+00
  2.369617e+00    3.188866e+00
  2.401368e+00    3.054698e+00
  2.433119e+00    3.193310e+00
  2.464870e+00    3.130059e+00
  2.496621e+00    3.262355e+00
  2.528373e+00    3.226112e+00
  2.560124e+00    3.282917e+00
  2.591875e+00    3.315769e+00
  2.623626e+00    3.282706e+00
  2.655377e+00    3.198787e+00
  2.687128e+00    3.149831e+00
  2.718879e+00    3.314328e+00
  2.750631e+00    3.273405e+00
  2.782382e+00    3.258529e+00
  2.814133e+00    3.205679e+00
  2.845884e+00    3.324601e+00
  2.877635e+00    3.301258e+00
  2.909386e+00    3.267580e+00
  2.941137e+00    3.345796e+00
  2.972889e+00    3.413508e+00
  3.004640e+00    3.358834e+00
  3.036391e+00    3.359259e+00
  3.068142e+00    3.415779e+00
  3.099893e+00    3.317237e+00
  3.131644e+00    3.383564e+00
  3.163395e+00    3.443569e+00
  3.195147e+00    3.370423e+00
  3.226898e+00    3.364473e+00
  3.258649e+00    3.346709e+00
  3.290400e+00    3.467558e+00
  3.322151e+00    3.415951e+00
  3.353902e+00    3.399843e+00
  3.385654e+00    3.367503e+00
  3.417405e+00    3.440100e+00
  3.449156e+00    3.477345e+00
  3.480907e+00    3.458096e+00
  3.512658e+00    3.446154e+00
  3.544409e+00    3.372500e+00
  3.576160e+00    3.405666e+00
  3.607912e+00    3.437744e+00
  3.639663e+00    3.519239e+00
  3.671414e+00    3.548540e+00
  3.703165e+00    3.456822e+00
  3.734916e+00    3.483230e+00
  3.766667e+00    3.550385e+00
  3.798418e+00    3.442186e+00
  3.830170e+00    3.477064e+00
  3.861921e+00    3.492475e+00
  3.893672e+00    3.486153e+00
  3.925423e+00    3.362916e+00
  3.957174e+00    3.587343e+00
  3.988925e+00    3.548510e+00
  4.020676e+00    3.538119e+00
  4.052428e+00    3.619237e+00
  4.084179e+00    3.441927e+00
  4.115930e+00    3.669315e+00
  4.147681e+00    3.578412e+00
  4.179432e+00    3.582693e+00
  4.211183e+00    3.550738e+00
  4.242935e+00    3.677097e+00
  4.274686e+00    3.559837e+00
  4.306437e+00    3.506531e+00
  4.338188e+00    3.609818e+00
  4.369939e+00    3.616938e+00
  4.401690e+00    3.612836e+00
  4.433441e+00    3.654010e+00
  4.465193e+00    3.488612e+00
  4.496944e+00    3.604653e+00
  4.528695e+00    3.680547e+00
  4.560446e+00    3.579393e+00
  4.592197e+00    3.628452e+00
  4.623948e+00    3.549822e+00
  4.655699e+00    3.623460e+00
  4.687451e+00    3.562469e+00
  4.719202e+00    3.632668e+00
  4.750953e+00    3.607048e+00
  4.782704e+00    3.687229e+00
  4.814455e+00    3.650879e+00
  4.846206e+00    3.706552e+00
  4.877957e+00    3.550974e+00
  4.909709e+00    3.625817e+00
  4.941460e+00    3.623114e+00
  4.973211e+00    3.604879e+00
  5.004962e+00    3.674583e+00
  5.036713e+00    3.686308e+00
  5.068464e+00    3.632438e+00
  5.100216e+00    3.615133e+00
  5.131967e+00    3.652259e+00
  5.163718e+00    3.738698e+00
  5.195469e+00    3.578929e+00
  5.227220e+00    3.674721e+00
  5.258971e+00    3.672145e+00
  5.290722e+00    3.733407e+00
  5.322474e+00    3.637221e+00
  5.354225e+00    3.541277e+00
  5.385976e+00    3.683712e+00
  5.417727e+00    3.669834e+00
  5.449478e+00    3.672575e+00
  5.481229e+00    3.614553e+00
  5.512980e+00    3.648421e+00
  5.544732e+00    3.694092e+00
  5.576483e+00    3.605842e+00
  5.608234e+00    3.596308e+00
  5.639985e+00    3.627292e+00
  5.671736e+00    3.580013e+00
  5.703487e+00    3.637314e+00
  5.735238e+00    3.621962e+00
  5.766990e+00    3.641333e+00
  5.798741e+00    3.631507e+00
  5.830492e+00    3.525341e+00
  5.862243e+00    3.525130e+00
  5.893994e+00    3.575108e+00
  5.925745e+00    3.547531e+00
  5.957497e+00    3.540346e+00
  5.989248e+00    3.538454e+00
  6.020999e+00    3.614294e+00
  6.052750e+00    3.453787e+00
  6.084501e+00    3.640009e+00
  6.116252e+00    3.544293e+00
  6.148003e+00    3.562152e+00
  6.179755e+00    3.585733e+00
  6.211506e+00    3.533563e+00
  6.243257e+00    3.710268e+00
  6.275008e+00    3.633652e+00
  6.306759e+00    3.633772e+00
  6.338510e+00    3.544981e+00
  6.370261e+00    3.597985e+00
  6.402013e+00    3.537467e+00
  6.433764e+00    3.525002e+00
  6.465515e+00    3.586490e+00
  6.497266e+00    3.508240e+00
  6.529017e+00    3.593863e+00
  6.560768e+00    3.604052e+00
  6.592519e+00    3.569385e+00
  6.624271e+00    3.542852e+00
  6.656022e+00    3.606661e+00
  6.687773e+00    3.610231e+00
  6.719524e+00    3.595031e+00
  6.751275e+00    3.605991e+00
  6.783026e+00    3.573707e+00
  6.814777e+00    3.523392e+00
  6.846529e+00    3.551709e+00
  6.878280e+00    3.469368e+00
  6.910031e+00    3.536044e+00
  6.941782e+00    3.532591e+00
  6.973533e+00    3.563283e+00
  7.005284e+00    3.526204e+00
  7.037036e+00    3.490206e+00
  7.068787e+00    3.575226e+00
  7.100538e+00    3.512241e+00
  7.132289e+00    3.518727e+00
  7.164040e+00    3.526094e+00
  7.195791e+00    3.513644e+00
  7.227542e+00    3.539959e+00
  7.259294e+00    3.529467e+00
  7.291045e+00    3.515114e+00
  7.322796e+00    3.416457e+00
  7.354547e+00    3.511803e+00
  7.386298e+00    3.536924e+00
  7.418049e+00    3.517041e+00
  7.449800e+00    3.478419e+00
  7.481552e+00    3.446206e+00
  7.513303e+00    3.455151e+00
  7.545054e+00    3.482678e+00
  7.576805e+00    3.455856e+00
  7.608556e+00    3.553387e+00
  7.640307e+00    3.461198e+00
  7.672058e+00    3.481197e+00
  7.703810e+00    3.502007e+00
  7.735561e+00    3.470830e+00
  7.767312e+00    3.425396e+00
  7.799063e+00    3.412869e+00
  7.830814e+00    3.414520e+00
  7.862565e+00    3.455527e+00
  7.894317e+00    3.495221e+00
  7.926068e+00    3.437549e+00
  7.957819e+00    3.475042e+00
  7.989570e+00    3.435151e+00
  8.021321e+00    3.399274e+00
  8.053072e+00    3.421116e+00
  8.084823e+00    3.394474e+00
  8.116575e+00    3.429165e+00
  8.148326e+00    3.434386e+00
  8.180077e+00    3.490617e+00
  8.211828e+00    3.490217e+00
  8.243579e+00    3.460231e+00
  8.275330e+00    3.458737e+00
  8.307081e+00    3.493386e+00
  8.338833e+00    3.412609e+00
  8.370584e+00    3.390993e+00
  8.402335e+00    3.366457e+00
  8.434086e+00    3.431466e+00
  8.465837e+00    3.343556e+00
  8.497588e+00    3.434135e+00
  8.529339e+00    3.305875e+00
  8.561091e+00    3.340466e+00
  8.592842e+00    3.456894e+00
  8.624593e+00    3.262875e+00
  8.656344e+00    3.326432e+00
  8.688095e+00    3.353959e+00
  8.719846e+00    3.368291e+00
  8.751598e+00    3.316250e+00
  8.783349e+00    3.285459e+00
  8.815100e+00    3.368507e+00
  8.846851e+00    3.348566e+00
  8.878602e+00    3.308914e+00
  8.910353e+00    3.296323e+00
  8.942104e+00    3.354458e+00
  8.973856e+00    3.305096e+00
  9.005607e+00    3.325376e+00
  9.037358e+00    3.272171e+00
  9.069109e+00    3.299970e+00
  9.100860e+00    3.211588e+00
  9.132611e+00    3.289002e+00
  9.164362e+00    3.273577e+00
  9.196114e+00    3.287040e+00
  9.227865e+00    3.235600e+00
  9.259616e+00    3.334210e+00
  9.291367e+00    3.295607e+00
  9.323118e+00    3.271508e+00
  9.354869e+00    3.220273e+00
  9.386620e+00    3.227536e+00
  9.418372e+00    3.256295e+00
  9.450123e+00    3.184753e+00
  9.481874e+00    3.172106e+00
  9.513625e+00    3.188332e+00
  9.545376e+00    3.203403e+00
  9.577127e+00    3.179775e+00
  9.608878e+00    3.279246e+00
  9.640630e+00    3.169266e+00
  9.672381e+00    3.196035e+00
  9.704132e+00    3.128987e+00
  9.735883e+00    3.160919e+00
  9.767634e+00    3.167028e+00
  9.799385e+00    3.111940e+00
  9.831137e+00    3.193897e+00
  9.862888e+00    3.173980e+00
  9.894639e+00    3.176689e+00
  9.926390e+00    3.120213e+00
  9.958141e+00    3.123309e+00
  9.989892e+00    3.162409e+00
  1.002164e+01    3.048079e+00
  1.005339e+01    3.045262e+00
  1.008515e+01    3.072893e+00
  1.011690e+01    3.121388e+00
  1.014865e+01    3.061964e+00
  1.018040e+01    3.093373e+00
  1.021215e+01    3.068230e+00
  1.024390e+01    3.055708e+00
  1.027565e+01    3.089088e+00
  1.030740e+01    3.083836e+00
  1.033915e+01    3.113427e+00
  1.037091e+01    3.029374e+00
  1.040266e+01    3.084858e+00
  1.043441e+01    3.050193e+00
  1.046616e+01    3.048674e+00
  1.049791e+01    2.981434e+00
  1.052966e+01    2.985380e+00
  1.056141e+01    2.957092e+00
  1.059316e+01    3.014468e+00
  1.062492e+01    3.026105e+00
  1.065667e+01    3.016284e+00
  1.068842e+01    3.052011e+00
  1.072017e+01    2.987600e+00
  1.075192e+01    2.999300e+00
  1.078367e+01    2.996086e+00
  1.081542e+01    3.001323e+00
  1.084717e+01    2.949738e+00
  1.087892e+01    2.952710e+00
  1.091068e+01    2.921602e+00
  1.094243e+01    2.898057e+00
  1.097418e+01    2.884924e+00
  1.100593e+01    2.905171e+00
  1.103768e+01    2.937329e+00
  1.106943e+01    2.867604e+00
  1.110118e+01    2.901819e+00
  1.113293e+01    2.923326e+00
  1.116468e+01    2.885670e+00
  1.119644e+01    2.832738e+00
  1.122819e+01    2.900536e+00
  1.125994e+01    2.865465e+00
  1.129169e+01    2.889833e+00
  1.132344e+01    2.842140e+00
  1.135519e+01    2.866073e+00
  1.138694e+01    2.815733e+00
  1.141869e+01    2.827039e+00
  1.145045e+01    2.839860e+00
  1.148220e+01    2.793910e+00
  1.151395e+01    2.784961e+00
  1.154570e+01    2.782705e+00
  1.157745e+01    2.780619e+00
  1.160920e+01    2.831509e+00
  1.164095e+01    2.816460e+00
  1.167270e+01    2.768061e+00
  1.170445e+01    2.764720e+00
  1.173621e+01    2.746641e+00
  1.176796e+01    2.730407e+00
  1.179971e+01    2.758648e+00
  1.183146e+01    2.719523e+00
  1.186321e+01    2.721980e+00
  1.189496e+01    2.699421e+00
  1.192671e+01    2.721069e+00
  1.195846e+01    2.706027e+00
  1.199021e+01    2.711559e+00
  1.202197e+01    2.707527e+00
  1.205372e+01    2.703223e+00
  1.208547e+01    2.723552e+00
  1.211722e+01    2.677068e+00
  1.214897e+01    2.700897e+00
  1.218072e+01    2.706898e+00
  1.221247e+01    2.675653e+00
  1.224422e+01    2.697581e+00
  1.227597e+01    2.666233e+00
  1.230773e+01    2.713648e+00
  1.233948e+01    2.662530e+00
  1.237123e+01    2.691142e+00
  1.240298e+01    2.698007e+00
  1.243473e+01    2.671720e+00
  1.246648e+01    2.701359e+00
  1.249823e+01    2.784070e+00
  1.252998e+01    2.682282e+00
  1.256174e+01    2.705754e+00
  1.259349e+01    2.665706e+00
  1.262524e+01    2.735310e+00
  1.265699e+01    2.726155e+00
  1.268874e+01    2.825773e+00
  1.272049e+01    2.839774e+00
  1.275224e+01    2.866072e+00
  1.278399e+01    2.928019e+00
  1.281574e+01    3.020157e+00
  1.284750e+01    3.181925e+00
  1.287925e+01    3.359734e+00
  1.291100e+01    3.682922e+00
  1.294275e+01    4.119133e+00
  1.297450e+01    4.808702e+00
  1.300625e+01    5.851346e+00
  1.303800e+01    7.694921e+00
  1.306975e+01    1.016029e+01
  1.310150e+01    1.269366e+01
  1.313326e+01    1.480338e+01
  1.316501e+01    1.626525e+01
  1.319676e+01    1.558275e+01
  1.322851e+01    1.249807e+01
  1.326026e+01    9.076594e+00
  1.329201e+01    6.774178e+00
  1.332376e+01    5.327580e+00
  1.335551e+01    4.471105e+00
  1.338727e+01    3.885466e+00
  1.341902e+01    3.496081e+00
  1.345077e+01    3.222133e+00
  1.348252e+01    3.035531e+00
  1.351427e+01    2.944045e+00
  1.354602e+01    2.821828e+00
  1.357777e+01    2.737123e+00
  1.360952e+01    2.650832e+00
  1.364127e+01    2.641115e+00
  1.367303e+01    2.617976e+00
  1.370478e+01    2.558753e+00
  1.373653e+01    2.547304e+00
  1.376828e+01    2.468535e+00
  1.380003e+01    2.458947e+00
  1.383178e+01    2.519446e+00
  1.386353e+01    2.450992e+00
  1.389528e+01    2.414258e+00
  1.392703e+01    2.412583e+00
  1.395879e+01    2.388239e+00
  1.399054e+01    2.376610e+00
  1.402229e+01    2.352758e+00
  1.405404e+01    2.331001e+00
  1.408579e+01    2.345554e+00
  1.411754e+01    2.365376e+00
  1.414929e+01    2.335928e+00
  1.418104e+01    2.330438e+00
  1.421279e+01    2.298006e+00
  1.424455e+01    2.257725e+00
  1.427630e+01    2.299498e+00
  1.430805e+01    2.221324e+00
  1.433980e+01    2.233266e+00
  1.437155e+01    2.255388e+00
  1.440330e+01    2.250091e+00
  1.443505e+01    2.221557e+00
  1.446680e+01    2.254514e+00
  1.449856e+01    2.254517e+00
  1.453031e+01    2.173613e+00
  1.456206e+01    2.244424e+00
  1.459381e+01    2.203754e+00
  1.462556e+01    2.228987e+00
  1.465731e+01    2.217366e+00
  1.468906e+01    2.181998e+00
  1.472081e+01    2.172744e+00
  1.475256e+01    2.168873e+00
  1.478432e+01    2.177727e+00
  1.481607e+01    2.195985e+00
  1.484782e+01    2.196388e+00
  1.487957e+01    2.254422e+00
  1.491132e+01    2.264231e+00
  1.494307e+01    2.284540e+00
  1.497482e+01    2.397793e+00
  1.500657e+01    2.448328e+00
  1.503832e+01    2.587433e+00
  1.507008e+01    2.843587e+00
  1.510183e+01    3.174949e+00
  1.513358e+01    3.803199e+00
  1.516533e+01    4.505782e+00
  1.519708e+01    5.219491e+00
  1.522883e+01    5.640169e+00
  1.526058e+01    5.751916e+00
  1.529233e+01    5.451914e+00
  1.532409e+01    4.733297e+00
  1.535584e+01    3.780917e+00
  1.538759e+01    3.156344e+00
  1.541934e+01    2.785292e+00
  1.545109e+01    2.515608e+00
  1.548284e+01    2.398734e+00
  1.551459e+01    2.331373e+00
  1.554634e+01    2.190318e+00
  1.557809e+01    2.144472e+00
  1.560985e+01    2.100088e+00
  1.564160e+01    2.039567e+00
  1.567335e+01    2.028721e+00
  1.570510e+01    2.001841e+00
  1.573685e+01    2.001455e+00
  1.576860e+01    1.993729e+00
  1.580035e+01    1.934756e+00
  1.583210e+01    1.928414e+00
  1.586385e+01    1.904881e+00
  1.589561e+01    1.894200e+00
  1.592736e+01    1.894598e+00
  1.595911e+01    1.846731e+00
  1.599086e+01    1.919454e+00
  1.602261e+01    1.841374e+00
  1.605436e+01    1.869081e+00
  1.608611e+01    1.816252e+00
  1.611786e+01    1.880147e+00
  1.614961e+01    1.855235e+00
  1.618137e+01    1.842101e+00
  1.621312e+01    1.782206e+00
  1.624487e+01    1.791879e+00
  1.627662e+01    1.794890e+00
  1.630837e+01    1.794543e+00
  1.634012e+01    1.781638e+00
  1.637187e+01    1.808911e+00
  1.640362e+01    1.763359e+00
  1.643538e+01    1.799051e+00
  1.646713e+01    1.779273e+00
  1.649888e+01    1.756619e+00
  1.653063e+01    1.795661e+00
  1.656238e+01    1.701401e+00
  1.659413e+01    1.708327e+00
  1.662588e+01    1.762598e+00
  1.665763e+01    1.719146e+00
  1.668938e+01    1.719825e+00
  1.672114e+01    1.720590e+00
  1.675289e+01    1.709240e+00
  1.678464e+01    1.713835e+00
  1.681639e+01    1.722984e+00
  1.684814e+01    1.663412e+00
  1.687989e+01    1.686122e+00
  1.691164e+01    1.686440e+00
  1.694339e+01    1.694579e+00
  1.697514e+01    1.659781e+00
  1.700690e+01    1.660769e+00
  1.703865e+01    1.653815e+00
  1.707040e+01    1.666041e+00
  1.710215e+01    1.649728e+00
  1.713390e+01    1.663992e+00
  1.716565e+01    1.662138e+00
  1.719740e+01    1.612230e+00
  1.722915e+01    1.666802e+00
  1.726091e+01    1.648878e+00
  1.729266e+01    1.594677e+00
  1.732441e+01    1.602738e+00
  1.735616e+01    1.588511e+00
  1.738791e+01    1.617707e+00
  1.741966e+01    1.604738e+00
  1.745141e+01    1.589904e+00
  1.748316e+01    1.568730e+00
  1.751491e+01    1.606208e+00
  1.754667e+01    1.574207e+00
  1.757842e+01    1.544269e+00
  1.761017e+01    1.598818e+00
  1.764192e+01    1.581607e+00
  1.767367e+01    1.571783e+00
  1.770542e+01    1.572298e+00
  1.773717e+01    1.570173e+00
  1.776892e+01    1.539010e+00
  1.780067e+01    1.556506e+00
  1.783243e+01    1.567361e+00
  1.786418e+01    1.557968e+00
  1.789593e+01    1.539456e+00
  1.792768e+01    1.530648e+00
  1.795943e+01    1.529211e+00
  1.799118e+01    1.511523e+00
  1.802293e+01    1.515870e+00
  1.805468e+01    1.500629e+00
  1.808643e+01    1.478434e+00
  1.811819e+01    1.538091e+00
  1.814994e+01    1.508500e+00
  1.818169e+01    1.487621e+00
  1.821344e+01    1.510710e+00
  1.824519e+01    1.509433e+00
  1.827694e+01    1.471604e+00
  1.830869e+01    1.484685e+00
  1.834044e+01    1.496203e+00
  1.837220e+01    1.468229e+00
  1.840395e+01    1.455168e+00
  1.843570e+01    1.444730e+00
  1.846745e+01    1.469551e+00
  1.849920e+01    1.444856e+00
  1.853095e+01    1.468705e+00
  1.856270e+01    1.433177e+00
  1.859445e+01    1.422837e+00
  1.862620e+01    1.457609e+00
  1.865796e+01    1.424269e+00
  1.868971e+01    1.409002e+00
  1.872146e+01    1.441058e+00
  1.875321e+01    1.394521e+00
  1.878496e+01    1.394725e+00
  1.881671e+01    1.412827e+00
  1.884846e+01    1.419422e+00
  1.888021e+01    1.386703e+00
  1.891196e+01    1.378764e+00
  1.894372e+01    1.392911e+00
  1.897547e+01    1.385833e+00
  1.900722e+01    1.368167e+00
  1.903897e+01    1.368595e+00
  1.907072e+01    1.350335e+00
  1.910247e+01    1.412115e+00
  1.913422e+01    1.362230e+00
  1.916597e+01    1.399326e+00
  1.919773e+01    1.329721e+00
  1.922948e+01    1.377444e+00
  1.926123e+01    1.371436e+00
  1.929298e+01    1.371002e+00
  1.932473e+01    1.357023e+00
  1.935648e+01    1.320439e+00
  1.938823e+01    1.345451e+00
  1.941998e+01    1.380694e+00
  1.945173e+01    1.356533e+00
  1.948349e+01    1.348269e+00
  1.951524e+01    1.334231e+00
  1.954699e+01    1.367576e+00
  1.957874e+01    1.331901e+00
  1.961049e+01    1.327324e+00
  1.964224e+01    1.336237e+00
  1.967399e+01    1.323030e+00
  1.970574e+01    1.321771e+00
  1.973749e+01    1.298734e+00
  1.976925e+01    1.316193e+00
  1.980100e+01    1.264493e+00
  1.983275e+01    1.290519e+00
  1.986450e+01    1.287560e+00
  1.989625e+01    1.287856e+00
  1.992800e+01    1.261610e+00
  1.995975e+01    1.300725e+00
  1.999150e+01    1.284082e+00
  2.002325e+01    1.288919e+00
  2.005501e+01    1.259636e+00
  2.008676e+01    1.292090e+00
  2.011851e+01    1.289634e+00
  2.015026e+01    1.261920e+00
  2.018201e+01    1.266335e+00
  2.021376e+01    1.281701e+00
  2.024551e+01    1.251273e+00
  2.027726e+01    1.250267e+00
  2.030902e+01    1.251459e+00
  2.034077e+01    1.235967e+00
  2.037252e+01    1.245385e+00
  2.040427e+01    1.240313e+00
  2.043602e+01    1.254320e+00
  2.046777e+01    1.266304e+00
  2.049952e+01    1.240135e+00
  2.053127e+01    1.239064e+00
  2.056302e+01    1.236698e+00
  2.059478e+01    1.238640e+00
  2.062653e+01    1.238321e+00
  2.065828e+01    1.233731e+00
  2.069003e+01    1.226293e+00
  2.072178e+01    1.243975e+00
  2.075353e+01    1.230700e+00
  2.078528e+01    1.211057e+00
  2.081703e+01    1.215816e+00
  2.084878e+01    1.243773e+00
  2.088054e+01    1.230630e+00
  2.091229e+01    1.240391e+00
  2.094404e+01    1.218607e+00
  2.097579e+01    1.212751e+00
  2.100754e+01    1.263437e+00
  2.103929e+01    1.215296e+00
  2.107104e+01    1.247186e+00
  2.110279e+01    1.224762e+00
  2.113455e+01    1.222673e+00
  2.116630e+01    1.258052e+00
  2.119805e+01    1.221821e+00
  2.122980e+01    1.248630e+00
  2.126155e+01    1.224371e+00
  2.129330e+01    1.254286e+00
  2.132505e+01    1.252873e+00
  2.135680e+01    1.265733e+00
  2.138855e+01    1.278856e+00
  2.142031e+01    1.336265e+00
  2.145206e+01    1.354759e+00
  2.148381e+01    1.382957e+00
  2.151556e+01    1.420734e+00
  2.154731e+01    1.502651e+00
  2.157906e+01    1.593161e+00
  2.161081e+01    1.748948e+00
  2.164256e+01    1.989779e+00
  2.167431e+01    2.298515e+00
  2.170607e+01    2.768151e+00
  2.173782e+01    3.521133e+00
  2.176957e+01    4.505480e+00
  2.180132e+01    5.818379e+00
  2.183307e+01    7.101969e+00
  2.186482e+01    8.375819e+00
  2.189657e+01    8.951015e+00
  2.192832e+01    8.233335e+00
  2.196007e+01    6.547449e+00
  2.199183e+01    4.875308e+00
  2.202358e+01    3.651273e+00
  2.205533e+01    2.791069e+00
  2.208708e+01    2.370385e+00
  2.211883e+01    1.977454e+00
  2.215058e+01    1.777657e+00
  2.218233e+01    1.640975e+00
  2.221408e+01    1.502723e+00
  2.224584e+01    1.405652e+00
  2.227759e+01    1.358443e+00
  2.230934e+01    1.302959e+00
  2.234109e+01    1.253197e+00
  2.237284e+01    1.220740e+00
  2.240459e+01    1.179386e+00
  2.243634e+01    1.166372e+00
  2.246809e+01    1.149749e+00
  2.249984e+01    1.160148e+00
  2.253160e+01    1.137859e+00
  2.256335e+01    1.126489e+00
  2.259510e+01    1.113548e+00
  2.262685e+01    1.105715e+00
  2.265860e+01    1.078429e+00
  2.269035e+01    1.065865e+00
  2.272210e+01    1.071299e+00
  2.275385e+01    1.071131e+00
  2.278560e+01    1.072975e+00
  2.281736e+01    1.054534e+00
  2.284911e+01    1.065303e+00
  2.288086e+01    1.044580e+00
  2.291261e+01    1.022916e+00
  2.294436e+01    1.062559e+00
  2.297611e+01    1.024034e+00
  2.300786e+01    1.028059e+00
  2.303961e+01    1.042150e+00
  2.307137e+01    1.007686e+00
  2.310312e+01    1.005493e+00
  2.313487e+01    1.009627e+00
  2.316662e+01    9.789288e-01
  2.319837e+01    9.844382e-01
  2.323012e+01    1.013817e+00
  2.326187e+01    1.012899e+00
  2.329362e+01    9.888985e-01
  2.332537e+01    1.002013e+00
  2.335713e+01    9.881286e-01
  2.338888e+01    9.685992e-01
  2.342063e+01    9.941596e-01
  2.345238e+01    9.514737e-01
  2.348413e+01    9.684737e-01
  2.351588e+01    9.705470e-01
  2.354763e+01    9.708203e-01
  2.357938e+01    9.681557e-01
  2.361113e+01    9.395207e-01
  2.364289e+01    9.602772e-01
  2.367464e+01    9.468040e-01
  2.370639e+01    9.342839e-01
  2.373814e+01    9.276501e-01
  2.376989e+01    9.434400e-01
  2.380164e+01    9.059069e-01
  2.383339e+01    9.338851e-01
  2.386514e+01    9.217105e-01
  2.389689e+01    8.975391e-01
  2.392865e+01    9.374230e-01
  2.396040e+01    9.199793e-01
  2.399215e+01    8.976688e-01
  2.402390e+01    8.923393e-01
  2.405565e+01    9.037507e-01
  2.408740e+01    8.911130e-01
  2.411915e+01    8.855777e-01
  2.415090e+01    8.832805e-01
  2.418266e+01    8.975585e-01
  2.421441e+01    8.929623e-01
  2.424616e+01    8.889749e-01
  2.427791e+01    9.099532e-01
  2.430966e+01    8.928831e-01
  2.434141e+01    8.897247e-01
  2.437316e+01    8.857763e-01
  2.440491e+01    8.927861e-01
  2.443666e+01    8.960667e-01
  2.446842e+01    8.997799e-01
  2.450017e+01    9.137971e-01
  2.453192e+01    9.146862e-01
  2.456367e+01    8.877438e-01
  2.459542e+01    9.015895e-01
  2.462717e+01    8.636245e-01
  2.465892e+01    8.839872e-01
  2.469067e+01    8.904765e-01
  2.472242e+01    8.991030e-01
  2.475418e+01    8.894878e-01
  2.478593e+01    8.755822e-01
  2.481768e+01    8.777202e-01
  2.484943e+01    8.992090e-01
  2.488118e+01    8.833696e-01
  2.491293e+01    8.854796e-01
  2.494468e+01    8.805146e-01
  2.497643e+01    8.952114e-01
  2.500819e+01    8.914005e-01
  2.503994e+01    8.961248e-01
  2.507169e+01    9.087433e-01
  2.510344e+01    9.039602e-01
  2.513519e+01    9.009477e-01
  2.516694e+01    9.075367e-01
  2.519869e+01    9.324072e-01
  2.523044e+01    9.505730e-01
  2.526219e+01    9.351367e-01
  2.529395e+01    9.662264e-01
  2.532570e+01    9.879913e-01
  2.535745e+01    9.694924e-01
  2.538920e+01    9.656747e-01
  2.542095e+01    9.928118e-01
  2.545270e+01    1.025496e+00
  2.548445e+01    1.037752e+00
  2.551620e+01    1.086121e+00
  2.554795e+01    1.114388e+00
  2.557971e+01    1.142467e+00
  2.561146e+01    1.224848e+00
  2.564321e+01    1.306138e+00
  2.567496e+01    1.429182e+00
  2.570671e+01    1.582742e+00
  2.573846e+01    1.819976e+00
  2.577021e+01    2.204192e+00
  2.580196e+01    2.789143e+00
  2.583371e+01    3.634909e+00
  2.586547e+01    4.628943e+00
  2.589722e+01    5.757164e+00
  2.592897e+01    6.789344e+00
  2.596072e+01    7.065050e+00
  2.599247e+01    6.585623e+00
  2.602422e+01    5.315495e+00
  2.605597e+01    4.016589e+00
  2.608772e+01    3.013643e+00
  2.611948e+01    2.362654e+00
  2.615123e+01    1.923254e+00
  2.618298e+01    1.674867e+00
  2.621473e+01    1.470043e+00
  2.624648e+01    1.350733e+00
  2.627823e+01    1.244774e+00
  2.630998e+01    1.207623e+00
  2.634173e+01    1.133833e+00
  2.637348e+01    1.077908e+00
  2.640524e+01    1.052653e+00
  2.643699e+01    1.027460e+00
  2.646874e+01    1.023677e+00
  2.650049e+01    1.014665e+00
  2.653224e+01    9.957242e-01
  2.656399e+01    9.932606e-01
  2.659574e+01    1.002422e+00
  2.662749e+01    9.872423e-01
  2.665924e+01    9.737310e-01
  2.669100e+01    9.796922e-01
  2.672275e+01    9.700816e-01
  2.675450e+01    9.601845e-01
  2.678625e+01    9.783863e-01
  2.681800e+01    9.817495e-01
  2.684975e+01    9.753869e-01
  2.688150e+01    9.968746e-01
  2.691325e+01    1.006406e+00
  2.694501e+01    1.027028e+00
  2.697676e+01    1.042310e+00
  2.700851e+01    1.103226e+00
  2.704026e+01    1.179852e+00
  2.707201e+01    1.324284e+00
  2.710376e+01    1.513945e+00
  2.713551e+01    1.723942e+00
  2.716726e+01    1.940118e+00
  2.719901e+01    2.134661e+00
  2.723077e+01    2.193837e+00
  2.726252e+01    1.934979e+00
  2.729427e+01    1.706716e+00
  2.732602e+01    1.459936e+00
  2.735777e+01    1.289859e+00
  2.738952e+01    1.140758e+00
  2.742127e+01    1.095746e+00
  2.745302e+01    1.032358e+00
  2.748477e+01    1.006824e+00
  2.751653e+01    9.788565e-01
  2.754828e+01    9.375555e-01
  2.758003e+01    9.445156e-01
  2.761178e+01    9.294237e-01
  2.764353e+01    9.019735e-01
  2.767528e+01    9.230886e-01
  2.770703e+01    9.050239e-01
  2.773878e+01    8.837763e-01
  2.777054e+01    8.805561e-01
  2.780229e+01    9.099071e-01
  2.783404e+01    8.845093e-01
  2.786579e+01    8.579715e-01
  2.789754e+01    8.746671e-01
  2.792929e+01    8.557735e-01
  2.796104e+01    8.657826e-01
  2.799279e+01    8.473086e-01
  2.802454e+01    8.588158e-01
  2.805630e+01    8.509693e-01
  2.808805e+01    8.401714e-01
  2.811980e+01    8.411161e-01
  2.815155e+01    8.421624e-01
  2.818330e+01    8.785025e-01
  2.821505e+01    8.585646e-01
  2.824680e+01    8.658909e-01
  2.827855e+01    8.573918e-01
  2.831030e+01    8.560654e-01
  2.834206e+01    8.629797e-01
  2.837381e+01    8.630078e-01
  2.840556e+01    8.354678e-01
  2.843731e+01    8.250427e-01
  2.846906e+01    8.337767e-01
  2.850081e+01    8.572806e-01
  2.853256e+01    8.428571e-01
  2.856431e+01    8.115531e-01
  2.859606e+01    8.551883e-01
  2.862782e+01    8.175994e-01
  2.865957e+01    8.634437e-01
  2.869132e+01    8.499682e-01
  2.872307e+01    8.234641e-01
  2.875482e+01    8.273010e-01
  2.878657e+01    8.420895e-01
  2.881832e+01    8.316081e-01
  2.885007e+01    8.424212e-01
  2.888183e+01    8.328465e-01
  2.891358e+01    8.082364e-01
  2.894533e+01    8.276170e-01
  2.897708e+01    8.329973e-01
  2.900883e+01    8.325732e-01
  2.904058e+01    8.000703e-01
  2.907233e+01    8.097425e-01
  2.910408e+01    8.418786e-01
  2.913583e+01    7.882106e-01
  2.916759e+01    8.338416e-01
  2.919934e+01    8.048869e-01
  2.923109e+01    8.131964e-01
  2.926284e+01    8.152033e-01
  2.929459e+01    8.006433e-01
  2.932634e+01    7.933736e-01
  2.935809e+01    8.202953e-01
  2.938984e+01    7.990116e-01
  2.942159e+01    8.027046e-01
  2.945335e+01    8.209766e-01
  2.948510e+01    8.013250e-01
  2.951685e+01    8.127858e-01
  2.954860e+01    7.998790e-01
  2.958035e+01    7.812988e-01
  2.961210e+01    8.015578e-01
  2.964385e+01    8.045028e-01
  2.967560e+01    8.101140e-01
  2.970736e+01    8.060107e-01
  2.973911e+01    8.143203e-01
  2.977086e+01    8.032821e-01
  2.980261e+01    7.887908e-01
  2.983436e+01    7.997383e-01
  2.986611e+01    7.850065e-01
  2.989786e+01    7.773058e-01
  2.992961e+01    7.857563e-01
  2.996136e+01    7.800276e-01
  2.999312e+01    8.057374e-01
  3.002487e+01    8.011988e-01
  3.005662e+01    8.162636e-01
  3.008837e+01    8.152062e-01
  3.012012e+01    7.981061e-01
  3.015187e+01    8.220596e-01
  3.018362e+01    7.914039e-01
  3.021537e+01    7.976963e-01
  3.024712e+01    7.922113e-01
  3.027888e+01    8.018659e-01
  3.031063e+01    7.691764e-01
  3.034238e+01    8.036942e-01
  3.037413e+01    7.856854e-01
  3.040588e+01    7.836761e-01
  3.043763e+01    7.787665e-01
  3.046938e+01    8.096659e-01
  3.050113e+01    7.803009e-01
  3.053288e+01    7.814570e-01
  3.056464e+01    7.920170e-01
  3.059639e+01    7.904634e-01
  3.062814e+01    7.864857e-01
  3.065989e+01    7.822579e-01
  3.069164e+01    7.904586e-01
  3.072339e+01    8.028651e-01
  3.075514e+01    7.865172e-01
  3.078689e+01    7.745891e-01
  3.081865e+01    7.853841e-01
  3.085040e+01    7.851272e-01
  3.088215e+01    7.539549e-01
  3.091390e+01    7.920446e-01
  3.094565e+01    8.005692e-01
  3.097740e+01    8.066027e-01
  3.100915e+01    7.927302e-01
  3.104090e+01    7.724631e-01
  3.107265e+01    7.609355e-01
  3.110441e+01    7.652845e-01
  3.113616e+01    7.760184e-01
  3.116791e+01    7.910642e-01
  3.119966e+01    7.883785e-01
  3.123141e+01    7.905626e-01
  3.126316e+01    7.803810e-01
  3.129491e+01    8.020543e-01
  3.132666e+01    7.915463e-01
  3.135841e+01    8.018185e-01
  3.139017e+01    7.978595e-01
  3.142192e+01    8.023598e-01
  3.145367e+01    8.235168e-01
  3.148542e+01    8.036212e-01
  3.151717e+01    8.255306e-01
  3.154892e+01    8.438793e-01
  3.158067e+01    8.654487e-01
  3.161242e+01    8.747367e-01
  3.164418e+01    9.119649e-01
  3.167593e+01    9.770224e-01
  3.170768e+01    1.022984e+00
  3.173943e+01    1.102178e+00
  3.177118e+01    1.250626e+00
  3.180293e+01    1.446115e+00
  3.183468e+01    1.694134e+00
  3.186643e+01    1.978369e+00
  3.189818e+01    2.096077e+00
  3.192994e+01    2.034958e+00
  3.196169e+01    1.828985e+00
  3.199344e+01    1.554649e+00
  3.202519e+01    1.342599e+00
  3.205694e+01    1.160854e+00
  3.208869e+01    1.042603e+00
  3.212044e+01    9.637139e-01
  3.215219e+01    9.190896e-01
  3.218394e+01    9.154544e-01
  3.221570e+01    8.544077e-01
  3.224745e+01    8.340178e-01
  3.227920e+01    8.059382e-01
  3.231095e+01    8.274202e-01
  3.234270e+01    8.019782e-01
  3.237445e+01    8.199744e-01
  3.240620e+01    7.796409e-01
  3.243795e+01    7.906924e-01
  3.246970e+01    7.759386e-01
  3.250146e+01    7.969118e-01
  3.253321e+01    7.899454e-01
  3.254908e+01    7.540137e-01