File: XRD/Reaction conditions/2024-07-27_003_Ru-CGO-ex_Reaction_dwell_000023_data_000013.dat
# == pyFAI calibration ==
# Distance Sample to Detector: 0.4 m
# PONI: 9.750e-02, 1.135e-01 m
# Rotations: -0.000175 0.000000 -0.000000 rad
#
# == Fit2d calibration ==
# Distance Sample-beamCenter: 400.000 mm
# Center: x=1514.000, y=1300.000 pix
# Tilt: 0.010 deg  TiltPlanRot: 0.010 deg
#
# Detector Detector	 Spline= None	 PixelSize= 7.500e-05, 7.500e-05 m
#    Detector has a mask: False
#    Detector has a dark current: False
#    detector has a flat field: False
#
# Wavelength: 6.888e-11 m
# Mask applied: user provided
# Dark current applied: False
# Flat field applied: False
# Polarization factor: 0.99
# Normalization factor: 1.0
# --> /home/myspot/data/2024_07_Rosario/Ru-CGO-ex/2024-07-27_003_Ru-CGO-ex_Reaction_dwell_000023_data_000013.dat
#       q_nm^-1             I
  2.003187e-02    0.000000e+00
  5.178302e-02    7.388627e-02
  8.353417e-02    1.953521e-01
  1.152853e-01    0.000000e+00
  1.470365e-01    2.027448e-02
  1.787876e-01    5.298805e-02
  2.105388e-01    4.920926e-02
  2.422899e-01    6.474511e-02
  2.740411e-01    5.367728e-02
  3.057922e-01    3.058458e-02
  3.375433e-01    2.346476e-02
  3.692945e-01    7.627624e-02
  4.010456e-01    3.457149e-02
  4.327968e-01    1.362343e-02
  4.645479e-01    3.716975e-02
  4.962991e-01    2.597604e-02
  5.280502e-01    1.672505e-02
  5.598014e-01    2.777873e-02
  5.915525e-01    4.996219e-02
  6.233037e-01    1.919960e-02
  6.550548e-01    4.006620e-02
  6.868060e-01    3.609702e-02
  7.185571e-01    1.373185e-02
  7.503083e-01    5.781301e-02
  7.820594e-01    1.592685e-01
  8.138106e-01    2.312817e-01
  8.455617e-01    3.105773e-01
  8.773129e-01    5.033706e-01
  9.090640e-01    6.157230e-01
  9.408152e-01    8.193735e-01
  9.725663e-01    9.797800e-01
  1.004317e+00    1.330724e+00
  1.036069e+00    1.428588e+00
  1.067820e+00    1.453882e+00
  1.099571e+00    1.547299e+00
  1.131322e+00    1.651320e+00
  1.163073e+00    1.604620e+00
  1.194824e+00    1.651912e+00
  1.226575e+00    2.239864e+00
  1.258327e+00    2.371159e+00
  1.290078e+00    2.588396e+00
  1.321829e+00    2.669397e+00
  1.353580e+00    2.662363e+00
  1.385331e+00    2.882708e+00
  1.417082e+00    2.910058e+00
  1.448834e+00    3.024410e+00
  1.480585e+00    2.996283e+00
  1.512336e+00    3.056507e+00
  1.544087e+00    3.163433e+00
  1.575838e+00    3.100236e+00
  1.607589e+00    3.220414e+00
  1.639340e+00    3.150608e+00
  1.671092e+00    2.985102e+00
  1.702843e+00    3.120057e+00
  1.734594e+00    3.001569e+00
  1.766345e+00    3.154655e+00
  1.798096e+00    3.044472e+00
  1.829847e+00    3.154063e+00
  1.861598e+00    2.997527e+00
  1.893350e+00    3.140318e+00
  1.925101e+00    3.126647e+00
  1.956852e+00    3.120143e+00
  1.988603e+00    3.052601e+00
  2.020354e+00    3.049433e+00
  2.052105e+00    2.962173e+00
  2.083856e+00    3.080436e+00
  2.115608e+00    3.164624e+00
  2.147359e+00    3.004073e+00
  2.179110e+00    2.925157e+00
  2.210861e+00    3.168389e+00
  2.242612e+00    3.158561e+00
  2.274363e+00    3.247279e+00
  2.306115e+00    3.136005e+00
  2.337866e+00    3.139817e+00
  2.369617e+00    3.072795e+00
  2.401368e+00    3.257848e+00
  2.433119e+00    3.151731e+00
  2.464870e+00    3.093135e+00
  2.496621e+00    3.116725e+00
  2.528373e+00    3.231372e+00
  2.560124e+00    3.254179e+00
  2.591875e+00    3.252652e+00
  2.623626e+00    3.214056e+00
  2.655377e+00    3.356037e+00
  2.687128e+00    3.281407e+00
  2.718879e+00    3.416952e+00
  2.750631e+00    3.303759e+00
  2.782382e+00    3.146799e+00
  2.814133e+00    3.362250e+00
  2.845884e+00    3.383255e+00
  2.877635e+00    3.309313e+00
  2.909386e+00    3.297265e+00
  2.941137e+00    3.363232e+00
  2.972889e+00    3.303636e+00
  3.004640e+00    3.281727e+00
  3.036391e+00    3.399876e+00
  3.068142e+00    3.433448e+00
  3.099893e+00    3.441757e+00
  3.131644e+00    3.383817e+00
  3.163395e+00    3.465178e+00
  3.195147e+00    3.472591e+00
  3.226898e+00    3.467491e+00
  3.258649e+00    3.303770e+00
  3.290400e+00    3.421170e+00
  3.322151e+00    3.457201e+00
  3.353902e+00    3.456028e+00
  3.385654e+00    3.461607e+00
  3.417405e+00    3.442324e+00
  3.449156e+00    3.451705e+00
  3.480907e+00    3.431690e+00
  3.512658e+00    3.489224e+00
  3.544409e+00    3.471999e+00
  3.576160e+00    3.539010e+00
  3.607912e+00    3.485740e+00
  3.639663e+00    3.445039e+00
  3.671414e+00    3.517807e+00
  3.703165e+00    3.444848e+00
  3.734916e+00    3.542164e+00
  3.766667e+00    3.540503e+00
  3.798418e+00    3.501700e+00
  3.830170e+00    3.473166e+00
  3.861921e+00    3.524919e+00
  3.893672e+00    3.505738e+00
  3.925423e+00    3.535451e+00
  3.957174e+00    3.482365e+00
  3.988925e+00    3.429720e+00
  4.020676e+00    3.455344e+00
  4.052428e+00    3.432332e+00
  4.084179e+00    3.499307e+00
  4.115930e+00    3.508801e+00
  4.147681e+00    3.552290e+00
  4.179432e+00    3.555971e+00
  4.211183e+00    3.570395e+00
  4.242935e+00    3.651875e+00
  4.274686e+00    3.616799e+00
  4.306437e+00    3.693306e+00
  4.338188e+00    3.638504e+00
  4.369939e+00    3.603222e+00
  4.401690e+00    3.621780e+00
  4.433441e+00    3.571306e+00
  4.465193e+00    3.562209e+00
  4.496944e+00    3.702065e+00
  4.528695e+00    3.575081e+00
  4.560446e+00    3.616861e+00
  4.592197e+00    3.602811e+00
  4.623948e+00    3.609089e+00
  4.655699e+00    3.533133e+00
  4.687451e+00    3.538859e+00
  4.719202e+00    3.616987e+00
  4.750953e+00    3.625482e+00
  4.782704e+00    3.669231e+00
  4.814455e+00    3.650795e+00
  4.846206e+00    3.668234e+00
  4.877957e+00    3.627344e+00
  4.909709e+00    3.581930e+00
  4.941460e+00    3.693655e+00
  4.973211e+00    3.664435e+00
  5.004962e+00    3.775887e+00
  5.036713e+00    3.678313e+00
  5.068464e+00    3.663325e+00
  5.100216e+00    3.686147e+00
  5.131967e+00    3.648570e+00
  5.163718e+00    3.576275e+00
  5.195469e+00    3.719083e+00
  5.227220e+00    3.652821e+00
  5.258971e+00    3.670746e+00
  5.290722e+00    3.674743e+00
  5.322474e+00    3.650506e+00
  5.354225e+00    3.724411e+00
  5.385976e+00    3.675522e+00
  5.417727e+00    3.604732e+00
  5.449478e+00    3.708924e+00
  5.481229e+00    3.571273e+00
  5.512980e+00    3.621987e+00
  5.544732e+00    3.595413e+00
  5.576483e+00    3.550832e+00
  5.608234e+00    3.599673e+00
  5.639985e+00    3.685863e+00
  5.671736e+00    3.632295e+00
  5.703487e+00    3.643320e+00
  5.735238e+00    3.590501e+00
  5.766990e+00    3.664877e+00
  5.798741e+00    3.575420e+00
  5.830492e+00    3.582399e+00
  5.862243e+00    3.499531e+00
  5.893994e+00    3.489038e+00
  5.925745e+00    3.559392e+00
  5.957497e+00    3.514870e+00
  5.989248e+00    3.509415e+00
  6.020999e+00    3.454328e+00
  6.052750e+00    3.533195e+00
  6.084501e+00    3.626107e+00
  6.116252e+00    3.588225e+00
  6.148003e+00    3.634177e+00
  6.179755e+00    3.559578e+00
  6.211506e+00    3.550760e+00
  6.243257e+00    3.499604e+00
  6.275008e+00    3.525659e+00
  6.306759e+00    3.490103e+00
  6.338510e+00    3.626477e+00
  6.370261e+00    3.565744e+00
  6.402013e+00    3.625637e+00
  6.433764e+00    3.518551e+00
  6.465515e+00    3.650721e+00
  6.497266e+00    3.579380e+00
  6.529017e+00    3.583184e+00
  6.560768e+00    3.525397e+00
  6.592519e+00    3.536433e+00
  6.624271e+00    3.500647e+00
  6.656022e+00    3.525196e+00
  6.687773e+00    3.551743e+00
  6.719524e+00    3.584040e+00
  6.751275e+00    3.526421e+00
  6.783026e+00    3.557455e+00
  6.814777e+00    3.603146e+00
  6.846529e+00    3.591849e+00
  6.878280e+00    3.512843e+00
  6.910031e+00    3.558745e+00
  6.941782e+00    3.592991e+00
  6.973533e+00    3.598819e+00
  7.005284e+00    3.589442e+00
  7.037036e+00    3.533059e+00
  7.068787e+00    3.620249e+00
  7.100538e+00    3.572368e+00
  7.132289e+00    3.572645e+00
  7.164040e+00    3.586740e+00
  7.195791e+00    3.566734e+00
  7.227542e+00    3.523369e+00
  7.259294e+00    3.579775e+00
  7.291045e+00    3.410101e+00
  7.322796e+00    3.642718e+00
  7.354547e+00    3.491775e+00
  7.386298e+00    3.558590e+00
  7.418049e+00    3.494886e+00
  7.449800e+00    3.533957e+00
  7.481552e+00    3.478995e+00
  7.513303e+00    3.530838e+00
  7.545054e+00    3.547332e+00
  7.576805e+00    3.467262e+00
  7.608556e+00    3.475026e+00
  7.640307e+00    3.556859e+00
  7.672058e+00    3.486498e+00
  7.703810e+00    3.511397e+00
  7.735561e+00    3.443571e+00
  7.767312e+00    3.411336e+00
  7.799063e+00    3.421187e+00
  7.830814e+00    3.475687e+00
  7.862565e+00    3.466274e+00
  7.894317e+00    3.453421e+00
  7.926068e+00    3.347640e+00
  7.957819e+00    3.419415e+00
  7.989570e+00    3.401359e+00
  8.021321e+00    3.399909e+00
  8.053072e+00    3.414282e+00
  8.084823e+00    3.413745e+00
  8.116575e+00    3.439152e+00
  8.148326e+00    3.515611e+00
  8.180077e+00    3.475119e+00
  8.211828e+00    3.494626e+00
  8.243579e+00    3.513659e+00
  8.275330e+00    3.393909e+00
  8.307081e+00    3.349817e+00
  8.338833e+00    3.457144e+00
  8.370584e+00    3.399447e+00
  8.402335e+00    3.361018e+00
  8.434086e+00    3.400816e+00
  8.465837e+00    3.388208e+00
  8.497588e+00    3.337023e+00
  8.529339e+00    3.295820e+00
  8.561091e+00    3.412202e+00
  8.592842e+00    3.361752e+00
  8.624593e+00    3.354478e+00
  8.656344e+00    3.315003e+00
  8.688095e+00    3.413575e+00
  8.719846e+00    3.313475e+00
  8.751598e+00    3.387946e+00
  8.783349e+00    3.317909e+00
  8.815100e+00    3.365388e+00
  8.846851e+00    3.401013e+00
  8.878602e+00    3.368321e+00
  8.910353e+00    3.330650e+00
  8.942104e+00    3.319859e+00
  8.973856e+00    3.368394e+00
  9.005607e+00    3.305352e+00
  9.037358e+00    3.336820e+00
  9.069109e+00    3.324131e+00
  9.100860e+00    3.356515e+00
  9.132611e+00    3.338340e+00
  9.164362e+00    3.244289e+00
  9.196114e+00    3.265789e+00
  9.227865e+00    3.241895e+00
  9.259616e+00    3.249249e+00
  9.291367e+00    3.294185e+00
  9.323118e+00    3.202382e+00
  9.354869e+00    3.224343e+00
  9.386620e+00    3.257029e+00
  9.418372e+00    3.273558e+00
  9.450123e+00    3.261756e+00
  9.481874e+00    3.263842e+00
  9.513625e+00    3.235450e+00
  9.545376e+00    3.212973e+00
  9.577127e+00    3.308581e+00
  9.608878e+00    3.221185e+00
  9.640630e+00    3.173012e+00
  9.672381e+00    3.197625e+00
  9.704132e+00    3.101583e+00
  9.735883e+00    3.141046e+00
  9.767634e+00    3.144902e+00
  9.799385e+00    3.180853e+00
  9.831137e+00    3.173504e+00
  9.862888e+00    3.142306e+00
  9.894639e+00    3.175172e+00
  9.926390e+00    3.129819e+00
  9.958141e+00    3.085908e+00
  9.989892e+00    3.147901e+00
  1.002164e+01    3.211159e+00
  1.005339e+01    3.061166e+00
  1.008515e+01    3.122703e+00
  1.011690e+01    3.134228e+00
  1.014865e+01    3.063002e+00
  1.018040e+01    3.070362e+00
  1.021215e+01    3.031412e+00
  1.024390e+01    3.038374e+00
  1.027565e+01    3.085689e+00
  1.030740e+01    3.045656e+00
  1.033915e+01    3.067497e+00
  1.037091e+01    3.023389e+00
  1.040266e+01    3.085954e+00
  1.043441e+01    3.003466e+00
  1.046616e+01    3.003167e+00
  1.049791e+01    3.050428e+00
  1.052966e+01    3.047637e+00
  1.056141e+01    3.011594e+00
  1.059316e+01    2.953813e+00
  1.062492e+01    3.039554e+00
  1.065667e+01    3.016188e+00
  1.068842e+01    2.977156e+00
  1.072017e+01    3.036542e+00
  1.075192e+01    2.984891e+00
  1.078367e+01    3.019206e+00
  1.081542e+01    2.970266e+00
  1.084717e+01    3.000991e+00
  1.087892e+01    3.020833e+00
  1.091068e+01    2.976194e+00
  1.094243e+01    2.907600e+00
  1.097418e+01    2.946179e+00
  1.100593e+01    2.965536e+00
  1.103768e+01    2.899683e+00
  1.106943e+01    2.929688e+00
  1.110118e+01    2.881662e+00
  1.113293e+01    2.891001e+00
  1.116468e+01    2.855071e+00
  1.119644e+01    2.824888e+00
  1.122819e+01    2.838420e+00
  1.125994e+01    2.870134e+00
  1.129169e+01    2.878192e+00
  1.132344e+01    2.836684e+00
  1.135519e+01    2.823949e+00
  1.138694e+01    2.813244e+00
  1.141869e+01    2.853634e+00
  1.145045e+01    2.843403e+00
  1.148220e+01    2.845141e+00
  1.151395e+01    2.850644e+00
  1.154570e+01    2.799407e+00
  1.157745e+01    2.836606e+00
  1.160920e+01    2.832477e+00
  1.164095e+01    2.809217e+00
  1.167270e+01    2.768187e+00
  1.170445e+01    2.793707e+00
  1.173621e+01    2.726620e+00
  1.176796e+01    2.840559e+00
  1.179971e+01    2.715032e+00
  1.183146e+01    2.706856e+00
  1.186321e+01    2.709563e+00
  1.189496e+01    2.767152e+00
  1.192671e+01    2.776580e+00
  1.195846e+01    2.707984e+00
  1.199021e+01    2.751846e+00
  1.202197e+01    2.724310e+00
  1.205372e+01    2.707833e+00
  1.208547e+01    2.667541e+00
  1.211722e+01    2.726227e+00
  1.214897e+01    2.683786e+00
  1.218072e+01    2.761656e+00
  1.221247e+01    2.659847e+00
  1.224422e+01    2.665159e+00
  1.227597e+01    2.722295e+00
  1.230773e+01    2.675311e+00
  1.233948e+01    2.742294e+00
  1.237123e+01    2.723228e+00
  1.240298e+01    2.735043e+00
  1.243473e+01    2.755712e+00
  1.246648e+01    2.670266e+00
  1.249823e+01    2.719663e+00
  1.252998e+01    2.724865e+00
  1.256174e+01    2.725735e+00
  1.259349e+01    2.755654e+00
  1.262524e+01    2.796667e+00
  1.265699e+01    2.780150e+00
  1.268874e+01    2.801724e+00
  1.272049e+01    2.805462e+00
  1.275224e+01    2.909039e+00
  1.278399e+01    2.979018e+00
  1.281574e+01    3.056453e+00
  1.284750e+01    3.222652e+00
  1.287925e+01    3.359109e+00
  1.291100e+01    3.665343e+00
  1.294275e+01    4.060816e+00
  1.297450e+01    4.853364e+00
  1.300625e+01    5.873747e+00
  1.303800e+01    7.727188e+00
  1.306975e+01    1.013371e+01
  1.310150e+01    1.269538e+01
  1.313326e+01    1.475630e+01
  1.316501e+01    1.628099e+01
  1.319676e+01    1.569903e+01
  1.322851e+01    1.253085e+01
  1.326026e+01    9.027918e+00
  1.329201e+01    6.670080e+00
  1.332376e+01    5.349854e+00
  1.335551e+01    4.398083e+00
  1.338727e+01    3.884306e+00
  1.341902e+01    3.512822e+00
  1.345077e+01    3.284180e+00
  1.348252e+01    3.041944e+00
  1.351427e+01    2.887496e+00
  1.354602e+01    2.818583e+00
  1.357777e+01    2.787992e+00
  1.360952e+01    2.648733e+00
  1.364127e+01    2.614538e+00
  1.367303e+01    2.628557e+00
  1.370478e+01    2.565536e+00
  1.373653e+01    2.533037e+00
  1.376828e+01    2.523702e+00
  1.380003e+01    2.486629e+00
  1.383178e+01    2.433927e+00
  1.386353e+01    2.442475e+00
  1.389528e+01    2.382916e+00
  1.392703e+01    2.420795e+00
  1.395879e+01    2.378244e+00
  1.399054e+01    2.369272e+00
  1.402229e+01    2.352277e+00
  1.405404e+01    2.350403e+00
  1.408579e+01    2.355761e+00
  1.411754e+01    2.300529e+00
  1.414929e+01    2.278192e+00
  1.418104e+01    2.341030e+00
  1.421279e+01    2.307238e+00
  1.424455e+01    2.271041e+00
  1.427630e+01    2.332650e+00
  1.430805e+01    2.237433e+00
  1.433980e+01    2.270515e+00
  1.437155e+01    2.265616e+00
  1.440330e+01    2.219850e+00
  1.443505e+01    2.210391e+00
  1.446680e+01    2.189948e+00
  1.449856e+01    2.264811e+00
  1.453031e+01    2.241966e+00
  1.456206e+01    2.212862e+00
  1.459381e+01    2.209404e+00
  1.462556e+01    2.255630e+00
  1.465731e+01    2.242150e+00
  1.468906e+01    2.173736e+00
  1.472081e+01    2.189239e+00
  1.475256e+01    2.195803e+00
  1.478432e+01    2.217126e+00
  1.481607e+01    2.205462e+00
  1.484782e+01    2.203742e+00
  1.487957e+01    2.271310e+00
  1.491132e+01    2.273548e+00
  1.494307e+01    2.263847e+00
  1.497482e+01    2.389253e+00
  1.500657e+01    2.461077e+00
  1.503832e+01    2.575893e+00
  1.507008e+01    2.862290e+00
  1.510183e+01    3.188774e+00
  1.513358e+01    3.758158e+00
  1.516533e+01    4.500280e+00
  1.519708e+01    5.146149e+00
  1.522883e+01    5.622235e+00
  1.526058e+01    5.795014e+00
  1.529233e+01    5.467015e+00
  1.532409e+01    4.684896e+00
  1.535584e+01    3.747365e+00
  1.538759e+01    3.158485e+00
  1.541934e+01    2.764508e+00
  1.545109e+01    2.500989e+00
  1.548284e+01    2.382406e+00
  1.551459e+01    2.254639e+00
  1.554634e+01    2.218302e+00
  1.557809e+01    2.154644e+00
  1.560985e+01    2.086309e+00
  1.564160e+01    2.069181e+00
  1.567335e+01    1.989686e+00
  1.570510e+01    1.980362e+00
  1.573685e+01    1.973722e+00
  1.576860e+01    1.955196e+00
  1.580035e+01    1.932596e+00
  1.583210e+01    1.948723e+00
  1.586385e+01    1.901129e+00
  1.589561e+01    1.897058e+00
  1.592736e+01    1.892390e+00
  1.595911e+01    1.919126e+00
  1.599086e+01    1.901870e+00
  1.602261e+01    1.883752e+00
  1.605436e+01    1.880464e+00
  1.608611e+01    1.852230e+00
  1.611786e+01    1.830024e+00
  1.614961e+01    1.834992e+00
  1.618137e+01    1.839822e+00
  1.621312e+01    1.824296e+00
  1.624487e+01    1.815178e+00
  1.627662e+01    1.814569e+00
  1.630837e+01    1.821535e+00
  1.634012e+01    1.828852e+00
  1.637187e+01    1.778811e+00
  1.640362e+01    1.812141e+00
  1.643538e+01    1.779829e+00
  1.646713e+01    1.736645e+00
  1.649888e+01    1.741213e+00
  1.653063e+01    1.789604e+00
  1.656238e+01    1.764594e+00
  1.659413e+01    1.741438e+00
  1.662588e+01    1.726755e+00
  1.665763e+01    1.706918e+00
  1.668938e+01    1.729018e+00
  1.672114e+01    1.721898e+00
  1.675289e+01    1.709870e+00
  1.678464e+01    1.688533e+00
  1.681639e+01    1.715279e+00
  1.684814e+01    1.713965e+00
  1.687989e+01    1.721546e+00
  1.691164e+01    1.657967e+00
  1.694339e+01    1.690885e+00
  1.697514e+01    1.703764e+00
  1.700690e+01    1.709714e+00
  1.703865e+01    1.691855e+00
  1.707040e+01    1.695572e+00
  1.710215e+01    1.629323e+00
  1.713390e+01    1.617199e+00
  1.716565e+01    1.687952e+00
  1.719740e+01    1.650465e+00
  1.722915e+01    1.636729e+00
  1.726091e+01    1.626228e+00
  1.729266e+01    1.623361e+00
  1.732441e+01    1.626937e+00
  1.735616e+01    1.609975e+00
  1.738791e+01    1.646812e+00
  1.741966e+01    1.596941e+00
  1.745141e+01    1.645747e+00
  1.748316e+01    1.612454e+00
  1.751491e+01    1.588102e+00
  1.754667e+01    1.617113e+00
  1.757842e+01    1.580162e+00
  1.761017e+01    1.559041e+00
  1.764192e+01    1.603518e+00
  1.767367e+01    1.562459e+00
  1.770542e+01    1.558367e+00
  1.773717e+01    1.569480e+00
  1.776892e+01    1.569195e+00
  1.780067e+01    1.528488e+00
  1.783243e+01    1.548821e+00
  1.786418e+01    1.537836e+00
  1.789593e+01    1.554392e+00
  1.792768e+01    1.541946e+00
  1.795943e+01    1.512343e+00
  1.799118e+01    1.508365e+00
  1.802293e+01    1.514154e+00
  1.805468e+01    1.508072e+00
  1.808643e+01    1.513693e+00
  1.811819e+01    1.505161e+00
  1.814994e+01    1.493873e+00
  1.818169e+01    1.477971e+00
  1.821344e+01    1.504984e+00
  1.824519e+01    1.473380e+00
  1.827694e+01    1.467347e+00
  1.830869e+01    1.478107e+00
  1.834044e+01    1.474603e+00
  1.837220e+01    1.458281e+00
  1.840395e+01    1.500506e+00
  1.843570e+01    1.450789e+00
  1.846745e+01    1.471818e+00
  1.849920e+01    1.472785e+00
  1.853095e+01    1.412104e+00
  1.856270e+01    1.423409e+00
  1.859445e+01    1.423183e+00
  1.862620e+01    1.457685e+00
  1.865796e+01    1.447932e+00
  1.868971e+01    1.409557e+00
  1.872146e+01    1.434420e+00
  1.875321e+01    1.415671e+00
  1.878496e+01    1.388784e+00
  1.881671e+01    1.422191e+00
  1.884846e+01    1.417862e+00
  1.888021e+01    1.400936e+00
  1.891196e+01    1.372810e+00
  1.894372e+01    1.396519e+00
  1.897547e+01    1.383817e+00
  1.900722e+01    1.412835e+00
  1.903897e+01    1.359509e+00
  1.907072e+01    1.388015e+00
  1.910247e+01    1.356874e+00
  1.913422e+01    1.373861e+00
  1.916597e+01    1.367824e+00
  1.919773e+01    1.380306e+00
  1.922948e+01    1.357533e+00
  1.926123e+01    1.378768e+00
  1.929298e+01    1.360843e+00
  1.932473e+01    1.359875e+00
  1.935648e+01    1.373719e+00
  1.938823e+01    1.365524e+00
  1.941998e+01    1.349808e+00
  1.945173e+01    1.389205e+00
  1.948349e+01    1.345415e+00
  1.951524e+01    1.337159e+00
  1.954699e+01    1.343734e+00
  1.957874e+01    1.312203e+00
  1.961049e+01    1.327269e+00
  1.964224e+01    1.322107e+00
  1.967399e+01    1.324077e+00
  1.970574e+01    1.332211e+00
  1.973749e+01    1.330958e+00
  1.976925e+01    1.331120e+00
  1.980100e+01    1.346412e+00
  1.983275e+01    1.292379e+00
  1.986450e+01    1.291541e+00
  1.989625e+01    1.262629e+00
  1.992800e+01    1.276782e+00
  1.995975e+01    1.295607e+00
  1.999150e+01    1.268287e+00
  2.002325e+01    1.286270e+00
  2.005501e+01    1.287148e+00
  2.008676e+01    1.282860e+00
  2.011851e+01    1.261101e+00
  2.015026e+01    1.234251e+00
  2.018201e+01    1.248765e+00
  2.021376e+01    1.266102e+00
  2.024551e+01    1.292658e+00
  2.027726e+01    1.235278e+00
  2.030902e+01    1.246419e+00
  2.034077e+01    1.254305e+00
  2.037252e+01    1.283730e+00
  2.040427e+01    1.251893e+00
  2.043602e+01    1.248519e+00
  2.046777e+01    1.230489e+00
  2.049952e+01    1.255906e+00
  2.053127e+01    1.239192e+00
  2.056302e+01    1.241131e+00
  2.059478e+01    1.210275e+00
  2.062653e+01    1.235775e+00
  2.065828e+01    1.198374e+00
  2.069003e+01    1.245965e+00
  2.072178e+01    1.244496e+00
  2.075353e+01    1.238664e+00
  2.078528e+01    1.235657e+00
  2.081703e+01    1.241446e+00
  2.084878e+01    1.243310e+00
  2.088054e+01    1.230175e+00
  2.091229e+01    1.231204e+00
  2.094404e+01    1.204554e+00
  2.097579e+01    1.209171e+00
  2.100754e+01    1.236660e+00
  2.103929e+01    1.227011e+00
  2.107104e+01    1.218547e+00
  2.110279e+01    1.233571e+00
  2.113455e+01    1.224015e+00
  2.116630e+01    1.236137e+00
  2.119805e+01    1.226759e+00
  2.122980e+01    1.237596e+00
  2.126155e+01    1.224742e+00
  2.129330e+01    1.266973e+00
  2.132505e+01    1.263674e+00
  2.135680e+01    1.287158e+00
  2.138855e+01    1.310381e+00
  2.142031e+01    1.319763e+00
  2.145206e+01    1.381527e+00
  2.148381e+01    1.414528e+00
  2.151556e+01    1.458877e+00
  2.154731e+01    1.493732e+00
  2.157906e+01    1.628707e+00
  2.161081e+01    1.752496e+00
  2.164256e+01    1.962931e+00
  2.167431e+01    2.283692e+00
  2.170607e+01    2.830251e+00
  2.173782e+01    3.498503e+00
  2.176957e+01    4.566721e+00
  2.180132e+01    5.892301e+00
  2.183307e+01    7.160527e+00
  2.186482e+01    8.330400e+00
  2.189657e+01    8.885197e+00
  2.192832e+01    8.322605e+00
  2.196007e+01    6.719528e+00
  2.199183e+01    4.897547e+00
  2.202358e+01    3.647202e+00
  2.205533e+01    2.844986e+00
  2.208708e+01    2.371992e+00
  2.211883e+01    2.008315e+00
  2.215058e+01    1.761970e+00
  2.218233e+01    1.592083e+00
  2.221408e+01    1.505518e+00
  2.224584e+01    1.412754e+00
  2.227759e+01    1.369790e+00
  2.230934e+01    1.301427e+00
  2.234109e+01    1.256946e+00
  2.237284e+01    1.212075e+00
  2.240459e+01    1.210440e+00
  2.243634e+01    1.188185e+00
  2.246809e+01    1.159327e+00
  2.249984e+01    1.131139e+00
  2.253160e+01    1.127996e+00
  2.256335e+01    1.118984e+00
  2.259510e+01    1.089393e+00
  2.262685e+01    1.106810e+00
  2.265860e+01    1.088012e+00
  2.269035e+01    1.080052e+00
  2.272210e+01    1.069387e+00
  2.275385e+01    1.061124e+00
  2.278560e+01    1.059041e+00
  2.281736e+01    1.059044e+00
  2.284911e+01    1.041013e+00
  2.288086e+01    1.040680e+00
  2.291261e+01    1.029378e+00
  2.294436e+01    1.041191e+00
  2.297611e+01    1.046729e+00
  2.300786e+01    1.047587e+00
  2.303961e+01    1.018188e+00
  2.307137e+01    1.016485e+00
  2.310312e+01    1.007358e+00
  2.313487e+01    1.007842e+00
  2.316662e+01    9.846972e-01
  2.319837e+01    1.005534e+00
  2.323012e+01    9.972364e-01
  2.326187e+01    9.803867e-01
  2.329362e+01    9.847193e-01
  2.332537e+01    9.610097e-01
  2.335713e+01    9.953924e-01
  2.338888e+01    9.882301e-01
  2.342063e+01    9.706123e-01
  2.345238e+01    9.856147e-01
  2.348413e+01    9.552994e-01
  2.351588e+01    9.733427e-01
  2.354763e+01    9.583504e-01
  2.357938e+01    9.458197e-01
  2.361113e+01    9.645830e-01
  2.364289e+01    9.483323e-01
  2.367464e+01    9.634079e-01
  2.370639e+01    9.522082e-01
  2.373814e+01    9.232917e-01
  2.376989e+01    9.304953e-01
  2.380164e+01    9.364628e-01
  2.383339e+01    9.354405e-01
  2.386514e+01    9.181600e-01
  2.389689e+01    9.062213e-01
  2.392865e+01    9.050115e-01
  2.396040e+01    8.994325e-01
  2.399215e+01    9.132397e-01
  2.402390e+01    8.924907e-01
  2.405565e+01    8.902079e-01
  2.408740e+01    8.980019e-01
  2.411915e+01    8.935782e-01
  2.415090e+01    8.688339e-01
  2.418266e+01    8.886382e-01
  2.421441e+01    8.979767e-01
  2.424616e+01    8.807171e-01
  2.427791e+01    8.978442e-01
  2.430966e+01    8.942811e-01
  2.434141e+01    9.006540e-01
  2.437316e+01    8.899291e-01
  2.440491e+01    8.679950e-01
  2.443666e+01    8.928828e-01
  2.446842e+01    9.104573e-01
  2.450017e+01    8.905756e-01
  2.453192e+01    8.951699e-01
  2.456367e+01    8.900062e-01
  2.459542e+01    8.853393e-01
  2.462717e+01    8.970256e-01
  2.465892e+01    9.085504e-01
  2.469067e+01    9.057581e-01
  2.472242e+01    9.052361e-01
  2.475418e+01    8.795386e-01
  2.478593e+01    8.737761e-01
  2.481768e+01    8.851838e-01
  2.484943e+01    9.067091e-01
  2.488118e+01    8.879213e-01
  2.491293e+01    8.966073e-01
  2.494468e+01    8.893680e-01
  2.497643e+01    8.968633e-01
  2.500819e+01    8.952175e-01
  2.503994e+01    8.908557e-01
  2.507169e+01    9.072787e-01
  2.510344e+01    9.193028e-01
  2.513519e+01    9.110621e-01
  2.516694e+01    9.257433e-01
  2.519869e+01    9.239368e-01
  2.523044e+01    9.400653e-01
  2.526219e+01    9.621964e-01
  2.529395e+01    9.585484e-01
  2.532570e+01    9.415345e-01
  2.535745e+01    9.677074e-01
  2.538920e+01    9.761651e-01
  2.542095e+01    9.876351e-01
  2.545270e+01    1.030353e+00
  2.548445e+01    1.053500e+00
  2.551620e+01    1.074032e+00
  2.554795e+01    1.095939e+00
  2.557971e+01    1.158349e+00
  2.561146e+01    1.241865e+00
  2.564321e+01    1.308021e+00
  2.567496e+01    1.429822e+00
  2.570671e+01    1.584955e+00
  2.573846e+01    1.840886e+00
  2.577021e+01    2.237697e+00
  2.580196e+01    2.765956e+00
  2.583371e+01    3.632608e+00
  2.586547e+01    4.714743e+00
  2.589722e+01    5.751276e+00
  2.592897e+01    6.739936e+00
  2.596072e+01    7.119914e+00
  2.599247e+01    6.497340e+00
  2.602422e+01    5.321542e+00
  2.605597e+01    3.952142e+00
  2.608772e+01    2.988869e+00
  2.611948e+01    2.370047e+00
  2.615123e+01    1.931600e+00
  2.618298e+01    1.656433e+00
  2.621473e+01    1.491851e+00
  2.624648e+01    1.358207e+00
  2.627823e+01    1.279014e+00
  2.630998e+01    1.211930e+00
  2.634173e+01    1.106172e+00
  2.637348e+01    1.089720e+00
  2.640524e+01    1.054427e+00
  2.643699e+01    1.034601e+00
  2.646874e+01    1.013820e+00
  2.650049e+01    1.001071e+00
  2.653224e+01    1.020743e+00
  2.656399e+01    9.914085e-01
  2.659574e+01    9.660554e-01
  2.662749e+01    9.748916e-01
  2.665924e+01    9.837924e-01
  2.669100e+01    9.609113e-01
  2.672275e+01    9.838777e-01
  2.675450e+01    9.646181e-01
  2.678625e+01    9.882132e-01
  2.681800e+01    9.812549e-01
  2.684975e+01    9.644103e-01
  2.688150e+01    9.780676e-01
  2.691325e+01    1.003186e+00
  2.694501e+01    1.033268e+00
  2.697676e+01    1.064088e+00
  2.700851e+01    1.108657e+00
  2.704026e+01    1.191023e+00
  2.707201e+01    1.322854e+00
  2.710376e+01    1.465142e+00
  2.713551e+01    1.721122e+00
  2.716726e+01    1.951790e+00
  2.719901e+01    2.113307e+00
  2.723077e+01    2.158935e+00
  2.726252e+01    1.976754e+00
  2.729427e+01    1.699291e+00
  2.732602e+01    1.449546e+00
  2.735777e+01    1.333235e+00
  2.738952e+01    1.162564e+00
  2.742127e+01    1.103702e+00
  2.745302e+01    1.037803e+00
  2.748477e+01    1.013255e+00
  2.751653e+01    9.909005e-01
  2.754828e+01    9.922505e-01
  2.758003e+01    9.494040e-01
  2.761178e+01    9.055048e-01
  2.764353e+01    9.382499e-01
  2.767528e+01    9.082418e-01
  2.770703e+01    9.164702e-01
  2.773878e+01    9.138480e-01
  2.777054e+01    8.852169e-01
  2.780229e+01    8.820099e-01
  2.783404e+01    8.807517e-01
  2.786579e+01    8.566258e-01
  2.789754e+01    8.802139e-01
  2.792929e+01    8.793296e-01
  2.796104e+01    8.848565e-01
  2.799279e+01    8.755589e-01
  2.802454e+01    8.655691e-01
  2.805630e+01    8.615611e-01
  2.808805e+01    8.783612e-01
  2.811980e+01    8.639467e-01
  2.815155e+01    8.430566e-01
  2.818330e+01    8.773822e-01
  2.821505e+01    8.797235e-01
  2.824680e+01    8.384604e-01
  2.827855e+01    8.724990e-01
  2.831030e+01    8.472029e-01
  2.834206e+01    8.541366e-01
  2.837381e+01    8.527159e-01
  2.840556e+01    8.556562e-01
  2.843731e+01    8.308895e-01
  2.846906e+01    8.358058e-01
  2.850081e+01    8.268881e-01
  2.853256e+01    8.469133e-01
  2.856431e+01    8.482889e-01
  2.859606e+01    8.235334e-01
  2.862782e+01    8.642797e-01
  2.865957e+01    8.269556e-01
  2.869132e+01    8.219110e-01
  2.872307e+01    8.300655e-01
  2.875482e+01    8.147176e-01
  2.878657e+01    8.271501e-01
  2.881832e+01    8.486949e-01
  2.885007e+01    8.079431e-01
  2.888183e+01    8.416053e-01
  2.891358e+01    8.324590e-01
  2.894533e+01    8.190612e-01
  2.897708e+01    8.299557e-01
  2.900883e+01    8.444745e-01
  2.904058e+01    8.346884e-01
  2.907233e+01    8.070891e-01
  2.910408e+01    8.232415e-01
  2.913583e+01    8.038879e-01
  2.916759e+01    8.277087e-01
  2.919934e+01    8.070471e-01
  2.923109e+01    8.073156e-01
  2.926284e+01    8.167052e-01
  2.929459e+01    8.142348e-01
  2.932634e+01    8.231395e-01
  2.935809e+01    8.392547e-01
  2.938984e+01    8.115951e-01
  2.942159e+01    7.964781e-01
  2.945335e+01    7.991807e-01
  2.948510e+01    8.013590e-01
  2.951685e+01    8.046597e-01
  2.954860e+01    7.901917e-01
  2.958035e+01    8.067839e-01
  2.961210e+01    8.214936e-01
  2.964385e+01    8.096494e-01
  2.967560e+01    7.833894e-01
  2.970736e+01    8.078176e-01
  2.973911e+01    8.117250e-01
  2.977086e+01    8.135981e-01
  2.980261e+01    8.037679e-01
  2.983436e+01    8.002501e-01
  2.986611e+01    8.070341e-01
  2.989786e+01    7.913221e-01
  2.992961e+01    8.129811e-01
  2.996136e+01    8.065056e-01
  2.999312e+01    7.967839e-01
  3.002487e+01    7.983088e-01
  3.005662e+01    8.169383e-01
  3.008837e+01    8.028131e-01
  3.012012e+01    8.004388e-01
  3.015187e+01    8.026308e-01
  3.018362e+01    7.904963e-01
  3.021537e+01    7.868618e-01
  3.024712e+01    7.699994e-01
  3.027888e+01    7.960724e-01
  3.031063e+01    7.811761e-01
  3.034238e+01    7.522665e-01
  3.037413e+01    7.805666e-01
  3.040588e+01    7.891837e-01
  3.043763e+01    7.927269e-01
  3.046938e+01    8.016227e-01
  3.050113e+01    7.916728e-01
  3.053288e+01    7.852272e-01
  3.056464e+01    7.738895e-01
  3.059639e+01    7.774137e-01
  3.062814e+01    8.014063e-01
  3.065989e+01    8.047881e-01
  3.069164e+01    7.660745e-01
  3.072339e+01    7.884781e-01
  3.075514e+01    7.626646e-01
  3.078689e+01    8.017300e-01
  3.081865e+01    7.849607e-01
  3.085040e+01    7.840518e-01
  3.088215e+01    7.793653e-01
  3.091390e+01    7.868721e-01
  3.094565e+01    7.695105e-01
  3.097740e+01    7.869486e-01
  3.100915e+01    7.955146e-01
  3.104090e+01    8.103014e-01
  3.107265e+01    7.919766e-01
  3.110441e+01    7.717047e-01
  3.113616e+01    8.100609e-01
  3.116791e+01    7.955895e-01
  3.119966e+01    8.050508e-01
  3.123141e+01    7.949105e-01
  3.126316e+01    8.050399e-01
  3.129491e+01    8.106301e-01
  3.132666e+01    7.919266e-01
  3.135841e+01    7.818227e-01
  3.139017e+01    8.007463e-01
  3.142192e+01    8.325694e-01
  3.145367e+01    8.066311e-01
  3.148542e+01    8.220825e-01
  3.151717e+01    8.536647e-01
  3.154892e+01    8.382445e-01
  3.158067e+01    8.658975e-01
  3.161242e+01    8.826450e-01
  3.164418e+01    9.368178e-01
  3.167593e+01    9.320304e-01
  3.170768e+01    1.003498e+00
  3.173943e+01    1.129321e+00
  3.177118e+01    1.234881e+00
  3.180293e+01    1.465333e+00
  3.183468e+01    1.675851e+00
  3.186643e+01    1.942776e+00
  3.189818e+01    2.117635e+00
  3.192994e+01    2.012784e+00
  3.196169e+01    1.787975e+00
  3.199344e+01    1.535182e+00
  3.202519e+01    1.331283e+00
  3.205694e+01    1.158538e+00
  3.208869e+01    1.027332e+00
  3.212044e+01    9.734028e-01
  3.215219e+01    9.093393e-01
  3.218394e+01    8.793706e-01
  3.221570e+01    8.575030e-01
  3.224745e+01    8.516304e-01
  3.227920e+01    8.289675e-01
  3.231095e+01    8.158660e-01
  3.234270e+01    7.918601e-01
  3.237445e+01    8.058751e-01
  3.240620e+01    7.830558e-01
  3.243795e+01    7.827296e-01
  3.246970e+01    7.570084e-01
  3.250146e+01    7.450225e-01
  3.253321e+01    7.721990e-01
  3.254908e+01    7.430491e-01