File: XRD/Reaction conditions/2024-07-27_003_Ru-CGO-ex_Reaction_dwell_000023_data_000133.dat
# == pyFAI calibration ==
# Distance Sample to Detector: 0.4 m
# PONI: 9.750e-02, 1.135e-01 m
# Rotations: -0.000175 0.000000 -0.000000 rad
#
# == Fit2d calibration ==
# Distance Sample-beamCenter: 400.000 mm
# Center: x=1514.000, y=1300.000 pix
# Tilt: 0.010 deg  TiltPlanRot: 0.010 deg
#
# Detector Detector	 Spline= None	 PixelSize= 7.500e-05, 7.500e-05 m
#    Detector has a mask: False
#    Detector has a dark current: False
#    detector has a flat field: False
#
# Wavelength: 6.888e-11 m
# Mask applied: user provided
# Dark current applied: False
# Flat field applied: False
# Polarization factor: 0.99
# Normalization factor: 1.0
# --> /home/myspot/data/2024_07_Rosario/Ru-CGO-ex/2024-07-27_003_Ru-CGO-ex_Reaction_dwell_000023_data_000133.dat
#       q_nm^-1             I
  2.003187e-02    1.424646e-01
  5.178302e-02    7.451738e-02
  8.353417e-02    1.379245e-01
  1.152853e-01    1.038401e-01
  1.470365e-01    2.606039e-02
  1.787876e-01    2.078079e-02
  2.105388e-01    4.848365e-02
  2.422899e-01    2.126491e-02
  2.740411e-01    4.550103e-02
  3.057922e-01    4.426540e-02
  3.375433e-01    1.998535e-02
  3.692945e-01    3.305097e-02
  4.010456e-01    6.559672e-02
  4.327968e-01    7.652459e-02
  4.645479e-01    4.287158e-02
  4.962991e-01    5.071634e-02
  5.280502e-01    4.102847e-02
  5.598014e-01    5.650999e-02
  5.915525e-01    6.234323e-02
  6.233037e-01    3.947035e-02
  6.550548e-01    1.633296e-02
  6.868060e-01    1.617809e-02
  7.185571e-01    3.772553e-02
  7.503083e-01    5.281201e-02
  7.820594e-01    9.720356e-02
  8.138106e-01    1.965044e-01
  8.455617e-01    4.455289e-01
  8.773129e-01    4.511541e-01
  9.090640e-01    6.327676e-01
  9.408152e-01    8.380455e-01
  9.725663e-01    1.089143e+00
  1.004317e+00    1.136423e+00
  1.036069e+00    1.373211e+00
  1.067820e+00    1.440872e+00
  1.099571e+00    1.655700e+00
  1.131322e+00    1.762339e+00
  1.163073e+00    1.692980e+00
  1.194824e+00    1.936930e+00
  1.226575e+00    2.251128e+00
  1.258327e+00    2.446727e+00
  1.290078e+00    2.730959e+00
  1.321829e+00    2.803380e+00
  1.353580e+00    2.646308e+00
  1.385331e+00    2.887643e+00
  1.417082e+00    2.823889e+00
  1.448834e+00    3.030733e+00
  1.480585e+00    3.125923e+00
  1.512336e+00    3.175580e+00
  1.544087e+00    3.205565e+00
  1.575838e+00    3.254300e+00
  1.607589e+00    3.237505e+00
  1.639340e+00    3.124881e+00
  1.671092e+00    3.084774e+00
  1.702843e+00    2.987825e+00
  1.734594e+00    3.080204e+00
  1.766345e+00    3.057145e+00
  1.798096e+00    3.102957e+00
  1.829847e+00    3.082045e+00
  1.861598e+00    3.057624e+00
  1.893350e+00    2.976538e+00
  1.925101e+00    3.135565e+00
  1.956852e+00    2.991065e+00
  1.988603e+00    3.204314e+00
  2.020354e+00    3.004185e+00
  2.052105e+00    3.210515e+00
  2.083856e+00    3.154341e+00
  2.115608e+00    3.152183e+00
  2.147359e+00    3.149805e+00
  2.179110e+00    2.997660e+00
  2.210861e+00    3.049282e+00
  2.242612e+00    3.122063e+00
  2.274363e+00    3.146273e+00
  2.306115e+00    3.195936e+00
  2.337866e+00    3.115430e+00
  2.369617e+00    3.206856e+00
  2.401368e+00    3.110363e+00
  2.433119e+00    3.244552e+00
  2.464870e+00    3.223645e+00
  2.496621e+00    3.217842e+00
  2.528373e+00    3.287177e+00
  2.560124e+00    3.283786e+00
  2.591875e+00    3.327070e+00
  2.623626e+00    3.331220e+00
  2.655377e+00    3.277525e+00
  2.687128e+00    3.246508e+00
  2.718879e+00    3.184799e+00
  2.750631e+00    3.250761e+00
  2.782382e+00    3.286604e+00
  2.814133e+00    3.286003e+00
  2.845884e+00    3.322798e+00
  2.877635e+00    3.313706e+00
  2.909386e+00    3.334816e+00
  2.941137e+00    3.396743e+00
  2.972889e+00    3.328865e+00
  3.004640e+00    3.486953e+00
  3.036391e+00    3.360711e+00
  3.068142e+00    3.287897e+00
  3.099893e+00    3.328245e+00
  3.131644e+00    3.374156e+00
  3.163395e+00    3.426365e+00
  3.195147e+00    3.348510e+00
  3.226898e+00    3.424875e+00
  3.258649e+00    3.498127e+00
  3.290400e+00    3.363810e+00
  3.322151e+00    3.370720e+00
  3.353902e+00    3.404387e+00
  3.385654e+00    3.393470e+00
  3.417405e+00    3.594070e+00
  3.449156e+00    3.511910e+00
  3.480907e+00    3.507567e+00
  3.512658e+00    3.466892e+00
  3.544409e+00    3.445263e+00
  3.576160e+00    3.488273e+00
  3.607912e+00    3.474033e+00
  3.639663e+00    3.369004e+00
  3.671414e+00    3.411761e+00
  3.703165e+00    3.436156e+00
  3.734916e+00    3.475331e+00
  3.766667e+00    3.558595e+00
  3.798418e+00    3.523177e+00
  3.830170e+00    3.590064e+00
  3.861921e+00    3.518917e+00
  3.893672e+00    3.531780e+00
  3.925423e+00    3.545908e+00
  3.957174e+00    3.527966e+00
  3.988925e+00    3.559385e+00
  4.020676e+00    3.542364e+00
  4.052428e+00    3.488668e+00
  4.084179e+00    3.510629e+00
  4.115930e+00    3.497798e+00
  4.147681e+00    3.494789e+00
  4.179432e+00    3.597658e+00
  4.211183e+00    3.579229e+00
  4.242935e+00    3.615617e+00
  4.274686e+00    3.614519e+00
  4.306437e+00    3.641814e+00
  4.338188e+00    3.551200e+00
  4.369939e+00    3.509838e+00
  4.401690e+00    3.599584e+00
  4.433441e+00    3.699762e+00
  4.465193e+00    3.645334e+00
  4.496944e+00    3.587819e+00
  4.528695e+00    3.627938e+00
  4.560446e+00    3.574270e+00
  4.592197e+00    3.563695e+00
  4.623948e+00    3.581548e+00
  4.655699e+00    3.507616e+00
  4.687451e+00    3.695373e+00
  4.719202e+00    3.662843e+00
  4.750953e+00    3.598173e+00
  4.782704e+00    3.705479e+00
  4.814455e+00    3.677203e+00
  4.846206e+00    3.667934e+00
  4.877957e+00    3.706288e+00
  4.909709e+00    3.644072e+00
  4.941460e+00    3.666305e+00
  4.973211e+00    3.698219e+00
  5.004962e+00    3.666987e+00
  5.036713e+00    3.654221e+00
  5.068464e+00    3.646943e+00
  5.100216e+00    3.668298e+00
  5.131967e+00    3.665766e+00
  5.163718e+00    3.661917e+00
  5.195469e+00    3.737987e+00
  5.227220e+00    3.710563e+00
  5.258971e+00    3.682338e+00
  5.290722e+00    3.757979e+00
  5.322474e+00    3.768632e+00
  5.354225e+00    3.752580e+00
  5.385976e+00    3.591876e+00
  5.417727e+00    3.808969e+00
  5.449478e+00    3.657271e+00
  5.481229e+00    3.558624e+00
  5.512980e+00    3.591863e+00
  5.544732e+00    3.613242e+00
  5.576483e+00    3.620385e+00
  5.608234e+00    3.644319e+00
  5.639985e+00    3.669930e+00
  5.671736e+00    3.665366e+00
  5.703487e+00    3.663370e+00
  5.735238e+00    3.558481e+00
  5.766990e+00    3.554163e+00
  5.798741e+00    3.476684e+00
  5.830492e+00    3.595281e+00
  5.862243e+00    3.433907e+00
  5.893994e+00    3.624994e+00
  5.925745e+00    3.522664e+00
  5.957497e+00    3.539219e+00
  5.989248e+00    3.590517e+00
  6.020999e+00    3.482531e+00
  6.052750e+00    3.603514e+00
  6.084501e+00    3.679579e+00
  6.116252e+00    3.638742e+00
  6.148003e+00    3.598749e+00
  6.179755e+00    3.544144e+00
  6.211506e+00    3.534231e+00
  6.243257e+00    3.506261e+00
  6.275008e+00    3.602928e+00
  6.306759e+00    3.584517e+00
  6.338510e+00    3.585609e+00
  6.370261e+00    3.582992e+00
  6.402013e+00    3.547974e+00
  6.433764e+00    3.537440e+00
  6.465515e+00    3.553713e+00
  6.497266e+00    3.529715e+00
  6.529017e+00    3.562793e+00
  6.560768e+00    3.551663e+00
  6.592519e+00    3.512597e+00
  6.624271e+00    3.626141e+00
  6.656022e+00    3.564896e+00
  6.687773e+00    3.435356e+00
  6.719524e+00    3.618459e+00
  6.751275e+00    3.592177e+00
  6.783026e+00    3.528247e+00
  6.814777e+00    3.633014e+00
  6.846529e+00    3.628248e+00
  6.878280e+00    3.602252e+00
  6.910031e+00    3.532461e+00
  6.941782e+00    3.514908e+00
  6.973533e+00    3.563038e+00
  7.005284e+00    3.586017e+00
  7.037036e+00    3.495167e+00
  7.068787e+00    3.570011e+00
  7.100538e+00    3.535285e+00
  7.132289e+00    3.552100e+00
  7.164040e+00    3.601293e+00
  7.195791e+00    3.559012e+00
  7.227542e+00    3.508707e+00
  7.259294e+00    3.517266e+00
  7.291045e+00    3.467388e+00
  7.322796e+00    3.497991e+00
  7.354547e+00    3.568306e+00
  7.386298e+00    3.556446e+00
  7.418049e+00    3.532746e+00
  7.449800e+00    3.503285e+00
  7.481552e+00    3.466937e+00
  7.513303e+00    3.549314e+00
  7.545054e+00    3.457799e+00
  7.576805e+00    3.468844e+00
  7.608556e+00    3.515399e+00
  7.640307e+00    3.485109e+00
  7.672058e+00    3.405406e+00
  7.703810e+00    3.514043e+00
  7.735561e+00    3.541449e+00
  7.767312e+00    3.496623e+00
  7.799063e+00    3.437483e+00
  7.830814e+00    3.427169e+00
  7.862565e+00    3.485894e+00
  7.894317e+00    3.475847e+00
  7.926068e+00    3.413950e+00
  7.957819e+00    3.412520e+00
  7.989570e+00    3.359702e+00
  8.021321e+00    3.523384e+00
  8.053072e+00    3.411226e+00
  8.084823e+00    3.443525e+00
  8.116575e+00    3.439307e+00
  8.148326e+00    3.447698e+00
  8.180077e+00    3.448507e+00
  8.211828e+00    3.459982e+00
  8.243579e+00    3.418767e+00
  8.275330e+00    3.388855e+00
  8.307081e+00    3.383762e+00
  8.338833e+00    3.388416e+00
  8.370584e+00    3.450356e+00
  8.402335e+00    3.354130e+00
  8.434086e+00    3.401979e+00
  8.465837e+00    3.398570e+00
  8.497588e+00    3.352441e+00
  8.529339e+00    3.307383e+00
  8.561091e+00    3.352371e+00
  8.592842e+00    3.347935e+00
  8.624593e+00    3.388019e+00
  8.656344e+00    3.374889e+00
  8.688095e+00    3.318343e+00
  8.719846e+00    3.403230e+00
  8.751598e+00    3.342259e+00
  8.783349e+00    3.378501e+00
  8.815100e+00    3.292369e+00
  8.846851e+00    3.367616e+00
  8.878602e+00    3.326480e+00
  8.910353e+00    3.273503e+00
  8.942104e+00    3.347279e+00
  8.973856e+00    3.248197e+00
  9.005607e+00    3.267702e+00
  9.037358e+00    3.248821e+00
  9.069109e+00    3.240376e+00
  9.100860e+00    3.231512e+00
  9.132611e+00    3.289277e+00
  9.164362e+00    3.263431e+00
  9.196114e+00    3.295264e+00
  9.227865e+00    3.270339e+00
  9.259616e+00    3.265625e+00
  9.291367e+00    3.313990e+00
  9.323118e+00    3.276257e+00
  9.354869e+00    3.313926e+00
  9.386620e+00    3.234400e+00
  9.418372e+00    3.239955e+00
  9.450123e+00    3.239055e+00
  9.481874e+00    3.203043e+00
  9.513625e+00    3.258035e+00
  9.545376e+00    3.282920e+00
  9.577127e+00    3.270494e+00
  9.608878e+00    3.193587e+00
  9.640630e+00    3.181530e+00
  9.672381e+00    3.145147e+00
  9.704132e+00    3.208722e+00
  9.735883e+00    3.139111e+00
  9.767634e+00    3.156395e+00
  9.799385e+00    3.194505e+00
  9.831137e+00    3.161610e+00
  9.862888e+00    3.181504e+00
  9.894639e+00    3.167711e+00
  9.926390e+00    3.181138e+00
  9.958141e+00    3.191456e+00
  9.989892e+00    3.159363e+00
  1.002164e+01    3.150862e+00
  1.005339e+01    3.156749e+00
  1.008515e+01    3.093528e+00
  1.011690e+01    3.068428e+00
  1.014865e+01    3.077220e+00
  1.018040e+01    3.052169e+00
  1.021215e+01    3.076431e+00
  1.024390e+01    3.084452e+00
  1.027565e+01    3.091779e+00
  1.030740e+01    3.021640e+00
  1.033915e+01    3.112452e+00
  1.037091e+01    3.017142e+00
  1.040266e+01    3.113885e+00
  1.043441e+01    3.000153e+00
  1.046616e+01    3.074522e+00
  1.049791e+01    3.066509e+00
  1.052966e+01    3.073441e+00
  1.056141e+01    3.032911e+00
  1.059316e+01    3.033967e+00
  1.062492e+01    2.955350e+00
  1.065667e+01    2.968976e+00
  1.068842e+01    3.023416e+00
  1.072017e+01    2.966736e+00
  1.075192e+01    2.907319e+00
  1.078367e+01    2.962036e+00
  1.081542e+01    2.956156e+00
  1.084717e+01    2.967108e+00
  1.087892e+01    2.965360e+00
  1.091068e+01    2.928468e+00
  1.094243e+01    2.927055e+00
  1.097418e+01    2.954142e+00
  1.100593e+01    2.893124e+00
  1.103768e+01    2.864591e+00
  1.106943e+01    2.895891e+00
  1.110118e+01    2.885111e+00
  1.113293e+01    2.867090e+00
  1.116468e+01    2.900149e+00
  1.119644e+01    2.867916e+00
  1.122819e+01    2.884593e+00
  1.125994e+01    2.870075e+00
  1.129169e+01    2.847000e+00
  1.132344e+01    2.882107e+00
  1.135519e+01    2.830227e+00
  1.138694e+01    2.826346e+00
  1.141869e+01    2.784492e+00
  1.145045e+01    2.802571e+00
  1.148220e+01    2.835412e+00
  1.151395e+01    2.775931e+00
  1.154570e+01    2.769983e+00
  1.157745e+01    2.815999e+00
  1.160920e+01    2.815153e+00
  1.164095e+01    2.754222e+00
  1.167270e+01    2.753713e+00
  1.170445e+01    2.803513e+00
  1.173621e+01    2.753793e+00
  1.176796e+01    2.788229e+00
  1.179971e+01    2.817428e+00
  1.183146e+01    2.726791e+00
  1.186321e+01    2.792147e+00
  1.189496e+01    2.724795e+00
  1.192671e+01    2.722180e+00
  1.195846e+01    2.679986e+00
  1.199021e+01    2.753016e+00
  1.202197e+01    2.705215e+00
  1.205372e+01    2.727019e+00
  1.208547e+01    2.672760e+00
  1.211722e+01    2.714973e+00
  1.214897e+01    2.724408e+00
  1.218072e+01    2.699686e+00
  1.221247e+01    2.683632e+00
  1.224422e+01    2.693374e+00
  1.227597e+01    2.671794e+00
  1.230773e+01    2.697828e+00
  1.233948e+01    2.709364e+00
  1.237123e+01    2.716674e+00
  1.240298e+01    2.752520e+00
  1.243473e+01    2.687680e+00
  1.246648e+01    2.715995e+00
  1.249823e+01    2.742900e+00
  1.252998e+01    2.716696e+00
  1.256174e+01    2.722026e+00
  1.259349e+01    2.737339e+00
  1.262524e+01    2.738308e+00
  1.265699e+01    2.832811e+00
  1.268874e+01    2.804389e+00
  1.272049e+01    2.824024e+00
  1.275224e+01    2.925866e+00
  1.278399e+01    2.935848e+00
  1.281574e+01    3.054292e+00
  1.284750e+01    3.215397e+00
  1.287925e+01    3.420462e+00
  1.291100e+01    3.624665e+00
  1.294275e+01    4.096767e+00
  1.297450e+01    4.751019e+00
  1.300625e+01    5.914259e+00
  1.303800e+01    7.691315e+00
  1.306975e+01    1.015801e+01
  1.310150e+01    1.257836e+01
  1.313326e+01    1.468599e+01
  1.316501e+01    1.620458e+01
  1.319676e+01    1.573793e+01
  1.322851e+01    1.245538e+01
  1.326026e+01    9.096646e+00
  1.329201e+01    6.759177e+00
  1.332376e+01    5.389606e+00
  1.335551e+01    4.554512e+00
  1.338727e+01    3.884679e+00
  1.341902e+01    3.520093e+00
  1.345077e+01    3.268686e+00
  1.348252e+01    3.062470e+00
  1.351427e+01    2.930146e+00
  1.354602e+01    2.862967e+00
  1.357777e+01    2.776131e+00
  1.360952e+01    2.745794e+00
  1.364127e+01    2.581513e+00
  1.367303e+01    2.591824e+00
  1.370478e+01    2.587179e+00
  1.373653e+01    2.502931e+00
  1.376828e+01    2.480093e+00
  1.380003e+01    2.451061e+00
  1.383178e+01    2.484548e+00
  1.386353e+01    2.496691e+00
  1.389528e+01    2.415581e+00
  1.392703e+01    2.424093e+00
  1.395879e+01    2.404615e+00
  1.399054e+01    2.390939e+00
  1.402229e+01    2.373198e+00
  1.405404e+01    2.369265e+00
  1.408579e+01    2.397268e+00
  1.411754e+01    2.319699e+00
  1.414929e+01    2.387593e+00
  1.418104e+01    2.345896e+00
  1.421279e+01    2.336115e+00
  1.424455e+01    2.296238e+00
  1.427630e+01    2.236626e+00
  1.430805e+01    2.270503e+00
  1.433980e+01    2.260033e+00
  1.437155e+01    2.270118e+00
  1.440330e+01    2.227718e+00
  1.443505e+01    2.284847e+00
  1.446680e+01    2.246309e+00
  1.449856e+01    2.189319e+00
  1.453031e+01    2.258474e+00
  1.456206e+01    2.226177e+00
  1.459381e+01    2.180272e+00
  1.462556e+01    2.252970e+00
  1.465731e+01    2.232710e+00
  1.468906e+01    2.211190e+00
  1.472081e+01    2.176284e+00
  1.475256e+01    2.188063e+00
  1.478432e+01    2.211986e+00
  1.481607e+01    2.261768e+00
  1.484782e+01    2.201953e+00
  1.487957e+01    2.240421e+00
  1.491132e+01    2.212562e+00
  1.494307e+01    2.264590e+00
  1.497482e+01    2.413035e+00
  1.500657e+01    2.428311e+00
  1.503832e+01    2.629280e+00
  1.507008e+01    2.863468e+00
  1.510183e+01    3.189679e+00
  1.513358e+01    3.763487e+00
  1.516533e+01    4.493352e+00
  1.519708e+01    5.161798e+00
  1.522883e+01    5.618896e+00
  1.526058e+01    5.778128e+00
  1.529233e+01    5.477263e+00
  1.532409e+01    4.627470e+00
  1.535584e+01    3.789457e+00
  1.538759e+01    3.165698e+00
  1.541934e+01    2.800427e+00
  1.545109e+01    2.525926e+00
  1.548284e+01    2.382861e+00
  1.551459e+01    2.259270e+00
  1.554634e+01    2.156601e+00
  1.557809e+01    2.112424e+00
  1.560985e+01    2.117420e+00
  1.564160e+01    2.065494e+00
  1.567335e+01    2.053050e+00
  1.570510e+01    2.013507e+00
  1.573685e+01    2.018887e+00
  1.576860e+01    1.935552e+00
  1.580035e+01    1.925616e+00
  1.583210e+01    1.957888e+00
  1.586385e+01    1.951549e+00
  1.589561e+01    1.893999e+00
  1.592736e+01    1.904878e+00
  1.595911e+01    1.912578e+00
  1.599086e+01    1.906006e+00
  1.602261e+01    1.876551e+00
  1.605436e+01    1.894152e+00
  1.608611e+01    1.860488e+00
  1.611786e+01    1.865783e+00
  1.614961e+01    1.849205e+00
  1.618137e+01    1.831255e+00
  1.621312e+01    1.809375e+00
  1.624487e+01    1.841364e+00
  1.627662e+01    1.821186e+00
  1.630837e+01    1.833453e+00
  1.634012e+01    1.755541e+00
  1.637187e+01    1.794128e+00
  1.640362e+01    1.779546e+00
  1.643538e+01    1.755758e+00
  1.646713e+01    1.790767e+00
  1.649888e+01    1.782438e+00
  1.653063e+01    1.735672e+00
  1.656238e+01    1.734181e+00
  1.659413e+01    1.732841e+00
  1.662588e+01    1.738843e+00
  1.665763e+01    1.753971e+00
  1.668938e+01    1.739729e+00
  1.672114e+01    1.724817e+00
  1.675289e+01    1.719460e+00
  1.678464e+01    1.710685e+00
  1.681639e+01    1.679294e+00
  1.684814e+01    1.737311e+00
  1.687989e+01    1.677590e+00
  1.691164e+01    1.669298e+00
  1.694339e+01    1.662874e+00
  1.697514e+01    1.660637e+00
  1.700690e+01    1.663245e+00
  1.703865e+01    1.661298e+00
  1.707040e+01    1.658741e+00
  1.710215e+01    1.641522e+00
  1.713390e+01    1.668972e+00
  1.716565e+01    1.684799e+00
  1.719740e+01    1.654113e+00
  1.722915e+01    1.624896e+00
  1.726091e+01    1.630460e+00
  1.729266e+01    1.601759e+00
  1.732441e+01    1.628288e+00
  1.735616e+01    1.626379e+00
  1.738791e+01    1.595564e+00
  1.741966e+01    1.620588e+00
  1.745141e+01    1.598998e+00
  1.748316e+01    1.586208e+00
  1.751491e+01    1.606513e+00
  1.754667e+01    1.586037e+00
  1.757842e+01    1.575714e+00
  1.761017e+01    1.527412e+00
  1.764192e+01    1.599664e+00
  1.767367e+01    1.573384e+00
  1.770542e+01    1.555034e+00
  1.773717e+01    1.539178e+00
  1.776892e+01    1.542686e+00
  1.780067e+01    1.572647e+00
  1.783243e+01    1.515995e+00
  1.786418e+01    1.558529e+00
  1.789593e+01    1.524184e+00
  1.792768e+01    1.500856e+00
  1.795943e+01    1.557620e+00
  1.799118e+01    1.505569e+00
  1.802293e+01    1.513252e+00
  1.805468e+01    1.505502e+00
  1.808643e+01    1.506195e+00
  1.811819e+01    1.505367e+00
  1.814994e+01    1.522940e+00
  1.818169e+01    1.510627e+00
  1.821344e+01    1.467405e+00
  1.824519e+01    1.471292e+00
  1.827694e+01    1.476041e+00
  1.830869e+01    1.483750e+00
  1.834044e+01    1.451171e+00
  1.837220e+01    1.473698e+00
  1.840395e+01    1.456748e+00
  1.843570e+01    1.409011e+00
  1.846745e+01    1.461179e+00
  1.849920e+01    1.441902e+00
  1.853095e+01    1.478714e+00
  1.856270e+01    1.443413e+00
  1.859445e+01    1.442564e+00
  1.862620e+01    1.426715e+00
  1.865796e+01    1.447611e+00
  1.868971e+01    1.450634e+00
  1.872146e+01    1.450677e+00
  1.875321e+01    1.431520e+00
  1.878496e+01    1.410513e+00
  1.881671e+01    1.383385e+00
  1.884846e+01    1.406893e+00
  1.888021e+01    1.423020e+00
  1.891196e+01    1.398464e+00
  1.894372e+01    1.380321e+00
  1.897547e+01    1.404509e+00
  1.900722e+01    1.379670e+00
  1.903897e+01    1.392011e+00
  1.907072e+01    1.388683e+00
  1.910247e+01    1.380614e+00
  1.913422e+01    1.398556e+00
  1.916597e+01    1.376586e+00
  1.919773e+01    1.383762e+00
  1.922948e+01    1.353945e+00
  1.926123e+01    1.361390e+00
  1.929298e+01    1.379076e+00
  1.932473e+01    1.364741e+00
  1.935648e+01    1.338405e+00
  1.938823e+01    1.359496e+00
  1.941998e+01    1.323418e+00
  1.945173e+01    1.321947e+00
  1.948349e+01    1.353977e+00
  1.951524e+01    1.359674e+00
  1.954699e+01    1.301804e+00
  1.957874e+01    1.327122e+00
  1.961049e+01    1.295010e+00
  1.964224e+01    1.342221e+00
  1.967399e+01    1.325296e+00
  1.970574e+01    1.281192e+00
  1.973749e+01    1.339916e+00
  1.976925e+01    1.304416e+00
  1.980100e+01    1.285621e+00
  1.983275e+01    1.315749e+00
  1.986450e+01    1.305748e+00
  1.989625e+01    1.301107e+00
  1.992800e+01    1.277780e+00
  1.995975e+01    1.299779e+00
  1.999150e+01    1.267536e+00
  2.002325e+01    1.258210e+00
  2.005501e+01    1.301699e+00
  2.008676e+01    1.290223e+00
  2.011851e+01    1.263548e+00
  2.015026e+01    1.259112e+00
  2.018201e+01    1.276283e+00
  2.021376e+01    1.265103e+00
  2.024551e+01    1.289953e+00
  2.027726e+01    1.272938e+00
  2.030902e+01    1.273012e+00
  2.034077e+01    1.252617e+00
  2.037252e+01    1.268791e+00
  2.040427e+01    1.266104e+00
  2.043602e+01    1.253536e+00
  2.046777e+01    1.239078e+00
  2.049952e+01    1.238912e+00
  2.053127e+01    1.267384e+00
  2.056302e+01    1.226252e+00
  2.059478e+01    1.241012e+00
  2.062653e+01    1.258396e+00
  2.065828e+01    1.233816e+00
  2.069003e+01    1.243190e+00
  2.072178e+01    1.238924e+00
  2.075353e+01    1.217243e+00
  2.078528e+01    1.219187e+00
  2.081703e+01    1.237168e+00
  2.084878e+01    1.259679e+00
  2.088054e+01    1.212847e+00
  2.091229e+01    1.238569e+00
  2.094404e+01    1.236030e+00
  2.097579e+01    1.243135e+00
  2.100754e+01    1.213669e+00
  2.103929e+01    1.246594e+00
  2.107104e+01    1.216440e+00
  2.110279e+01    1.231151e+00
  2.113455e+01    1.225632e+00
  2.116630e+01    1.239863e+00
  2.119805e+01    1.249841e+00
  2.122980e+01    1.236443e+00
  2.126155e+01    1.239272e+00
  2.129330e+01    1.240339e+00
  2.132505e+01    1.272872e+00
  2.135680e+01    1.269661e+00
  2.138855e+01    1.305853e+00
  2.142031e+01    1.355476e+00
  2.145206e+01    1.341085e+00
  2.148381e+01    1.413757e+00
  2.151556e+01    1.439361e+00
  2.154731e+01    1.515839e+00
  2.157906e+01    1.628790e+00
  2.161081e+01    1.752988e+00
  2.164256e+01    1.980686e+00
  2.167431e+01    2.311790e+00
  2.170607e+01    2.736825e+00
  2.173782e+01    3.527582e+00
  2.176957e+01    4.564569e+00
  2.180132e+01    5.881314e+00
  2.183307e+01    7.113695e+00
  2.186482e+01    8.372972e+00
  2.189657e+01    8.850766e+00
  2.192832e+01    8.254851e+00
  2.196007e+01    6.622330e+00
  2.199183e+01    4.854466e+00
  2.202358e+01    3.665987e+00
  2.205533e+01    2.846708e+00
  2.208708e+01    2.314668e+00
  2.211883e+01    2.004168e+00
  2.215058e+01    1.783934e+00
  2.218233e+01    1.621381e+00
  2.221408e+01    1.504393e+00
  2.224584e+01    1.403091e+00
  2.227759e+01    1.357786e+00
  2.230934e+01    1.304635e+00
  2.234109e+01    1.245592e+00
  2.237284e+01    1.238168e+00
  2.240459e+01    1.211675e+00
  2.243634e+01    1.179877e+00
  2.246809e+01    1.166118e+00
  2.249984e+01    1.169362e+00
  2.253160e+01    1.124937e+00
  2.256335e+01    1.108805e+00
  2.259510e+01    1.109220e+00
  2.262685e+01    1.111812e+00
  2.265860e+01    1.076038e+00
  2.269035e+01    1.100333e+00
  2.272210e+01    1.082431e+00
  2.275385e+01    1.082048e+00
  2.278560e+01    1.053888e+00
  2.281736e+01    1.048444e+00
  2.284911e+01    1.038657e+00
  2.288086e+01    1.044646e+00
  2.291261e+01    1.041961e+00
  2.294436e+01    1.035931e+00
  2.297611e+01    1.033862e+00
  2.300786e+01    1.029377e+00
  2.303961e+01    1.016209e+00
  2.307137e+01    9.858437e-01
  2.310312e+01    1.011243e+00
  2.313487e+01    1.027170e+00
  2.316662e+01    1.017729e+00
  2.319837e+01    1.011312e+00
  2.323012e+01    1.016200e+00
  2.326187e+01    9.909895e-01
  2.329362e+01    9.813952e-01
  2.332537e+01    9.808984e-01
  2.335713e+01    9.649208e-01
  2.338888e+01    9.521040e-01
  2.342063e+01    9.818295e-01
  2.345238e+01    9.699057e-01
  2.348413e+01    9.797471e-01
  2.351588e+01    9.766532e-01
  2.354763e+01    9.583873e-01
  2.357938e+01    9.639259e-01
  2.361113e+01    9.800061e-01
  2.364289e+01    9.728912e-01
  2.367464e+01    9.613002e-01
  2.370639e+01    9.380527e-01
  2.373814e+01    9.430858e-01
  2.376989e+01    8.974153e-01
  2.380164e+01    9.260819e-01
  2.383339e+01    9.374533e-01
  2.386514e+01    9.154504e-01
  2.389689e+01    9.036466e-01
  2.392865e+01    8.980954e-01
  2.396040e+01    9.115125e-01
  2.399215e+01    9.163857e-01
  2.402390e+01    9.037207e-01
  2.405565e+01    8.973484e-01
  2.408740e+01    9.189820e-01
  2.411915e+01    8.889904e-01
  2.415090e+01    9.075063e-01
  2.418266e+01    8.764343e-01
  2.421441e+01    9.067779e-01
  2.424616e+01    8.823057e-01
  2.427791e+01    8.975799e-01
  2.430966e+01    8.757048e-01
  2.434141e+01    8.734133e-01
  2.437316e+01    8.979485e-01
  2.440491e+01    8.994361e-01
  2.443666e+01    8.865343e-01
  2.446842e+01    8.892906e-01
  2.450017e+01    8.932415e-01
  2.453192e+01    8.850478e-01
  2.456367e+01    8.993220e-01
  2.459542e+01    8.792996e-01
  2.462717e+01    9.017733e-01
  2.465892e+01    8.984265e-01
  2.469067e+01    8.843403e-01
  2.472242e+01    8.837143e-01
  2.475418e+01    9.026835e-01
  2.478593e+01    8.836161e-01
  2.481768e+01    8.849440e-01
  2.484943e+01    8.998108e-01
  2.488118e+01    8.991410e-01
  2.491293e+01    8.951517e-01
  2.494468e+01    8.908002e-01
  2.497643e+01    9.061913e-01
  2.500819e+01    8.906108e-01
  2.503994e+01    8.884610e-01
  2.507169e+01    8.867157e-01
  2.510344e+01    9.155953e-01
  2.513519e+01    9.189517e-01
  2.516694e+01    9.217157e-01
  2.519869e+01    9.053043e-01
  2.523044e+01    9.501145e-01
  2.526219e+01    9.117041e-01
  2.529395e+01    9.683679e-01
  2.532570e+01    9.699554e-01
  2.535745e+01    9.729577e-01
  2.538920e+01    9.938141e-01
  2.542095e+01    9.951317e-01
  2.545270e+01    1.015967e+00
  2.548445e+01    1.024385e+00
  2.551620e+01    1.100770e+00
  2.554795e+01    1.098202e+00
  2.557971e+01    1.146209e+00
  2.561146e+01    1.217003e+00
  2.564321e+01    1.309550e+00
  2.567496e+01    1.428363e+00
  2.570671e+01    1.600862e+00
  2.573846e+01    1.853731e+00
  2.577021e+01    2.234479e+00
  2.580196e+01    2.775430e+00
  2.583371e+01    3.612383e+00
  2.586547e+01    4.639071e+00
  2.589722e+01    5.858471e+00
  2.592897e+01    6.760643e+00
  2.596072e+01    7.126925e+00
  2.599247e+01    6.528759e+00
  2.602422e+01    5.286100e+00
  2.605597e+01    3.996693e+00
  2.608772e+01    3.008622e+00
  2.611948e+01    2.408102e+00
  2.615123e+01    1.951434e+00
  2.618298e+01    1.668490e+00
  2.621473e+01    1.503497e+00
  2.624648e+01    1.342547e+00
  2.627823e+01    1.257438e+00
  2.630998e+01    1.187533e+00
  2.634173e+01    1.121655e+00
  2.637348e+01    1.088602e+00
  2.640524e+01    1.057617e+00
  2.643699e+01    1.030177e+00
  2.646874e+01    1.016941e+00
  2.650049e+01    1.003454e+00
  2.653224e+01    1.017841e+00
  2.656399e+01    9.783877e-01
  2.659574e+01    9.982870e-01
  2.662749e+01    9.743473e-01
  2.665924e+01    9.913106e-01
  2.669100e+01    9.764737e-01
  2.672275e+01    9.503244e-01
  2.675450e+01    9.688451e-01
  2.678625e+01    9.669894e-01
  2.681800e+01    9.702843e-01
  2.684975e+01    1.000011e+00
  2.688150e+01    9.999713e-01
  2.691325e+01    1.019694e+00
  2.694501e+01    1.016612e+00
  2.697676e+01    1.051088e+00
  2.700851e+01    1.121294e+00
  2.704026e+01    1.210676e+00
  2.707201e+01    1.310180e+00
  2.710376e+01    1.466141e+00
  2.713551e+01    1.712312e+00
  2.716726e+01    1.999151e+00
  2.719901e+01    2.174989e+00
  2.723077e+01    2.165556e+00
  2.726252e+01    1.985210e+00
  2.729427e+01    1.711825e+00
  2.732602e+01    1.431777e+00
  2.735777e+01    1.294880e+00
  2.738952e+01    1.172364e+00
  2.742127e+01    1.130963e+00
  2.745302e+01    1.028712e+00
  2.748477e+01    1.019500e+00
  2.751653e+01    9.722012e-01
  2.754828e+01    9.644595e-01
  2.758003e+01    9.408863e-01
  2.761178e+01    9.179583e-01
  2.764353e+01    9.298389e-01
  2.767528e+01    9.075575e-01
  2.770703e+01    8.890344e-01
  2.773878e+01    9.208738e-01
  2.777054e+01    8.697917e-01
  2.780229e+01    9.013739e-01
  2.783404e+01    8.542672e-01
  2.786579e+01    8.655218e-01
  2.789754e+01    8.951291e-01
  2.792929e+01    8.928151e-01
  2.796104e+01    8.674829e-01
  2.799279e+01    8.372112e-01
  2.802454e+01    8.613326e-01
  2.805630e+01    8.761179e-01
  2.808805e+01    8.481523e-01
  2.811980e+01    8.653196e-01
  2.815155e+01    8.756371e-01
  2.818330e+01    8.481303e-01
  2.821505e+01    8.414558e-01
  2.824680e+01    8.513800e-01
  2.827855e+01    8.543389e-01
  2.831030e+01    8.563836e-01
  2.834206e+01    8.499500e-01
  2.837381e+01    8.490863e-01
  2.840556e+01    8.294621e-01
  2.843731e+01    8.422529e-01
  2.846906e+01    8.392124e-01
  2.850081e+01    8.146387e-01
  2.853256e+01    8.537095e-01
  2.856431e+01    8.635677e-01
  2.859606e+01    8.628934e-01
  2.862782e+01    8.422450e-01
  2.865957e+01    8.173415e-01
  2.869132e+01    8.507421e-01
  2.872307e+01    8.413593e-01
  2.875482e+01    8.255689e-01
  2.878657e+01    8.026833e-01
  2.881832e+01    8.367396e-01
  2.885007e+01    8.185261e-01
  2.888183e+01    7.980784e-01
  2.891358e+01    8.244007e-01
  2.894533e+01    8.347268e-01
  2.897708e+01    8.078666e-01
  2.900883e+01    8.199402e-01
  2.904058e+01    8.279848e-01
  2.907233e+01    8.104668e-01
  2.910408e+01    8.193199e-01
  2.913583e+01    8.176866e-01
  2.916759e+01    8.112004e-01
  2.919934e+01    8.116359e-01
  2.923109e+01    8.145176e-01
  2.926284e+01    8.275549e-01
  2.929459e+01    8.060637e-01
  2.932634e+01    8.102744e-01
  2.935809e+01    7.975580e-01
  2.938984e+01    8.210195e-01
  2.942159e+01    8.090048e-01
  2.945335e+01    7.918712e-01
  2.948510e+01    8.078005e-01
  2.951685e+01    8.181643e-01
  2.954860e+01    8.133821e-01
  2.958035e+01    8.030918e-01
  2.961210e+01    8.197973e-01
  2.964385e+01    8.117486e-01
  2.967560e+01    8.208963e-01
  2.970736e+01    8.039488e-01
  2.973911e+01    8.143853e-01
  2.977086e+01    7.894800e-01
  2.980261e+01    8.158383e-01
  2.983436e+01    8.054762e-01
  2.986611e+01    7.714380e-01
  2.989786e+01    8.093804e-01
  2.992961e+01    7.800866e-01
  2.996136e+01    8.127103e-01
  2.999312e+01    7.970083e-01
  3.002487e+01    8.028273e-01
  3.005662e+01    8.227893e-01
  3.008837e+01    8.214006e-01
  3.012012e+01    8.114225e-01
  3.015187e+01    7.989773e-01
  3.018362e+01    7.958047e-01
  3.021537e+01    7.745399e-01
  3.024712e+01    7.761323e-01
  3.027888e+01    7.850288e-01
  3.031063e+01    7.734740e-01
  3.034238e+01    7.759556e-01
  3.037413e+01    7.755019e-01
  3.040588e+01    7.826794e-01
  3.043763e+01    7.981778e-01
  3.046938e+01    7.918180e-01
  3.050113e+01    8.068283e-01
  3.053288e+01    7.937692e-01
  3.056464e+01    7.775490e-01
  3.059639e+01    7.919124e-01
  3.062814e+01    7.963116e-01
  3.065989e+01    8.019636e-01
  3.069164e+01    7.924088e-01
  3.072339e+01    7.652319e-01
  3.075514e+01    7.713255e-01
  3.078689e+01    7.842888e-01
  3.081865e+01    7.931268e-01
  3.085040e+01    7.856164e-01
  3.088215e+01    7.839078e-01
  3.091390e+01    7.929360e-01
  3.094565e+01    7.980114e-01
  3.097740e+01    7.807654e-01
  3.100915e+01    7.976587e-01
  3.104090e+01    7.864422e-01
  3.107265e+01    7.886614e-01
  3.110441e+01    8.010223e-01
  3.113616e+01    7.797679e-01
  3.116791e+01    7.885504e-01
  3.119966e+01    7.921526e-01
  3.123141e+01    7.882471e-01
  3.126316e+01    8.188639e-01
  3.129491e+01    8.030208e-01
  3.132666e+01    7.898527e-01
  3.135841e+01    7.747674e-01
  3.139017e+01    8.121615e-01
  3.142192e+01    8.040833e-01
  3.145367e+01    8.060225e-01
  3.148542e+01    8.290583e-01
  3.151717e+01    8.104677e-01
  3.154892e+01    8.527468e-01
  3.158067e+01    8.626606e-01
  3.161242e+01    8.572755e-01
  3.164418e+01    9.221574e-01
  3.167593e+01    9.554084e-01
  3.170768e+01    1.034738e+00
  3.173943e+01    1.129633e+00
  3.177118e+01    1.292981e+00
  3.180293e+01    1.477664e+00
  3.183468e+01    1.708127e+00
  3.186643e+01    1.966426e+00
  3.189818e+01    2.097677e+00
  3.192994e+01    2.049401e+00
  3.196169e+01    1.803104e+00
  3.199344e+01    1.552794e+00
  3.202519e+01    1.327945e+00
  3.205694e+01    1.153597e+00
  3.208869e+01    1.019683e+00
  3.212044e+01    9.913040e-01
  3.215219e+01    9.209732e-01
  3.218394e+01    8.942542e-01
  3.221570e+01    8.593445e-01
  3.224745e+01    8.181610e-01
  3.227920e+01    8.236673e-01
  3.231095e+01    8.259971e-01
  3.234270e+01    7.890930e-01
  3.237445e+01    7.981510e-01
  3.240620e+01    7.633560e-01
  3.243795e+01    7.889905e-01
  3.246970e+01    7.748368e-01
  3.250146e+01    7.930194e-01
  3.253321e+01    7.866412e-01
  3.254908e+01    7.997437e-01