File: XRD/Reaction conditions/2024-07-27_003_Ru-CGO-ex_Reaction_dwell_000023_data_000186.dat
# == pyFAI calibration ==
# Distance Sample to Detector: 0.4 m
# PONI: 9.750e-02, 1.135e-01 m
# Rotations: -0.000175 0.000000 -0.000000 rad
#
# == Fit2d calibration ==
# Distance Sample-beamCenter: 400.000 mm
# Center: x=1514.000, y=1300.000 pix
# Tilt: 0.010 deg  TiltPlanRot: 0.010 deg
#
# Detector Detector	 Spline= None	 PixelSize= 7.500e-05, 7.500e-05 m
#    Detector has a mask: False
#    Detector has a dark current: False
#    detector has a flat field: False
#
# Wavelength: 6.888e-11 m
# Mask applied: user provided
# Dark current applied: False
# Flat field applied: False
# Polarization factor: 0.99
# Normalization factor: 1.0
# --> /home/myspot/data/2024_07_Rosario/Ru-CGO-ex/2024-07-27_003_Ru-CGO-ex_Reaction_dwell_000023_data_000186.dat
#       q_nm^-1             I
  2.003187e-02    0.000000e+00
  5.178302e-02    2.137052e-01
  8.353417e-02    9.777845e-02
  1.152853e-01    1.031080e-01
  1.470365e-01    2.548775e-02
  1.787876e-01    0.000000e+00
  2.105388e-01    3.621241e-02
  2.422899e-01    2.998466e-02
  2.740411e-01    1.861152e-02
  3.057922e-01    4.293618e-02
  3.375433e-01    8.602586e-02
  3.692945e-01    4.644011e-02
  4.010456e-01    4.424983e-02
  4.327968e-01    4.772010e-02
  4.645479e-01    4.014540e-02
  4.962991e-01    4.217374e-02
  5.280502e-01    3.158014e-02
  5.598014e-01    2.864240e-02
  5.915525e-01    3.733948e-02
  6.233037e-01    7.539278e-02
  6.550548e-01    4.419165e-02
  6.868060e-01    5.041734e-02
  7.185571e-01    4.279871e-02
  7.503083e-01    5.514842e-02
  7.820594e-01    1.087311e-01
  8.138106e-01    2.566883e-01
  8.455617e-01    3.442675e-01
  8.773129e-01    4.415518e-01
  9.090640e-01    6.636953e-01
  9.408152e-01    7.996563e-01
  9.725663e-01    9.975705e-01
  1.004317e+00    1.163809e+00
  1.036069e+00    1.330516e+00
  1.067820e+00    1.482109e+00
  1.099571e+00    1.494971e+00
  1.131322e+00    1.690000e+00
  1.163073e+00    1.712613e+00
  1.194824e+00    1.788774e+00
  1.226575e+00    2.279752e+00
  1.258327e+00    2.376117e+00
  1.290078e+00    2.503198e+00
  1.321829e+00    2.766574e+00
  1.353580e+00    2.732657e+00
  1.385331e+00    2.873344e+00
  1.417082e+00    2.813906e+00
  1.448834e+00    2.926888e+00
  1.480585e+00    3.153562e+00
  1.512336e+00    3.253151e+00
  1.544087e+00    3.198458e+00
  1.575838e+00    3.195322e+00
  1.607589e+00    3.153996e+00
  1.639340e+00    3.046341e+00
  1.671092e+00    2.974749e+00
  1.702843e+00    3.022993e+00
  1.734594e+00    3.102044e+00
  1.766345e+00    3.089207e+00
  1.798096e+00    3.114829e+00
  1.829847e+00    3.080063e+00
  1.861598e+00    2.993669e+00
  1.893350e+00    3.073883e+00
  1.925101e+00    2.951047e+00
  1.956852e+00    2.989839e+00
  1.988603e+00    3.053716e+00
  2.020354e+00    2.928187e+00
  2.052105e+00    2.956159e+00
  2.083856e+00    3.130162e+00
  2.115608e+00    3.048360e+00
  2.147359e+00    3.025665e+00
  2.179110e+00    3.128370e+00
  2.210861e+00    3.006736e+00
  2.242612e+00    3.033565e+00
  2.274363e+00    3.070713e+00
  2.306115e+00    3.201892e+00
  2.337866e+00    3.090017e+00
  2.369617e+00    3.157796e+00
  2.401368e+00    3.135855e+00
  2.433119e+00    3.239712e+00
  2.464870e+00    3.227976e+00
  2.496621e+00    3.087436e+00
  2.528373e+00    3.144440e+00
  2.560124e+00    3.176718e+00
  2.591875e+00    3.192274e+00
  2.623626e+00    3.148514e+00
  2.655377e+00    3.166821e+00
  2.687128e+00    3.238043e+00
  2.718879e+00    3.146395e+00
  2.750631e+00    3.221444e+00
  2.782382e+00    3.188577e+00
  2.814133e+00    3.187150e+00
  2.845884e+00    3.171071e+00
  2.877635e+00    3.196945e+00
  2.909386e+00    3.263028e+00
  2.941137e+00    3.304649e+00
  2.972889e+00    3.332326e+00
  3.004640e+00    3.253663e+00
  3.036391e+00    3.274053e+00
  3.068142e+00    3.216102e+00
  3.099893e+00    3.244245e+00
  3.131644e+00    3.254959e+00
  3.163395e+00    3.345188e+00
  3.195147e+00    3.298645e+00
  3.226898e+00    3.384191e+00
  3.258649e+00    3.312894e+00
  3.290400e+00    3.332650e+00
  3.322151e+00    3.431872e+00
  3.353902e+00    3.373081e+00
  3.385654e+00    3.334325e+00
  3.417405e+00    3.327341e+00
  3.449156e+00    3.325984e+00
  3.480907e+00    3.309076e+00
  3.512658e+00    3.333153e+00
  3.544409e+00    3.405577e+00
  3.576160e+00    3.422672e+00
  3.607912e+00    3.426556e+00
  3.639663e+00    3.421476e+00
  3.671414e+00    3.434395e+00
  3.703165e+00    3.418280e+00
  3.734916e+00    3.352533e+00
  3.766667e+00    3.382975e+00
  3.798418e+00    3.481524e+00
  3.830170e+00    3.336497e+00
  3.861921e+00    3.503639e+00
  3.893672e+00    3.493475e+00
  3.925423e+00    3.466111e+00
  3.957174e+00    3.547999e+00
  3.988925e+00    3.405375e+00
  4.020676e+00    3.498505e+00
  4.052428e+00    3.409875e+00
  4.084179e+00    3.426195e+00
  4.115930e+00    3.456967e+00
  4.147681e+00    3.548367e+00
  4.179432e+00    3.523385e+00
  4.211183e+00    3.486282e+00
  4.242935e+00    3.513486e+00
  4.274686e+00    3.475845e+00
  4.306437e+00    3.573111e+00
  4.338188e+00    3.536995e+00
  4.369939e+00    3.497102e+00
  4.401690e+00    3.557470e+00
  4.433441e+00    3.530740e+00
  4.465193e+00    3.523225e+00
  4.496944e+00    3.485545e+00
  4.528695e+00    3.546825e+00
  4.560446e+00    3.506814e+00
  4.592197e+00    3.475869e+00
  4.623948e+00    3.567127e+00
  4.655699e+00    3.567801e+00
  4.687451e+00    3.560211e+00
  4.719202e+00    3.444762e+00
  4.750953e+00    3.695940e+00
  4.782704e+00    3.441757e+00
  4.814455e+00    3.594565e+00
  4.846206e+00    3.648759e+00
  4.877957e+00    3.507139e+00
  4.909709e+00    3.473684e+00
  4.941460e+00    3.586322e+00
  4.973211e+00    3.566866e+00
  5.004962e+00    3.647284e+00
  5.036713e+00    3.678423e+00
  5.068464e+00    3.637961e+00
  5.100216e+00    3.546230e+00
  5.131967e+00    3.591192e+00
  5.163718e+00    3.575219e+00
  5.195469e+00    3.593479e+00
  5.227220e+00    3.584084e+00
  5.258971e+00    3.522411e+00
  5.290722e+00    3.630018e+00
  5.322474e+00    3.618950e+00
  5.354225e+00    3.559690e+00
  5.385976e+00    3.609702e+00
  5.417727e+00    3.583403e+00
  5.449478e+00    3.593301e+00
  5.481229e+00    3.506042e+00
  5.512980e+00    3.531992e+00
  5.544732e+00    3.567312e+00
  5.576483e+00    3.600820e+00
  5.608234e+00    3.459605e+00
  5.639985e+00    3.534745e+00
  5.671736e+00    3.566736e+00
  5.703487e+00    3.540751e+00
  5.735238e+00    3.427808e+00
  5.766990e+00    3.475889e+00
  5.798741e+00    3.628230e+00
  5.830492e+00    3.518699e+00
  5.862243e+00    3.509319e+00
  5.893994e+00    3.423238e+00
  5.925745e+00    3.439555e+00
  5.957497e+00    3.423941e+00
  5.989248e+00    3.463943e+00
  6.020999e+00    3.456121e+00
  6.052750e+00    3.478555e+00
  6.084501e+00    3.536610e+00
  6.116252e+00    3.519738e+00
  6.148003e+00    3.447924e+00
  6.179755e+00    3.494927e+00
  6.211506e+00    3.547357e+00
  6.243257e+00    3.553174e+00
  6.275008e+00    3.559122e+00
  6.306759e+00    3.468050e+00
  6.338510e+00    3.522179e+00
  6.370261e+00    3.503805e+00
  6.402013e+00    3.440498e+00
  6.433764e+00    3.468713e+00
  6.465515e+00    3.568282e+00
  6.497266e+00    3.474784e+00
  6.529017e+00    3.545310e+00
  6.560768e+00    3.504947e+00
  6.592519e+00    3.444319e+00
  6.624271e+00    3.537400e+00
  6.656022e+00    3.410685e+00
  6.687773e+00    3.503724e+00
  6.719524e+00    3.476996e+00
  6.751275e+00    3.472645e+00
  6.783026e+00    3.446445e+00
  6.814777e+00    3.542979e+00
  6.846529e+00    3.445244e+00
  6.878280e+00    3.453605e+00
  6.910031e+00    3.488508e+00
  6.941782e+00    3.457386e+00
  6.973533e+00    3.430971e+00
  7.005284e+00    3.516162e+00
  7.037036e+00    3.526866e+00
  7.068787e+00    3.492555e+00
  7.100538e+00    3.391403e+00
  7.132289e+00    3.415972e+00
  7.164040e+00    3.433238e+00
  7.195791e+00    3.467930e+00
  7.227542e+00    3.490687e+00
  7.259294e+00    3.468328e+00
  7.291045e+00    3.513952e+00
  7.322796e+00    3.494598e+00
  7.354547e+00    3.438380e+00
  7.386298e+00    3.467215e+00
  7.418049e+00    3.473587e+00
  7.449800e+00    3.402759e+00
  7.481552e+00    3.451076e+00
  7.513303e+00    3.460153e+00
  7.545054e+00    3.481214e+00
  7.576805e+00    3.496436e+00
  7.608556e+00    3.453487e+00
  7.640307e+00    3.411712e+00
  7.672058e+00    3.477835e+00
  7.703810e+00    3.435019e+00
  7.735561e+00    3.371758e+00
  7.767312e+00    3.434818e+00
  7.799063e+00    3.344837e+00
  7.830814e+00    3.380027e+00
  7.862565e+00    3.421823e+00
  7.894317e+00    3.316465e+00
  7.926068e+00    3.382093e+00
  7.957819e+00    3.374071e+00
  7.989570e+00    3.347021e+00
  8.021321e+00    3.309453e+00
  8.053072e+00    3.428402e+00
  8.084823e+00    3.291766e+00
  8.116575e+00    3.346877e+00
  8.148326e+00    3.383878e+00
  8.180077e+00    3.388817e+00
  8.211828e+00    3.422847e+00
  8.243579e+00    3.365950e+00
  8.275330e+00    3.397449e+00
  8.307081e+00    3.412489e+00
  8.338833e+00    3.304011e+00
  8.370584e+00    3.304271e+00
  8.402335e+00    3.315185e+00
  8.434086e+00    3.378289e+00
  8.465837e+00    3.352848e+00
  8.497588e+00    3.331257e+00
  8.529339e+00    3.338039e+00
  8.561091e+00    3.307450e+00
  8.592842e+00    3.327000e+00
  8.624593e+00    3.397294e+00
  8.656344e+00    3.267408e+00
  8.688095e+00    3.216156e+00
  8.719846e+00    3.366881e+00
  8.751598e+00    3.304416e+00
  8.783349e+00    3.315114e+00
  8.815100e+00    3.306034e+00
  8.846851e+00    3.229207e+00
  8.878602e+00    3.239563e+00
  8.910353e+00    3.208142e+00
  8.942104e+00    3.240561e+00
  8.973856e+00    3.222646e+00
  9.005607e+00    3.207587e+00
  9.037358e+00    3.203919e+00
  9.069109e+00    3.196965e+00
  9.100860e+00    3.189418e+00
  9.132611e+00    3.284609e+00
  9.164362e+00    3.179609e+00
  9.196114e+00    3.262153e+00
  9.227865e+00    3.164423e+00
  9.259616e+00    3.191903e+00
  9.291367e+00    3.234213e+00
  9.323118e+00    3.188687e+00
  9.354869e+00    3.177213e+00
  9.386620e+00    3.143807e+00
  9.418372e+00    3.109600e+00
  9.450123e+00    3.141852e+00
  9.481874e+00    3.192208e+00
  9.513625e+00    3.169663e+00
  9.545376e+00    3.174375e+00
  9.577127e+00    3.127689e+00
  9.608878e+00    3.162881e+00
  9.640630e+00    3.123144e+00
  9.672381e+00    3.141615e+00
  9.704132e+00    3.122991e+00
  9.735883e+00    3.182827e+00
  9.767634e+00    3.152921e+00
  9.799385e+00    3.128611e+00
  9.831137e+00    3.036841e+00
  9.862888e+00    3.140968e+00
  9.894639e+00    3.083080e+00
  9.926390e+00    3.108855e+00
  9.958141e+00    3.073011e+00
  9.989892e+00    3.112391e+00
  1.002164e+01    3.101062e+00
  1.005339e+01    3.062550e+00
  1.008515e+01    3.044743e+00
  1.011690e+01    3.022479e+00
  1.014865e+01    3.049384e+00
  1.018040e+01    2.971072e+00
  1.021215e+01    3.048056e+00
  1.024390e+01    3.080126e+00
  1.027565e+01    3.026880e+00
  1.030740e+01    2.948954e+00
  1.033915e+01    3.029906e+00
  1.037091e+01    3.020149e+00
  1.040266e+01    2.977910e+00
  1.043441e+01    3.011946e+00
  1.046616e+01    2.975300e+00
  1.049791e+01    3.035468e+00
  1.052966e+01    2.958195e+00
  1.056141e+01    2.938716e+00
  1.059316e+01    2.979621e+00
  1.062492e+01    2.962184e+00
  1.065667e+01    2.923541e+00
  1.068842e+01    2.857066e+00
  1.072017e+01    2.902479e+00
  1.075192e+01    2.965975e+00
  1.078367e+01    2.908527e+00
  1.081542e+01    2.965095e+00
  1.084717e+01    2.886678e+00
  1.087892e+01    2.869130e+00
  1.091068e+01    2.922439e+00
  1.094243e+01    2.879380e+00
  1.097418e+01    2.844077e+00
  1.100593e+01    2.828789e+00
  1.103768e+01    2.772756e+00
  1.106943e+01    2.886917e+00
  1.110118e+01    2.867797e+00
  1.113293e+01    2.810186e+00
  1.116468e+01    2.884880e+00
  1.119644e+01    2.802941e+00
  1.122819e+01    2.810876e+00
  1.125994e+01    2.846713e+00
  1.129169e+01    2.838729e+00
  1.132344e+01    2.783984e+00
  1.135519e+01    2.825201e+00
  1.138694e+01    2.725677e+00
  1.141869e+01    2.801065e+00
  1.145045e+01    2.782984e+00
  1.148220e+01    2.727627e+00
  1.151395e+01    2.756811e+00
  1.154570e+01    2.778413e+00
  1.157745e+01    2.725754e+00
  1.160920e+01    2.739291e+00
  1.164095e+01    2.726195e+00
  1.167270e+01    2.708094e+00
  1.170445e+01    2.729745e+00
  1.173621e+01    2.717793e+00
  1.176796e+01    2.673141e+00
  1.179971e+01    2.722470e+00
  1.183146e+01    2.704787e+00
  1.186321e+01    2.693028e+00
  1.189496e+01    2.714769e+00
  1.192671e+01    2.685604e+00
  1.195846e+01    2.699572e+00
  1.199021e+01    2.641750e+00
  1.202197e+01    2.656320e+00
  1.205372e+01    2.643565e+00
  1.208547e+01    2.644161e+00
  1.211722e+01    2.641082e+00
  1.214897e+01    2.678641e+00
  1.218072e+01    2.639810e+00
  1.221247e+01    2.615827e+00
  1.224422e+01    2.648237e+00
  1.227597e+01    2.648620e+00
  1.230773e+01    2.650191e+00
  1.233948e+01    2.651714e+00
  1.237123e+01    2.677400e+00
  1.240298e+01    2.657381e+00
  1.243473e+01    2.653831e+00
  1.246648e+01    2.624883e+00
  1.249823e+01    2.708412e+00
  1.252998e+01    2.675931e+00
  1.256174e+01    2.646877e+00
  1.259349e+01    2.719229e+00
  1.262524e+01    2.733527e+00
  1.265699e+01    2.758782e+00
  1.268874e+01    2.747652e+00
  1.272049e+01    2.786034e+00
  1.275224e+01    2.846053e+00
  1.278399e+01    2.885557e+00
  1.281574e+01    3.001456e+00
  1.284750e+01    3.177556e+00
  1.287925e+01    3.318468e+00
  1.291100e+01    3.620167e+00
  1.294275e+01    4.034250e+00
  1.297450e+01    4.676917e+00
  1.300625e+01    5.823685e+00
  1.303800e+01    7.554567e+00
  1.306975e+01    9.980162e+00
  1.310150e+01    1.247100e+01
  1.313326e+01    1.466237e+01
  1.316501e+01    1.609236e+01
  1.319676e+01    1.538485e+01
  1.322851e+01    1.223375e+01
  1.326026e+01    8.938613e+00
  1.329201e+01    6.665520e+00
  1.332376e+01    5.238292e+00
  1.335551e+01    4.428429e+00
  1.338727e+01    3.790697e+00
  1.341902e+01    3.416528e+00
  1.345077e+01    3.145576e+00
  1.348252e+01    3.044653e+00
  1.351427e+01    2.841524e+00
  1.354602e+01    2.757452e+00
  1.357777e+01    2.664555e+00
  1.360952e+01    2.645773e+00
  1.364127e+01    2.641523e+00
  1.367303e+01    2.525190e+00
  1.370478e+01    2.561230e+00
  1.373653e+01    2.481910e+00
  1.376828e+01    2.506037e+00
  1.380003e+01    2.410009e+00
  1.383178e+01    2.403334e+00
  1.386353e+01    2.379552e+00
  1.389528e+01    2.368348e+00
  1.392703e+01    2.386223e+00
  1.395879e+01    2.331263e+00
  1.399054e+01    2.385893e+00
  1.402229e+01    2.334248e+00
  1.405404e+01    2.305419e+00
  1.408579e+01    2.306880e+00
  1.411754e+01    2.311996e+00
  1.414929e+01    2.282918e+00
  1.418104e+01    2.293148e+00
  1.421279e+01    2.254353e+00
  1.424455e+01    2.239225e+00
  1.427630e+01    2.251588e+00
  1.430805e+01    2.234957e+00
  1.433980e+01    2.234264e+00
  1.437155e+01    2.235443e+00
  1.440330e+01    2.245610e+00
  1.443505e+01    2.210124e+00
  1.446680e+01    2.187330e+00
  1.449856e+01    2.249681e+00
  1.453031e+01    2.215847e+00
  1.456206e+01    2.169142e+00
  1.459381e+01    2.199053e+00
  1.462556e+01    2.205598e+00
  1.465731e+01    2.213215e+00
  1.468906e+01    2.173244e+00
  1.472081e+01    2.174491e+00
  1.475256e+01    2.162493e+00
  1.478432e+01    2.194278e+00
  1.481607e+01    2.206566e+00
  1.484782e+01    2.178492e+00
  1.487957e+01    2.231432e+00
  1.491132e+01    2.198279e+00
  1.494307e+01    2.232255e+00
  1.497482e+01    2.285713e+00
  1.500657e+01    2.383480e+00
  1.503832e+01    2.539723e+00
  1.507008e+01    2.772889e+00
  1.510183e+01    3.142714e+00
  1.513358e+01    3.759609e+00
  1.516533e+01    4.440802e+00
  1.519708e+01    5.097435e+00
  1.522883e+01    5.543880e+00
  1.526058e+01    5.640583e+00
  1.529233e+01    5.357546e+00
  1.532409e+01    4.627137e+00
  1.535584e+01    3.700358e+00
  1.538759e+01    3.148642e+00
  1.541934e+01    2.722535e+00
  1.545109e+01    2.439342e+00
  1.548284e+01    2.347353e+00
  1.551459e+01    2.212710e+00
  1.554634e+01    2.135064e+00
  1.557809e+01    2.069210e+00
  1.560985e+01    2.029041e+00
  1.564160e+01    2.010708e+00
  1.567335e+01    1.992868e+00
  1.570510e+01    1.966276e+00
  1.573685e+01    1.976774e+00
  1.576860e+01    1.881644e+00
  1.580035e+01    1.928809e+00
  1.583210e+01    1.904816e+00
  1.586385e+01    1.890894e+00
  1.589561e+01    1.897332e+00
  1.592736e+01    1.893050e+00
  1.595911e+01    1.883612e+00
  1.599086e+01    1.816356e+00
  1.602261e+01    1.840705e+00
  1.605436e+01    1.850213e+00
  1.608611e+01    1.830559e+00
  1.611786e+01    1.816488e+00
  1.614961e+01    1.819985e+00
  1.618137e+01    1.810452e+00
  1.621312e+01    1.800835e+00
  1.624487e+01    1.793925e+00
  1.627662e+01    1.750767e+00
  1.630837e+01    1.779509e+00
  1.634012e+01    1.777912e+00
  1.637187e+01    1.727536e+00
  1.640362e+01    1.788472e+00
  1.643538e+01    1.730308e+00
  1.646713e+01    1.730235e+00
  1.649888e+01    1.738625e+00
  1.653063e+01    1.675534e+00
  1.656238e+01    1.730919e+00
  1.659413e+01    1.692864e+00
  1.662588e+01    1.691725e+00
  1.665763e+01    1.688556e+00
  1.668938e+01    1.676888e+00
  1.672114e+01    1.688164e+00
  1.675289e+01    1.693962e+00
  1.678464e+01    1.675521e+00
  1.681639e+01    1.641859e+00
  1.684814e+01    1.671044e+00
  1.687989e+01    1.649392e+00
  1.691164e+01    1.675158e+00
  1.694339e+01    1.678754e+00
  1.697514e+01    1.630334e+00
  1.700690e+01    1.650999e+00
  1.703865e+01    1.633939e+00
  1.707040e+01    1.611712e+00
  1.710215e+01    1.620558e+00
  1.713390e+01    1.611588e+00
  1.716565e+01    1.630760e+00
  1.719740e+01    1.578544e+00
  1.722915e+01    1.600739e+00
  1.726091e+01    1.597659e+00
  1.729266e+01    1.604154e+00
  1.732441e+01    1.586537e+00
  1.735616e+01    1.608570e+00
  1.738791e+01    1.533287e+00
  1.741966e+01    1.581615e+00
  1.745141e+01    1.569219e+00
  1.748316e+01    1.563096e+00
  1.751491e+01    1.580183e+00
  1.754667e+01    1.552498e+00
  1.757842e+01    1.535804e+00
  1.761017e+01    1.521258e+00
  1.764192e+01    1.565608e+00
  1.767367e+01    1.524436e+00
  1.770542e+01    1.535959e+00
  1.773717e+01    1.542958e+00
  1.776892e+01    1.501568e+00
  1.780067e+01    1.509792e+00
  1.783243e+01    1.481082e+00
  1.786418e+01    1.509128e+00
  1.789593e+01    1.523562e+00
  1.792768e+01    1.516032e+00
  1.795943e+01    1.485364e+00
  1.799118e+01    1.477827e+00
  1.802293e+01    1.476646e+00
  1.805468e+01    1.476389e+00
  1.808643e+01    1.486789e+00
  1.811819e+01    1.458146e+00
  1.814994e+01    1.450941e+00
  1.818169e+01    1.468074e+00
  1.821344e+01    1.472696e+00
  1.824519e+01    1.434786e+00
  1.827694e+01    1.432366e+00
  1.830869e+01    1.432562e+00
  1.834044e+01    1.447242e+00
  1.837220e+01    1.437994e+00
  1.840395e+01    1.413498e+00
  1.843570e+01    1.411605e+00
  1.846745e+01    1.442816e+00
  1.849920e+01    1.418850e+00
  1.853095e+01    1.448249e+00
  1.856270e+01    1.411392e+00
  1.859445e+01    1.411976e+00
  1.862620e+01    1.425771e+00
  1.865796e+01    1.383776e+00
  1.868971e+01    1.436643e+00
  1.872146e+01    1.419930e+00
  1.875321e+01    1.391656e+00
  1.878496e+01    1.383949e+00
  1.881671e+01    1.395683e+00
  1.884846e+01    1.356369e+00
  1.888021e+01    1.376820e+00
  1.891196e+01    1.366072e+00
  1.894372e+01    1.385699e+00
  1.897547e+01    1.383696e+00
  1.900722e+01    1.372498e+00
  1.903897e+01    1.343738e+00
  1.907072e+01    1.378871e+00
  1.910247e+01    1.356397e+00
  1.913422e+01    1.358271e+00
  1.916597e+01    1.363377e+00
  1.919773e+01    1.377863e+00
  1.922948e+01    1.343751e+00
  1.926123e+01    1.333199e+00
  1.929298e+01    1.321638e+00
  1.932473e+01    1.319601e+00
  1.935648e+01    1.305754e+00
  1.938823e+01    1.324044e+00
  1.941998e+01    1.309776e+00
  1.945173e+01    1.292998e+00
  1.948349e+01    1.321250e+00
  1.951524e+01    1.318481e+00
  1.954699e+01    1.276595e+00
  1.957874e+01    1.295957e+00
  1.961049e+01    1.313989e+00
  1.964224e+01    1.306623e+00
  1.967399e+01    1.308785e+00
  1.970574e+01    1.278848e+00
  1.973749e+01    1.297955e+00
  1.976925e+01    1.301028e+00
  1.980100e+01    1.312681e+00
  1.983275e+01    1.282411e+00
  1.986450e+01    1.264106e+00
  1.989625e+01    1.300423e+00
  1.992800e+01    1.247783e+00
  1.995975e+01    1.281803e+00
  1.999150e+01    1.251098e+00
  2.002325e+01    1.276601e+00
  2.005501e+01    1.266722e+00
  2.008676e+01    1.297908e+00
  2.011851e+01    1.258512e+00
  2.015026e+01    1.237643e+00
  2.018201e+01    1.242052e+00
  2.021376e+01    1.251874e+00
  2.024551e+01    1.259205e+00
  2.027726e+01    1.252860e+00
  2.030902e+01    1.248841e+00
  2.034077e+01    1.223051e+00
  2.037252e+01    1.244027e+00
  2.040427e+01    1.233018e+00
  2.043602e+01    1.213651e+00
  2.046777e+01    1.207416e+00
  2.049952e+01    1.205958e+00
  2.053127e+01    1.261037e+00
  2.056302e+01    1.221050e+00
  2.059478e+01    1.217058e+00
  2.062653e+01    1.220438e+00
  2.065828e+01    1.212435e+00
  2.069003e+01    1.211687e+00
  2.072178e+01    1.215891e+00
  2.075353e+01    1.236389e+00
  2.078528e+01    1.210178e+00
  2.081703e+01    1.186710e+00
  2.084878e+01    1.219011e+00
  2.088054e+01    1.218022e+00
  2.091229e+01    1.205431e+00
  2.094404e+01    1.213597e+00
  2.097579e+01    1.199887e+00
  2.100754e+01    1.222484e+00
  2.103929e+01    1.195508e+00
  2.107104e+01    1.188093e+00
  2.110279e+01    1.176494e+00
  2.113455e+01    1.216272e+00
  2.116630e+01    1.236407e+00
  2.119805e+01    1.218093e+00
  2.122980e+01    1.229005e+00
  2.126155e+01    1.241539e+00
  2.129330e+01    1.272620e+00
  2.132505e+01    1.273251e+00
  2.135680e+01    1.273909e+00
  2.138855e+01    1.277045e+00
  2.142031e+01    1.330924e+00
  2.145206e+01    1.339905e+00
  2.148381e+01    1.375989e+00
  2.151556e+01    1.446121e+00
  2.154731e+01    1.479591e+00
  2.157906e+01    1.578991e+00
  2.161081e+01    1.749128e+00
  2.164256e+01    1.937183e+00
  2.167431e+01    2.265041e+00
  2.170607e+01    2.695128e+00
  2.173782e+01    3.456292e+00
  2.176957e+01    4.542760e+00
  2.180132e+01    5.758370e+00
  2.183307e+01    6.998923e+00
  2.186482e+01    8.209966e+00
  2.189657e+01    8.828808e+00
  2.192832e+01    8.161664e+00
  2.196007e+01    6.473814e+00
  2.199183e+01    4.798299e+00
  2.202358e+01    3.532009e+00
  2.205533e+01    2.816226e+00
  2.208708e+01    2.291909e+00
  2.211883e+01    1.994549e+00
  2.215058e+01    1.748897e+00
  2.218233e+01    1.600404e+00
  2.221408e+01    1.476419e+00
  2.224584e+01    1.379873e+00
  2.227759e+01    1.336581e+00
  2.230934e+01    1.258585e+00
  2.234109e+01    1.221740e+00
  2.237284e+01    1.158520e+00
  2.240459e+01    1.183395e+00
  2.243634e+01    1.153793e+00
  2.246809e+01    1.159418e+00
  2.249984e+01    1.143627e+00
  2.253160e+01    1.120145e+00
  2.256335e+01    1.093220e+00
  2.259510e+01    1.077989e+00
  2.262685e+01    1.067577e+00
  2.265860e+01    1.070774e+00
  2.269035e+01    1.052351e+00
  2.272210e+01    1.062933e+00
  2.275385e+01    1.039103e+00
  2.278560e+01    1.045730e+00
  2.281736e+01    1.042491e+00
  2.284911e+01    1.032664e+00
  2.288086e+01    1.019380e+00
  2.291261e+01    1.033701e+00
  2.294436e+01    1.014822e+00
  2.297611e+01    1.008924e+00
  2.300786e+01    1.009796e+00
  2.303961e+01    1.006922e+00
  2.307137e+01    9.801304e-01
  2.310312e+01    9.736068e-01
  2.313487e+01    9.927505e-01
  2.316662e+01    9.442345e-01
  2.319837e+01    9.937746e-01
  2.323012e+01    9.698862e-01
  2.326187e+01    9.701942e-01
  2.329362e+01    9.329698e-01
  2.332537e+01    9.472587e-01
  2.335713e+01    9.564754e-01
  2.338888e+01    9.849720e-01
  2.342063e+01    9.349393e-01
  2.345238e+01    9.344909e-01
  2.348413e+01    9.578859e-01
  2.351588e+01    9.580787e-01
  2.354763e+01    9.516124e-01
  2.357938e+01    9.353493e-01
  2.361113e+01    9.322567e-01
  2.364289e+01    9.404284e-01
  2.367464e+01    9.367342e-01
  2.370639e+01    9.127039e-01
  2.373814e+01    9.527854e-01
  2.376989e+01    9.104908e-01
  2.380164e+01    9.059607e-01
  2.383339e+01    9.082418e-01
  2.386514e+01    9.125367e-01
  2.389689e+01    9.147344e-01
  2.392865e+01    8.879300e-01
  2.396040e+01    8.995804e-01
  2.399215e+01    9.144583e-01
  2.402390e+01    8.798653e-01
  2.405565e+01    8.895710e-01
  2.408740e+01    8.672496e-01
  2.411915e+01    8.731795e-01
  2.415090e+01    8.515109e-01
  2.418266e+01    8.622643e-01
  2.421441e+01    8.721888e-01
  2.424616e+01    8.612996e-01
  2.427791e+01    8.802623e-01
  2.430966e+01    8.693295e-01
  2.434141e+01    8.934144e-01
  2.437316e+01    8.648593e-01
  2.440491e+01    8.483341e-01
  2.443666e+01    8.896201e-01
  2.446842e+01    8.832635e-01
  2.450017e+01    8.834379e-01
  2.453192e+01    8.792408e-01
  2.456367e+01    8.776563e-01
  2.459542e+01    8.792536e-01
  2.462717e+01    8.490160e-01
  2.465892e+01    8.771082e-01
  2.469067e+01    8.748010e-01
  2.472242e+01    8.738664e-01
  2.475418e+01    8.864976e-01
  2.478593e+01    8.654680e-01
  2.481768e+01    8.617970e-01
  2.484943e+01    8.659278e-01
  2.488118e+01    8.767204e-01
  2.491293e+01    8.869836e-01
  2.494468e+01    8.568971e-01
  2.497643e+01    8.606824e-01
  2.500819e+01    9.073853e-01
  2.503994e+01    8.942616e-01
  2.507169e+01    8.850498e-01
  2.510344e+01    8.708279e-01
  2.513519e+01    8.752472e-01
  2.516694e+01    9.028711e-01
  2.519869e+01    9.006569e-01
  2.523044e+01    9.105881e-01
  2.526219e+01    9.301226e-01
  2.529395e+01    9.337509e-01
  2.532570e+01    9.394211e-01
  2.535745e+01    9.561891e-01
  2.538920e+01    9.698868e-01
  2.542095e+01    9.933425e-01
  2.545270e+01    1.023694e+00
  2.548445e+01    1.040515e+00
  2.551620e+01    1.037444e+00
  2.554795e+01    1.108457e+00
  2.557971e+01    1.141271e+00
  2.561146e+01    1.217919e+00
  2.564321e+01    1.254494e+00
  2.567496e+01    1.410817e+00
  2.570671e+01    1.557830e+00
  2.573846e+01    1.801974e+00
  2.577021e+01    2.199256e+00
  2.580196e+01    2.697187e+00
  2.583371e+01    3.635066e+00
  2.586547e+01    4.594659e+00
  2.589722e+01    5.682648e+00
  2.592897e+01    6.701566e+00
  2.596072e+01    7.042670e+00
  2.599247e+01    6.506376e+00
  2.602422e+01    5.213462e+00
  2.605597e+01    3.898812e+00
  2.608772e+01    2.955573e+00
  2.611948e+01    2.332200e+00
  2.615123e+01    1.895755e+00
  2.618298e+01    1.639605e+00
  2.621473e+01    1.439860e+00
  2.624648e+01    1.312955e+00
  2.627823e+01    1.256690e+00
  2.630998e+01    1.147003e+00
  2.634173e+01    1.112562e+00
  2.637348e+01    1.101742e+00
  2.640524e+01    1.053070e+00
  2.643699e+01    1.032407e+00
  2.646874e+01    1.011667e+00
  2.650049e+01    1.021941e+00
  2.653224e+01    9.780032e-01
  2.656399e+01    9.689819e-01
  2.659574e+01    9.685747e-01
  2.662749e+01    9.697322e-01
  2.665924e+01    9.742206e-01
  2.669100e+01    9.461864e-01
  2.672275e+01    9.510386e-01
  2.675450e+01    9.245030e-01
  2.678625e+01    9.323013e-01
  2.681800e+01    9.590730e-01
  2.684975e+01    9.758098e-01
  2.688150e+01    9.965368e-01
  2.691325e+01    9.742422e-01
  2.694501e+01    1.004313e+00
  2.697676e+01    1.033707e+00
  2.700851e+01    1.104828e+00
  2.704026e+01    1.163318e+00
  2.707201e+01    1.283140e+00
  2.710376e+01    1.453656e+00
  2.713551e+01    1.682297e+00
  2.716726e+01    1.937429e+00
  2.719901e+01    2.118008e+00
  2.723077e+01    2.112356e+00
  2.726252e+01    1.913781e+00
  2.729427e+01    1.668068e+00
  2.732602e+01    1.430815e+00
  2.735777e+01    1.277324e+00
  2.738952e+01    1.154964e+00
  2.742127e+01    1.102070e+00
  2.745302e+01    1.010833e+00
  2.748477e+01    9.878054e-01
  2.751653e+01    9.714718e-01
  2.754828e+01    9.588355e-01
  2.758003e+01    9.186059e-01
  2.761178e+01    8.968298e-01
  2.764353e+01    9.086877e-01
  2.767528e+01    8.984569e-01
  2.770703e+01    9.149187e-01
  2.773878e+01    8.901439e-01
  2.777054e+01    8.972311e-01
  2.780229e+01    8.694155e-01
  2.783404e+01    8.649403e-01
  2.786579e+01    8.796973e-01
  2.789754e+01    8.610128e-01
  2.792929e+01    8.540978e-01
  2.796104e+01    8.710831e-01
  2.799279e+01    8.742809e-01
  2.802454e+01    8.523498e-01
  2.805630e+01    8.526860e-01
  2.808805e+01    8.414485e-01
  2.811980e+01    8.349814e-01
  2.815155e+01    8.584260e-01
  2.818330e+01    8.429874e-01
  2.821505e+01    8.427266e-01
  2.824680e+01    8.464271e-01
  2.827855e+01    8.644616e-01
  2.831030e+01    8.218873e-01
  2.834206e+01    8.476925e-01
  2.837381e+01    8.412015e-01
  2.840556e+01    8.170087e-01
  2.843731e+01    8.383786e-01
  2.846906e+01    8.376419e-01
  2.850081e+01    8.383045e-01
  2.853256e+01    8.240675e-01
  2.856431e+01    8.175818e-01
  2.859606e+01    8.207702e-01
  2.862782e+01    8.297375e-01
  2.865957e+01    8.445638e-01
  2.869132e+01    8.109290e-01
  2.872307e+01    8.206753e-01
  2.875482e+01    7.997468e-01
  2.878657e+01    8.144447e-01
  2.881832e+01    8.173339e-01
  2.885007e+01    8.055492e-01
  2.888183e+01    8.187997e-01
  2.891358e+01    7.889912e-01
  2.894533e+01    8.194052e-01
  2.897708e+01    8.088182e-01
  2.900883e+01    8.117053e-01
  2.904058e+01    7.954234e-01
  2.907233e+01    8.100196e-01
  2.910408e+01    7.884731e-01
  2.913583e+01    7.861996e-01
  2.916759e+01    8.165010e-01
  2.919934e+01    8.200987e-01
  2.923109e+01    8.172507e-01
  2.926284e+01    8.026876e-01
  2.929459e+01    7.965973e-01
  2.932634e+01    8.099276e-01
  2.935809e+01    7.892382e-01
  2.938984e+01    7.982035e-01
  2.942159e+01    7.805641e-01
  2.945335e+01    8.064435e-01
  2.948510e+01    7.690016e-01
  2.951685e+01    8.166523e-01
  2.954860e+01    8.150960e-01
  2.958035e+01    7.936153e-01
  2.961210e+01    7.927305e-01
  2.964385e+01    8.104880e-01
  2.967560e+01    7.854582e-01
  2.970736e+01    7.753940e-01
  2.973911e+01    7.933125e-01
  2.977086e+01    7.813230e-01
  2.980261e+01    8.074055e-01
  2.983436e+01    7.852826e-01
  2.986611e+01    7.789970e-01
  2.989786e+01    7.825542e-01
  2.992961e+01    7.687194e-01
  2.996136e+01    7.814637e-01
  2.999312e+01    7.973226e-01
  3.002487e+01    8.013048e-01
  3.005662e+01    7.912380e-01
  3.008837e+01    7.937230e-01
  3.012012e+01    8.123412e-01
  3.015187e+01    7.481949e-01
  3.018362e+01    7.716947e-01
  3.021537e+01    7.713743e-01
  3.024712e+01    7.748790e-01
  3.027888e+01    7.667721e-01
  3.031063e+01    7.680457e-01
  3.034238e+01    7.849621e-01
  3.037413e+01    7.773330e-01
  3.040588e+01    7.652088e-01
  3.043763e+01    7.795262e-01
  3.046938e+01    7.573871e-01
  3.050113e+01    7.704534e-01
  3.053288e+01    7.483105e-01
  3.056464e+01    7.581297e-01
  3.059639e+01    7.945577e-01
  3.062814e+01    7.688121e-01
  3.065989e+01    7.734644e-01
  3.069164e+01    7.549965e-01
  3.072339e+01    7.657802e-01
  3.075514e+01    7.946678e-01
  3.078689e+01    7.601768e-01
  3.081865e+01    7.655546e-01
  3.085040e+01    7.577528e-01
  3.088215e+01    7.894276e-01
  3.091390e+01    7.975559e-01
  3.094565e+01    7.727033e-01
  3.097740e+01    7.843167e-01
  3.100915e+01    7.776768e-01
  3.104090e+01    7.628444e-01
  3.107265e+01    7.812362e-01
  3.110441e+01    7.921175e-01
  3.113616e+01    7.753685e-01
  3.116791e+01    7.628691e-01
  3.119966e+01    7.927672e-01
  3.123141e+01    7.806478e-01
  3.126316e+01    7.816063e-01
  3.129491e+01    7.885437e-01
  3.132666e+01    7.880206e-01
  3.135841e+01    7.920658e-01
  3.139017e+01    7.787516e-01
  3.142192e+01    7.933446e-01
  3.145367e+01    8.125646e-01
  3.148542e+01    8.212176e-01
  3.151717e+01    8.185111e-01
  3.154892e+01    8.118650e-01
  3.158067e+01    8.316060e-01
  3.161242e+01    8.685701e-01
  3.164418e+01    9.055138e-01
  3.167593e+01    9.550170e-01
  3.170768e+01    1.015481e+00
  3.173943e+01    1.080857e+00
  3.177118e+01    1.242997e+00
  3.180293e+01    1.410729e+00
  3.183468e+01    1.663125e+00
  3.186643e+01    1.885148e+00
  3.189818e+01    2.073529e+00
  3.192994e+01    1.977800e+00
  3.196169e+01    1.815021e+00
  3.199344e+01    1.533718e+00
  3.202519e+01    1.289981e+00
  3.205694e+01    1.172207e+00
  3.208869e+01    1.023010e+00
  3.212044e+01    9.475023e-01
  3.215219e+01    8.915103e-01
  3.218394e+01    8.557457e-01
  3.221570e+01    8.497798e-01
  3.224745e+01    8.272412e-01
  3.227920e+01    8.126071e-01
  3.231095e+01    8.045689e-01
  3.234270e+01    8.002574e-01
  3.237445e+01    7.892838e-01
  3.240620e+01    7.811185e-01
  3.243795e+01    7.589713e-01
  3.246970e+01    7.726166e-01
  3.250146e+01    7.866354e-01
  3.253321e+01    7.593639e-01
  3.254908e+01    7.812544e-01