File: XRD/Reaction conditions/2024-07-27_003_Ru-CGO-ex_Reaction_dwell_000023_data_000028.dat
# == pyFAI calibration ==
# Distance Sample to Detector: 0.4 m
# PONI: 9.750e-02, 1.135e-01 m
# Rotations: -0.000175 0.000000 -0.000000 rad
#
# == Fit2d calibration ==
# Distance Sample-beamCenter: 400.000 mm
# Center: x=1514.000, y=1300.000 pix
# Tilt: 0.010 deg  TiltPlanRot: 0.010 deg
#
# Detector Detector	 Spline= None	 PixelSize= 7.500e-05, 7.500e-05 m
#    Detector has a mask: False
#    Detector has a dark current: False
#    detector has a flat field: False
#
# Wavelength: 6.888e-11 m
# Mask applied: user provided
# Dark current applied: False
# Flat field applied: False
# Polarization factor: 0.99
# Normalization factor: 1.0
# --> /home/myspot/data/2024_07_Rosario/Ru-CGO-ex/2024-07-27_003_Ru-CGO-ex_Reaction_dwell_000023_data_000028.dat
#       q_nm^-1             I
  2.003187e-02    0.000000e+00
  5.178302e-02    1.655745e-01
  8.353417e-02    8.456338e-02
  1.152853e-01    1.627413e-01
  1.470365e-01    5.994134e-02
  1.787876e-01    4.475717e-02
  2.105388e-01    3.720579e-02
  2.422899e-01    3.333206e-02
  2.740411e-01    2.210261e-02
  3.057922e-01    2.019441e-02
  3.375433e-01    6.249366e-02
  3.692945e-01    4.496971e-02
  4.010456e-01    2.568194e-02
  4.327968e-01    3.972406e-02
  4.645479e-01    2.389196e-02
  4.962991e-01    2.670770e-02
  5.280502e-01    2.774931e-02
  5.598014e-01    4.380313e-02
  5.915525e-01    3.555676e-02
  6.233037e-01    4.007188e-02
  6.550548e-01    2.746853e-02
  6.868060e-01    3.738857e-02
  7.185571e-01    4.380896e-02
  7.503083e-01    5.511384e-02
  7.820594e-01    1.050485e-01
  8.138106e-01    2.258386e-01
  8.455617e-01    4.111474e-01
  8.773129e-01    4.341469e-01
  9.090640e-01    6.718038e-01
  9.408152e-01    7.877861e-01
  9.725663e-01    9.707676e-01
  1.004317e+00    1.094428e+00
  1.036069e+00    1.310747e+00
  1.067820e+00    1.419802e+00
  1.099571e+00    1.730722e+00
  1.131322e+00    1.691008e+00
  1.163073e+00    1.681424e+00
  1.194824e+00    1.910309e+00
  1.226575e+00    2.308343e+00
  1.258327e+00    2.483368e+00
  1.290078e+00    2.597660e+00
  1.321829e+00    2.738654e+00
  1.353580e+00    2.752495e+00
  1.385331e+00    2.759119e+00
  1.417082e+00    2.896087e+00
  1.448834e+00    3.267853e+00
  1.480585e+00    3.059760e+00
  1.512336e+00    3.329266e+00
  1.544087e+00    3.210278e+00
  1.575838e+00    3.164082e+00
  1.607589e+00    3.122137e+00
  1.639340e+00    3.134332e+00
  1.671092e+00    3.008177e+00
  1.702843e+00    3.133005e+00
  1.734594e+00    3.004332e+00
  1.766345e+00    3.139658e+00
  1.798096e+00    3.160562e+00
  1.829847e+00    3.199535e+00
  1.861598e+00    3.065891e+00
  1.893350e+00    3.044954e+00
  1.925101e+00    3.064738e+00
  1.956852e+00    3.098591e+00
  1.988603e+00    3.073717e+00
  2.020354e+00    3.015085e+00
  2.052105e+00    3.028867e+00
  2.083856e+00    3.050214e+00
  2.115608e+00    3.214093e+00
  2.147359e+00    3.059452e+00
  2.179110e+00    2.945314e+00
  2.210861e+00    3.309335e+00
  2.242612e+00    3.053719e+00
  2.274363e+00    3.123456e+00
  2.306115e+00    3.151201e+00
  2.337866e+00    3.317622e+00
  2.369617e+00    3.189309e+00
  2.401368e+00    3.163917e+00
  2.433119e+00    3.143209e+00
  2.464870e+00    3.232081e+00
  2.496621e+00    3.166860e+00
  2.528373e+00    3.256327e+00
  2.560124e+00    3.250400e+00
  2.591875e+00    3.308158e+00
  2.623626e+00    3.267978e+00
  2.655377e+00    3.320593e+00
  2.687128e+00    3.221842e+00
  2.718879e+00    3.250836e+00
  2.750631e+00    3.279538e+00
  2.782382e+00    3.287320e+00
  2.814133e+00    3.339616e+00
  2.845884e+00    3.215795e+00
  2.877635e+00    3.198217e+00
  2.909386e+00    3.232648e+00
  2.941137e+00    3.329990e+00
  2.972889e+00    3.331354e+00
  3.004640e+00    3.314748e+00
  3.036391e+00    3.378794e+00
  3.068142e+00    3.357452e+00
  3.099893e+00    3.391909e+00
  3.131644e+00    3.346111e+00
  3.163395e+00    3.322274e+00
  3.195147e+00    3.274719e+00
  3.226898e+00    3.378226e+00
  3.258649e+00    3.450397e+00
  3.290400e+00    3.416841e+00
  3.322151e+00    3.452443e+00
  3.353902e+00    3.403558e+00
  3.385654e+00    3.433837e+00
  3.417405e+00    3.454829e+00
  3.449156e+00    3.389465e+00
  3.480907e+00    3.468354e+00
  3.512658e+00    3.489186e+00
  3.544409e+00    3.490464e+00
  3.576160e+00    3.541683e+00
  3.607912e+00    3.448457e+00
  3.639663e+00    3.523764e+00
  3.671414e+00    3.569253e+00
  3.703165e+00    3.400520e+00
  3.734916e+00    3.471069e+00
  3.766667e+00    3.470734e+00
  3.798418e+00    3.498122e+00
  3.830170e+00    3.393663e+00
  3.861921e+00    3.527367e+00
  3.893672e+00    3.539458e+00
  3.925423e+00    3.571176e+00
  3.957174e+00    3.499874e+00
  3.988925e+00    3.473023e+00
  4.020676e+00    3.559532e+00
  4.052428e+00    3.469422e+00
  4.084179e+00    3.520408e+00
  4.115930e+00    3.523600e+00
  4.147681e+00    3.491546e+00
  4.179432e+00    3.528535e+00
  4.211183e+00    3.527272e+00
  4.242935e+00    3.664447e+00
  4.274686e+00    3.595071e+00
  4.306437e+00    3.515369e+00
  4.338188e+00    3.539698e+00
  4.369939e+00    3.637487e+00
  4.401690e+00    3.587416e+00
  4.433441e+00    3.531346e+00
  4.465193e+00    3.537764e+00
  4.496944e+00    3.622839e+00
  4.528695e+00    3.697747e+00
  4.560446e+00    3.548626e+00
  4.592197e+00    3.623547e+00
  4.623948e+00    3.608352e+00
  4.655699e+00    3.693079e+00
  4.687451e+00    3.706037e+00
  4.719202e+00    3.639253e+00
  4.750953e+00    3.679293e+00
  4.782704e+00    3.684986e+00
  4.814455e+00    3.688938e+00
  4.846206e+00    3.550518e+00
  4.877957e+00    3.676959e+00
  4.909709e+00    3.729578e+00
  4.941460e+00    3.684329e+00
  4.973211e+00    3.690706e+00
  5.004962e+00    3.661187e+00
  5.036713e+00    3.746948e+00
  5.068464e+00    3.608403e+00
  5.100216e+00    3.633640e+00
  5.131967e+00    3.749133e+00
  5.163718e+00    3.672179e+00
  5.195469e+00    3.642258e+00
  5.227220e+00    3.746876e+00
  5.258971e+00    3.622221e+00
  5.290722e+00    3.588257e+00
  5.322474e+00    3.650958e+00
  5.354225e+00    3.590303e+00
  5.385976e+00    3.597545e+00
  5.417727e+00    3.662186e+00
  5.449478e+00    3.647063e+00
  5.481229e+00    3.577838e+00
  5.512980e+00    3.656163e+00
  5.544732e+00    3.551299e+00
  5.576483e+00    3.686415e+00
  5.608234e+00    3.619702e+00
  5.639985e+00    3.616484e+00
  5.671736e+00    3.596426e+00
  5.703487e+00    3.614984e+00
  5.735238e+00    3.469521e+00
  5.766990e+00    3.576753e+00
  5.798741e+00    3.609839e+00
  5.830492e+00    3.571567e+00
  5.862243e+00    3.527918e+00
  5.893994e+00    3.492679e+00
  5.925745e+00    3.514983e+00
  5.957497e+00    3.553425e+00
  5.989248e+00    3.573352e+00
  6.020999e+00    3.595613e+00
  6.052750e+00    3.627132e+00
  6.084501e+00    3.609608e+00
  6.116252e+00    3.695907e+00
  6.148003e+00    3.599709e+00
  6.179755e+00    3.555966e+00
  6.211506e+00    3.583596e+00
  6.243257e+00    3.547593e+00
  6.275008e+00    3.562127e+00
  6.306759e+00    3.632692e+00
  6.338510e+00    3.651636e+00
  6.370261e+00    3.534600e+00
  6.402013e+00    3.565533e+00
  6.433764e+00    3.637375e+00
  6.465515e+00    3.530424e+00
  6.497266e+00    3.629467e+00
  6.529017e+00    3.592427e+00
  6.560768e+00    3.521494e+00
  6.592519e+00    3.542267e+00
  6.624271e+00    3.567004e+00
  6.656022e+00    3.527198e+00
  6.687773e+00    3.612568e+00
  6.719524e+00    3.538068e+00
  6.751275e+00    3.567628e+00
  6.783026e+00    3.531633e+00
  6.814777e+00    3.537804e+00
  6.846529e+00    3.536780e+00
  6.878280e+00    3.529336e+00
  6.910031e+00    3.563902e+00
  6.941782e+00    3.469514e+00
  6.973533e+00    3.558415e+00
  7.005284e+00    3.489885e+00
  7.037036e+00    3.524508e+00
  7.068787e+00    3.524647e+00
  7.100538e+00    3.585709e+00
  7.132289e+00    3.564703e+00
  7.164040e+00    3.553090e+00
  7.195791e+00    3.450495e+00
  7.227542e+00    3.481990e+00
  7.259294e+00    3.510218e+00
  7.291045e+00    3.491271e+00
  7.322796e+00    3.496275e+00
  7.354547e+00    3.595265e+00
  7.386298e+00    3.464978e+00
  7.418049e+00    3.540901e+00
  7.449800e+00    3.468370e+00
  7.481552e+00    3.520319e+00
  7.513303e+00    3.520523e+00
  7.545054e+00    3.549082e+00
  7.576805e+00    3.394856e+00
  7.608556e+00    3.446590e+00
  7.640307e+00    3.537112e+00
  7.672058e+00    3.441762e+00
  7.703810e+00    3.511856e+00
  7.735561e+00    3.454392e+00
  7.767312e+00    3.442854e+00
  7.799063e+00    3.461467e+00
  7.830814e+00    3.455402e+00
  7.862565e+00    3.504514e+00
  7.894317e+00    3.542625e+00
  7.926068e+00    3.482861e+00
  7.957819e+00    3.454109e+00
  7.989570e+00    3.380312e+00
  8.021321e+00    3.440331e+00
  8.053072e+00    3.410804e+00
  8.084823e+00    3.460020e+00
  8.116575e+00    3.470052e+00
  8.148326e+00    3.490129e+00
  8.180077e+00    3.508526e+00
  8.211828e+00    3.483345e+00
  8.243579e+00    3.481628e+00
  8.275330e+00    3.408380e+00
  8.307081e+00    3.449611e+00
  8.338833e+00    3.393414e+00
  8.370584e+00    3.461048e+00
  8.402335e+00    3.416876e+00
  8.434086e+00    3.334692e+00
  8.465837e+00    3.374566e+00
  8.497588e+00    3.320044e+00
  8.529339e+00    3.433110e+00
  8.561091e+00    3.406510e+00
  8.592842e+00    3.375329e+00
  8.624593e+00    3.352368e+00
  8.656344e+00    3.332364e+00
  8.688095e+00    3.329727e+00
  8.719846e+00    3.339086e+00
  8.751598e+00    3.319994e+00
  8.783349e+00    3.361666e+00
  8.815100e+00    3.420429e+00
  8.846851e+00    3.346243e+00
  8.878602e+00    3.309274e+00
  8.910353e+00    3.325130e+00
  8.942104e+00    3.322467e+00
  8.973856e+00    3.249384e+00
  9.005607e+00    3.301033e+00
  9.037358e+00    3.303630e+00
  9.069109e+00    3.288359e+00
  9.100860e+00    3.323417e+00
  9.132611e+00    3.222580e+00
  9.164362e+00    3.256284e+00
  9.196114e+00    3.183596e+00
  9.227865e+00    3.244665e+00
  9.259616e+00    3.264448e+00
  9.291367e+00    3.277205e+00
  9.323118e+00    3.235471e+00
  9.354869e+00    3.195167e+00
  9.386620e+00    3.216870e+00
  9.418372e+00    3.220413e+00
  9.450123e+00    3.249267e+00
  9.481874e+00    3.204127e+00
  9.513625e+00    3.210449e+00
  9.545376e+00    3.226308e+00
  9.577127e+00    3.213099e+00
  9.608878e+00    3.212130e+00
  9.640630e+00    3.138556e+00
  9.672381e+00    3.171165e+00
  9.704132e+00    3.184180e+00
  9.735883e+00    3.183880e+00
  9.767634e+00    3.231916e+00
  9.799385e+00    3.181943e+00
  9.831137e+00    3.169551e+00
  9.862888e+00    3.128718e+00
  9.894639e+00    3.221624e+00
  9.926390e+00    3.164438e+00
  9.958141e+00    3.118831e+00
  9.989892e+00    3.084518e+00
  1.002164e+01    3.148691e+00
  1.005339e+01    3.142043e+00
  1.008515e+01    3.082496e+00
  1.011690e+01    3.059904e+00
  1.014865e+01    3.086643e+00
  1.018040e+01    3.049365e+00
  1.021215e+01    3.099313e+00
  1.024390e+01    3.100265e+00
  1.027565e+01    3.065503e+00
  1.030740e+01    3.026548e+00
  1.033915e+01    3.098790e+00
  1.037091e+01    3.053627e+00
  1.040266e+01    3.072326e+00
  1.043441e+01    3.014597e+00
  1.046616e+01    3.002426e+00
  1.049791e+01    3.036957e+00
  1.052966e+01    3.050592e+00
  1.056141e+01    3.081698e+00
  1.059316e+01    2.957893e+00
  1.062492e+01    2.998986e+00
  1.065667e+01    3.003829e+00
  1.068842e+01    2.993413e+00
  1.072017e+01    2.935832e+00
  1.075192e+01    3.008453e+00
  1.078367e+01    2.968891e+00
  1.081542e+01    2.974254e+00
  1.084717e+01    2.913865e+00
  1.087892e+01    2.871902e+00
  1.091068e+01    2.942188e+00
  1.094243e+01    2.902182e+00
  1.097418e+01    2.898498e+00
  1.100593e+01    2.915373e+00
  1.103768e+01    2.979105e+00
  1.106943e+01    2.876839e+00
  1.110118e+01    2.912252e+00
  1.113293e+01    2.949757e+00
  1.116468e+01    2.916518e+00
  1.119644e+01    2.937617e+00
  1.122819e+01    2.859131e+00
  1.125994e+01    2.852750e+00
  1.129169e+01    2.882233e+00
  1.132344e+01    2.810735e+00
  1.135519e+01    2.843127e+00
  1.138694e+01    2.835866e+00
  1.141869e+01    2.821275e+00
  1.145045e+01    2.798318e+00
  1.148220e+01    2.791723e+00
  1.151395e+01    2.807754e+00
  1.154570e+01    2.826592e+00
  1.157745e+01    2.827396e+00
  1.160920e+01    2.733501e+00
  1.164095e+01    2.744246e+00
  1.167270e+01    2.771078e+00
  1.170445e+01    2.747489e+00
  1.173621e+01    2.766314e+00
  1.176796e+01    2.772541e+00
  1.179971e+01    2.819971e+00
  1.183146e+01    2.726016e+00
  1.186321e+01    2.755278e+00
  1.189496e+01    2.738697e+00
  1.192671e+01    2.800117e+00
  1.195846e+01    2.749343e+00
  1.199021e+01    2.693104e+00
  1.202197e+01    2.713420e+00
  1.205372e+01    2.702526e+00
  1.208547e+01    2.667735e+00
  1.211722e+01    2.692918e+00
  1.214897e+01    2.731036e+00
  1.218072e+01    2.704578e+00
  1.221247e+01    2.675647e+00
  1.224422e+01    2.678633e+00
  1.227597e+01    2.710993e+00
  1.230773e+01    2.701370e+00
  1.233948e+01    2.718674e+00
  1.237123e+01    2.709136e+00
  1.240298e+01    2.688510e+00
  1.243473e+01    2.709340e+00
  1.246648e+01    2.726500e+00
  1.249823e+01    2.748677e+00
  1.252998e+01    2.727270e+00
  1.256174e+01    2.749758e+00
  1.259349e+01    2.768296e+00
  1.262524e+01    2.685546e+00
  1.265699e+01    2.784413e+00
  1.268874e+01    2.857189e+00
  1.272049e+01    2.864705e+00
  1.275224e+01    2.914065e+00
  1.278399e+01    2.945375e+00
  1.281574e+01    3.056309e+00
  1.284750e+01    3.210880e+00
  1.287925e+01    3.375976e+00
  1.291100e+01    3.700184e+00
  1.294275e+01    4.140377e+00
  1.297450e+01    4.835787e+00
  1.300625e+01    5.915757e+00
  1.303800e+01    7.751970e+00
  1.306975e+01    1.025703e+01
  1.310150e+01    1.275218e+01
  1.313326e+01    1.488029e+01
  1.316501e+01    1.636695e+01
  1.319676e+01    1.565203e+01
  1.322851e+01    1.253058e+01
  1.326026e+01    9.234709e+00
  1.329201e+01    6.776068e+00
  1.332376e+01    5.312325e+00
  1.335551e+01    4.522305e+00
  1.338727e+01    3.867768e+00
  1.341902e+01    3.473615e+00
  1.345077e+01    3.248395e+00
  1.348252e+01    3.074563e+00
  1.351427e+01    2.894424e+00
  1.354602e+01    2.827963e+00
  1.357777e+01    2.746320e+00
  1.360952e+01    2.710636e+00
  1.364127e+01    2.634474e+00
  1.367303e+01    2.563454e+00
  1.370478e+01    2.533155e+00
  1.373653e+01    2.493938e+00
  1.376828e+01    2.532910e+00
  1.380003e+01    2.507944e+00
  1.383178e+01    2.456899e+00
  1.386353e+01    2.454524e+00
  1.389528e+01    2.441689e+00
  1.392703e+01    2.397539e+00
  1.395879e+01    2.417474e+00
  1.399054e+01    2.413708e+00
  1.402229e+01    2.370871e+00
  1.405404e+01    2.335099e+00
  1.408579e+01    2.339615e+00
  1.411754e+01    2.333132e+00
  1.414929e+01    2.278784e+00
  1.418104e+01    2.301307e+00
  1.421279e+01    2.302221e+00
  1.424455e+01    2.290210e+00
  1.427630e+01    2.287949e+00
  1.430805e+01    2.283233e+00
  1.433980e+01    2.265345e+00
  1.437155e+01    2.267311e+00
  1.440330e+01    2.248022e+00
  1.443505e+01    2.240826e+00
  1.446680e+01    2.245886e+00
  1.449856e+01    2.297633e+00
  1.453031e+01    2.229680e+00
  1.456206e+01    2.260762e+00
  1.459381e+01    2.208940e+00
  1.462556e+01    2.232602e+00
  1.465731e+01    2.222808e+00
  1.468906e+01    2.266723e+00
  1.472081e+01    2.216097e+00
  1.475256e+01    2.175390e+00
  1.478432e+01    2.179385e+00
  1.481607e+01    2.200801e+00
  1.484782e+01    2.206572e+00
  1.487957e+01    2.236856e+00
  1.491132e+01    2.314979e+00
  1.494307e+01    2.276735e+00
  1.497482e+01    2.363656e+00
  1.500657e+01    2.425258e+00
  1.503832e+01    2.643045e+00
  1.507008e+01    2.842954e+00
  1.510183e+01    3.236854e+00
  1.513358e+01    3.786119e+00
  1.516533e+01    4.539647e+00
  1.519708e+01    5.176072e+00
  1.522883e+01    5.626186e+00
  1.526058e+01    5.855595e+00
  1.529233e+01    5.617660e+00
  1.532409e+01    4.655349e+00
  1.535584e+01    3.775391e+00
  1.538759e+01    3.151258e+00
  1.541934e+01    2.795166e+00
  1.545109e+01    2.554244e+00
  1.548284e+01    2.396774e+00
  1.551459e+01    2.281656e+00
  1.554634e+01    2.204178e+00
  1.557809e+01    2.142824e+00
  1.560985e+01    2.112801e+00
  1.564160e+01    2.056761e+00
  1.567335e+01    2.020757e+00
  1.570510e+01    2.023914e+00
  1.573685e+01    1.984089e+00
  1.576860e+01    1.977133e+00
  1.580035e+01    1.978625e+00
  1.583210e+01    1.933856e+00
  1.586385e+01    1.883981e+00
  1.589561e+01    1.902058e+00
  1.592736e+01    1.924947e+00
  1.595911e+01    1.919281e+00
  1.599086e+01    1.857806e+00
  1.602261e+01    1.876765e+00
  1.605436e+01    1.885083e+00
  1.608611e+01    1.869136e+00
  1.611786e+01    1.841428e+00
  1.614961e+01    1.854674e+00
  1.618137e+01    1.844113e+00
  1.621312e+01    1.815218e+00
  1.624487e+01    1.854783e+00
  1.627662e+01    1.772113e+00
  1.630837e+01    1.812392e+00
  1.634012e+01    1.811710e+00
  1.637187e+01    1.811112e+00
  1.640362e+01    1.780437e+00
  1.643538e+01    1.793504e+00
  1.646713e+01    1.746577e+00
  1.649888e+01    1.759953e+00
  1.653063e+01    1.785739e+00
  1.656238e+01    1.730177e+00
  1.659413e+01    1.722513e+00
  1.662588e+01    1.714875e+00
  1.665763e+01    1.767437e+00
  1.668938e+01    1.724586e+00
  1.672114e+01    1.728363e+00
  1.675289e+01    1.717495e+00
  1.678464e+01    1.711922e+00
  1.681639e+01    1.680350e+00
  1.684814e+01    1.720028e+00
  1.687989e+01    1.668830e+00
  1.691164e+01    1.647658e+00
  1.694339e+01    1.653569e+00
  1.697514e+01    1.693581e+00
  1.700690e+01    1.680664e+00
  1.703865e+01    1.637042e+00
  1.707040e+01    1.654061e+00
  1.710215e+01    1.680870e+00
  1.713390e+01    1.661868e+00
  1.716565e+01    1.626428e+00
  1.719740e+01    1.605333e+00
  1.722915e+01    1.620792e+00
  1.726091e+01    1.609065e+00
  1.729266e+01    1.590136e+00
  1.732441e+01    1.603652e+00
  1.735616e+01    1.604511e+00
  1.738791e+01    1.601893e+00
  1.741966e+01    1.604590e+00
  1.745141e+01    1.607971e+00
  1.748316e+01    1.605313e+00
  1.751491e+01    1.617713e+00
  1.754667e+01    1.612710e+00
  1.757842e+01    1.563573e+00
  1.761017e+01    1.592638e+00
  1.764192e+01    1.568700e+00
  1.767367e+01    1.544805e+00
  1.770542e+01    1.559233e+00
  1.773717e+01    1.572860e+00
  1.776892e+01    1.560700e+00
  1.780067e+01    1.573768e+00
  1.783243e+01    1.559430e+00
  1.786418e+01    1.523657e+00
  1.789593e+01    1.551536e+00
  1.792768e+01    1.530881e+00
  1.795943e+01    1.507464e+00
  1.799118e+01    1.521400e+00
  1.802293e+01    1.522161e+00
  1.805468e+01    1.520322e+00
  1.808643e+01    1.495990e+00
  1.811819e+01    1.507611e+00
  1.814994e+01    1.495555e+00
  1.818169e+01    1.515720e+00
  1.821344e+01    1.477462e+00
  1.824519e+01    1.509433e+00
  1.827694e+01    1.464864e+00
  1.830869e+01    1.467076e+00
  1.834044e+01    1.458833e+00
  1.837220e+01    1.468785e+00
  1.840395e+01    1.484090e+00
  1.843570e+01    1.479440e+00
  1.846745e+01    1.464589e+00
  1.849920e+01    1.419044e+00
  1.853095e+01    1.452237e+00
  1.856270e+01    1.445940e+00
  1.859445e+01    1.422998e+00
  1.862620e+01    1.423379e+00
  1.865796e+01    1.438971e+00
  1.868971e+01    1.419344e+00
  1.872146e+01    1.417946e+00
  1.875321e+01    1.432366e+00
  1.878496e+01    1.404699e+00
  1.881671e+01    1.376990e+00
  1.884846e+01    1.406333e+00
  1.888021e+01    1.400224e+00
  1.891196e+01    1.413035e+00
  1.894372e+01    1.401613e+00
  1.897547e+01    1.383958e+00
  1.900722e+01    1.396825e+00
  1.903897e+01    1.372414e+00
  1.907072e+01    1.383996e+00
  1.910247e+01    1.372660e+00
  1.913422e+01    1.387912e+00
  1.916597e+01    1.362275e+00
  1.919773e+01    1.360765e+00
  1.922948e+01    1.358128e+00
  1.926123e+01    1.375416e+00
  1.929298e+01    1.344584e+00
  1.932473e+01    1.328495e+00
  1.935648e+01    1.366511e+00
  1.938823e+01    1.343510e+00
  1.941998e+01    1.345496e+00
  1.945173e+01    1.357740e+00
  1.948349e+01    1.355945e+00
  1.951524e+01    1.339098e+00
  1.954699e+01    1.337540e+00
  1.957874e+01    1.337950e+00
  1.961049e+01    1.298973e+00
  1.964224e+01    1.301530e+00
  1.967399e+01    1.338903e+00
  1.970574e+01    1.323386e+00
  1.973749e+01    1.331016e+00
  1.976925e+01    1.322072e+00
  1.980100e+01    1.297866e+00
  1.983275e+01    1.307835e+00
  1.986450e+01    1.313567e+00
  1.989625e+01    1.316529e+00
  1.992800e+01    1.251229e+00
  1.995975e+01    1.280480e+00
  1.999150e+01    1.278194e+00
  2.002325e+01    1.278390e+00
  2.005501e+01    1.270004e+00
  2.008676e+01    1.285246e+00
  2.011851e+01    1.267942e+00
  2.015026e+01    1.272686e+00
  2.018201e+01    1.264825e+00
  2.021376e+01    1.250272e+00
  2.024551e+01    1.288036e+00
  2.027726e+01    1.269529e+00
  2.030902e+01    1.249183e+00
  2.034077e+01    1.252761e+00
  2.037252e+01    1.249632e+00
  2.040427e+01    1.259638e+00
  2.043602e+01    1.247483e+00
  2.046777e+01    1.280379e+00
  2.049952e+01    1.252494e+00
  2.053127e+01    1.246119e+00
  2.056302e+01    1.249305e+00
  2.059478e+01    1.230823e+00
  2.062653e+01    1.241994e+00
  2.065828e+01    1.272877e+00
  2.069003e+01    1.252737e+00
  2.072178e+01    1.221915e+00
  2.075353e+01    1.241961e+00
  2.078528e+01    1.241240e+00
  2.081703e+01    1.232075e+00
  2.084878e+01    1.227285e+00
  2.088054e+01    1.230227e+00
  2.091229e+01    1.224944e+00
  2.094404e+01    1.217055e+00
  2.097579e+01    1.226974e+00
  2.100754e+01    1.225196e+00
  2.103929e+01    1.241781e+00
  2.107104e+01    1.253543e+00
  2.110279e+01    1.233210e+00
  2.113455e+01    1.235450e+00
  2.116630e+01    1.216980e+00
  2.119805e+01    1.236895e+00
  2.122980e+01    1.250036e+00
  2.126155e+01    1.243738e+00
  2.129330e+01    1.261092e+00
  2.132505e+01    1.276731e+00
  2.135680e+01    1.282935e+00
  2.138855e+01    1.291886e+00
  2.142031e+01    1.335033e+00
  2.145206e+01    1.343988e+00
  2.148381e+01    1.418041e+00
  2.151556e+01    1.449600e+00
  2.154731e+01    1.531820e+00
  2.157906e+01    1.615981e+00
  2.161081e+01    1.778984e+00
  2.164256e+01    1.969515e+00
  2.167431e+01    2.302415e+00
  2.170607e+01    2.787287e+00
  2.173782e+01    3.517375e+00
  2.176957e+01    4.584736e+00
  2.180132e+01    5.899786e+00
  2.183307e+01    7.227804e+00
  2.186482e+01    8.413342e+00
  2.189657e+01    8.925739e+00
  2.192832e+01    8.249296e+00
  2.196007e+01    6.643022e+00
  2.199183e+01    4.950136e+00
  2.202358e+01    3.667778e+00
  2.205533e+01    2.848665e+00
  2.208708e+01    2.341233e+00
  2.211883e+01    2.005545e+00
  2.215058e+01    1.752958e+00
  2.218233e+01    1.639724e+00
  2.221408e+01    1.514459e+00
  2.224584e+01    1.429192e+00
  2.227759e+01    1.348604e+00
  2.230934e+01    1.305353e+00
  2.234109e+01    1.276329e+00
  2.237284e+01    1.225457e+00
  2.240459e+01    1.172416e+00
  2.243634e+01    1.183194e+00
  2.246809e+01    1.163785e+00
  2.249984e+01    1.147291e+00
  2.253160e+01    1.127573e+00
  2.256335e+01    1.132199e+00
  2.259510e+01    1.121709e+00
  2.262685e+01    1.123710e+00
  2.265860e+01    1.121030e+00
  2.269035e+01    1.076015e+00
  2.272210e+01    1.062604e+00
  2.275385e+01    1.079980e+00
  2.278560e+01    1.048730e+00
  2.281736e+01    1.059992e+00
  2.284911e+01    1.044828e+00
  2.288086e+01    1.040138e+00
  2.291261e+01    1.056687e+00
  2.294436e+01    1.028392e+00
  2.297611e+01    1.024232e+00
  2.300786e+01    1.012012e+00
  2.303961e+01    1.016344e+00
  2.307137e+01    1.023933e+00
  2.310312e+01    1.002942e+00
  2.313487e+01    1.013393e+00
  2.316662e+01    1.008297e+00
  2.319837e+01    1.011598e+00
  2.323012e+01    9.992360e-01
  2.326187e+01    9.962783e-01
  2.329362e+01    9.996871e-01
  2.332537e+01    9.759516e-01
  2.335713e+01    9.754935e-01
  2.338888e+01    9.987531e-01
  2.342063e+01    9.741185e-01
  2.345238e+01    9.668471e-01
  2.348413e+01    9.762946e-01
  2.351588e+01    9.530932e-01
  2.354763e+01    9.772238e-01
  2.357938e+01    9.651365e-01
  2.361113e+01    9.768238e-01
  2.364289e+01    9.446217e-01
  2.367464e+01    9.465508e-01
  2.370639e+01    9.427809e-01
  2.373814e+01    9.726231e-01
  2.376989e+01    9.384477e-01
  2.380164e+01    9.140685e-01
  2.383339e+01    9.217774e-01
  2.386514e+01    9.074863e-01
  2.389689e+01    9.262026e-01
  2.392865e+01    9.198728e-01
  2.396040e+01    9.063386e-01
  2.399215e+01    9.184864e-01
  2.402390e+01    9.006573e-01
  2.405565e+01    8.994178e-01
  2.408740e+01    8.852963e-01
  2.411915e+01    9.024951e-01
  2.415090e+01    8.993564e-01
  2.418266e+01    9.123996e-01
  2.421441e+01    9.188536e-01
  2.424616e+01    8.616116e-01
  2.427791e+01    8.833363e-01
  2.430966e+01    8.910044e-01
  2.434141e+01    8.742564e-01
  2.437316e+01    9.062451e-01
  2.440491e+01    8.770491e-01
  2.443666e+01    8.872498e-01
  2.446842e+01    8.907166e-01
  2.450017e+01    8.877835e-01
  2.453192e+01    8.932300e-01
  2.456367e+01    9.048579e-01
  2.459542e+01    8.736511e-01
  2.462717e+01    8.751472e-01
  2.465892e+01    8.936498e-01
  2.469067e+01    8.886239e-01
  2.472242e+01    8.942106e-01
  2.475418e+01    8.765479e-01
  2.478593e+01    8.735536e-01
  2.481768e+01    8.970178e-01
  2.484943e+01    9.219282e-01
  2.488118e+01    9.049400e-01
  2.491293e+01    9.092747e-01
  2.494468e+01    8.949293e-01
  2.497643e+01    8.962727e-01
  2.500819e+01    8.802315e-01
  2.503994e+01    8.923656e-01
  2.507169e+01    9.066901e-01
  2.510344e+01    9.117119e-01
  2.513519e+01    9.169379e-01
  2.516694e+01    9.347975e-01
  2.519869e+01    9.541240e-01
  2.523044e+01    9.210846e-01
  2.526219e+01    9.472576e-01
  2.529395e+01    9.560037e-01
  2.532570e+01    9.702830e-01
  2.535745e+01    9.755505e-01
  2.538920e+01    9.781370e-01
  2.542095e+01    1.013994e+00
  2.545270e+01    1.004440e+00
  2.548445e+01    1.072161e+00
  2.551620e+01    1.055471e+00
  2.554795e+01    1.113137e+00
  2.557971e+01    1.162692e+00
  2.561146e+01    1.232110e+00
  2.564321e+01    1.296209e+00
  2.567496e+01    1.443247e+00
  2.570671e+01    1.583155e+00
  2.573846e+01    1.857128e+00
  2.577021e+01    2.216918e+00
  2.580196e+01    2.824017e+00
  2.583371e+01    3.669587e+00
  2.586547e+01    4.708025e+00
  2.589722e+01    5.851871e+00
  2.592897e+01    6.835754e+00
  2.596072e+01    7.251165e+00
  2.599247e+01    6.645216e+00
  2.602422e+01    5.359237e+00
  2.605597e+01    4.012983e+00
  2.608772e+01    3.009910e+00
  2.611948e+01    2.355534e+00
  2.615123e+01    1.972157e+00
  2.618298e+01    1.684556e+00
  2.621473e+01    1.502120e+00
  2.624648e+01    1.356363e+00
  2.627823e+01    1.255713e+00
  2.630998e+01    1.180991e+00
  2.634173e+01    1.118787e+00
  2.637348e+01    1.082312e+00
  2.640524e+01    1.062983e+00
  2.643699e+01    1.043729e+00
  2.646874e+01    1.033864e+00
  2.650049e+01    1.028969e+00
  2.653224e+01    1.021256e+00
  2.656399e+01    9.896398e-01
  2.659574e+01    9.801210e-01
  2.662749e+01    1.006559e+00
  2.665924e+01    9.839962e-01
  2.669100e+01    9.711800e-01
  2.672275e+01    9.645793e-01
  2.675450e+01    9.701156e-01
  2.678625e+01    9.905670e-01
  2.681800e+01    9.878669e-01
  2.684975e+01    9.871587e-01
  2.688150e+01    9.953617e-01
  2.691325e+01    1.004352e+00
  2.694501e+01    1.009271e+00
  2.697676e+01    1.067554e+00
  2.700851e+01    1.101416e+00
  2.704026e+01    1.211566e+00
  2.707201e+01    1.330061e+00
  2.710376e+01    1.508471e+00
  2.713551e+01    1.701416e+00
  2.716726e+01    1.977012e+00
  2.719901e+01    2.134373e+00
  2.723077e+01    2.192458e+00
  2.726252e+01    2.013533e+00
  2.729427e+01    1.695133e+00
  2.732602e+01    1.474935e+00
  2.735777e+01    1.263370e+00
  2.738952e+01    1.180885e+00
  2.742127e+01    1.090577e+00
  2.745302e+01    1.046181e+00
  2.748477e+01    9.951823e-01
  2.751653e+01    9.847026e-01
  2.754828e+01    9.616131e-01
  2.758003e+01    9.420033e-01
  2.761178e+01    9.167275e-01
  2.764353e+01    9.153759e-01
  2.767528e+01    9.156115e-01
  2.770703e+01    8.964806e-01
  2.773878e+01    8.976526e-01
  2.777054e+01    9.136477e-01
  2.780229e+01    8.906219e-01
  2.783404e+01    8.836693e-01
  2.786579e+01    8.849184e-01
  2.789754e+01    8.852323e-01
  2.792929e+01    8.818268e-01
  2.796104e+01    8.724742e-01
  2.799279e+01    8.969033e-01
  2.802454e+01    8.729304e-01
  2.805630e+01    8.448543e-01
  2.808805e+01    8.672047e-01
  2.811980e+01    8.716940e-01
  2.815155e+01    8.585145e-01
  2.818330e+01    8.597577e-01
  2.821505e+01    8.458316e-01
  2.824680e+01    8.599321e-01
  2.827855e+01    8.659920e-01
  2.831030e+01    8.756253e-01
  2.834206e+01    8.541684e-01
  2.837381e+01    8.436599e-01
  2.840556e+01    8.563477e-01
  2.843731e+01    8.571393e-01
  2.846906e+01    8.605079e-01
  2.850081e+01    8.451645e-01
  2.853256e+01    8.455925e-01
  2.856431e+01    8.450011e-01
  2.859606e+01    8.635693e-01
  2.862782e+01    8.293352e-01
  2.865957e+01    8.368380e-01
  2.869132e+01    8.421738e-01
  2.872307e+01    8.409983e-01
  2.875482e+01    8.434361e-01
  2.878657e+01    8.170612e-01
  2.881832e+01    8.211559e-01
  2.885007e+01    8.381689e-01
  2.888183e+01    8.197862e-01
  2.891358e+01    8.148094e-01
  2.894533e+01    8.413035e-01
  2.897708e+01    8.232141e-01
  2.900883e+01    8.333388e-01
  2.904058e+01    8.320060e-01
  2.907233e+01    8.320583e-01
  2.910408e+01    8.133683e-01
  2.913583e+01    8.091369e-01
  2.916759e+01    8.356788e-01
  2.919934e+01    8.263630e-01
  2.923109e+01    8.006593e-01
  2.926284e+01    8.178509e-01
  2.929459e+01    8.050406e-01
  2.932634e+01    8.233816e-01
  2.935809e+01    8.077446e-01
  2.938984e+01    8.228592e-01
  2.942159e+01    8.136612e-01
  2.945335e+01    8.057147e-01
  2.948510e+01    7.906762e-01
  2.951685e+01    8.443193e-01
  2.954860e+01    7.930545e-01
  2.958035e+01    7.947481e-01
  2.961210e+01    7.983425e-01
  2.964385e+01    7.970090e-01
  2.967560e+01    7.929636e-01
  2.970736e+01    7.714034e-01
  2.973911e+01    7.893282e-01
  2.977086e+01    7.980701e-01
  2.980261e+01    7.980549e-01
  2.983436e+01    7.941696e-01
  2.986611e+01    7.885576e-01
  2.989786e+01    7.836878e-01
  2.992961e+01    7.943967e-01
  2.996136e+01    7.893286e-01
  2.999312e+01    8.175238e-01
  3.002487e+01    8.303897e-01
  3.005662e+01    8.306407e-01
  3.008837e+01    8.389690e-01
  3.012012e+01    7.826458e-01
  3.015187e+01    7.966281e-01
  3.018362e+01    7.719545e-01
  3.021537e+01    7.845871e-01
  3.024712e+01    7.996529e-01
  3.027888e+01    7.715645e-01
  3.031063e+01    7.987720e-01
  3.034238e+01    8.077803e-01
  3.037413e+01    7.898579e-01
  3.040588e+01    7.941163e-01
  3.043763e+01    7.921636e-01
  3.046938e+01    7.812273e-01
  3.050113e+01    7.732618e-01
  3.053288e+01    8.047253e-01
  3.056464e+01    7.872400e-01
  3.059639e+01    7.939914e-01
  3.062814e+01    7.846467e-01
  3.065989e+01    7.939117e-01
  3.069164e+01    7.809035e-01
  3.072339e+01    7.857041e-01
  3.075514e+01    7.954246e-01
  3.078689e+01    7.958606e-01
  3.081865e+01    7.975268e-01
  3.085040e+01    7.894306e-01
  3.088215e+01    7.972478e-01
  3.091390e+01    7.841690e-01
  3.094565e+01    7.689546e-01
  3.097740e+01    7.871791e-01
  3.100915e+01    7.741937e-01
  3.104090e+01    7.775723e-01
  3.107265e+01    8.017773e-01
  3.110441e+01    8.145044e-01
  3.113616e+01    7.877095e-01
  3.116791e+01    8.095913e-01
  3.119966e+01    7.937543e-01
  3.123141e+01    7.847198e-01
  3.126316e+01    7.951203e-01
  3.129491e+01    8.157777e-01
  3.132666e+01    8.157914e-01
  3.135841e+01    8.012859e-01
  3.139017e+01    8.040906e-01
  3.142192e+01    8.231953e-01
  3.145367e+01    8.045961e-01
  3.148542e+01    8.351317e-01
  3.151717e+01    8.375215e-01
  3.154892e+01    8.485579e-01
  3.158067e+01    8.647994e-01
  3.161242e+01    8.841270e-01
  3.164418e+01    9.423247e-01
  3.167593e+01    9.585544e-01
  3.170768e+01    1.028204e+00
  3.173943e+01    1.117986e+00
  3.177118e+01    1.267589e+00
  3.180293e+01    1.457827e+00
  3.183468e+01    1.695060e+00
  3.186643e+01    1.980668e+00
  3.189818e+01    2.061883e+00
  3.192994e+01    2.053553e+00
  3.196169e+01    1.809330e+00
  3.199344e+01    1.553662e+00
  3.202519e+01    1.331808e+00
  3.205694e+01    1.156353e+00
  3.208869e+01    1.060456e+00
  3.212044e+01    9.889241e-01
  3.215219e+01    9.128844e-01
  3.218394e+01    8.768876e-01
  3.221570e+01    8.431290e-01
  3.224745e+01    8.534554e-01
  3.227920e+01    8.161924e-01
  3.231095e+01    8.048188e-01
  3.234270e+01    8.257337e-01
  3.237445e+01    7.952203e-01
  3.240620e+01    7.910234e-01
  3.243795e+01    7.764202e-01
  3.246970e+01    7.974560e-01
  3.250146e+01    7.831615e-01
  3.253321e+01    7.515317e-01
  3.254908e+01    7.711737e-01