File: XRD/Reaction conditions/2024-07-27_003_Ru-CGO-ex_Reaction_dwell_000023_data_000063.dat
# == pyFAI calibration ==
# Distance Sample to Detector: 0.4 m
# PONI: 9.750e-02, 1.135e-01 m
# Rotations: -0.000175 0.000000 -0.000000 rad
#
# == Fit2d calibration ==
# Distance Sample-beamCenter: 400.000 mm
# Center: x=1514.000, y=1300.000 pix
# Tilt: 0.010 deg  TiltPlanRot: 0.010 deg
#
# Detector Detector	 Spline= None	 PixelSize= 7.500e-05, 7.500e-05 m
#    Detector has a mask: False
#    Detector has a dark current: False
#    detector has a flat field: False
#
# Wavelength: 6.888e-11 m
# Mask applied: user provided
# Dark current applied: False
# Flat field applied: False
# Polarization factor: 0.99
# Normalization factor: 1.0
# --> /home/myspot/data/2024_07_Rosario/Ru-CGO-ex/2024-07-27_003_Ru-CGO-ex_Reaction_dwell_000023_data_000063.dat
#       q_nm^-1             I
  2.003187e-02    1.424646e-01
  5.178302e-02    1.263534e-01
  8.353417e-02    3.009889e-01
  1.152853e-01    1.454391e-01
  1.470365e-01    5.643249e-02
  1.787876e-01    1.048040e-01
  2.105388e-01    4.489049e-02
  2.422899e-01    3.255604e-02
  2.740411e-01    3.587550e-02
  3.057922e-01    6.347904e-02
  3.375433e-01    1.864244e-02
  3.692945e-01    2.289164e-02
  4.010456e-01    3.350956e-02
  4.327968e-01    4.352982e-02
  4.645479e-01    4.289914e-02
  4.962991e-01    4.040209e-02
  5.280502e-01    5.856811e-02
  5.598014e-01    5.164305e-02
  5.915525e-01    3.224490e-02
  6.233037e-01    4.096600e-02
  6.550548e-01    5.086466e-02
  6.868060e-01    6.104283e-02
  7.185571e-01    4.197153e-02
  7.503083e-01    5.244859e-02
  7.820594e-01    1.563868e-01
  8.138106e-01    2.236666e-01
  8.455617e-01    3.692192e-01
  8.773129e-01    4.421615e-01
  9.090640e-01    6.588401e-01
  9.408152e-01    7.711248e-01
  9.725663e-01    1.115922e+00
  1.004317e+00    1.259564e+00
  1.036069e+00    1.426323e+00
  1.067820e+00    1.528082e+00
  1.099571e+00    1.541635e+00
  1.131322e+00    1.587575e+00
  1.163073e+00    1.542137e+00
  1.194824e+00    1.777886e+00
  1.226575e+00    2.281764e+00
  1.258327e+00    2.413487e+00
  1.290078e+00    2.592179e+00
  1.321829e+00    2.641219e+00
  1.353580e+00    2.726701e+00
  1.385331e+00    2.835093e+00
  1.417082e+00    2.876579e+00
  1.448834e+00    2.837533e+00
  1.480585e+00    2.922968e+00
  1.512336e+00    3.111529e+00
  1.544087e+00    3.146525e+00
  1.575838e+00    3.087497e+00
  1.607589e+00    3.126126e+00
  1.639340e+00    3.057943e+00
  1.671092e+00    3.149737e+00
  1.702843e+00    3.117064e+00
  1.734594e+00    3.061226e+00
  1.766345e+00    3.072995e+00
  1.798096e+00    3.084762e+00
  1.829847e+00    3.084184e+00
  1.861598e+00    3.154367e+00
  1.893350e+00    3.011731e+00
  1.925101e+00    3.107538e+00
  1.956852e+00    3.094589e+00
  1.988603e+00    3.113086e+00
  2.020354e+00    3.051656e+00
  2.052105e+00    3.024119e+00
  2.083856e+00    3.044291e+00
  2.115608e+00    3.156805e+00
  2.147359e+00    3.125509e+00
  2.179110e+00    3.136364e+00
  2.210861e+00    3.063348e+00
  2.242612e+00    3.182851e+00
  2.274363e+00    3.218169e+00
  2.306115e+00    3.114515e+00
  2.337866e+00    3.248063e+00
  2.369617e+00    3.099719e+00
  2.401368e+00    3.096896e+00
  2.433119e+00    3.122711e+00
  2.464870e+00    3.018399e+00
  2.496621e+00    3.134533e+00
  2.528373e+00    3.233015e+00
  2.560124e+00    3.279372e+00
  2.591875e+00    3.241787e+00
  2.623626e+00    3.247864e+00
  2.655377e+00    3.286241e+00
  2.687128e+00    3.277602e+00
  2.718879e+00    3.283790e+00
  2.750631e+00    3.292557e+00
  2.782382e+00    3.276142e+00
  2.814133e+00    3.211257e+00
  2.845884e+00    3.219156e+00
  2.877635e+00    3.270866e+00
  2.909386e+00    3.290908e+00
  2.941137e+00    3.341916e+00
  2.972889e+00    3.282262e+00
  3.004640e+00    3.226894e+00
  3.036391e+00    3.312566e+00
  3.068142e+00    3.414018e+00
  3.099893e+00    3.303877e+00
  3.131644e+00    3.428448e+00
  3.163395e+00    3.384719e+00
  3.195147e+00    3.467047e+00
  3.226898e+00    3.443719e+00
  3.258649e+00    3.494862e+00
  3.290400e+00    3.458270e+00
  3.322151e+00    3.382436e+00
  3.353902e+00    3.469008e+00
  3.385654e+00    3.399377e+00
  3.417405e+00    3.524729e+00
  3.449156e+00    3.503245e+00
  3.480907e+00    3.435378e+00
  3.512658e+00    3.428534e+00
  3.544409e+00    3.446728e+00
  3.576160e+00    3.489048e+00
  3.607912e+00    3.485492e+00
  3.639663e+00    3.575757e+00
  3.671414e+00    3.495309e+00
  3.703165e+00    3.513252e+00
  3.734916e+00    3.473270e+00
  3.766667e+00    3.540695e+00
  3.798418e+00    3.488386e+00
  3.830170e+00    3.548278e+00
  3.861921e+00    3.437776e+00
  3.893672e+00    3.543517e+00
  3.925423e+00    3.439667e+00
  3.957174e+00    3.523504e+00
  3.988925e+00    3.543686e+00
  4.020676e+00    3.553622e+00
  4.052428e+00    3.564330e+00
  4.084179e+00    3.524850e+00
  4.115930e+00    3.428448e+00
  4.147681e+00    3.620745e+00
  4.179432e+00    3.507454e+00
  4.211183e+00    3.497202e+00
  4.242935e+00    3.621179e+00
  4.274686e+00    3.609317e+00
  4.306437e+00    3.607148e+00
  4.338188e+00    3.613746e+00
  4.369939e+00    3.578670e+00
  4.401690e+00    3.686605e+00
  4.433441e+00    3.609071e+00
  4.465193e+00    3.580278e+00
  4.496944e+00    3.640878e+00
  4.528695e+00    3.718823e+00
  4.560446e+00    3.604493e+00
  4.592197e+00    3.529837e+00
  4.623948e+00    3.673703e+00
  4.655699e+00    3.634247e+00
  4.687451e+00    3.625423e+00
  4.719202e+00    3.646990e+00
  4.750953e+00    3.614863e+00
  4.782704e+00    3.568361e+00
  4.814455e+00    3.580021e+00
  4.846206e+00    3.626656e+00
  4.877957e+00    3.560373e+00
  4.909709e+00    3.677084e+00
  4.941460e+00    3.672985e+00
  4.973211e+00    3.660860e+00
  5.004962e+00    3.627426e+00
  5.036713e+00    3.652047e+00
  5.068464e+00    3.631850e+00
  5.100216e+00    3.713867e+00
  5.131967e+00    3.722867e+00
  5.163718e+00    3.726794e+00
  5.195469e+00    3.626548e+00
  5.227220e+00    3.605092e+00
  5.258971e+00    3.679501e+00
  5.290722e+00    3.642919e+00
  5.322474e+00    3.624693e+00
  5.354225e+00    3.646790e+00
  5.385976e+00    3.655881e+00
  5.417727e+00    3.692593e+00
  5.449478e+00    3.624548e+00
  5.481229e+00    3.590702e+00
  5.512980e+00    3.637355e+00
  5.544732e+00    3.584870e+00
  5.576483e+00    3.602939e+00
  5.608234e+00    3.573006e+00
  5.639985e+00    3.542599e+00
  5.671736e+00    3.619080e+00
  5.703487e+00    3.572773e+00
  5.735238e+00    3.580250e+00
  5.766990e+00    3.609584e+00
  5.798741e+00    3.615211e+00
  5.830492e+00    3.538429e+00
  5.862243e+00    3.575914e+00
  5.893994e+00    3.531258e+00
  5.925745e+00    3.506840e+00
  5.957497e+00    3.547395e+00
  5.989248e+00    3.589064e+00
  6.020999e+00    3.580144e+00
  6.052750e+00    3.566432e+00
  6.084501e+00    3.579106e+00
  6.116252e+00    3.645558e+00
  6.148003e+00    3.577525e+00
  6.179755e+00    3.600189e+00
  6.211506e+00    3.605860e+00
  6.243257e+00    3.561279e+00
  6.275008e+00    3.599248e+00
  6.306759e+00    3.592035e+00
  6.338510e+00    3.514734e+00
  6.370261e+00    3.496824e+00
  6.402013e+00    3.604776e+00
  6.433764e+00    3.614656e+00
  6.465515e+00    3.640815e+00
  6.497266e+00    3.575404e+00
  6.529017e+00    3.622293e+00
  6.560768e+00    3.552330e+00
  6.592519e+00    3.558586e+00
  6.624271e+00    3.597152e+00
  6.656022e+00    3.628020e+00
  6.687773e+00    3.594797e+00
  6.719524e+00    3.477815e+00
  6.751275e+00    3.512515e+00
  6.783026e+00    3.553055e+00
  6.814777e+00    3.536059e+00
  6.846529e+00    3.528863e+00
  6.878280e+00    3.541179e+00
  6.910031e+00    3.499753e+00
  6.941782e+00    3.554915e+00
  6.973533e+00    3.604073e+00
  7.005284e+00    3.607452e+00
  7.037036e+00    3.560014e+00
  7.068787e+00    3.503271e+00
  7.100538e+00    3.507687e+00
  7.132289e+00    3.515505e+00
  7.164040e+00    3.547433e+00
  7.195791e+00    3.484277e+00
  7.227542e+00    3.499690e+00
  7.259294e+00    3.480840e+00
  7.291045e+00    3.484593e+00
  7.322796e+00    3.584119e+00
  7.354547e+00    3.483642e+00
  7.386298e+00    3.465094e+00
  7.418049e+00    3.472759e+00
  7.449800e+00    3.510437e+00
  7.481552e+00    3.470506e+00
  7.513303e+00    3.476848e+00
  7.545054e+00    3.460052e+00
  7.576805e+00    3.485744e+00
  7.608556e+00    3.456598e+00
  7.640307e+00    3.456031e+00
  7.672058e+00    3.457175e+00
  7.703810e+00    3.411729e+00
  7.735561e+00    3.478995e+00
  7.767312e+00    3.402833e+00
  7.799063e+00    3.383549e+00
  7.830814e+00    3.457019e+00
  7.862565e+00    3.475567e+00
  7.894317e+00    3.371613e+00
  7.926068e+00    3.468968e+00
  7.957819e+00    3.462074e+00
  7.989570e+00    3.432165e+00
  8.021321e+00    3.430971e+00
  8.053072e+00    3.373205e+00
  8.084823e+00    3.452375e+00
  8.116575e+00    3.419566e+00
  8.148326e+00    3.522279e+00
  8.180077e+00    3.473587e+00
  8.211828e+00    3.472838e+00
  8.243579e+00    3.377970e+00
  8.275330e+00    3.404782e+00
  8.307081e+00    3.450287e+00
  8.338833e+00    3.450879e+00
  8.370584e+00    3.409785e+00
  8.402335e+00    3.384768e+00
  8.434086e+00    3.465084e+00
  8.465837e+00    3.459665e+00
  8.497588e+00    3.370439e+00
  8.529339e+00    3.339516e+00
  8.561091e+00    3.410778e+00
  8.592842e+00    3.391956e+00
  8.624593e+00    3.397686e+00
  8.656344e+00    3.329355e+00
  8.688095e+00    3.421758e+00
  8.719846e+00    3.362615e+00
  8.751598e+00    3.383666e+00
  8.783349e+00    3.302212e+00
  8.815100e+00    3.286927e+00
  8.846851e+00    3.249827e+00
  8.878602e+00    3.363481e+00
  8.910353e+00    3.274050e+00
  8.942104e+00    3.289484e+00
  8.973856e+00    3.268813e+00
  9.005607e+00    3.260167e+00
  9.037358e+00    3.253525e+00
  9.069109e+00    3.311374e+00
  9.100860e+00    3.287539e+00
  9.132611e+00    3.315582e+00
  9.164362e+00    3.284804e+00
  9.196114e+00    3.247858e+00
  9.227865e+00    3.274616e+00
  9.259616e+00    3.268565e+00
  9.291367e+00    3.273516e+00
  9.323118e+00    3.199893e+00
  9.354869e+00    3.217914e+00
  9.386620e+00    3.223568e+00
  9.418372e+00    3.222334e+00
  9.450123e+00    3.238042e+00
  9.481874e+00    3.188587e+00
  9.513625e+00    3.239116e+00
  9.545376e+00    3.143174e+00
  9.577127e+00    3.172757e+00
  9.608878e+00    3.264961e+00
  9.640630e+00    3.192575e+00
  9.672381e+00    3.239393e+00
  9.704132e+00    3.198567e+00
  9.735883e+00    3.187410e+00
  9.767634e+00    3.168110e+00
  9.799385e+00    3.165921e+00
  9.831137e+00    3.127242e+00
  9.862888e+00    3.141127e+00
  9.894639e+00    3.137085e+00
  9.926390e+00    3.130515e+00
  9.958141e+00    3.054854e+00
  9.989892e+00    3.163390e+00
  1.002164e+01    3.117795e+00
  1.005339e+01    3.015648e+00
  1.008515e+01    3.105819e+00
  1.011690e+01    3.098503e+00
  1.014865e+01    3.090620e+00
  1.018040e+01    3.105165e+00
  1.021215e+01    3.097752e+00
  1.024390e+01    3.116470e+00
  1.027565e+01    3.110506e+00
  1.030740e+01    3.043477e+00
  1.033915e+01    3.115429e+00
  1.037091e+01    3.021457e+00
  1.040266e+01    3.069991e+00
  1.043441e+01    3.069728e+00
  1.046616e+01    3.030632e+00
  1.049791e+01    3.064650e+00
  1.052966e+01    3.012924e+00
  1.056141e+01    3.003326e+00
  1.059316e+01    2.974256e+00
  1.062492e+01    3.007847e+00
  1.065667e+01    2.951565e+00
  1.068842e+01    2.997364e+00
  1.072017e+01    3.006103e+00
  1.075192e+01    2.960273e+00
  1.078367e+01    2.999933e+00
  1.081542e+01    2.951179e+00
  1.084717e+01    2.969846e+00
  1.087892e+01    2.942629e+00
  1.091068e+01    2.914358e+00
  1.094243e+01    2.949644e+00
  1.097418e+01    2.985723e+00
  1.100593e+01    2.888732e+00
  1.103768e+01    2.895586e+00
  1.106943e+01    2.949849e+00
  1.110118e+01    2.896497e+00
  1.113293e+01    2.870932e+00
  1.116468e+01    2.904670e+00
  1.119644e+01    2.885431e+00
  1.122819e+01    2.833067e+00
  1.125994e+01    2.868385e+00
  1.129169e+01    2.850837e+00
  1.132344e+01    2.792162e+00
  1.135519e+01    2.859171e+00
  1.138694e+01    2.841213e+00
  1.141869e+01    2.825767e+00
  1.145045e+01    2.851158e+00
  1.148220e+01    2.841005e+00
  1.151395e+01    2.775243e+00
  1.154570e+01    2.818347e+00
  1.157745e+01    2.776080e+00
  1.160920e+01    2.722269e+00
  1.164095e+01    2.823861e+00
  1.167270e+01    2.761642e+00
  1.170445e+01    2.713192e+00
  1.173621e+01    2.703618e+00
  1.176796e+01    2.765179e+00
  1.179971e+01    2.723511e+00
  1.183146e+01    2.765543e+00
  1.186321e+01    2.705961e+00
  1.189496e+01    2.748055e+00
  1.192671e+01    2.720457e+00
  1.195846e+01    2.735003e+00
  1.199021e+01    2.748787e+00
  1.202197e+01    2.738852e+00
  1.205372e+01    2.711501e+00
  1.208547e+01    2.695421e+00
  1.211722e+01    2.744823e+00
  1.214897e+01    2.670527e+00
  1.218072e+01    2.705521e+00
  1.221247e+01    2.655143e+00
  1.224422e+01    2.738959e+00
  1.227597e+01    2.673969e+00
  1.230773e+01    2.701458e+00
  1.233948e+01    2.736862e+00
  1.237123e+01    2.710314e+00
  1.240298e+01    2.751440e+00
  1.243473e+01    2.645765e+00
  1.246648e+01    2.768934e+00
  1.249823e+01    2.722431e+00
  1.252998e+01    2.682038e+00
  1.256174e+01    2.776629e+00
  1.259349e+01    2.740119e+00
  1.262524e+01    2.750313e+00
  1.265699e+01    2.774683e+00
  1.268874e+01    2.789291e+00
  1.272049e+01    2.843438e+00
  1.275224e+01    2.935550e+00
  1.278399e+01    2.982459e+00
  1.281574e+01    3.027809e+00
  1.284750e+01    3.170410e+00
  1.287925e+01    3.414321e+00
  1.291100e+01    3.622687e+00
  1.294275e+01    4.174458e+00
  1.297450e+01    4.825450e+00
  1.300625e+01    5.951755e+00
  1.303800e+01    7.753069e+00
  1.306975e+01    1.029505e+01
  1.310150e+01    1.274247e+01
  1.313326e+01    1.497002e+01
  1.316501e+01    1.646045e+01
  1.319676e+01    1.568849e+01
  1.322851e+01    1.267705e+01
  1.326026e+01    9.124855e+00
  1.329201e+01    6.897913e+00
  1.332376e+01    5.406613e+00
  1.335551e+01    4.449718e+00
  1.338727e+01    3.916590e+00
  1.341902e+01    3.472922e+00
  1.345077e+01    3.293372e+00
  1.348252e+01    3.029920e+00
  1.351427e+01    2.896399e+00
  1.354602e+01    2.830747e+00
  1.357777e+01    2.757385e+00
  1.360952e+01    2.653593e+00
  1.364127e+01    2.675348e+00
  1.367303e+01    2.591479e+00
  1.370478e+01    2.603269e+00
  1.373653e+01    2.489329e+00
  1.376828e+01    2.495199e+00
  1.380003e+01    2.477179e+00
  1.383178e+01    2.458254e+00
  1.386353e+01    2.466185e+00
  1.389528e+01    2.407692e+00
  1.392703e+01    2.370117e+00
  1.395879e+01    2.353482e+00
  1.399054e+01    2.389200e+00
  1.402229e+01    2.363435e+00
  1.405404e+01    2.315493e+00
  1.408579e+01    2.319903e+00
  1.411754e+01    2.371686e+00
  1.414929e+01    2.332343e+00
  1.418104e+01    2.313669e+00
  1.421279e+01    2.293366e+00
  1.424455e+01    2.303735e+00
  1.427630e+01    2.296883e+00
  1.430805e+01    2.238559e+00
  1.433980e+01    2.257248e+00
  1.437155e+01    2.268928e+00
  1.440330e+01    2.256471e+00
  1.443505e+01    2.188475e+00
  1.446680e+01    2.250098e+00
  1.449856e+01    2.232532e+00
  1.453031e+01    2.223541e+00
  1.456206e+01    2.221126e+00
  1.459381e+01    2.233358e+00
  1.462556e+01    2.252275e+00
  1.465731e+01    2.280883e+00
  1.468906e+01    2.214828e+00
  1.472081e+01    2.181125e+00
  1.475256e+01    2.200118e+00
  1.478432e+01    2.198226e+00
  1.481607e+01    2.193960e+00
  1.484782e+01    2.168634e+00
  1.487957e+01    2.210906e+00
  1.491132e+01    2.246875e+00
  1.494307e+01    2.321238e+00
  1.497482e+01    2.355217e+00
  1.500657e+01    2.427850e+00
  1.503832e+01    2.644225e+00
  1.507008e+01    2.803597e+00
  1.510183e+01    3.243066e+00
  1.513358e+01    3.810732e+00
  1.516533e+01    4.510282e+00
  1.519708e+01    5.242022e+00
  1.522883e+01    5.603074e+00
  1.526058e+01    5.852236e+00
  1.529233e+01    5.431360e+00
  1.532409e+01    4.673819e+00
  1.535584e+01    3.808552e+00
  1.538759e+01    3.152280e+00
  1.541934e+01    2.762632e+00
  1.545109e+01    2.501236e+00
  1.548284e+01    2.327791e+00
  1.551459e+01    2.266476e+00
  1.554634e+01    2.208272e+00
  1.557809e+01    2.143340e+00
  1.560985e+01    2.059945e+00
  1.564160e+01    2.054812e+00
  1.567335e+01    2.012788e+00
  1.570510e+01    1.997270e+00
  1.573685e+01    1.967615e+00
  1.576860e+01    1.964401e+00
  1.580035e+01    1.930238e+00
  1.583210e+01    1.919580e+00
  1.586385e+01    1.919344e+00
  1.589561e+01    1.911213e+00
  1.592736e+01    1.918362e+00
  1.595911e+01    1.907252e+00
  1.599086e+01    1.910824e+00
  1.602261e+01    1.881719e+00
  1.605436e+01    1.874252e+00
  1.608611e+01    1.814512e+00
  1.611786e+01    1.855386e+00
  1.614961e+01    1.849753e+00
  1.618137e+01    1.825681e+00
  1.621312e+01    1.825839e+00
  1.624487e+01    1.800276e+00
  1.627662e+01    1.801967e+00
  1.630837e+01    1.825520e+00
  1.634012e+01    1.862845e+00
  1.637187e+01    1.787927e+00
  1.640362e+01    1.744617e+00
  1.643538e+01    1.759050e+00
  1.646713e+01    1.781116e+00
  1.649888e+01    1.760597e+00
  1.653063e+01    1.769597e+00
  1.656238e+01    1.768022e+00
  1.659413e+01    1.751236e+00
  1.662588e+01    1.758963e+00
  1.665763e+01    1.747463e+00
  1.668938e+01    1.687900e+00
  1.672114e+01    1.684559e+00
  1.675289e+01    1.694940e+00
  1.678464e+01    1.670004e+00
  1.681639e+01    1.719773e+00
  1.684814e+01    1.731886e+00
  1.687989e+01    1.704418e+00
  1.691164e+01    1.710346e+00
  1.694339e+01    1.662484e+00
  1.697514e+01    1.679072e+00
  1.700690e+01    1.648258e+00
  1.703865e+01    1.675070e+00
  1.707040e+01    1.676799e+00
  1.710215e+01    1.652427e+00
  1.713390e+01    1.665272e+00
  1.716565e+01    1.642887e+00
  1.719740e+01    1.635813e+00
  1.722915e+01    1.643331e+00
  1.726091e+01    1.636841e+00
  1.729266e+01    1.620283e+00
  1.732441e+01    1.623614e+00
  1.735616e+01    1.586108e+00
  1.738791e+01    1.619814e+00
  1.741966e+01    1.574486e+00
  1.745141e+01    1.552362e+00
  1.748316e+01    1.608852e+00
  1.751491e+01    1.586624e+00
  1.754667e+01    1.558850e+00
  1.757842e+01    1.582258e+00
  1.761017e+01    1.552776e+00
  1.764192e+01    1.574167e+00
  1.767367e+01    1.572643e+00
  1.770542e+01    1.537053e+00
  1.773717e+01    1.572124e+00
  1.776892e+01    1.544482e+00
  1.780067e+01    1.538945e+00
  1.783243e+01    1.524538e+00
  1.786418e+01    1.514689e+00
  1.789593e+01    1.526590e+00
  1.792768e+01    1.503984e+00
  1.795943e+01    1.517690e+00
  1.799118e+01    1.498142e+00
  1.802293e+01    1.511482e+00
  1.805468e+01    1.518150e+00
  1.808643e+01    1.512440e+00
  1.811819e+01    1.494078e+00
  1.814994e+01    1.482302e+00
  1.818169e+01    1.459261e+00
  1.821344e+01    1.470219e+00
  1.824519e+01    1.468504e+00
  1.827694e+01    1.480365e+00
  1.830869e+01    1.442556e+00
  1.834044e+01    1.475799e+00
  1.837220e+01    1.487447e+00
  1.840395e+01    1.453634e+00
  1.843570e+01    1.463934e+00
  1.846745e+01    1.467480e+00
  1.849920e+01    1.453043e+00
  1.853095e+01    1.467077e+00
  1.856270e+01    1.452198e+00
  1.859445e+01    1.450115e+00
  1.862620e+01    1.409828e+00
  1.865796e+01    1.399071e+00
  1.868971e+01    1.425521e+00
  1.872146e+01    1.393509e+00
  1.875321e+01    1.425184e+00
  1.878496e+01    1.441512e+00
  1.881671e+01    1.400343e+00
  1.884846e+01    1.401958e+00
  1.888021e+01    1.411981e+00
  1.891196e+01    1.370913e+00
  1.894372e+01    1.402817e+00
  1.897547e+01    1.357654e+00
  1.900722e+01    1.391262e+00
  1.903897e+01    1.383903e+00
  1.907072e+01    1.379097e+00
  1.910247e+01    1.372700e+00
  1.913422e+01    1.358759e+00
  1.916597e+01    1.357205e+00
  1.919773e+01    1.397045e+00
  1.922948e+01    1.370232e+00
  1.926123e+01    1.372490e+00
  1.929298e+01    1.350961e+00
  1.932473e+01    1.343345e+00
  1.935648e+01    1.352015e+00
  1.938823e+01    1.340303e+00
  1.941998e+01    1.339796e+00
  1.945173e+01    1.347916e+00
  1.948349e+01    1.329330e+00
  1.951524e+01    1.333696e+00
  1.954699e+01    1.295426e+00
  1.957874e+01    1.304626e+00
  1.961049e+01    1.330223e+00
  1.964224e+01    1.292670e+00
  1.967399e+01    1.310136e+00
  1.970574e+01    1.275075e+00
  1.973749e+01    1.295283e+00
  1.976925e+01    1.302014e+00
  1.980100e+01    1.286481e+00
  1.983275e+01    1.321324e+00
  1.986450e+01    1.289968e+00
  1.989625e+01    1.297631e+00
  1.992800e+01    1.293924e+00
  1.995975e+01    1.276285e+00
  1.999150e+01    1.280652e+00
  2.002325e+01    1.292773e+00
  2.005501e+01    1.299112e+00
  2.008676e+01    1.279798e+00
  2.011851e+01    1.305203e+00
  2.015026e+01    1.287708e+00
  2.018201e+01    1.275808e+00
  2.021376e+01    1.235129e+00
  2.024551e+01    1.252056e+00
  2.027726e+01    1.244658e+00
  2.030902e+01    1.294925e+00
  2.034077e+01    1.257579e+00
  2.037252e+01    1.271391e+00
  2.040427e+01    1.252688e+00
  2.043602e+01    1.241138e+00
  2.046777e+01    1.238369e+00
  2.049952e+01    1.240299e+00
  2.053127e+01    1.263633e+00
  2.056302e+01    1.240492e+00
  2.059478e+01    1.238817e+00
  2.062653e+01    1.236798e+00
  2.065828e+01    1.270460e+00
  2.069003e+01    1.225350e+00
  2.072178e+01    1.243460e+00
  2.075353e+01    1.236998e+00
  2.078528e+01    1.209797e+00
  2.081703e+01    1.232613e+00
  2.084878e+01    1.217751e+00
  2.088054e+01    1.245385e+00
  2.091229e+01    1.217136e+00
  2.094404e+01    1.244798e+00
  2.097579e+01    1.230379e+00
  2.100754e+01    1.210346e+00
  2.103929e+01    1.226003e+00
  2.107104e+01    1.214605e+00
  2.110279e+01    1.241875e+00
  2.113455e+01    1.232865e+00
  2.116630e+01    1.230690e+00
  2.119805e+01    1.227048e+00
  2.122980e+01    1.254055e+00
  2.126155e+01    1.248173e+00
  2.129330e+01    1.250189e+00
  2.132505e+01    1.278947e+00
  2.135680e+01    1.286129e+00
  2.138855e+01    1.293451e+00
  2.142031e+01    1.338020e+00
  2.145206e+01    1.359227e+00
  2.148381e+01    1.406897e+00
  2.151556e+01    1.430636e+00
  2.154731e+01    1.524324e+00
  2.157906e+01    1.588671e+00
  2.161081e+01    1.782079e+00
  2.164256e+01    1.985288e+00
  2.167431e+01    2.319333e+00
  2.170607e+01    2.785625e+00
  2.173782e+01    3.536480e+00
  2.176957e+01    4.612016e+00
  2.180132e+01    5.907369e+00
  2.183307e+01    7.223719e+00
  2.186482e+01    8.442192e+00
  2.189657e+01    8.980484e+00
  2.192832e+01    8.270273e+00
  2.196007e+01    6.570603e+00
  2.199183e+01    4.840794e+00
  2.202358e+01    3.635353e+00
  2.205533e+01    2.835908e+00
  2.208708e+01    2.339605e+00
  2.211883e+01    1.991482e+00
  2.215058e+01    1.766548e+00
  2.218233e+01    1.592416e+00
  2.221408e+01    1.532791e+00
  2.224584e+01    1.398798e+00
  2.227759e+01    1.357684e+00
  2.230934e+01    1.301112e+00
  2.234109e+01    1.271697e+00
  2.237284e+01    1.263729e+00
  2.240459e+01    1.213295e+00
  2.243634e+01    1.179844e+00
  2.246809e+01    1.160980e+00
  2.249984e+01    1.150221e+00
  2.253160e+01    1.159500e+00
  2.256335e+01    1.124338e+00
  2.259510e+01    1.106977e+00
  2.262685e+01    1.095939e+00
  2.265860e+01    1.100990e+00
  2.269035e+01    1.072936e+00
  2.272210e+01    1.084754e+00
  2.275385e+01    1.051365e+00
  2.278560e+01    1.041007e+00
  2.281736e+01    1.057278e+00
  2.284911e+01    1.049298e+00
  2.288086e+01    1.038343e+00
  2.291261e+01    1.035010e+00
  2.294436e+01    1.028000e+00
  2.297611e+01    1.035418e+00
  2.300786e+01    1.024568e+00
  2.303961e+01    1.028608e+00
  2.307137e+01    1.012017e+00
  2.310312e+01    1.023341e+00
  2.313487e+01    9.988176e-01
  2.316662e+01    9.972164e-01
  2.319837e+01    1.002644e+00
  2.323012e+01    9.863394e-01
  2.326187e+01    9.934201e-01
  2.329362e+01    9.777959e-01
  2.332537e+01    1.000057e+00
  2.335713e+01    9.856747e-01
  2.338888e+01    9.714993e-01
  2.342063e+01    9.842229e-01
  2.345238e+01    9.488645e-01
  2.348413e+01    9.171968e-01
  2.351588e+01    9.708980e-01
  2.354763e+01    9.608644e-01
  2.357938e+01    9.526708e-01
  2.361113e+01    9.583795e-01
  2.364289e+01    9.646679e-01
  2.367464e+01    9.891514e-01
  2.370639e+01    9.450462e-01
  2.373814e+01    9.665853e-01
  2.376989e+01    9.421595e-01
  2.380164e+01    9.233320e-01
  2.383339e+01    9.088860e-01
  2.386514e+01    9.235564e-01
  2.389689e+01    9.147877e-01
  2.392865e+01    9.210896e-01
  2.396040e+01    8.873405e-01
  2.399215e+01    9.071689e-01
  2.402390e+01    9.039247e-01
  2.405565e+01    8.822811e-01
  2.408740e+01    9.056106e-01
  2.411915e+01    9.307791e-01
  2.415090e+01    8.957395e-01
  2.418266e+01    8.596486e-01
  2.421441e+01    8.645752e-01
  2.424616e+01    8.734698e-01
  2.427791e+01    8.838930e-01
  2.430966e+01    9.012269e-01
  2.434141e+01    9.035279e-01
  2.437316e+01    8.873432e-01
  2.440491e+01    8.864193e-01
  2.443666e+01    8.740168e-01
  2.446842e+01    8.721920e-01
  2.450017e+01    8.869771e-01
  2.453192e+01    8.892534e-01
  2.456367e+01    8.760746e-01
  2.459542e+01    9.088231e-01
  2.462717e+01    8.763070e-01
  2.465892e+01    8.723251e-01
  2.469067e+01    8.905232e-01
  2.472242e+01    9.059317e-01
  2.475418e+01    8.820485e-01
  2.478593e+01    8.678470e-01
  2.481768e+01    8.962300e-01
  2.484943e+01    8.844560e-01
  2.488118e+01    8.751553e-01
  2.491293e+01    8.911747e-01
  2.494468e+01    8.949945e-01
  2.497643e+01    9.154677e-01
  2.500819e+01    9.114956e-01
  2.503994e+01    9.131268e-01
  2.507169e+01    9.321586e-01
  2.510344e+01    9.026175e-01
  2.513519e+01    9.141212e-01
  2.516694e+01    9.166411e-01
  2.519869e+01    9.451805e-01
  2.523044e+01    9.197029e-01
  2.526219e+01    9.473280e-01
  2.529395e+01    9.476326e-01
  2.532570e+01    9.661130e-01
  2.535745e+01    1.000075e+00
  2.538920e+01    9.895331e-01
  2.542095e+01    9.853953e-01
  2.545270e+01    1.014906e+00
  2.548445e+01    1.057977e+00
  2.551620e+01    1.062743e+00
  2.554795e+01    1.120358e+00
  2.557971e+01    1.163774e+00
  2.561146e+01    1.209462e+00
  2.564321e+01    1.302806e+00
  2.567496e+01    1.400875e+00
  2.570671e+01    1.605302e+00
  2.573846e+01    1.865150e+00
  2.577021e+01    2.255933e+00
  2.580196e+01    2.827919e+00
  2.583371e+01    3.632869e+00
  2.586547e+01    4.730034e+00
  2.589722e+01    5.878702e+00
  2.592897e+01    6.838936e+00
  2.596072e+01    7.141771e+00
  2.599247e+01    6.597636e+00
  2.602422e+01    5.263568e+00
  2.605597e+01    3.995179e+00
  2.608772e+01    2.957209e+00
  2.611948e+01    2.393153e+00
  2.615123e+01    1.961497e+00
  2.618298e+01    1.683324e+00
  2.621473e+01    1.483299e+00
  2.624648e+01    1.352003e+00
  2.627823e+01    1.245251e+00
  2.630998e+01    1.188244e+00
  2.634173e+01    1.134321e+00
  2.637348e+01    1.091594e+00
  2.640524e+01    1.050964e+00
  2.643699e+01    1.059151e+00
  2.646874e+01    1.034349e+00
  2.650049e+01    1.020902e+00
  2.653224e+01    9.958887e-01
  2.656399e+01    1.004193e+00
  2.659574e+01    9.782106e-01
  2.662749e+01    9.822345e-01
  2.665924e+01    9.761494e-01
  2.669100e+01    9.798560e-01
  2.672275e+01    9.885267e-01
  2.675450e+01    9.611010e-01
  2.678625e+01    9.561474e-01
  2.681800e+01    9.670331e-01
  2.684975e+01    9.779130e-01
  2.688150e+01    9.927412e-01
  2.691325e+01    1.008160e+00
  2.694501e+01    1.031551e+00
  2.697676e+01    1.063123e+00
  2.700851e+01    1.138933e+00
  2.704026e+01    1.204859e+00
  2.707201e+01    1.317588e+00
  2.710376e+01    1.486492e+00
  2.713551e+01    1.725573e+00
  2.716726e+01    1.964216e+00
  2.719901e+01    2.129532e+00
  2.723077e+01    2.155647e+00
  2.726252e+01    1.987884e+00
  2.729427e+01    1.714190e+00
  2.732602e+01    1.460125e+00
  2.735777e+01    1.271952e+00
  2.738952e+01    1.167777e+00
  2.742127e+01    1.097686e+00
  2.745302e+01    1.037015e+00
  2.748477e+01    9.842982e-01
  2.751653e+01    9.670502e-01
  2.754828e+01    9.399191e-01
  2.758003e+01    9.283389e-01
  2.761178e+01    9.290268e-01
  2.764353e+01    9.256505e-01
  2.767528e+01    8.897460e-01
  2.770703e+01    9.049960e-01
  2.773878e+01    9.158603e-01
  2.777054e+01    8.926754e-01
  2.780229e+01    8.954461e-01
  2.783404e+01    8.885732e-01
  2.786579e+01    8.812271e-01
  2.789754e+01    8.712993e-01
  2.792929e+01    8.799246e-01
  2.796104e+01    8.591548e-01
  2.799279e+01    8.619463e-01
  2.802454e+01    8.553298e-01
  2.805630e+01    8.428097e-01
  2.808805e+01    8.616679e-01
  2.811980e+01    8.548368e-01
  2.815155e+01    8.316861e-01
  2.818330e+01    8.605344e-01
  2.821505e+01    8.555099e-01
  2.824680e+01    8.355667e-01
  2.827855e+01    8.590462e-01
  2.831030e+01    8.381332e-01
  2.834206e+01    8.440173e-01
  2.837381e+01    8.396154e-01
  2.840556e+01    8.404775e-01
  2.843731e+01    8.441073e-01
  2.846906e+01    8.413462e-01
  2.850081e+01    8.499008e-01
  2.853256e+01    8.374036e-01
  2.856431e+01    8.492548e-01
  2.859606e+01    8.069448e-01
  2.862782e+01    8.136368e-01
  2.865957e+01    8.189589e-01
  2.869132e+01    8.364851e-01
  2.872307e+01    8.353480e-01
  2.875482e+01    8.479347e-01
  2.878657e+01    8.348972e-01
  2.881832e+01    8.492758e-01
  2.885007e+01    8.134923e-01
  2.888183e+01    8.298516e-01
  2.891358e+01    8.466588e-01
  2.894533e+01    8.189127e-01
  2.897708e+01    8.166910e-01
  2.900883e+01    8.239665e-01
  2.904058e+01    8.036087e-01
  2.907233e+01    8.186610e-01
  2.910408e+01    8.057338e-01
  2.913583e+01    8.032897e-01
  2.916759e+01    7.941910e-01
  2.919934e+01    8.275082e-01
  2.923109e+01    8.145773e-01
  2.926284e+01    8.144763e-01
  2.929459e+01    8.110572e-01
  2.932634e+01    8.096955e-01
  2.935809e+01    8.067463e-01
  2.938984e+01    8.167210e-01
  2.942159e+01    7.908351e-01
  2.945335e+01    8.027682e-01
  2.948510e+01    8.176093e-01
  2.951685e+01    7.949674e-01
  2.954860e+01    7.949241e-01
  2.958035e+01    7.840318e-01
  2.961210e+01    7.967019e-01
  2.964385e+01    8.031065e-01
  2.967560e+01    7.984122e-01
  2.970736e+01    7.878016e-01
  2.973911e+01    8.038966e-01
  2.977086e+01    8.052808e-01
  2.980261e+01    7.999026e-01
  2.983436e+01    7.995592e-01
  2.986611e+01    7.861759e-01
  2.989786e+01    7.948419e-01
  2.992961e+01    7.851505e-01
  2.996136e+01    8.056844e-01
  2.999312e+01    8.193288e-01
  3.002487e+01    8.018124e-01
  3.005662e+01    7.979245e-01
  3.008837e+01    8.109387e-01
  3.012012e+01    8.030579e-01
  3.015187e+01    7.767711e-01
  3.018362e+01    8.053729e-01
  3.021537e+01    7.697269e-01
  3.024712e+01    7.703964e-01
  3.027888e+01    7.778627e-01
  3.031063e+01    7.798345e-01
  3.034238e+01    8.112242e-01
  3.037413e+01    7.971905e-01
  3.040588e+01    7.830973e-01
  3.043763e+01    7.938102e-01
  3.046938e+01    7.924159e-01
  3.050113e+01    7.758322e-01
  3.053288e+01    7.730920e-01
  3.056464e+01    7.827464e-01
  3.059639e+01    7.683830e-01
  3.062814e+01    7.716258e-01
  3.065989e+01    8.001405e-01
  3.069164e+01    7.883288e-01
  3.072339e+01    7.816064e-01
  3.075514e+01    7.904489e-01
  3.078689e+01    7.775006e-01
  3.081865e+01    7.915555e-01
  3.085040e+01    7.839666e-01
  3.088215e+01    7.858101e-01
  3.091390e+01    7.686104e-01
  3.094565e+01    7.845883e-01
  3.097740e+01    7.785987e-01
  3.100915e+01    7.968029e-01
  3.104090e+01    7.950660e-01
  3.107265e+01    7.740455e-01
  3.110441e+01    7.830451e-01
  3.113616e+01    7.884247e-01
  3.116791e+01    7.815181e-01
  3.119966e+01    7.937393e-01
  3.123141e+01    8.078142e-01
  3.126316e+01    7.939010e-01
  3.129491e+01    7.863414e-01
  3.132666e+01    7.835006e-01
  3.135841e+01    8.060941e-01
  3.139017e+01    7.890055e-01
  3.142192e+01    8.097838e-01
  3.145367e+01    8.291322e-01
  3.148542e+01    8.419796e-01
  3.151717e+01    8.403727e-01
  3.154892e+01    8.324227e-01
  3.158067e+01    8.719146e-01
  3.161242e+01    8.788129e-01
  3.164418e+01    9.212369e-01
  3.167593e+01    9.549432e-01
  3.170768e+01    9.996157e-01
  3.173943e+01    1.106877e+00
  3.177118e+01    1.254401e+00
  3.180293e+01    1.485360e+00
  3.183468e+01    1.715405e+00
  3.186643e+01    1.957380e+00
  3.189818e+01    2.089926e+00
  3.192994e+01    2.031585e+00
  3.196169e+01    1.845218e+00
  3.199344e+01    1.577619e+00
  3.202519e+01    1.337383e+00
  3.205694e+01    1.125680e+00
  3.208869e+01    1.031730e+00
  3.212044e+01    9.821530e-01
  3.215219e+01    9.273320e-01
  3.218394e+01    8.860658e-01
  3.221570e+01    8.386697e-01
  3.224745e+01    8.246586e-01
  3.227920e+01    8.399358e-01
  3.231095e+01    8.163500e-01
  3.234270e+01    8.154390e-01
  3.237445e+01    8.100632e-01
  3.240620e+01    7.759233e-01
  3.243795e+01    7.853123e-01
  3.246970e+01    8.029435e-01
  3.250146e+01    7.730118e-01
  3.253321e+01    7.768965e-01
  3.254908e+01    7.655079e-01