File: XRD/Reaction conditions/2024-07-27_003_Ru-CGO-ex_Reaction_dwell_000023_data_000059.dat
# == pyFAI calibration ==
# Distance Sample to Detector: 0.4 m
# PONI: 9.750e-02, 1.135e-01 m
# Rotations: -0.000175 0.000000 -0.000000 rad
#
# == Fit2d calibration ==
# Distance Sample-beamCenter: 400.000 mm
# Center: x=1514.000, y=1300.000 pix
# Tilt: 0.010 deg  TiltPlanRot: 0.010 deg
#
# Detector Detector	 Spline= None	 PixelSize= 7.500e-05, 7.500e-05 m
#    Detector has a mask: False
#    Detector has a dark current: False
#    detector has a flat field: False
#
# Wavelength: 6.888e-11 m
# Mask applied: user provided
# Dark current applied: False
# Flat field applied: False
# Polarization factor: 0.99
# Normalization factor: 1.0
# --> /home/myspot/data/2024_07_Rosario/Ru-CGO-ex/2024-07-27_003_Ru-CGO-ex_Reaction_dwell_000023_data_000059.dat
#       q_nm^-1             I
  2.003187e-02    1.424646e-01
  5.178302e-02    6.857210e-02
  8.353417e-02    1.970544e-01
  1.152853e-01    9.989391e-02
  1.470365e-01    5.389620e-02
  1.787876e-01    7.260875e-02
  2.105388e-01    7.242126e-02
  2.422899e-01    1.260834e-02
  2.740411e-01    4.266502e-02
  3.057922e-01    4.558733e-02
  3.375433e-01    1.454952e-02
  3.692945e-01    3.879460e-02
  4.010456e-01    4.817139e-02
  4.327968e-01    7.531875e-02
  4.645479e-01    3.206798e-02
  4.962991e-01    3.302391e-02
  5.280502e-01    4.135929e-02
  5.598014e-01    3.773816e-02
  5.915525e-01    7.487500e-02
  6.233037e-01    4.095067e-02
  6.550548e-01    5.171011e-02
  6.868060e-01    4.169166e-02
  7.185571e-01    6.773753e-02
  7.503083e-01    5.672317e-02
  7.820594e-01    7.906930e-02
  8.138106e-01    2.101444e-01
  8.455617e-01    3.582168e-01
  8.773129e-01    5.390462e-01
  9.090640e-01    6.490542e-01
  9.408152e-01    8.160163e-01
  9.725663e-01    1.026335e+00
  1.004317e+00    1.236625e+00
  1.036069e+00    1.369938e+00
  1.067820e+00    1.445079e+00
  1.099571e+00    1.551386e+00
  1.131322e+00    1.570396e+00
  1.163073e+00    1.714380e+00
  1.194824e+00    1.792164e+00
  1.226575e+00    2.317612e+00
  1.258327e+00    2.408717e+00
  1.290078e+00    2.572304e+00
  1.321829e+00    2.643599e+00
  1.353580e+00    2.726494e+00
  1.385331e+00    2.903968e+00
  1.417082e+00    2.880605e+00
  1.448834e+00    2.898084e+00
  1.480585e+00    3.103058e+00
  1.512336e+00    3.126739e+00
  1.544087e+00    3.175365e+00
  1.575838e+00    3.090972e+00
  1.607589e+00    3.215953e+00
  1.639340e+00    3.015334e+00
  1.671092e+00    3.167051e+00
  1.702843e+00    3.211114e+00
  1.734594e+00    3.051619e+00
  1.766345e+00    3.085962e+00
  1.798096e+00    2.966514e+00
  1.829847e+00    3.029828e+00
  1.861598e+00    3.142456e+00
  1.893350e+00    3.176683e+00
  1.925101e+00    3.064861e+00
  1.956852e+00    3.084917e+00
  1.988603e+00    2.997487e+00
  2.020354e+00    2.859874e+00
  2.052105e+00    3.301684e+00
  2.083856e+00    3.154927e+00
  2.115608e+00    3.105705e+00
  2.147359e+00    3.145602e+00
  2.179110e+00    3.111072e+00
  2.210861e+00    3.007292e+00
  2.242612e+00    3.228161e+00
  2.274363e+00    3.163850e+00
  2.306115e+00    2.954365e+00
  2.337866e+00    3.138454e+00
  2.369617e+00    3.124538e+00
  2.401368e+00    3.197816e+00
  2.433119e+00    3.146276e+00
  2.464870e+00    3.197348e+00
  2.496621e+00    3.221620e+00
  2.528373e+00    3.275387e+00
  2.560124e+00    3.154819e+00
  2.591875e+00    3.337283e+00
  2.623626e+00    3.188753e+00
  2.655377e+00    3.277609e+00
  2.687128e+00    3.330955e+00
  2.718879e+00    3.286665e+00
  2.750631e+00    3.295012e+00
  2.782382e+00    3.232120e+00
  2.814133e+00    3.300021e+00
  2.845884e+00    3.381045e+00
  2.877635e+00    3.381953e+00
  2.909386e+00    3.435143e+00
  2.941137e+00    3.319499e+00
  2.972889e+00    3.239462e+00
  3.004640e+00    3.292715e+00
  3.036391e+00    3.205480e+00
  3.068142e+00    3.427706e+00
  3.099893e+00    3.313943e+00
  3.131644e+00    3.451809e+00
  3.163395e+00    3.452637e+00
  3.195147e+00    3.469716e+00
  3.226898e+00    3.479661e+00
  3.258649e+00    3.432597e+00
  3.290400e+00    3.328622e+00
  3.322151e+00    3.393321e+00
  3.353902e+00    3.474956e+00
  3.385654e+00    3.425567e+00
  3.417405e+00    3.382877e+00
  3.449156e+00    3.389635e+00
  3.480907e+00    3.411047e+00
  3.512658e+00    3.459387e+00
  3.544409e+00    3.483112e+00
  3.576160e+00    3.545492e+00
  3.607912e+00    3.344230e+00
  3.639663e+00    3.505734e+00
  3.671414e+00    3.492476e+00
  3.703165e+00    3.518188e+00
  3.734916e+00    3.497132e+00
  3.766667e+00    3.512972e+00
  3.798418e+00    3.353242e+00
  3.830170e+00    3.489952e+00
  3.861921e+00    3.486576e+00
  3.893672e+00    3.586591e+00
  3.925423e+00    3.408490e+00
  3.957174e+00    3.503347e+00
  3.988925e+00    3.611282e+00
  4.020676e+00    3.491247e+00
  4.052428e+00    3.500826e+00
  4.084179e+00    3.466544e+00
  4.115930e+00    3.508925e+00
  4.147681e+00    3.540690e+00
  4.179432e+00    3.534589e+00
  4.211183e+00    3.531537e+00
  4.242935e+00    3.569905e+00
  4.274686e+00    3.607603e+00
  4.306437e+00    3.593865e+00
  4.338188e+00    3.552296e+00
  4.369939e+00    3.598775e+00
  4.401690e+00    3.617028e+00
  4.433441e+00    3.650874e+00
  4.465193e+00    3.518836e+00
  4.496944e+00    3.577047e+00
  4.528695e+00    3.624526e+00
  4.560446e+00    3.597786e+00
  4.592197e+00    3.774174e+00
  4.623948e+00    3.642838e+00
  4.655699e+00    3.431314e+00
  4.687451e+00    3.662723e+00
  4.719202e+00    3.635714e+00
  4.750953e+00    3.626330e+00
  4.782704e+00    3.597896e+00
  4.814455e+00    3.596938e+00
  4.846206e+00    3.562526e+00
  4.877957e+00    3.675387e+00
  4.909709e+00    3.633330e+00
  4.941460e+00    3.570676e+00
  4.973211e+00    3.777489e+00
  5.004962e+00    3.666861e+00
  5.036713e+00    3.639933e+00
  5.068464e+00    3.655862e+00
  5.100216e+00    3.594004e+00
  5.131967e+00    3.617110e+00
  5.163718e+00    3.619876e+00
  5.195469e+00    3.698395e+00
  5.227220e+00    3.728585e+00
  5.258971e+00    3.646581e+00
  5.290722e+00    3.630701e+00
  5.322474e+00    3.690497e+00
  5.354225e+00    3.731755e+00
  5.385976e+00    3.747412e+00
  5.417727e+00    3.651594e+00
  5.449478e+00    3.545410e+00
  5.481229e+00    3.613605e+00
  5.512980e+00    3.631655e+00
  5.544732e+00    3.681761e+00
  5.576483e+00    3.547890e+00
  5.608234e+00    3.549585e+00
  5.639985e+00    3.579590e+00
  5.671736e+00    3.667312e+00
  5.703487e+00    3.562604e+00
  5.735238e+00    3.571727e+00
  5.766990e+00    3.620922e+00
  5.798741e+00    3.533114e+00
  5.830492e+00    3.629457e+00
  5.862243e+00    3.460360e+00
  5.893994e+00    3.547439e+00
  5.925745e+00    3.559367e+00
  5.957497e+00    3.546604e+00
  5.989248e+00    3.509495e+00
  6.020999e+00    3.496478e+00
  6.052750e+00    3.496777e+00
  6.084501e+00    3.576601e+00
  6.116252e+00    3.667940e+00
  6.148003e+00    3.632604e+00
  6.179755e+00    3.594101e+00
  6.211506e+00    3.584005e+00
  6.243257e+00    3.551898e+00
  6.275008e+00    3.528918e+00
  6.306759e+00    3.538825e+00
  6.338510e+00    3.512126e+00
  6.370261e+00    3.590676e+00
  6.402013e+00    3.534257e+00
  6.433764e+00    3.555428e+00
  6.465515e+00    3.573113e+00
  6.497266e+00    3.583144e+00
  6.529017e+00    3.619192e+00
  6.560768e+00    3.651428e+00
  6.592519e+00    3.605716e+00
  6.624271e+00    3.602209e+00
  6.656022e+00    3.508379e+00
  6.687773e+00    3.643283e+00
  6.719524e+00    3.597396e+00
  6.751275e+00    3.511458e+00
  6.783026e+00    3.650939e+00
  6.814777e+00    3.539871e+00
  6.846529e+00    3.523564e+00
  6.878280e+00    3.567606e+00
  6.910031e+00    3.602777e+00
  6.941782e+00    3.539642e+00
  6.973533e+00    3.525497e+00
  7.005284e+00    3.604811e+00
  7.037036e+00    3.560985e+00
  7.068787e+00    3.527748e+00
  7.100538e+00    3.504094e+00
  7.132289e+00    3.587116e+00
  7.164040e+00    3.526205e+00
  7.195791e+00    3.512474e+00
  7.227542e+00    3.591359e+00
  7.259294e+00    3.509802e+00
  7.291045e+00    3.577658e+00
  7.322796e+00    3.505885e+00
  7.354547e+00    3.428082e+00
  7.386298e+00    3.503853e+00
  7.418049e+00    3.497046e+00
  7.449800e+00    3.489834e+00
  7.481552e+00    3.525517e+00
  7.513303e+00    3.515268e+00
  7.545054e+00    3.461535e+00
  7.576805e+00    3.498767e+00
  7.608556e+00    3.478186e+00
  7.640307e+00    3.478681e+00
  7.672058e+00    3.425728e+00
  7.703810e+00    3.445846e+00
  7.735561e+00    3.397007e+00
  7.767312e+00    3.442761e+00
  7.799063e+00    3.393804e+00
  7.830814e+00    3.430551e+00
  7.862565e+00    3.433866e+00
  7.894317e+00    3.399147e+00
  7.926068e+00    3.527088e+00
  7.957819e+00    3.448660e+00
  7.989570e+00    3.307677e+00
  8.021321e+00    3.422111e+00
  8.053072e+00    3.492357e+00
  8.084823e+00    3.518121e+00
  8.116575e+00    3.434110e+00
  8.148326e+00    3.595038e+00
  8.180077e+00    3.537215e+00
  8.211828e+00    3.527289e+00
  8.243579e+00    3.502533e+00
  8.275330e+00    3.455338e+00
  8.307081e+00    3.466648e+00
  8.338833e+00    3.403005e+00
  8.370584e+00    3.398572e+00
  8.402335e+00    3.390079e+00
  8.434086e+00    3.397820e+00
  8.465837e+00    3.390804e+00
  8.497588e+00    3.351546e+00
  8.529339e+00    3.353758e+00
  8.561091e+00    3.321942e+00
  8.592842e+00    3.376620e+00
  8.624593e+00    3.386409e+00
  8.656344e+00    3.387253e+00
  8.688095e+00    3.369187e+00
  8.719846e+00    3.375244e+00
  8.751598e+00    3.372571e+00
  8.783349e+00    3.365389e+00
  8.815100e+00    3.374610e+00
  8.846851e+00    3.348300e+00
  8.878602e+00    3.301831e+00
  8.910353e+00    3.301346e+00
  8.942104e+00    3.316004e+00
  8.973856e+00    3.266024e+00
  9.005607e+00    3.312214e+00
  9.037358e+00    3.304492e+00
  9.069109e+00    3.269516e+00
  9.100860e+00    3.235659e+00
  9.132611e+00    3.236962e+00
  9.164362e+00    3.314875e+00
  9.196114e+00    3.325516e+00
  9.227865e+00    3.287423e+00
  9.259616e+00    3.271141e+00
  9.291367e+00    3.222610e+00
  9.323118e+00    3.263962e+00
  9.354869e+00    3.219037e+00
  9.386620e+00    3.190781e+00
  9.418372e+00    3.302032e+00
  9.450123e+00    3.243864e+00
  9.481874e+00    3.305063e+00
  9.513625e+00    3.234200e+00
  9.545376e+00    3.257456e+00
  9.577127e+00    3.268384e+00
  9.608878e+00    3.191743e+00
  9.640630e+00    3.265814e+00
  9.672381e+00    3.180763e+00
  9.704132e+00    3.168990e+00
  9.735883e+00    3.189104e+00
  9.767634e+00    3.135570e+00
  9.799385e+00    3.183510e+00
  9.831137e+00    3.117386e+00
  9.862888e+00    3.143763e+00
  9.894639e+00    3.121748e+00
  9.926390e+00    3.095111e+00
  9.958141e+00    3.129943e+00
  9.989892e+00    3.118839e+00
  1.002164e+01    3.100243e+00
  1.005339e+01    3.097229e+00
  1.008515e+01    3.075784e+00
  1.011690e+01    3.083289e+00
  1.014865e+01    3.072268e+00
  1.018040e+01    3.044539e+00
  1.021215e+01    3.051901e+00
  1.024390e+01    3.050050e+00
  1.027565e+01    3.035784e+00
  1.030740e+01    3.122762e+00
  1.033915e+01    3.038895e+00
  1.037091e+01    3.081692e+00
  1.040266e+01    3.070290e+00
  1.043441e+01    3.052397e+00
  1.046616e+01    3.026403e+00
  1.049791e+01    3.041747e+00
  1.052966e+01    3.029143e+00
  1.056141e+01    3.036972e+00
  1.059316e+01    2.990867e+00
  1.062492e+01    2.951605e+00
  1.065667e+01    3.022129e+00
  1.068842e+01    2.973514e+00
  1.072017e+01    2.988262e+00
  1.075192e+01    2.935426e+00
  1.078367e+01    2.995764e+00
  1.081542e+01    2.953495e+00
  1.084717e+01    2.924673e+00
  1.087892e+01    2.948702e+00
  1.091068e+01    2.934915e+00
  1.094243e+01    2.904776e+00
  1.097418e+01    2.920110e+00
  1.100593e+01    2.880370e+00
  1.103768e+01    2.938385e+00
  1.106943e+01    2.871794e+00
  1.110118e+01    2.892798e+00
  1.113293e+01    2.910942e+00
  1.116468e+01    2.891118e+00
  1.119644e+01    2.885198e+00
  1.122819e+01    2.833973e+00
  1.125994e+01    2.831583e+00
  1.129169e+01    2.859451e+00
  1.132344e+01    2.817973e+00
  1.135519e+01    2.804726e+00
  1.138694e+01    2.798517e+00
  1.141869e+01    2.820314e+00
  1.145045e+01    2.841558e+00
  1.148220e+01    2.815517e+00
  1.151395e+01    2.851600e+00
  1.154570e+01    2.818049e+00
  1.157745e+01    2.799260e+00
  1.160920e+01    2.769494e+00
  1.164095e+01    2.739225e+00
  1.167270e+01    2.799672e+00
  1.170445e+01    2.766628e+00
  1.173621e+01    2.744655e+00
  1.176796e+01    2.715577e+00
  1.179971e+01    2.838256e+00
  1.183146e+01    2.704492e+00
  1.186321e+01    2.741088e+00
  1.189496e+01    2.731980e+00
  1.192671e+01    2.732048e+00
  1.195846e+01    2.732523e+00
  1.199021e+01    2.718539e+00
  1.202197e+01    2.689525e+00
  1.205372e+01    2.702832e+00
  1.208547e+01    2.709030e+00
  1.211722e+01    2.737600e+00
  1.214897e+01    2.703700e+00
  1.218072e+01    2.722426e+00
  1.221247e+01    2.742794e+00
  1.224422e+01    2.737946e+00
  1.227597e+01    2.738042e+00
  1.230773e+01    2.717671e+00
  1.233948e+01    2.715919e+00
  1.237123e+01    2.714139e+00
  1.240298e+01    2.686856e+00
  1.243473e+01    2.718056e+00
  1.246648e+01    2.680207e+00
  1.249823e+01    2.729319e+00
  1.252998e+01    2.717653e+00
  1.256174e+01    2.725243e+00
  1.259349e+01    2.735499e+00
  1.262524e+01    2.748089e+00
  1.265699e+01    2.774528e+00
  1.268874e+01    2.819221e+00
  1.272049e+01    2.808182e+00
  1.275224e+01    2.918395e+00
  1.278399e+01    2.994383e+00
  1.281574e+01    3.103618e+00
  1.284750e+01    3.210303e+00
  1.287925e+01    3.356695e+00
  1.291100e+01    3.686279e+00
  1.294275e+01    4.150943e+00
  1.297450e+01    4.852966e+00
  1.300625e+01    5.929826e+00
  1.303800e+01    7.865155e+00
  1.306975e+01    1.030140e+01
  1.310150e+01    1.279490e+01
  1.313326e+01    1.500219e+01
  1.316501e+01    1.632028e+01
  1.319676e+01    1.562424e+01
  1.322851e+01    1.243028e+01
  1.326026e+01    8.943488e+00
  1.329201e+01    6.699270e+00
  1.332376e+01    5.254408e+00
  1.335551e+01    4.391532e+00
  1.338727e+01    3.859635e+00
  1.341902e+01    3.454950e+00
  1.345077e+01    3.237315e+00
  1.348252e+01    3.057663e+00
  1.351427e+01    2.881989e+00
  1.354602e+01    2.816933e+00
  1.357777e+01    2.700804e+00
  1.360952e+01    2.665641e+00
  1.364127e+01    2.653919e+00
  1.367303e+01    2.622221e+00
  1.370478e+01    2.582836e+00
  1.373653e+01    2.538680e+00
  1.376828e+01    2.490888e+00
  1.380003e+01    2.490533e+00
  1.383178e+01    2.432723e+00
  1.386353e+01    2.442673e+00
  1.389528e+01    2.423972e+00
  1.392703e+01    2.416515e+00
  1.395879e+01    2.382800e+00
  1.399054e+01    2.390568e+00
  1.402229e+01    2.386343e+00
  1.405404e+01    2.386039e+00
  1.408579e+01    2.332217e+00
  1.411754e+01    2.358810e+00
  1.414929e+01    2.319324e+00
  1.418104e+01    2.328715e+00
  1.421279e+01    2.298573e+00
  1.424455e+01    2.273919e+00
  1.427630e+01    2.254939e+00
  1.430805e+01    2.263168e+00
  1.433980e+01    2.272740e+00
  1.437155e+01    2.275757e+00
  1.440330e+01    2.220808e+00
  1.443505e+01    2.219042e+00
  1.446680e+01    2.261529e+00
  1.449856e+01    2.235332e+00
  1.453031e+01    2.224773e+00
  1.456206e+01    2.193495e+00
  1.459381e+01    2.234505e+00
  1.462556e+01    2.187874e+00
  1.465731e+01    2.241361e+00
  1.468906e+01    2.230596e+00
  1.472081e+01    2.223125e+00
  1.475256e+01    2.217174e+00
  1.478432e+01    2.207521e+00
  1.481607e+01    2.204166e+00
  1.484782e+01    2.242384e+00
  1.487957e+01    2.268315e+00
  1.491132e+01    2.255689e+00
  1.494307e+01    2.279482e+00
  1.497482e+01    2.356417e+00
  1.500657e+01    2.469802e+00
  1.503832e+01    2.651250e+00
  1.507008e+01    2.834134e+00
  1.510183e+01    3.251136e+00
  1.513358e+01    3.849658e+00
  1.516533e+01    4.544227e+00
  1.519708e+01    5.235281e+00
  1.522883e+01    5.615438e+00
  1.526058e+01    5.750993e+00
  1.529233e+01    5.476373e+00
  1.532409e+01    4.650336e+00
  1.535584e+01    3.720790e+00
  1.538759e+01    3.120216e+00
  1.541934e+01    2.773441e+00
  1.545109e+01    2.494663e+00
  1.548284e+01    2.345926e+00
  1.551459e+01    2.236608e+00
  1.554634e+01    2.186154e+00
  1.557809e+01    2.127944e+00
  1.560985e+01    2.098203e+00
  1.564160e+01    2.069306e+00
  1.567335e+01    2.061221e+00
  1.570510e+01    2.031063e+00
  1.573685e+01    1.949607e+00
  1.576860e+01    1.955129e+00
  1.580035e+01    1.953930e+00
  1.583210e+01    1.915619e+00
  1.586385e+01    1.914121e+00
  1.589561e+01    1.909442e+00
  1.592736e+01    1.876137e+00
  1.595911e+01    1.883847e+00
  1.599086e+01    1.913140e+00
  1.602261e+01    1.848762e+00
  1.605436e+01    1.880022e+00
  1.608611e+01    1.864164e+00
  1.611786e+01    1.847924e+00
  1.614961e+01    1.868961e+00
  1.618137e+01    1.824427e+00
  1.621312e+01    1.827802e+00
  1.624487e+01    1.844457e+00
  1.627662e+01    1.835257e+00
  1.630837e+01    1.829644e+00
  1.634012e+01    1.805631e+00
  1.637187e+01    1.798928e+00
  1.640362e+01    1.780211e+00
  1.643538e+01    1.751006e+00
  1.646713e+01    1.762780e+00
  1.649888e+01    1.792993e+00
  1.653063e+01    1.790849e+00
  1.656238e+01    1.724013e+00
  1.659413e+01    1.759605e+00
  1.662588e+01    1.772331e+00
  1.665763e+01    1.749284e+00
  1.668938e+01    1.716740e+00
  1.672114e+01    1.688642e+00
  1.675289e+01    1.741442e+00
  1.678464e+01    1.712082e+00
  1.681639e+01    1.728167e+00
  1.684814e+01    1.694384e+00
  1.687989e+01    1.675163e+00
  1.691164e+01    1.689129e+00
  1.694339e+01    1.692124e+00
  1.697514e+01    1.669956e+00
  1.700690e+01    1.669721e+00
  1.703865e+01    1.686988e+00
  1.707040e+01    1.662848e+00
  1.710215e+01    1.666760e+00
  1.713390e+01    1.629510e+00
  1.716565e+01    1.650769e+00
  1.719740e+01    1.641548e+00
  1.722915e+01    1.627411e+00
  1.726091e+01    1.621011e+00
  1.729266e+01    1.643897e+00
  1.732441e+01    1.606774e+00
  1.735616e+01    1.581675e+00
  1.738791e+01    1.601542e+00
  1.741966e+01    1.626255e+00
  1.745141e+01    1.631759e+00
  1.748316e+01    1.563917e+00
  1.751491e+01    1.619546e+00
  1.754667e+01    1.559023e+00
  1.757842e+01    1.587647e+00
  1.761017e+01    1.566440e+00
  1.764192e+01    1.571431e+00
  1.767367e+01    1.572935e+00
  1.770542e+01    1.534431e+00
  1.773717e+01    1.547368e+00
  1.776892e+01    1.549670e+00
  1.780067e+01    1.551573e+00
  1.783243e+01    1.522846e+00
  1.786418e+01    1.531120e+00
  1.789593e+01    1.545274e+00
  1.792768e+01    1.523976e+00
  1.795943e+01    1.531741e+00
  1.799118e+01    1.490765e+00
  1.802293e+01    1.501945e+00
  1.805468e+01    1.521621e+00
  1.808643e+01    1.512218e+00
  1.811819e+01    1.502088e+00
  1.814994e+01    1.488627e+00
  1.818169e+01    1.475742e+00
  1.821344e+01    1.490783e+00
  1.824519e+01    1.460365e+00
  1.827694e+01    1.470831e+00
  1.830869e+01    1.485954e+00
  1.834044e+01    1.469108e+00
  1.837220e+01    1.483903e+00
  1.840395e+01    1.436813e+00
  1.843570e+01    1.480970e+00
  1.846745e+01    1.449319e+00
  1.849920e+01    1.452229e+00
  1.853095e+01    1.440403e+00
  1.856270e+01    1.440782e+00
  1.859445e+01    1.409662e+00
  1.862620e+01    1.436283e+00
  1.865796e+01    1.400656e+00
  1.868971e+01    1.422819e+00
  1.872146e+01    1.448120e+00
  1.875321e+01    1.404640e+00
  1.878496e+01    1.406454e+00
  1.881671e+01    1.403714e+00
  1.884846e+01    1.375730e+00
  1.888021e+01    1.365479e+00
  1.891196e+01    1.434371e+00
  1.894372e+01    1.430283e+00
  1.897547e+01    1.381465e+00
  1.900722e+01    1.386086e+00
  1.903897e+01    1.392248e+00
  1.907072e+01    1.359306e+00
  1.910247e+01    1.384001e+00
  1.913422e+01    1.392540e+00
  1.916597e+01    1.360574e+00
  1.919773e+01    1.361921e+00
  1.922948e+01    1.369614e+00
  1.926123e+01    1.361832e+00
  1.929298e+01    1.375912e+00
  1.932473e+01    1.361283e+00
  1.935648e+01    1.308399e+00
  1.938823e+01    1.361189e+00
  1.941998e+01    1.343191e+00
  1.945173e+01    1.320333e+00
  1.948349e+01    1.345607e+00
  1.951524e+01    1.318568e+00
  1.954699e+01    1.363531e+00
  1.957874e+01    1.342812e+00
  1.961049e+01    1.326974e+00
  1.964224e+01    1.315005e+00
  1.967399e+01    1.314586e+00
  1.970574e+01    1.307021e+00
  1.973749e+01    1.317770e+00
  1.976925e+01    1.306123e+00
  1.980100e+01    1.275797e+00
  1.983275e+01    1.319598e+00
  1.986450e+01    1.284306e+00
  1.989625e+01    1.304812e+00
  1.992800e+01    1.286384e+00
  1.995975e+01    1.294122e+00
  1.999150e+01    1.316598e+00
  2.002325e+01    1.263507e+00
  2.005501e+01    1.277209e+00
  2.008676e+01    1.282702e+00
  2.011851e+01    1.297510e+00
  2.015026e+01    1.280936e+00
  2.018201e+01    1.275305e+00
  2.021376e+01    1.262562e+00
  2.024551e+01    1.248324e+00
  2.027726e+01    1.251929e+00
  2.030902e+01    1.266808e+00
  2.034077e+01    1.247756e+00
  2.037252e+01    1.237812e+00
  2.040427e+01    1.271640e+00
  2.043602e+01    1.244409e+00
  2.046777e+01    1.238501e+00
  2.049952e+01    1.257307e+00
  2.053127e+01    1.241837e+00
  2.056302e+01    1.257138e+00
  2.059478e+01    1.223181e+00
  2.062653e+01    1.225525e+00
  2.065828e+01    1.235975e+00
  2.069003e+01    1.231456e+00
  2.072178e+01    1.251742e+00
  2.075353e+01    1.227314e+00
  2.078528e+01    1.204065e+00
  2.081703e+01    1.222763e+00
  2.084878e+01    1.215228e+00
  2.088054e+01    1.209741e+00
  2.091229e+01    1.246523e+00
  2.094404e+01    1.208835e+00
  2.097579e+01    1.245960e+00
  2.100754e+01    1.219856e+00
  2.103929e+01    1.212662e+00
  2.107104e+01    1.214394e+00
  2.110279e+01    1.203997e+00
  2.113455e+01    1.234349e+00
  2.116630e+01    1.244872e+00
  2.119805e+01    1.224894e+00
  2.122980e+01    1.227987e+00
  2.126155e+01    1.268049e+00
  2.129330e+01    1.268145e+00
  2.132505e+01    1.265703e+00
  2.135680e+01    1.289005e+00
  2.138855e+01    1.309921e+00
  2.142031e+01    1.340250e+00
  2.145206e+01    1.360179e+00
  2.148381e+01    1.394287e+00
  2.151556e+01    1.447235e+00
  2.154731e+01    1.545490e+00
  2.157906e+01    1.625357e+00
  2.161081e+01    1.783992e+00
  2.164256e+01    2.000686e+00
  2.167431e+01    2.337095e+00
  2.170607e+01    2.853524e+00
  2.173782e+01    3.612575e+00
  2.176957e+01    4.650832e+00
  2.180132e+01    6.003516e+00
  2.183307e+01    7.277033e+00
  2.186482e+01    8.466143e+00
  2.189657e+01    8.917123e+00
  2.192832e+01    8.141499e+00
  2.196007e+01    6.497829e+00
  2.199183e+01    4.675973e+00
  2.202358e+01    3.560048e+00
  2.205533e+01    2.781656e+00
  2.208708e+01    2.300308e+00
  2.211883e+01    1.988939e+00
  2.215058e+01    1.742335e+00
  2.218233e+01    1.574997e+00
  2.221408e+01    1.511738e+00
  2.224584e+01    1.402834e+00
  2.227759e+01    1.330446e+00
  2.230934e+01    1.322399e+00
  2.234109e+01    1.265635e+00
  2.237284e+01    1.226985e+00
  2.240459e+01    1.207573e+00
  2.243634e+01    1.174893e+00
  2.246809e+01    1.164778e+00
  2.249984e+01    1.134155e+00
  2.253160e+01    1.136416e+00
  2.256335e+01    1.106279e+00
  2.259510e+01    1.107873e+00
  2.262685e+01    1.103150e+00
  2.265860e+01    1.066993e+00
  2.269035e+01    1.090908e+00
  2.272210e+01    1.100806e+00
  2.275385e+01    1.074879e+00
  2.278560e+01    1.065421e+00
  2.281736e+01    1.042454e+00
  2.284911e+01    1.073961e+00
  2.288086e+01    1.040151e+00
  2.291261e+01    1.043141e+00
  2.294436e+01    1.014309e+00
  2.297611e+01    1.022826e+00
  2.300786e+01    1.041890e+00
  2.303961e+01    1.006443e+00
  2.307137e+01    1.014997e+00
  2.310312e+01    9.985680e-01
  2.313487e+01    1.005986e+00
  2.316662e+01    1.013241e+00
  2.319837e+01    1.019243e+00
  2.323012e+01    9.855466e-01
  2.326187e+01    9.880034e-01
  2.329362e+01    9.917561e-01
  2.332537e+01    9.806684e-01
  2.335713e+01    9.810544e-01
  2.338888e+01    9.454250e-01
  2.342063e+01    9.525233e-01
  2.345238e+01    9.792040e-01
  2.348413e+01    9.575081e-01
  2.351588e+01    9.645832e-01
  2.354763e+01    9.710958e-01
  2.357938e+01    9.517780e-01
  2.361113e+01    9.778360e-01
  2.364289e+01    9.196954e-01
  2.367464e+01    9.483090e-01
  2.370639e+01    9.439881e-01
  2.373814e+01    9.391398e-01
  2.376989e+01    9.372949e-01
  2.380164e+01    9.246138e-01
  2.383339e+01    9.200338e-01
  2.386514e+01    9.177752e-01
  2.389689e+01    8.865121e-01
  2.392865e+01    9.371436e-01
  2.396040e+01    9.215499e-01
  2.399215e+01    8.922407e-01
  2.402390e+01    9.025404e-01
  2.405565e+01    9.027183e-01
  2.408740e+01    9.068949e-01
  2.411915e+01    8.840899e-01
  2.415090e+01    8.894485e-01
  2.418266e+01    8.977393e-01
  2.421441e+01    8.924603e-01
  2.424616e+01    8.910289e-01
  2.427791e+01    9.159787e-01
  2.430966e+01    9.159529e-01
  2.434141e+01    8.833221e-01
  2.437316e+01    9.040912e-01
  2.440491e+01    8.833892e-01
  2.443666e+01    8.946026e-01
  2.446842e+01    8.884842e-01
  2.450017e+01    9.169888e-01
  2.453192e+01    9.016275e-01
  2.456367e+01    8.885871e-01
  2.459542e+01    8.860134e-01
  2.462717e+01    8.869914e-01
  2.465892e+01    8.996560e-01
  2.469067e+01    8.907074e-01
  2.472242e+01    9.033681e-01
  2.475418e+01    9.106763e-01
  2.478593e+01    8.990591e-01
  2.481768e+01    9.140667e-01
  2.484943e+01    8.766641e-01
  2.488118e+01    9.016637e-01
  2.491293e+01    8.774124e-01
  2.494468e+01    8.772243e-01
  2.497643e+01    8.918068e-01
  2.500819e+01    8.890085e-01
  2.503994e+01    9.107054e-01
  2.507169e+01    8.952504e-01
  2.510344e+01    9.230865e-01
  2.513519e+01    9.036939e-01
  2.516694e+01    9.133781e-01
  2.519869e+01    9.343671e-01
  2.523044e+01    9.563556e-01
  2.526219e+01    9.428877e-01
  2.529395e+01    9.451713e-01
  2.532570e+01    9.754869e-01
  2.535745e+01    9.710340e-01
  2.538920e+01    9.897982e-01
  2.542095e+01    1.008155e+00
  2.545270e+01    1.029772e+00
  2.548445e+01    1.047584e+00
  2.551620e+01    1.081661e+00
  2.554795e+01    1.113658e+00
  2.557971e+01    1.169182e+00
  2.561146e+01    1.231039e+00
  2.564321e+01    1.329069e+00
  2.567496e+01    1.455719e+00
  2.570671e+01    1.622112e+00
  2.573846e+01    1.844438e+00
  2.577021e+01    2.249446e+00
  2.580196e+01    2.867414e+00
  2.583371e+01    3.719286e+00
  2.586547e+01    4.754241e+00
  2.589722e+01    5.953309e+00
  2.592897e+01    6.811994e+00
  2.596072e+01    7.122663e+00
  2.599247e+01    6.400258e+00
  2.602422e+01    5.173926e+00
  2.605597e+01    3.846362e+00
  2.608772e+01    2.928939e+00
  2.611948e+01    2.326854e+00
  2.615123e+01    1.919881e+00
  2.618298e+01    1.668616e+00
  2.621473e+01    1.476040e+00
  2.624648e+01    1.344528e+00
  2.627823e+01    1.259879e+00
  2.630998e+01    1.161848e+00
  2.634173e+01    1.132819e+00
  2.637348e+01    1.067436e+00
  2.640524e+01    1.036470e+00
  2.643699e+01    1.057279e+00
  2.646874e+01    1.021208e+00
  2.650049e+01    9.841059e-01
  2.653224e+01    9.770920e-01
  2.656399e+01    9.942023e-01
  2.659574e+01    9.910824e-01
  2.662749e+01    9.797756e-01
  2.665924e+01    9.897960e-01
  2.669100e+01    9.734163e-01
  2.672275e+01    9.847397e-01
  2.675450e+01    9.744656e-01
  2.678625e+01    9.742157e-01
  2.681800e+01    9.834757e-01
  2.684975e+01    9.774357e-01
  2.688150e+01    9.953991e-01
  2.691325e+01    1.010820e+00
  2.694501e+01    1.034870e+00
  2.697676e+01    1.069275e+00
  2.700851e+01    1.119648e+00
  2.704026e+01    1.226608e+00
  2.707201e+01    1.330015e+00
  2.710376e+01    1.507284e+00
  2.713551e+01    1.763415e+00
  2.716726e+01    1.981230e+00
  2.719901e+01    2.163572e+00
  2.723077e+01    2.150006e+00
  2.726252e+01    1.954464e+00
  2.729427e+01    1.663327e+00
  2.732602e+01    1.419713e+00
  2.735777e+01    1.275503e+00
  2.738952e+01    1.157345e+00
  2.742127e+01    1.110314e+00
  2.745302e+01    1.033944e+00
  2.748477e+01    1.007511e+00
  2.751653e+01    9.746027e-01
  2.754828e+01    9.377070e-01
  2.758003e+01    9.456100e-01
  2.761178e+01    9.328134e-01
  2.764353e+01    9.312677e-01
  2.767528e+01    9.084522e-01
  2.770703e+01    9.109005e-01
  2.773878e+01    8.947908e-01
  2.777054e+01    8.907871e-01
  2.780229e+01    9.067457e-01
  2.783404e+01    8.732535e-01
  2.786579e+01    8.911468e-01
  2.789754e+01    8.668029e-01
  2.792929e+01    8.694871e-01
  2.796104e+01    8.784581e-01
  2.799279e+01    8.546697e-01
  2.802454e+01    8.806484e-01
  2.805630e+01    8.651746e-01
  2.808805e+01    8.566088e-01
  2.811980e+01    8.637254e-01
  2.815155e+01    8.569922e-01
  2.818330e+01    8.984078e-01
  2.821505e+01    8.555677e-01
  2.824680e+01    8.619978e-01
  2.827855e+01    8.862864e-01
  2.831030e+01    8.614036e-01
  2.834206e+01    8.400550e-01
  2.837381e+01    8.580099e-01
  2.840556e+01    8.672598e-01
  2.843731e+01    8.409112e-01
  2.846906e+01    8.604112e-01
  2.850081e+01    8.271232e-01
  2.853256e+01    8.294980e-01
  2.856431e+01    8.378236e-01
  2.859606e+01    8.317280e-01
  2.862782e+01    8.444853e-01
  2.865957e+01    8.384667e-01
  2.869132e+01    8.415498e-01
  2.872307e+01    8.227783e-01
  2.875482e+01    8.446712e-01
  2.878657e+01    8.530454e-01
  2.881832e+01    8.106999e-01
  2.885007e+01    8.030653e-01
  2.888183e+01    8.190961e-01
  2.891358e+01    7.939433e-01
  2.894533e+01    8.138415e-01
  2.897708e+01    8.183049e-01
  2.900883e+01    8.170125e-01
  2.904058e+01    8.134471e-01
  2.907233e+01    8.017467e-01
  2.910408e+01    8.230001e-01
  2.913583e+01    8.123857e-01
  2.916759e+01    8.197444e-01
  2.919934e+01    8.132149e-01
  2.923109e+01    8.091883e-01
  2.926284e+01    8.153353e-01
  2.929459e+01    8.112345e-01
  2.932634e+01    8.074583e-01
  2.935809e+01    8.028740e-01
  2.938984e+01    7.839122e-01
  2.942159e+01    7.979947e-01
  2.945335e+01    8.070597e-01
  2.948510e+01    8.259987e-01
  2.951685e+01    7.857677e-01
  2.954860e+01    8.144838e-01
  2.958035e+01    7.963418e-01
  2.961210e+01    8.133059e-01
  2.964385e+01    7.953730e-01
  2.967560e+01    7.883171e-01
  2.970736e+01    7.767534e-01
  2.973911e+01    7.946346e-01
  2.977086e+01    7.876495e-01
  2.980261e+01    7.893445e-01
  2.983436e+01    7.922578e-01
  2.986611e+01    7.828208e-01
  2.989786e+01    7.977611e-01
  2.992961e+01    7.991470e-01
  2.996136e+01    8.098168e-01
  2.999312e+01    8.228609e-01
  3.002487e+01    7.972844e-01
  3.005662e+01    8.353878e-01
  3.008837e+01    7.940409e-01
  3.012012e+01    8.076369e-01
  3.015187e+01    8.067623e-01
  3.018362e+01    7.946951e-01
  3.021537e+01    8.047023e-01
  3.024712e+01    7.877842e-01
  3.027888e+01    7.834110e-01
  3.031063e+01    7.853894e-01
  3.034238e+01    7.841769e-01
  3.037413e+01    7.916713e-01
  3.040588e+01    7.950146e-01
  3.043763e+01    7.719507e-01
  3.046938e+01    7.913173e-01
  3.050113e+01    7.924669e-01
  3.053288e+01    7.891970e-01
  3.056464e+01    8.016299e-01
  3.059639e+01    7.951017e-01
  3.062814e+01    7.791187e-01
  3.065989e+01    7.978290e-01
  3.069164e+01    7.821018e-01
  3.072339e+01    7.669134e-01
  3.075514e+01    7.729111e-01
  3.078689e+01    7.929443e-01
  3.081865e+01    7.735910e-01
  3.085040e+01    7.908541e-01
  3.088215e+01    7.755560e-01
  3.091390e+01    8.027249e-01
  3.094565e+01    7.965780e-01
  3.097740e+01    7.884110e-01
  3.100915e+01    7.844397e-01
  3.104090e+01    8.141561e-01
  3.107265e+01    7.824761e-01
  3.110441e+01    8.119582e-01
  3.113616e+01    8.027000e-01
  3.116791e+01    7.812911e-01
  3.119966e+01    7.645329e-01
  3.123141e+01    7.998042e-01
  3.126316e+01    7.944147e-01
  3.129491e+01    7.871186e-01
  3.132666e+01    8.067493e-01
  3.135841e+01    8.322368e-01
  3.139017e+01    8.126798e-01
  3.142192e+01    8.194631e-01
  3.145367e+01    8.186058e-01
  3.148542e+01    8.526949e-01
  3.151717e+01    8.249298e-01
  3.154892e+01    8.569407e-01
  3.158067e+01    8.689334e-01
  3.161242e+01    8.836524e-01
  3.164418e+01    9.145327e-01
  3.167593e+01    9.516144e-01
  3.170768e+01    1.026804e+00
  3.173943e+01    1.133326e+00
  3.177118e+01    1.267537e+00
  3.180293e+01    1.482275e+00
  3.183468e+01    1.737235e+00
  3.186643e+01    1.933485e+00
  3.189818e+01    2.110785e+00
  3.192994e+01    2.020977e+00
  3.196169e+01    1.816066e+00
  3.199344e+01    1.500428e+00
  3.202519e+01    1.307404e+00
  3.205694e+01    1.160174e+00
  3.208869e+01    1.017697e+00
  3.212044e+01    9.926242e-01
  3.215219e+01    9.027782e-01
  3.218394e+01    8.682903e-01
  3.221570e+01    8.686662e-01
  3.224745e+01    8.655270e-01
  3.227920e+01    8.142032e-01
  3.231095e+01    8.113965e-01
  3.234270e+01    8.194576e-01
  3.237445e+01    7.895486e-01
  3.240620e+01    8.073791e-01
  3.243795e+01    7.648295e-01
  3.246970e+01    7.983440e-01
  3.250146e+01    7.961450e-01
  3.253321e+01    7.660160e-01
  3.254908e+01    7.675349e-01