File: XRD/Reaction conditions/2024-07-27_003_Ru-CGO-ex_Reaction_dwell_000023_data_000003.dat
# == pyFAI calibration ==
# Distance Sample to Detector: 0.4 m
# PONI: 9.750e-02, 1.135e-01 m
# Rotations: -0.000175 0.000000 -0.000000 rad
#
# == Fit2d calibration ==
# Distance Sample-beamCenter: 400.000 mm
# Center: x=1514.000, y=1300.000 pix
# Tilt: 0.010 deg  TiltPlanRot: 0.010 deg
#
# Detector Detector	 Spline= None	 PixelSize= 7.500e-05, 7.500e-05 m
#    Detector has a mask: False
#    Detector has a dark current: False
#    detector has a flat field: False
#
# Wavelength: 6.888e-11 m
# Mask applied: user provided
# Dark current applied: False
# Flat field applied: False
# Polarization factor: 0.99
# Normalization factor: 1.0
# --> /home/myspot/data/2024_07_Rosario/Ru-CGO-ex/2024-07-27_003_Ru-CGO-ex_Reaction_dwell_000023_data_000003.dat
#       q_nm^-1             I
  2.003187e-02    2.226973e-02
  5.178302e-02    7.253440e-02
  8.353417e-02    3.255619e-02
  1.152853e-01    6.042251e-02
  1.470365e-01    3.036803e-03
  1.787876e-01    5.704227e-02
  2.105388e-01    6.163127e-02
  2.422899e-01    2.241286e-02
  2.740411e-01    6.819036e-02
  3.057922e-01    3.068893e-02
  3.375433e-01    6.631669e-02
  3.692945e-01    6.863526e-02
  4.010456e-01    5.272865e-02
  4.327968e-01    1.675732e-02
  4.645479e-01    7.090886e-02
  4.962991e-01    4.449851e-02
  5.280502e-01    3.723297e-02
  5.598014e-01    5.355426e-02
  5.915525e-01    2.058511e-02
  6.233037e-01    3.077989e-02
  6.550548e-01    3.782857e-02
  6.868060e-01    5.253021e-02
  7.185571e-01    4.889845e-02
  7.503083e-01    6.263838e-02
  7.820594e-01    1.368997e-01
  8.138106e-01    1.919477e-01
  8.455617e-01    3.013616e-01
  8.773129e-01    4.637797e-01
  9.090640e-01    6.066321e-01
  9.408152e-01    7.893662e-01
  9.725663e-01    1.020517e+00
  1.004317e+00    1.048868e+00
  1.036069e+00    1.311745e+00
  1.067820e+00    1.368278e+00
  1.099571e+00    1.599533e+00
  1.131322e+00    1.688521e+00
  1.163073e+00    1.702781e+00
  1.194824e+00    1.862063e+00
  1.226575e+00    2.310076e+00
  1.258327e+00    2.515462e+00
  1.290078e+00    2.665175e+00
  1.321829e+00    2.688882e+00
  1.353580e+00    2.836715e+00
  1.385331e+00    2.848011e+00
  1.417082e+00    2.788038e+00
  1.448834e+00    2.950424e+00
  1.480585e+00    3.212222e+00
  1.512336e+00    3.133992e+00
  1.544087e+00    3.304500e+00
  1.575838e+00    3.234260e+00
  1.607589e+00    3.198412e+00
  1.639340e+00    3.241751e+00
  1.671092e+00    3.017685e+00
  1.702843e+00    3.127803e+00
  1.734594e+00    3.275021e+00
  1.766345e+00    3.102352e+00
  1.798096e+00    3.116787e+00
  1.829847e+00    2.994244e+00
  1.861598e+00    2.972648e+00
  1.893350e+00    3.199009e+00
  1.925101e+00    3.085217e+00
  1.956852e+00    3.078078e+00
  1.988603e+00    3.034033e+00
  2.020354e+00    3.058523e+00
  2.052105e+00    3.085716e+00
  2.083856e+00    3.143688e+00
  2.115608e+00    3.077023e+00
  2.147359e+00    3.157472e+00
  2.179110e+00    3.151294e+00
  2.210861e+00    3.082036e+00
  2.242612e+00    3.044822e+00
  2.274363e+00    3.071849e+00
  2.306115e+00    3.219393e+00
  2.337866e+00    3.269948e+00
  2.369617e+00    3.152869e+00
  2.401368e+00    3.338226e+00
  2.433119e+00    3.243699e+00
  2.464870e+00    3.203451e+00
  2.496621e+00    3.137556e+00
  2.528373e+00    3.144380e+00
  2.560124e+00    3.263329e+00
  2.591875e+00    3.272065e+00
  2.623626e+00    3.239870e+00
  2.655377e+00    3.062503e+00
  2.687128e+00    3.265554e+00
  2.718879e+00    3.179177e+00
  2.750631e+00    3.326452e+00
  2.782382e+00    3.353382e+00
  2.814133e+00    3.226815e+00
  2.845884e+00    3.297996e+00
  2.877635e+00    3.327112e+00
  2.909386e+00    3.242740e+00
  2.941137e+00    3.354239e+00
  2.972889e+00    3.225917e+00
  3.004640e+00    3.315557e+00
  3.036391e+00    3.316017e+00
  3.068142e+00    3.436329e+00
  3.099893e+00    3.289031e+00
  3.131644e+00    3.486057e+00
  3.163395e+00    3.347386e+00
  3.195147e+00    3.400362e+00
  3.226898e+00    3.421228e+00
  3.258649e+00    3.378127e+00
  3.290400e+00    3.358675e+00
  3.322151e+00    3.482933e+00
  3.353902e+00    3.476797e+00
  3.385654e+00    3.403412e+00
  3.417405e+00    3.428235e+00
  3.449156e+00    3.407710e+00
  3.480907e+00    3.401119e+00
  3.512658e+00    3.531760e+00
  3.544409e+00    3.414345e+00
  3.576160e+00    3.466110e+00
  3.607912e+00    3.403186e+00
  3.639663e+00    3.531641e+00
  3.671414e+00    3.461774e+00
  3.703165e+00    3.429770e+00
  3.734916e+00    3.555255e+00
  3.766667e+00    3.545810e+00
  3.798418e+00    3.521902e+00
  3.830170e+00    3.553825e+00
  3.861921e+00    3.530346e+00
  3.893672e+00    3.554230e+00
  3.925423e+00    3.560264e+00
  3.957174e+00    3.543936e+00
  3.988925e+00    3.612668e+00
  4.020676e+00    3.551647e+00
  4.052428e+00    3.549603e+00
  4.084179e+00    3.554771e+00
  4.115930e+00    3.566251e+00
  4.147681e+00    3.552249e+00
  4.179432e+00    3.578010e+00
  4.211183e+00    3.662215e+00
  4.242935e+00    3.570363e+00
  4.274686e+00    3.642864e+00
  4.306437e+00    3.585612e+00
  4.338188e+00    3.663955e+00
  4.369939e+00    3.565833e+00
  4.401690e+00    3.606330e+00
  4.433441e+00    3.618758e+00
  4.465193e+00    3.632545e+00
  4.496944e+00    3.626895e+00
  4.528695e+00    3.609504e+00
  4.560446e+00    3.607342e+00
  4.592197e+00    3.675993e+00
  4.623948e+00    3.630014e+00
  4.655699e+00    3.675630e+00
  4.687451e+00    3.626424e+00
  4.719202e+00    3.768475e+00
  4.750953e+00    3.680115e+00
  4.782704e+00    3.721198e+00
  4.814455e+00    3.715849e+00
  4.846206e+00    3.674040e+00
  4.877957e+00    3.676334e+00
  4.909709e+00    3.756151e+00
  4.941460e+00    3.622702e+00
  4.973211e+00    3.633067e+00
  5.004962e+00    3.789977e+00
  5.036713e+00    3.795747e+00
  5.068464e+00    3.618903e+00
  5.100216e+00    3.656805e+00
  5.131967e+00    3.593597e+00
  5.163718e+00    3.690860e+00
  5.195469e+00    3.622775e+00
  5.227220e+00    3.646388e+00
  5.258971e+00    3.613034e+00
  5.290722e+00    3.692081e+00
  5.322474e+00    3.637844e+00
  5.354225e+00    3.688146e+00
  5.385976e+00    3.595468e+00
  5.417727e+00    3.667324e+00
  5.449478e+00    3.600996e+00
  5.481229e+00    3.583022e+00
  5.512980e+00    3.611152e+00
  5.544732e+00    3.612705e+00
  5.576483e+00    3.591819e+00
  5.608234e+00    3.564934e+00
  5.639985e+00    3.596565e+00
  5.671736e+00    3.550428e+00
  5.703487e+00    3.616228e+00
  5.735238e+00    3.620372e+00
  5.766990e+00    3.654261e+00
  5.798741e+00    3.608701e+00
  5.830492e+00    3.561120e+00
  5.862243e+00    3.507251e+00
  5.893994e+00    3.556830e+00
  5.925745e+00    3.632256e+00
  5.957497e+00    3.496575e+00
  5.989248e+00    3.620051e+00
  6.020999e+00    3.531812e+00
  6.052750e+00    3.618639e+00
  6.084501e+00    3.537103e+00
  6.116252e+00    3.584513e+00
  6.148003e+00    3.555848e+00
  6.179755e+00    3.586871e+00
  6.211506e+00    3.456415e+00
  6.243257e+00    3.579303e+00
  6.275008e+00    3.643659e+00
  6.306759e+00    3.502001e+00
  6.338510e+00    3.554132e+00
  6.370261e+00    3.571533e+00
  6.402013e+00    3.582802e+00
  6.433764e+00    3.560679e+00
  6.465515e+00    3.565217e+00
  6.497266e+00    3.530297e+00
  6.529017e+00    3.640117e+00
  6.560768e+00    3.703028e+00
  6.592519e+00    3.535491e+00
  6.624271e+00    3.525597e+00
  6.656022e+00    3.545872e+00
  6.687773e+00    3.562363e+00
  6.719524e+00    3.593359e+00
  6.751275e+00    3.524236e+00
  6.783026e+00    3.594615e+00
  6.814777e+00    3.582592e+00
  6.846529e+00    3.554152e+00
  6.878280e+00    3.523693e+00
  6.910031e+00    3.616578e+00
  6.941782e+00    3.559214e+00
  6.973533e+00    3.587065e+00
  7.005284e+00    3.526995e+00
  7.037036e+00    3.571121e+00
  7.068787e+00    3.523454e+00
  7.100538e+00    3.551417e+00
  7.132289e+00    3.515416e+00
  7.164040e+00    3.623601e+00
  7.195791e+00    3.517022e+00
  7.227542e+00    3.509302e+00
  7.259294e+00    3.536118e+00
  7.291045e+00    3.492757e+00
  7.322796e+00    3.535129e+00
  7.354547e+00    3.518138e+00
  7.386298e+00    3.518026e+00
  7.418049e+00    3.494916e+00
  7.449800e+00    3.553241e+00
  7.481552e+00    3.507077e+00
  7.513303e+00    3.565948e+00
  7.545054e+00    3.497002e+00
  7.576805e+00    3.515201e+00
  7.608556e+00    3.559873e+00
  7.640307e+00    3.469309e+00
  7.672058e+00    3.515021e+00
  7.703810e+00    3.530116e+00
  7.735561e+00    3.503809e+00
  7.767312e+00    3.484688e+00
  7.799063e+00    3.392730e+00
  7.830814e+00    3.401655e+00
  7.862565e+00    3.470335e+00
  7.894317e+00    3.432136e+00
  7.926068e+00    3.460365e+00
  7.957819e+00    3.395732e+00
  7.989570e+00    3.446396e+00
  8.021321e+00    3.455281e+00
  8.053072e+00    3.434160e+00
  8.084823e+00    3.391508e+00
  8.116575e+00    3.423216e+00
  8.148326e+00    3.416623e+00
  8.180077e+00    3.505714e+00
  8.211828e+00    3.442127e+00
  8.243579e+00    3.518526e+00
  8.275330e+00    3.462493e+00
  8.307081e+00    3.490602e+00
  8.338833e+00    3.375689e+00
  8.370584e+00    3.420650e+00
  8.402335e+00    3.299646e+00
  8.434086e+00    3.356228e+00
  8.465837e+00    3.464256e+00
  8.497588e+00    3.308409e+00
  8.529339e+00    3.432871e+00
  8.561091e+00    3.414939e+00
  8.592842e+00    3.370119e+00
  8.624593e+00    3.360990e+00
  8.656344e+00    3.292230e+00
  8.688095e+00    3.398805e+00
  8.719846e+00    3.380860e+00
  8.751598e+00    3.340191e+00
  8.783349e+00    3.302660e+00
  8.815100e+00    3.319932e+00
  8.846851e+00    3.331217e+00
  8.878602e+00    3.397214e+00
  8.910353e+00    3.356632e+00
  8.942104e+00    3.321119e+00
  8.973856e+00    3.291691e+00
  9.005607e+00    3.367667e+00
  9.037358e+00    3.308571e+00
  9.069109e+00    3.254294e+00
  9.100860e+00    3.252952e+00
  9.132611e+00    3.287516e+00
  9.164362e+00    3.253633e+00
  9.196114e+00    3.298959e+00
  9.227865e+00    3.239905e+00
  9.259616e+00    3.329317e+00
  9.291367e+00    3.251924e+00
  9.323118e+00    3.211348e+00
  9.354869e+00    3.174084e+00
  9.386620e+00    3.177256e+00
  9.418372e+00    3.212001e+00
  9.450123e+00    3.155277e+00
  9.481874e+00    3.246266e+00
  9.513625e+00    3.274495e+00
  9.545376e+00    3.246290e+00
  9.577127e+00    3.227573e+00
  9.608878e+00    3.229537e+00
  9.640630e+00    3.209713e+00
  9.672381e+00    3.181056e+00
  9.704132e+00    3.156759e+00
  9.735883e+00    3.166694e+00
  9.767634e+00    3.222715e+00
  9.799385e+00    3.246879e+00
  9.831137e+00    3.204521e+00
  9.862888e+00    3.105950e+00
  9.894639e+00    3.187067e+00
  9.926390e+00    3.085993e+00
  9.958141e+00    3.159998e+00
  9.989892e+00    3.139121e+00
  1.002164e+01    3.128057e+00
  1.005339e+01    3.140378e+00
  1.008515e+01    3.128109e+00
  1.011690e+01    3.105302e+00
  1.014865e+01    3.101485e+00
  1.018040e+01    3.065326e+00
  1.021215e+01    3.107522e+00
  1.024390e+01    3.097440e+00
  1.027565e+01    3.081864e+00
  1.030740e+01    3.061011e+00
  1.033915e+01    3.064795e+00
  1.037091e+01    3.055540e+00
  1.040266e+01    3.020020e+00
  1.043441e+01    3.082157e+00
  1.046616e+01    3.011980e+00
  1.049791e+01    3.045954e+00
  1.052966e+01    3.023246e+00
  1.056141e+01    2.984369e+00
  1.059316e+01    3.017915e+00
  1.062492e+01    2.969848e+00
  1.065667e+01    2.980748e+00
  1.068842e+01    2.979649e+00
  1.072017e+01    3.045132e+00
  1.075192e+01    3.034195e+00
  1.078367e+01    2.944178e+00
  1.081542e+01    2.944333e+00
  1.084717e+01    2.937020e+00
  1.087892e+01    2.952500e+00
  1.091068e+01    2.932160e+00
  1.094243e+01    2.921046e+00
  1.097418e+01    2.910531e+00
  1.100593e+01    2.932297e+00
  1.103768e+01    2.866945e+00
  1.106943e+01    2.904154e+00
  1.110118e+01    2.894729e+00
  1.113293e+01    2.866580e+00
  1.116468e+01    2.871211e+00
  1.119644e+01    2.909010e+00
  1.122819e+01    2.847155e+00
  1.125994e+01    2.843680e+00
  1.129169e+01    2.889905e+00
  1.132344e+01    2.898015e+00
  1.135519e+01    2.826246e+00
  1.138694e+01    2.841166e+00
  1.141869e+01    2.839564e+00
  1.145045e+01    2.847175e+00
  1.148220e+01    2.873489e+00
  1.151395e+01    2.765849e+00
  1.154570e+01    2.776211e+00
  1.157745e+01    2.760724e+00
  1.160920e+01    2.807788e+00
  1.164095e+01    2.834824e+00
  1.167270e+01    2.812356e+00
  1.170445e+01    2.818788e+00
  1.173621e+01    2.758916e+00
  1.176796e+01    2.769072e+00
  1.179971e+01    2.820391e+00
  1.183146e+01    2.777068e+00
  1.186321e+01    2.756387e+00
  1.189496e+01    2.724151e+00
  1.192671e+01    2.707738e+00
  1.195846e+01    2.726090e+00
  1.199021e+01    2.715156e+00
  1.202197e+01    2.691910e+00
  1.205372e+01    2.699549e+00
  1.208547e+01    2.691961e+00
  1.211722e+01    2.698408e+00
  1.214897e+01    2.734577e+00
  1.218072e+01    2.709911e+00
  1.221247e+01    2.716440e+00
  1.224422e+01    2.739743e+00
  1.227597e+01    2.727754e+00
  1.230773e+01    2.750395e+00
  1.233948e+01    2.712097e+00
  1.237123e+01    2.706748e+00
  1.240298e+01    2.686362e+00
  1.243473e+01    2.707512e+00
  1.246648e+01    2.696963e+00
  1.249823e+01    2.726703e+00
  1.252998e+01    2.741810e+00
  1.256174e+01    2.737816e+00
  1.259349e+01    2.778325e+00
  1.262524e+01    2.792578e+00
  1.265699e+01    2.790493e+00
  1.268874e+01    2.831360e+00
  1.272049e+01    2.852139e+00
  1.275224e+01    2.887739e+00
  1.278399e+01    2.981649e+00
  1.281574e+01    3.099615e+00
  1.284750e+01    3.170619e+00
  1.287925e+01    3.357748e+00
  1.291100e+01    3.650095e+00
  1.294275e+01    4.067658e+00
  1.297450e+01    4.724155e+00
  1.300625e+01    5.821749e+00
  1.303800e+01    7.646723e+00
  1.306975e+01    1.014251e+01
  1.310150e+01    1.257612e+01
  1.313326e+01    1.470671e+01
  1.316501e+01    1.626073e+01
  1.319676e+01    1.573176e+01
  1.322851e+01    1.260483e+01
  1.326026e+01    9.262321e+00
  1.329201e+01    6.888523e+00
  1.332376e+01    5.405970e+00
  1.335551e+01    4.411737e+00
  1.338727e+01    3.900903e+00
  1.341902e+01    3.520643e+00
  1.345077e+01    3.244078e+00
  1.348252e+01    3.065338e+00
  1.351427e+01    2.980892e+00
  1.354602e+01    2.788866e+00
  1.357777e+01    2.774353e+00
  1.360952e+01    2.651197e+00
  1.364127e+01    2.646096e+00
  1.367303e+01    2.652276e+00
  1.370478e+01    2.539434e+00
  1.373653e+01    2.574395e+00
  1.376828e+01    2.501427e+00
  1.380003e+01    2.481755e+00
  1.383178e+01    2.470592e+00
  1.386353e+01    2.443907e+00
  1.389528e+01    2.448943e+00
  1.392703e+01    2.419307e+00
  1.395879e+01    2.385328e+00
  1.399054e+01    2.408370e+00
  1.402229e+01    2.334641e+00
  1.405404e+01    2.401382e+00
  1.408579e+01    2.356776e+00
  1.411754e+01    2.315352e+00
  1.414929e+01    2.329184e+00
  1.418104e+01    2.303751e+00
  1.421279e+01    2.344768e+00
  1.424455e+01    2.290628e+00
  1.427630e+01    2.313441e+00
  1.430805e+01    2.294220e+00
  1.433980e+01    2.250583e+00
  1.437155e+01    2.263234e+00
  1.440330e+01    2.261031e+00
  1.443505e+01    2.246108e+00
  1.446680e+01    2.207271e+00
  1.449856e+01    2.250781e+00
  1.453031e+01    2.231663e+00
  1.456206e+01    2.245935e+00
  1.459381e+01    2.279047e+00
  1.462556e+01    2.260354e+00
  1.465731e+01    2.226910e+00
  1.468906e+01    2.226815e+00
  1.472081e+01    2.203442e+00
  1.475256e+01    2.199155e+00
  1.478432e+01    2.202844e+00
  1.481607e+01    2.161858e+00
  1.484782e+01    2.218266e+00
  1.487957e+01    2.301080e+00
  1.491132e+01    2.265732e+00
  1.494307e+01    2.290313e+00
  1.497482e+01    2.321458e+00
  1.500657e+01    2.476795e+00
  1.503832e+01    2.608877e+00
  1.507008e+01    2.815237e+00
  1.510183e+01    3.228843e+00
  1.513358e+01    3.745527e+00
  1.516533e+01    4.489623e+00
  1.519708e+01    5.172712e+00
  1.522883e+01    5.501056e+00
  1.526058e+01    5.799809e+00
  1.529233e+01    5.450771e+00
  1.532409e+01    4.667871e+00
  1.535584e+01    3.829058e+00
  1.538759e+01    3.179194e+00
  1.541934e+01    2.791028e+00
  1.545109e+01    2.548406e+00
  1.548284e+01    2.339747e+00
  1.551459e+01    2.262227e+00
  1.554634e+01    2.200884e+00
  1.557809e+01    2.092707e+00
  1.560985e+01    2.083709e+00
  1.564160e+01    2.066828e+00
  1.567335e+01    2.035419e+00
  1.570510e+01    2.027888e+00
  1.573685e+01    1.971192e+00
  1.576860e+01    1.937037e+00
  1.580035e+01    1.961680e+00
  1.583210e+01    1.967114e+00
  1.586385e+01    1.942775e+00
  1.589561e+01    1.917335e+00
  1.592736e+01    1.957807e+00
  1.595911e+01    1.902009e+00
  1.599086e+01    1.872962e+00
  1.602261e+01    1.868413e+00
  1.605436e+01    1.861478e+00
  1.608611e+01    1.844274e+00
  1.611786e+01    1.858999e+00
  1.614961e+01    1.878473e+00
  1.618137e+01    1.816935e+00
  1.621312e+01    1.849375e+00
  1.624487e+01    1.820632e+00
  1.627662e+01    1.826213e+00
  1.630837e+01    1.811510e+00
  1.634012e+01    1.807090e+00
  1.637187e+01    1.807621e+00
  1.640362e+01    1.787771e+00
  1.643538e+01    1.778039e+00
  1.646713e+01    1.796602e+00
  1.649888e+01    1.750439e+00
  1.653063e+01    1.757844e+00
  1.656238e+01    1.725433e+00
  1.659413e+01    1.740320e+00
  1.662588e+01    1.764576e+00
  1.665763e+01    1.696997e+00
  1.668938e+01    1.732872e+00
  1.672114e+01    1.718139e+00
  1.675289e+01    1.732426e+00
  1.678464e+01    1.716725e+00
  1.681639e+01    1.714629e+00
  1.684814e+01    1.668664e+00
  1.687989e+01    1.691791e+00
  1.691164e+01    1.686898e+00
  1.694339e+01    1.702427e+00
  1.697514e+01    1.699702e+00
  1.700690e+01    1.693161e+00
  1.703865e+01    1.663942e+00
  1.707040e+01    1.657024e+00
  1.710215e+01    1.638957e+00
  1.713390e+01    1.659002e+00
  1.716565e+01    1.638030e+00
  1.719740e+01    1.646564e+00
  1.722915e+01    1.661855e+00
  1.726091e+01    1.661569e+00
  1.729266e+01    1.619447e+00
  1.732441e+01    1.615266e+00
  1.735616e+01    1.620015e+00
  1.738791e+01    1.617023e+00
  1.741966e+01    1.610532e+00
  1.745141e+01    1.610810e+00
  1.748316e+01    1.582176e+00
  1.751491e+01    1.608009e+00
  1.754667e+01    1.592672e+00
  1.757842e+01    1.581794e+00
  1.761017e+01    1.568486e+00
  1.764192e+01    1.557936e+00
  1.767367e+01    1.567279e+00
  1.770542e+01    1.599077e+00
  1.773717e+01    1.584535e+00
  1.776892e+01    1.553244e+00
  1.780067e+01    1.533247e+00
  1.783243e+01    1.533170e+00
  1.786418e+01    1.569701e+00
  1.789593e+01    1.523516e+00
  1.792768e+01    1.506744e+00
  1.795943e+01    1.550976e+00
  1.799118e+01    1.515572e+00
  1.802293e+01    1.534624e+00
  1.805468e+01    1.505019e+00
  1.808643e+01    1.497383e+00
  1.811819e+01    1.520869e+00
  1.814994e+01    1.459946e+00
  1.818169e+01    1.507303e+00
  1.821344e+01    1.507308e+00
  1.824519e+01    1.477156e+00
  1.827694e+01    1.505001e+00
  1.830869e+01    1.467668e+00
  1.834044e+01    1.470619e+00
  1.837220e+01    1.452736e+00
  1.840395e+01    1.466411e+00
  1.843570e+01    1.428910e+00
  1.846745e+01    1.423379e+00
  1.849920e+01    1.466100e+00
  1.853095e+01    1.440330e+00
  1.856270e+01    1.483444e+00
  1.859445e+01    1.422553e+00
  1.862620e+01    1.440884e+00
  1.865796e+01    1.407397e+00
  1.868971e+01    1.429960e+00
  1.872146e+01    1.441195e+00
  1.875321e+01    1.437226e+00
  1.878496e+01    1.422423e+00
  1.881671e+01    1.421453e+00
  1.884846e+01    1.421713e+00
  1.888021e+01    1.403950e+00
  1.891196e+01    1.373616e+00
  1.894372e+01    1.417881e+00
  1.897547e+01    1.390119e+00
  1.900722e+01    1.397035e+00
  1.903897e+01    1.394825e+00
  1.907072e+01    1.376475e+00
  1.910247e+01    1.370477e+00
  1.913422e+01    1.343747e+00
  1.916597e+01    1.392771e+00
  1.919773e+01    1.372157e+00
  1.922948e+01    1.366626e+00
  1.926123e+01    1.369707e+00
  1.929298e+01    1.347923e+00
  1.932473e+01    1.360398e+00
  1.935648e+01    1.351434e+00
  1.938823e+01    1.343016e+00
  1.941998e+01    1.372961e+00
  1.945173e+01    1.315148e+00
  1.948349e+01    1.342622e+00
  1.951524e+01    1.342839e+00
  1.954699e+01    1.322931e+00
  1.957874e+01    1.324360e+00
  1.961049e+01    1.356376e+00
  1.964224e+01    1.327599e+00
  1.967399e+01    1.309541e+00
  1.970574e+01    1.338856e+00
  1.973749e+01    1.310004e+00
  1.976925e+01    1.284130e+00
  1.980100e+01    1.300323e+00
  1.983275e+01    1.298407e+00
  1.986450e+01    1.287261e+00
  1.989625e+01    1.302601e+00
  1.992800e+01    1.302291e+00
  1.995975e+01    1.295075e+00
  1.999150e+01    1.313893e+00
  2.002325e+01    1.279776e+00
  2.005501e+01    1.271596e+00
  2.008676e+01    1.274233e+00
  2.011851e+01    1.272912e+00
  2.015026e+01    1.297304e+00
  2.018201e+01    1.260748e+00
  2.021376e+01    1.272768e+00
  2.024551e+01    1.250927e+00
  2.027726e+01    1.256830e+00
  2.030902e+01    1.286093e+00
  2.034077e+01    1.250552e+00
  2.037252e+01    1.257669e+00
  2.040427e+01    1.252303e+00
  2.043602e+01    1.247150e+00
  2.046777e+01    1.246938e+00
  2.049952e+01    1.226473e+00
  2.053127e+01    1.259799e+00
  2.056302e+01    1.242308e+00
  2.059478e+01    1.226934e+00
  2.062653e+01    1.231516e+00
  2.065828e+01    1.235436e+00
  2.069003e+01    1.219766e+00
  2.072178e+01    1.260319e+00
  2.075353e+01    1.252993e+00
  2.078528e+01    1.236971e+00
  2.081703e+01    1.239363e+00
  2.084878e+01    1.232049e+00
  2.088054e+01    1.221104e+00
  2.091229e+01    1.197933e+00
  2.094404e+01    1.225007e+00
  2.097579e+01    1.240713e+00
  2.100754e+01    1.210824e+00
  2.103929e+01    1.209983e+00
  2.107104e+01    1.225310e+00
  2.110279e+01    1.229639e+00
  2.113455e+01    1.262934e+00
  2.116630e+01    1.235032e+00
  2.119805e+01    1.273205e+00
  2.122980e+01    1.236344e+00
  2.126155e+01    1.265727e+00
  2.129330e+01    1.284109e+00
  2.132505e+01    1.300370e+00
  2.135680e+01    1.276577e+00
  2.138855e+01    1.303405e+00
  2.142031e+01    1.327307e+00
  2.145206e+01    1.319872e+00
  2.148381e+01    1.370117e+00
  2.151556e+01    1.431949e+00
  2.154731e+01    1.511822e+00
  2.157906e+01    1.623373e+00
  2.161081e+01    1.760759e+00
  2.164256e+01    1.953475e+00
  2.167431e+01    2.279824e+00
  2.170607e+01    2.760340e+00
  2.173782e+01    3.460562e+00
  2.176957e+01    4.525187e+00
  2.180132e+01    5.750839e+00
  2.183307e+01    7.166613e+00
  2.186482e+01    8.301265e+00
  2.189657e+01    8.946023e+00
  2.192832e+01    8.311373e+00
  2.196007e+01    6.701206e+00
  2.199183e+01    4.952835e+00
  2.202358e+01    3.682089e+00
  2.205533e+01    2.850214e+00
  2.208708e+01    2.389364e+00
  2.211883e+01    2.012211e+00
  2.215058e+01    1.767887e+00
  2.218233e+01    1.579895e+00
  2.221408e+01    1.485496e+00
  2.224584e+01    1.426712e+00
  2.227759e+01    1.357678e+00
  2.230934e+01    1.305078e+00
  2.234109e+01    1.300567e+00
  2.237284e+01    1.238089e+00
  2.240459e+01    1.221838e+00
  2.243634e+01    1.184104e+00
  2.246809e+01    1.183740e+00
  2.249984e+01    1.146722e+00
  2.253160e+01    1.152686e+00
  2.256335e+01    1.120969e+00
  2.259510e+01    1.120653e+00
  2.262685e+01    1.087909e+00
  2.265860e+01    1.108639e+00
  2.269035e+01    1.116649e+00
  2.272210e+01    1.086184e+00
  2.275385e+01    1.103865e+00
  2.278560e+01    1.059297e+00
  2.281736e+01    1.056759e+00
  2.284911e+01    1.015338e+00
  2.288086e+01    1.030989e+00
  2.291261e+01    1.039689e+00
  2.294436e+01    1.032863e+00
  2.297611e+01    1.045394e+00
  2.300786e+01    1.016709e+00
  2.303961e+01    1.015017e+00
  2.307137e+01    1.021112e+00
  2.310312e+01    1.020718e+00
  2.313487e+01    1.005326e+00
  2.316662e+01    1.011840e+00
  2.319837e+01    1.012702e+00
  2.323012e+01    9.950190e-01
  2.326187e+01    9.721260e-01
  2.329362e+01    9.791637e-01
  2.332537e+01    1.005524e+00
  2.335713e+01    9.917527e-01
  2.338888e+01    1.003784e+00
  2.342063e+01    9.733639e-01
  2.345238e+01    9.660993e-01
  2.348413e+01    9.832629e-01
  2.351588e+01    9.729967e-01
  2.354763e+01    9.755273e-01
  2.357938e+01    9.544116e-01
  2.361113e+01    9.646720e-01
  2.364289e+01    9.523870e-01
  2.367464e+01    9.561913e-01
  2.370639e+01    9.455740e-01
  2.373814e+01    9.279449e-01
  2.376989e+01    9.221020e-01
  2.380164e+01    9.311934e-01
  2.383339e+01    9.165639e-01
  2.386514e+01    9.238295e-01
  2.389689e+01    9.193162e-01
  2.392865e+01    9.383923e-01
  2.396040e+01    8.897995e-01
  2.399215e+01    9.159085e-01
  2.402390e+01    9.151893e-01
  2.405565e+01    9.216334e-01
  2.408740e+01    9.017950e-01
  2.411915e+01    8.984001e-01
  2.415090e+01    8.915101e-01
  2.418266e+01    8.709654e-01
  2.421441e+01    8.713685e-01
  2.424616e+01    8.903378e-01
  2.427791e+01    9.076554e-01
  2.430966e+01    9.003317e-01
  2.434141e+01    8.876889e-01
  2.437316e+01    8.763086e-01
  2.440491e+01    9.134376e-01
  2.443666e+01    8.902422e-01
  2.446842e+01    8.983935e-01
  2.450017e+01    8.927680e-01
  2.453192e+01    9.267997e-01
  2.456367e+01    8.943260e-01
  2.459542e+01    8.986275e-01
  2.462717e+01    8.954450e-01
  2.465892e+01    9.157345e-01
  2.469067e+01    9.113837e-01
  2.472242e+01    8.834190e-01
  2.475418e+01    9.078535e-01
  2.478593e+01    9.125159e-01
  2.481768e+01    8.910415e-01
  2.484943e+01    8.882472e-01
  2.488118e+01    9.058897e-01
  2.491293e+01    8.847243e-01
  2.494468e+01    8.759052e-01
  2.497643e+01    9.131608e-01
  2.500819e+01    8.915014e-01
  2.503994e+01    9.038843e-01
  2.507169e+01    9.186286e-01
  2.510344e+01    9.034266e-01
  2.513519e+01    9.308024e-01
  2.516694e+01    9.281656e-01
  2.519869e+01    9.437975e-01
  2.523044e+01    9.563828e-01
  2.526219e+01    9.404199e-01
  2.529395e+01    9.418485e-01
  2.532570e+01    9.523765e-01
  2.535745e+01    9.625515e-01
  2.538920e+01    9.801820e-01
  2.542095e+01    1.035040e+00
  2.545270e+01    1.002225e+00
  2.548445e+01    1.073301e+00
  2.551620e+01    1.063276e+00
  2.554795e+01    1.091034e+00
  2.557971e+01    1.162612e+00
  2.561146e+01    1.229681e+00
  2.564321e+01    1.316593e+00
  2.567496e+01    1.399563e+00
  2.570671e+01    1.569303e+00
  2.573846e+01    1.852324e+00
  2.577021e+01    2.201415e+00
  2.580196e+01    2.742072e+00
  2.583371e+01    3.572390e+00
  2.586547e+01    4.578923e+00
  2.589722e+01    5.754774e+00
  2.592897e+01    6.764862e+00
  2.596072e+01    7.088531e+00
  2.599247e+01    6.600800e+00
  2.602422e+01    5.415815e+00
  2.605597e+01    4.076434e+00
  2.608772e+01    3.037060e+00
  2.611948e+01    2.358315e+00
  2.615123e+01    2.010517e+00
  2.618298e+01    1.678661e+00
  2.621473e+01    1.494036e+00
  2.624648e+01    1.380004e+00
  2.627823e+01    1.285630e+00
  2.630998e+01    1.191424e+00
  2.634173e+01    1.145567e+00
  2.637348e+01    1.120999e+00
  2.640524e+01    1.051568e+00
  2.643699e+01    1.020533e+00
  2.646874e+01    1.038098e+00
  2.650049e+01    1.012525e+00
  2.653224e+01    9.978844e-01
  2.656399e+01    9.889004e-01
  2.659574e+01    9.578867e-01
  2.662749e+01    9.920412e-01
  2.665924e+01    9.659570e-01
  2.669100e+01    9.686732e-01
  2.672275e+01    9.766918e-01
  2.675450e+01    9.580445e-01
  2.678625e+01    9.822924e-01
  2.681800e+01    9.818408e-01
  2.684975e+01    9.908083e-01
  2.688150e+01    9.766974e-01
  2.691325e+01    1.038210e+00
  2.694501e+01    1.023527e+00
  2.697676e+01    1.079994e+00
  2.700851e+01    1.118320e+00
  2.704026e+01    1.179416e+00
  2.707201e+01    1.320477e+00
  2.710376e+01    1.499314e+00
  2.713551e+01    1.680902e+00
  2.716726e+01    1.986267e+00
  2.719901e+01    2.158026e+00
  2.723077e+01    2.164401e+00
  2.726252e+01    2.004611e+00
  2.729427e+01    1.688170e+00
  2.732602e+01    1.454079e+00
  2.735777e+01    1.313572e+00
  2.738952e+01    1.152848e+00
  2.742127e+01    1.108047e+00
  2.745302e+01    1.056240e+00
  2.748477e+01    9.958982e-01
  2.751653e+01    9.867940e-01
  2.754828e+01    9.327191e-01
  2.758003e+01    9.282838e-01
  2.761178e+01    9.321393e-01
  2.764353e+01    9.318068e-01
  2.767528e+01    9.163482e-01
  2.770703e+01    8.933229e-01
  2.773878e+01    8.904911e-01
  2.777054e+01    8.960283e-01
  2.780229e+01    8.854768e-01
  2.783404e+01    8.939461e-01
  2.786579e+01    8.807637e-01
  2.789754e+01    9.041376e-01
  2.792929e+01    8.672130e-01
  2.796104e+01    8.701439e-01
  2.799279e+01    8.510768e-01
  2.802454e+01    8.825116e-01
  2.805630e+01    8.519029e-01
  2.808805e+01    8.723971e-01
  2.811980e+01    8.685379e-01
  2.815155e+01    8.537124e-01
  2.818330e+01    8.497305e-01
  2.821505e+01    8.690431e-01
  2.824680e+01    8.325747e-01
  2.827855e+01    8.624041e-01
  2.831030e+01    8.695862e-01
  2.834206e+01    8.625672e-01
  2.837381e+01    8.618243e-01
  2.840556e+01    8.427029e-01
  2.843731e+01    8.621977e-01
  2.846906e+01    8.375758e-01
  2.850081e+01    8.441577e-01
  2.853256e+01    8.462214e-01
  2.856431e+01    8.393072e-01
  2.859606e+01    8.356753e-01
  2.862782e+01    8.515064e-01
  2.865957e+01    8.323162e-01
  2.869132e+01    8.262163e-01
  2.872307e+01    8.575954e-01
  2.875482e+01    8.415548e-01
  2.878657e+01    8.285117e-01
  2.881832e+01    8.547231e-01
  2.885007e+01    8.372142e-01
  2.888183e+01    8.413659e-01
  2.891358e+01    8.287084e-01
  2.894533e+01    8.230489e-01
  2.897708e+01    8.333441e-01
  2.900883e+01    8.391343e-01
  2.904058e+01    8.171361e-01
  2.907233e+01    8.092152e-01
  2.910408e+01    8.051720e-01
  2.913583e+01    8.147629e-01
  2.916759e+01    8.438166e-01
  2.919934e+01    8.069619e-01
  2.923109e+01    8.203839e-01
  2.926284e+01    8.168399e-01
  2.929459e+01    8.183724e-01
  2.932634e+01    8.064740e-01
  2.935809e+01    8.059599e-01
  2.938984e+01    8.257040e-01
  2.942159e+01    8.262721e-01
  2.945335e+01    8.022174e-01
  2.948510e+01    8.153806e-01
  2.951685e+01    8.041725e-01
  2.954860e+01    7.826369e-01
  2.958035e+01    8.058817e-01
  2.961210e+01    8.068216e-01
  2.964385e+01    8.058732e-01
  2.967560e+01    7.999589e-01
  2.970736e+01    8.228700e-01
  2.973911e+01    8.094692e-01
  2.977086e+01    7.955249e-01
  2.980261e+01    7.938916e-01
  2.983436e+01    8.125129e-01
  2.986611e+01    7.820820e-01
  2.989786e+01    7.907882e-01
  2.992961e+01    7.893196e-01
  2.996136e+01    7.870750e-01
  2.999312e+01    8.249634e-01
  3.002487e+01    8.272380e-01
  3.005662e+01    8.273801e-01
  3.008837e+01    8.074822e-01
  3.012012e+01    7.999012e-01
  3.015187e+01    8.017130e-01
  3.018362e+01    7.742555e-01
  3.021537e+01    8.032482e-01
  3.024712e+01    7.878909e-01
  3.027888e+01    8.048733e-01
  3.031063e+01    7.861403e-01
  3.034238e+01    7.896087e-01
  3.037413e+01    7.903377e-01
  3.040588e+01    7.738686e-01
  3.043763e+01    7.765659e-01
  3.046938e+01    7.803996e-01
  3.050113e+01    7.986791e-01
  3.053288e+01    7.910566e-01
  3.056464e+01    7.656417e-01
  3.059639e+01    7.911206e-01
  3.062814e+01    7.828575e-01
  3.065989e+01    7.940244e-01
  3.069164e+01    8.016767e-01
  3.072339e+01    7.715741e-01
  3.075514e+01    7.812699e-01
  3.078689e+01    7.818941e-01
  3.081865e+01    7.971004e-01
  3.085040e+01    7.862887e-01
  3.088215e+01    7.728555e-01
  3.091390e+01    7.868978e-01
  3.094565e+01    8.071979e-01
  3.097740e+01    7.736704e-01
  3.100915e+01    7.733874e-01
  3.104090e+01    8.017562e-01
  3.107265e+01    7.870493e-01
  3.110441e+01    7.719764e-01
  3.113616e+01    8.048160e-01
  3.116791e+01    8.031399e-01
  3.119966e+01    7.842069e-01
  3.123141e+01    8.104653e-01
  3.126316e+01    7.891242e-01
  3.129491e+01    8.057585e-01
  3.132666e+01    8.034278e-01
  3.135841e+01    7.964231e-01
  3.139017e+01    7.937619e-01
  3.142192e+01    7.953344e-01
  3.145367e+01    8.299889e-01
  3.148542e+01    8.321376e-01
  3.151717e+01    8.225713e-01
  3.154892e+01    8.408405e-01
  3.158067e+01    8.465641e-01
  3.161242e+01    8.916222e-01
  3.164418e+01    9.096613e-01
  3.167593e+01    9.536363e-01
  3.170768e+01    1.021378e+00
  3.173943e+01    1.134159e+00
  3.177118e+01    1.239482e+00
  3.180293e+01    1.426077e+00
  3.183468e+01    1.667684e+00
  3.186643e+01    1.943320e+00
  3.189818e+01    2.106745e+00
  3.192994e+01    2.060414e+00
  3.196169e+01    1.877787e+00
  3.199344e+01    1.563091e+00
  3.202519e+01    1.362424e+00
  3.205694e+01    1.158581e+00
  3.208869e+01    1.046079e+00
  3.212044e+01    9.886366e-01
  3.215219e+01    9.146144e-01
  3.218394e+01    8.968634e-01
  3.221570e+01    8.771450e-01
  3.224745e+01    8.637130e-01
  3.227920e+01    7.997198e-01
  3.231095e+01    7.973128e-01
  3.234270e+01    8.340546e-01
  3.237445e+01    8.069307e-01
  3.240620e+01    7.996539e-01
  3.243795e+01    8.070304e-01
  3.246970e+01    7.893113e-01
  3.250146e+01    7.706769e-01
  3.253321e+01    7.854816e-01
  3.254908e+01    7.652209e-01