File: XRD/Reaction conditions/2024-07-27_003_Ru-CGO-ex_Reaction_dwell_000023_data_000185.dat
# == pyFAI calibration ==
# Distance Sample to Detector: 0.4 m
# PONI: 9.750e-02, 1.135e-01 m
# Rotations: -0.000175 0.000000 -0.000000 rad
#
# == Fit2d calibration ==
# Distance Sample-beamCenter: 400.000 mm
# Center: x=1514.000, y=1300.000 pix
# Tilt: 0.010 deg  TiltPlanRot: 0.010 deg
#
# Detector Detector	 Spline= None	 PixelSize= 7.500e-05, 7.500e-05 m
#    Detector has a mask: False
#    Detector has a dark current: False
#    detector has a flat field: False
#
# Wavelength: 6.888e-11 m
# Mask applied: user provided
# Dark current applied: False
# Flat field applied: False
# Polarization factor: 0.99
# Normalization factor: 1.0
# --> /home/myspot/data/2024_07_Rosario/Ru-CGO-ex/2024-07-27_003_Ru-CGO-ex_Reaction_dwell_000023_data_000185.dat
#       q_nm^-1             I
  2.003187e-02    0.000000e+00
  5.178302e-02    2.671360e-02
  8.353417e-02    2.854862e-01
  1.152853e-01    6.124855e-02
  1.470365e-01    8.501207e-02
  1.787876e-01    7.943875e-02
  2.105388e-01    2.459624e-02
  2.422899e-01    4.552563e-02
  2.740411e-01    5.797327e-02
  3.057922e-01    2.418878e-02
  3.375433e-01    8.379773e-02
  3.692945e-01    3.482130e-02
  4.010456e-01    1.213264e-02
  4.327968e-01    2.755123e-02
  4.645479e-01    4.353342e-02
  4.962991e-01    4.526854e-02
  5.280502e-01    5.752597e-02
  5.598014e-01    4.205124e-02
  5.915525e-01    8.325100e-02
  6.233037e-01    4.112118e-03
  6.550548e-01    3.223457e-02
  6.868060e-01    4.696998e-02
  7.185571e-01    4.967841e-02
  7.503083e-01    4.738158e-02
  7.820594e-01    8.488812e-02
  8.138106e-01    1.865147e-01
  8.455617e-01    3.094739e-01
  8.773129e-01    4.437045e-01
  9.090640e-01    6.172348e-01
  9.408152e-01    7.821638e-01
  9.725663e-01    1.038049e+00
  1.004317e+00    1.187501e+00
  1.036069e+00    1.347073e+00
  1.067820e+00    1.481385e+00
  1.099571e+00    1.602649e+00
  1.131322e+00    1.665680e+00
  1.163073e+00    1.636585e+00
  1.194824e+00    1.727024e+00
  1.226575e+00    2.228997e+00
  1.258327e+00    2.460288e+00
  1.290078e+00    2.583478e+00
  1.321829e+00    2.636494e+00
  1.353580e+00    2.723150e+00
  1.385331e+00    2.800400e+00
  1.417082e+00    2.839341e+00
  1.448834e+00    3.001431e+00
  1.480585e+00    3.024258e+00
  1.512336e+00    3.076923e+00
  1.544087e+00    3.196967e+00
  1.575838e+00    3.245091e+00
  1.607589e+00    3.198895e+00
  1.639340e+00    3.080254e+00
  1.671092e+00    2.986884e+00
  1.702843e+00    3.178681e+00
  1.734594e+00    3.170155e+00
  1.766345e+00    3.066887e+00
  1.798096e+00    3.078655e+00
  1.829847e+00    3.037578e+00
  1.861598e+00    3.131935e+00
  1.893350e+00    3.087705e+00
  1.925101e+00    3.097333e+00
  1.956852e+00    3.019869e+00
  1.988603e+00    3.021267e+00
  2.020354e+00    2.887814e+00
  2.052105e+00    2.889130e+00
  2.083856e+00    3.048868e+00
  2.115608e+00    3.002432e+00
  2.147359e+00    3.046651e+00
  2.179110e+00    3.041931e+00
  2.210861e+00    3.053147e+00
  2.242612e+00    3.034253e+00
  2.274363e+00    3.125001e+00
  2.306115e+00    3.027641e+00
  2.337866e+00    3.023055e+00
  2.369617e+00    3.191526e+00
  2.401368e+00    3.196373e+00
  2.433119e+00    3.095668e+00
  2.464870e+00    3.081164e+00
  2.496621e+00    3.129170e+00
  2.528373e+00    3.123753e+00
  2.560124e+00    3.186808e+00
  2.591875e+00    3.172148e+00
  2.623626e+00    3.144656e+00
  2.655377e+00    3.213556e+00
  2.687128e+00    3.097828e+00
  2.718879e+00    3.208450e+00
  2.750631e+00    3.120719e+00
  2.782382e+00    3.183963e+00
  2.814133e+00    3.262522e+00
  2.845884e+00    3.204227e+00
  2.877635e+00    3.246143e+00
  2.909386e+00    3.232296e+00
  2.941137e+00    3.295672e+00
  2.972889e+00    3.294265e+00
  3.004640e+00    3.303735e+00
  3.036391e+00    3.334981e+00
  3.068142e+00    3.311579e+00
  3.099893e+00    3.242414e+00
  3.131644e+00    3.250792e+00
  3.163395e+00    3.285217e+00
  3.195147e+00    3.252571e+00
  3.226898e+00    3.286577e+00
  3.258649e+00    3.404168e+00
  3.290400e+00    3.310123e+00
  3.322151e+00    3.382947e+00
  3.353902e+00    3.282020e+00
  3.385654e+00    3.358212e+00
  3.417405e+00    3.332101e+00
  3.449156e+00    3.359000e+00
  3.480907e+00    3.421040e+00
  3.512658e+00    3.386580e+00
  3.544409e+00    3.452667e+00
  3.576160e+00    3.405699e+00
  3.607912e+00    3.481674e+00
  3.639663e+00    3.455635e+00
  3.671414e+00    3.504908e+00
  3.703165e+00    3.403479e+00
  3.734916e+00    3.447752e+00
  3.766667e+00    3.461712e+00
  3.798418e+00    3.414143e+00
  3.830170e+00    3.455972e+00
  3.861921e+00    3.407791e+00
  3.893672e+00    3.328845e+00
  3.925423e+00    3.499523e+00
  3.957174e+00    3.483966e+00
  3.988925e+00    3.435391e+00
  4.020676e+00    3.413269e+00
  4.052428e+00    3.555335e+00
  4.084179e+00    3.457623e+00
  4.115930e+00    3.456041e+00
  4.147681e+00    3.503188e+00
  4.179432e+00    3.520917e+00
  4.211183e+00    3.471840e+00
  4.242935e+00    3.537497e+00
  4.274686e+00    3.602397e+00
  4.306437e+00    3.448565e+00
  4.338188e+00    3.431857e+00
  4.369939e+00    3.484248e+00
  4.401690e+00    3.518852e+00
  4.433441e+00    3.472781e+00
  4.465193e+00    3.483479e+00
  4.496944e+00    3.571003e+00
  4.528695e+00    3.584763e+00
  4.560446e+00    3.587872e+00
  4.592197e+00    3.502035e+00
  4.623948e+00    3.511312e+00
  4.655699e+00    3.514285e+00
  4.687451e+00    3.599623e+00
  4.719202e+00    3.582806e+00
  4.750953e+00    3.537046e+00
  4.782704e+00    3.569495e+00
  4.814455e+00    3.455160e+00
  4.846206e+00    3.576436e+00
  4.877957e+00    3.546771e+00
  4.909709e+00    3.621697e+00
  4.941460e+00    3.595626e+00
  4.973211e+00    3.593718e+00
  5.004962e+00    3.593784e+00
  5.036713e+00    3.588632e+00
  5.068464e+00    3.585390e+00
  5.100216e+00    3.654518e+00
  5.131967e+00    3.589535e+00
  5.163718e+00    3.618813e+00
  5.195469e+00    3.660479e+00
  5.227220e+00    3.559649e+00
  5.258971e+00    3.627151e+00
  5.290722e+00    3.653801e+00
  5.322474e+00    3.691678e+00
  5.354225e+00    3.581295e+00
  5.385976e+00    3.611211e+00
  5.417727e+00    3.591917e+00
  5.449478e+00    3.531781e+00
  5.481229e+00    3.502012e+00
  5.512980e+00    3.509526e+00
  5.544732e+00    3.529907e+00
  5.576483e+00    3.524686e+00
  5.608234e+00    3.510236e+00
  5.639985e+00    3.486896e+00
  5.671736e+00    3.509526e+00
  5.703487e+00    3.525664e+00
  5.735238e+00    3.507049e+00
  5.766990e+00    3.692607e+00
  5.798741e+00    3.507402e+00
  5.830492e+00    3.498191e+00
  5.862243e+00    3.457854e+00
  5.893994e+00    3.601263e+00
  5.925745e+00    3.546381e+00
  5.957497e+00    3.533268e+00
  5.989248e+00    3.485643e+00
  6.020999e+00    3.524476e+00
  6.052750e+00    3.548012e+00
  6.084501e+00    3.572654e+00
  6.116252e+00    3.617919e+00
  6.148003e+00    3.480328e+00
  6.179755e+00    3.523643e+00
  6.211506e+00    3.564791e+00
  6.243257e+00    3.535119e+00
  6.275008e+00    3.476945e+00
  6.306759e+00    3.408725e+00
  6.338510e+00    3.528180e+00
  6.370261e+00    3.488894e+00
  6.402013e+00    3.528847e+00
  6.433764e+00    3.555769e+00
  6.465515e+00    3.472558e+00
  6.497266e+00    3.491827e+00
  6.529017e+00    3.562993e+00
  6.560768e+00    3.488157e+00
  6.592519e+00    3.512799e+00
  6.624271e+00    3.444016e+00
  6.656022e+00    3.548801e+00
  6.687773e+00    3.448668e+00
  6.719524e+00    3.568283e+00
  6.751275e+00    3.477944e+00
  6.783026e+00    3.567969e+00
  6.814777e+00    3.515258e+00
  6.846529e+00    3.467374e+00
  6.878280e+00    3.419345e+00
  6.910031e+00    3.486176e+00
  6.941782e+00    3.471843e+00
  6.973533e+00    3.491048e+00
  7.005284e+00    3.525100e+00
  7.037036e+00    3.491503e+00
  7.068787e+00    3.535345e+00
  7.100538e+00    3.453124e+00
  7.132289e+00    3.503480e+00
  7.164040e+00    3.404336e+00
  7.195791e+00    3.430627e+00
  7.227542e+00    3.432456e+00
  7.259294e+00    3.467961e+00
  7.291045e+00    3.479734e+00
  7.322796e+00    3.408782e+00
  7.354547e+00    3.443407e+00
  7.386298e+00    3.482841e+00
  7.418049e+00    3.416597e+00
  7.449800e+00    3.415549e+00
  7.481552e+00    3.352211e+00
  7.513303e+00    3.439384e+00
  7.545054e+00    3.479145e+00
  7.576805e+00    3.409625e+00
  7.608556e+00    3.435155e+00
  7.640307e+00    3.431677e+00
  7.672058e+00    3.391290e+00
  7.703810e+00    3.389631e+00
  7.735561e+00    3.425057e+00
  7.767312e+00    3.396237e+00
  7.799063e+00    3.386335e+00
  7.830814e+00    3.408904e+00
  7.862565e+00    3.327936e+00
  7.894317e+00    3.387005e+00
  7.926068e+00    3.376161e+00
  7.957819e+00    3.335306e+00
  7.989570e+00    3.292711e+00
  8.021321e+00    3.394386e+00
  8.053072e+00    3.329341e+00
  8.084823e+00    3.341504e+00
  8.116575e+00    3.335623e+00
  8.148326e+00    3.495890e+00
  8.180077e+00    3.432894e+00
  8.211828e+00    3.445637e+00
  8.243579e+00    3.437912e+00
  8.275330e+00    3.358309e+00
  8.307081e+00    3.281626e+00
  8.338833e+00    3.337473e+00
  8.370584e+00    3.317249e+00
  8.402335e+00    3.290322e+00
  8.434086e+00    3.319335e+00
  8.465837e+00    3.394045e+00
  8.497588e+00    3.295790e+00
  8.529339e+00    3.331068e+00
  8.561091e+00    3.252342e+00
  8.592842e+00    3.227453e+00
  8.624593e+00    3.336360e+00
  8.656344e+00    3.253262e+00
  8.688095e+00    3.346462e+00
  8.719846e+00    3.311996e+00
  8.751598e+00    3.316149e+00
  8.783349e+00    3.325605e+00
  8.815100e+00    3.255041e+00
  8.846851e+00    3.229428e+00
  8.878602e+00    3.255661e+00
  8.910353e+00    3.257165e+00
  8.942104e+00    3.223666e+00
  8.973856e+00    3.228138e+00
  9.005607e+00    3.184010e+00
  9.037358e+00    3.224685e+00
  9.069109e+00    3.169891e+00
  9.100860e+00    3.192036e+00
  9.132611e+00    3.263085e+00
  9.164362e+00    3.271941e+00
  9.196114e+00    3.247002e+00
  9.227865e+00    3.253506e+00
  9.259616e+00    3.201339e+00
  9.291367e+00    3.163948e+00
  9.323118e+00    3.163240e+00
  9.354869e+00    3.169457e+00
  9.386620e+00    3.188453e+00
  9.418372e+00    3.126665e+00
  9.450123e+00    3.158771e+00
  9.481874e+00    3.192919e+00
  9.513625e+00    3.110319e+00
  9.545376e+00    3.191579e+00
  9.577127e+00    3.161342e+00
  9.608878e+00    3.212390e+00
  9.640630e+00    3.123804e+00
  9.672381e+00    3.134650e+00
  9.704132e+00    3.122231e+00
  9.735883e+00    3.110662e+00
  9.767634e+00    3.082625e+00
  9.799385e+00    3.169184e+00
  9.831137e+00    3.103176e+00
  9.862888e+00    3.155960e+00
  9.894639e+00    3.136846e+00
  9.926390e+00    3.069096e+00
  9.958141e+00    3.042566e+00
  9.989892e+00    3.072640e+00
  1.002164e+01    3.069171e+00
  1.005339e+01    3.094228e+00
  1.008515e+01    3.071882e+00
  1.011690e+01    3.043602e+00
  1.014865e+01    3.024521e+00
  1.018040e+01    3.030601e+00
  1.021215e+01    3.041786e+00
  1.024390e+01    3.068994e+00
  1.027565e+01    3.022697e+00
  1.030740e+01    3.007878e+00
  1.033915e+01    3.043498e+00
  1.037091e+01    3.000414e+00
  1.040266e+01    2.977306e+00
  1.043441e+01    2.987618e+00
  1.046616e+01    2.934609e+00
  1.049791e+01    2.994503e+00
  1.052966e+01    2.938069e+00
  1.056141e+01    2.977315e+00
  1.059316e+01    2.977212e+00
  1.062492e+01    2.938965e+00
  1.065667e+01    2.947208e+00
  1.068842e+01    2.985956e+00
  1.072017e+01    2.929157e+00
  1.075192e+01    2.882672e+00
  1.078367e+01    2.932203e+00
  1.081542e+01    2.878118e+00
  1.084717e+01    2.904437e+00
  1.087892e+01    2.858080e+00
  1.091068e+01    2.883048e+00
  1.094243e+01    2.852951e+00
  1.097418e+01    2.847504e+00
  1.100593e+01    2.856543e+00
  1.103768e+01    2.769793e+00
  1.106943e+01    2.883721e+00
  1.110118e+01    2.864733e+00
  1.113293e+01    2.848272e+00
  1.116468e+01    2.825574e+00
  1.119644e+01    2.797242e+00
  1.122819e+01    2.828383e+00
  1.125994e+01    2.792738e+00
  1.129169e+01    2.766137e+00
  1.132344e+01    2.801498e+00
  1.135519e+01    2.768387e+00
  1.138694e+01    2.813360e+00
  1.141869e+01    2.783428e+00
  1.145045e+01    2.740767e+00
  1.148220e+01    2.727811e+00
  1.151395e+01    2.743094e+00
  1.154570e+01    2.802738e+00
  1.157745e+01    2.761110e+00
  1.160920e+01    2.787757e+00
  1.164095e+01    2.726120e+00
  1.167270e+01    2.735902e+00
  1.170445e+01    2.726300e+00
  1.173621e+01    2.746548e+00
  1.176796e+01    2.690537e+00
  1.179971e+01    2.745444e+00
  1.183146e+01    2.657469e+00
  1.186321e+01    2.697951e+00
  1.189496e+01    2.714399e+00
  1.192671e+01    2.694435e+00
  1.195846e+01    2.702248e+00
  1.199021e+01    2.689594e+00
  1.202197e+01    2.682653e+00
  1.205372e+01    2.651848e+00
  1.208547e+01    2.641633e+00
  1.211722e+01    2.670438e+00
  1.214897e+01    2.661279e+00
  1.218072e+01    2.641922e+00
  1.221247e+01    2.705439e+00
  1.224422e+01    2.622560e+00
  1.227597e+01    2.665851e+00
  1.230773e+01    2.649562e+00
  1.233948e+01    2.683559e+00
  1.237123e+01    2.674770e+00
  1.240298e+01    2.645814e+00
  1.243473e+01    2.669233e+00
  1.246648e+01    2.640121e+00
  1.249823e+01    2.673203e+00
  1.252998e+01    2.670341e+00
  1.256174e+01    2.682819e+00
  1.259349e+01    2.729552e+00
  1.262524e+01    2.708501e+00
  1.265699e+01    2.752517e+00
  1.268874e+01    2.836178e+00
  1.272049e+01    2.816782e+00
  1.275224e+01    2.871397e+00
  1.278399e+01    2.940010e+00
  1.281574e+01    3.011077e+00
  1.284750e+01    3.148439e+00
  1.287925e+01    3.321839e+00
  1.291100e+01    3.576993e+00
  1.294275e+01    4.013565e+00
  1.297450e+01    4.760907e+00
  1.300625e+01    5.837717e+00
  1.303800e+01    7.565036e+00
  1.306975e+01    1.008206e+01
  1.310150e+01    1.245263e+01
  1.313326e+01    1.473239e+01
  1.316501e+01    1.606252e+01
  1.319676e+01    1.537323e+01
  1.322851e+01    1.241222e+01
  1.326026e+01    8.933539e+00
  1.329201e+01    6.683522e+00
  1.332376e+01    5.306803e+00
  1.335551e+01    4.363401e+00
  1.338727e+01    3.796842e+00
  1.341902e+01    3.437032e+00
  1.345077e+01    3.185063e+00
  1.348252e+01    2.941957e+00
  1.351427e+01    2.849552e+00
  1.354602e+01    2.798882e+00
  1.357777e+01    2.713838e+00
  1.360952e+01    2.604383e+00
  1.364127e+01    2.591211e+00
  1.367303e+01    2.522176e+00
  1.370478e+01    2.474368e+00
  1.373653e+01    2.520570e+00
  1.376828e+01    2.431610e+00
  1.380003e+01    2.417673e+00
  1.383178e+01    2.416223e+00
  1.386353e+01    2.382624e+00
  1.389528e+01    2.382279e+00
  1.392703e+01    2.397114e+00
  1.395879e+01    2.349883e+00
  1.399054e+01    2.310158e+00
  1.402229e+01    2.304927e+00
  1.405404e+01    2.310357e+00
  1.408579e+01    2.296137e+00
  1.411754e+01    2.279340e+00
  1.414929e+01    2.257206e+00
  1.418104e+01    2.236779e+00
  1.421279e+01    2.248720e+00
  1.424455e+01    2.217984e+00
  1.427630e+01    2.219231e+00
  1.430805e+01    2.232288e+00
  1.433980e+01    2.254025e+00
  1.437155e+01    2.230182e+00
  1.440330e+01    2.226772e+00
  1.443505e+01    2.221535e+00
  1.446680e+01    2.176376e+00
  1.449856e+01    2.206568e+00
  1.453031e+01    2.134511e+00
  1.456206e+01    2.153008e+00
  1.459381e+01    2.133832e+00
  1.462556e+01    2.176909e+00
  1.465731e+01    2.167153e+00
  1.468906e+01    2.133917e+00
  1.472081e+01    2.125293e+00
  1.475256e+01    2.169037e+00
  1.478432e+01    2.138398e+00
  1.481607e+01    2.149548e+00
  1.484782e+01    2.181335e+00
  1.487957e+01    2.189278e+00
  1.491132e+01    2.207376e+00
  1.494307e+01    2.256065e+00
  1.497482e+01    2.343356e+00
  1.500657e+01    2.382674e+00
  1.503832e+01    2.552562e+00
  1.507008e+01    2.730416e+00
  1.510183e+01    3.143710e+00
  1.513358e+01    3.694430e+00
  1.516533e+01    4.428466e+00
  1.519708e+01    5.084033e+00
  1.522883e+01    5.532440e+00
  1.526058e+01    5.649012e+00
  1.529233e+01    5.423050e+00
  1.532409e+01    4.609343e+00
  1.535584e+01    3.699499e+00
  1.538759e+01    3.140713e+00
  1.541934e+01    2.717728e+00
  1.545109e+01    2.426944e+00
  1.548284e+01    2.292824e+00
  1.551459e+01    2.251998e+00
  1.554634e+01    2.162535e+00
  1.557809e+01    2.078861e+00
  1.560985e+01    2.037853e+00
  1.564160e+01    2.012082e+00
  1.567335e+01    2.018369e+00
  1.570510e+01    1.936507e+00
  1.573685e+01    1.968786e+00
  1.576860e+01    1.949091e+00
  1.580035e+01    1.921672e+00
  1.583210e+01    1.922107e+00
  1.586385e+01    1.863626e+00
  1.589561e+01    1.872165e+00
  1.592736e+01    1.861645e+00
  1.595911e+01    1.838086e+00
  1.599086e+01    1.847862e+00
  1.602261e+01    1.811708e+00
  1.605436e+01    1.826597e+00
  1.608611e+01    1.822582e+00
  1.611786e+01    1.827418e+00
  1.614961e+01    1.800615e+00
  1.618137e+01    1.794521e+00
  1.621312e+01    1.800580e+00
  1.624487e+01    1.745835e+00
  1.627662e+01    1.757628e+00
  1.630837e+01    1.794027e+00
  1.634012e+01    1.787057e+00
  1.637187e+01    1.756528e+00
  1.640362e+01    1.734616e+00
  1.643538e+01    1.735797e+00
  1.646713e+01    1.759613e+00
  1.649888e+01    1.739637e+00
  1.653063e+01    1.751057e+00
  1.656238e+01    1.728486e+00
  1.659413e+01    1.684743e+00
  1.662588e+01    1.693840e+00
  1.665763e+01    1.708822e+00
  1.668938e+01    1.679038e+00
  1.672114e+01    1.693299e+00
  1.675289e+01    1.680891e+00
  1.678464e+01    1.701195e+00
  1.681639e+01    1.699872e+00
  1.684814e+01    1.698355e+00
  1.687989e+01    1.663791e+00
  1.691164e+01    1.679867e+00
  1.694339e+01    1.628606e+00
  1.697514e+01    1.646815e+00
  1.700690e+01    1.639758e+00
  1.703865e+01    1.637077e+00
  1.707040e+01    1.637611e+00
  1.710215e+01    1.657388e+00
  1.713390e+01    1.636744e+00
  1.716565e+01    1.588840e+00
  1.719740e+01    1.588789e+00
  1.722915e+01    1.595497e+00
  1.726091e+01    1.578582e+00
  1.729266e+01    1.588697e+00
  1.732441e+01    1.581075e+00
  1.735616e+01    1.547685e+00
  1.738791e+01    1.575095e+00
  1.741966e+01    1.558956e+00
  1.745141e+01    1.549373e+00
  1.748316e+01    1.554509e+00
  1.751491e+01    1.560246e+00
  1.754667e+01    1.559758e+00
  1.757842e+01    1.529517e+00
  1.761017e+01    1.520951e+00
  1.764192e+01    1.546572e+00
  1.767367e+01    1.548058e+00
  1.770542e+01    1.521229e+00
  1.773717e+01    1.511585e+00
  1.776892e+01    1.529516e+00
  1.780067e+01    1.540205e+00
  1.783243e+01    1.511075e+00
  1.786418e+01    1.501438e+00
  1.789593e+01    1.518499e+00
  1.792768e+01    1.504948e+00
  1.795943e+01    1.513668e+00
  1.799118e+01    1.483118e+00
  1.802293e+01    1.466029e+00
  1.805468e+01    1.486565e+00
  1.808643e+01    1.465271e+00
  1.811819e+01    1.481421e+00
  1.814994e+01    1.472985e+00
  1.818169e+01    1.480664e+00
  1.821344e+01    1.457894e+00
  1.824519e+01    1.437000e+00
  1.827694e+01    1.465081e+00
  1.830869e+01    1.421124e+00
  1.834044e+01    1.417983e+00
  1.837220e+01    1.436357e+00
  1.840395e+01    1.435941e+00
  1.843570e+01    1.430071e+00
  1.846745e+01    1.420640e+00
  1.849920e+01    1.378321e+00
  1.853095e+01    1.401740e+00
  1.856270e+01    1.410131e+00
  1.859445e+01    1.381936e+00
  1.862620e+01    1.404223e+00
  1.865796e+01    1.390665e+00
  1.868971e+01    1.400303e+00
  1.872146e+01    1.431980e+00
  1.875321e+01    1.384286e+00
  1.878496e+01    1.374270e+00
  1.881671e+01    1.373642e+00
  1.884846e+01    1.391584e+00
  1.888021e+01    1.382627e+00
  1.891196e+01    1.362723e+00
  1.894372e+01    1.376006e+00
  1.897547e+01    1.384953e+00
  1.900722e+01    1.324999e+00
  1.903897e+01    1.370036e+00
  1.907072e+01    1.359718e+00
  1.910247e+01    1.343260e+00
  1.913422e+01    1.331960e+00
  1.916597e+01    1.322483e+00
  1.919773e+01    1.366906e+00
  1.922948e+01    1.349792e+00
  1.926123e+01    1.349054e+00
  1.929298e+01    1.322002e+00
  1.932473e+01    1.349832e+00
  1.935648e+01    1.320247e+00
  1.938823e+01    1.323693e+00
  1.941998e+01    1.285265e+00
  1.945173e+01    1.321289e+00
  1.948349e+01    1.311342e+00
  1.951524e+01    1.326434e+00
  1.954699e+01    1.329472e+00
  1.957874e+01    1.285689e+00
  1.961049e+01    1.293353e+00
  1.964224e+01    1.301464e+00
  1.967399e+01    1.293369e+00
  1.970574e+01    1.311012e+00
  1.973749e+01    1.275403e+00
  1.976925e+01    1.278056e+00
  1.980100e+01    1.279160e+00
  1.983275e+01    1.270525e+00
  1.986450e+01    1.280161e+00
  1.989625e+01    1.251029e+00
  1.992800e+01    1.266845e+00
  1.995975e+01    1.273802e+00
  1.999150e+01    1.252294e+00
  2.002325e+01    1.244413e+00
  2.005501e+01    1.247523e+00
  2.008676e+01    1.256068e+00
  2.011851e+01    1.269683e+00
  2.015026e+01    1.250853e+00
  2.018201e+01    1.254459e+00
  2.021376e+01    1.262369e+00
  2.024551e+01    1.232257e+00
  2.027726e+01    1.271414e+00
  2.030902e+01    1.200155e+00
  2.034077e+01    1.203269e+00
  2.037252e+01    1.232559e+00
  2.040427e+01    1.214158e+00
  2.043602e+01    1.219918e+00
  2.046777e+01    1.209858e+00
  2.049952e+01    1.243465e+00
  2.053127e+01    1.216850e+00
  2.056302e+01    1.199849e+00
  2.059478e+01    1.211023e+00
  2.062653e+01    1.202636e+00
  2.065828e+01    1.233928e+00
  2.069003e+01    1.182557e+00
  2.072178e+01    1.219059e+00
  2.075353e+01    1.185083e+00
  2.078528e+01    1.189999e+00
  2.081703e+01    1.217566e+00
  2.084878e+01    1.204248e+00
  2.088054e+01    1.185080e+00
  2.091229e+01    1.188298e+00
  2.094404e+01    1.212759e+00
  2.097579e+01    1.206091e+00
  2.100754e+01    1.211838e+00
  2.103929e+01    1.237826e+00
  2.107104e+01    1.216316e+00
  2.110279e+01    1.217385e+00
  2.113455e+01    1.205758e+00
  2.116630e+01    1.228507e+00
  2.119805e+01    1.223744e+00
  2.122980e+01    1.230527e+00
  2.126155e+01    1.231737e+00
  2.129330e+01    1.222719e+00
  2.132505e+01    1.265908e+00
  2.135680e+01    1.279983e+00
  2.138855e+01    1.319267e+00
  2.142031e+01    1.302967e+00
  2.145206e+01    1.338316e+00
  2.148381e+01    1.371199e+00
  2.151556e+01    1.431005e+00
  2.154731e+01    1.507141e+00
  2.157906e+01    1.582655e+00
  2.161081e+01    1.750065e+00
  2.164256e+01    1.957027e+00
  2.167431e+01    2.232380e+00
  2.170607e+01    2.710732e+00
  2.173782e+01    3.465990e+00
  2.176957e+01    4.484541e+00
  2.180132e+01    5.672064e+00
  2.183307e+01    7.127285e+00
  2.186482e+01    8.243993e+00
  2.189657e+01    8.858476e+00
  2.192832e+01    8.168517e+00
  2.196007e+01    6.500263e+00
  2.199183e+01    4.775765e+00
  2.202358e+01    3.603582e+00
  2.205533e+01    2.834133e+00
  2.208708e+01    2.262304e+00
  2.211883e+01    1.977373e+00
  2.215058e+01    1.751937e+00
  2.218233e+01    1.589449e+00
  2.221408e+01    1.456940e+00
  2.224584e+01    1.368025e+00
  2.227759e+01    1.336975e+00
  2.230934e+01    1.273075e+00
  2.234109e+01    1.256601e+00
  2.237284e+01    1.196205e+00
  2.240459e+01    1.190974e+00
  2.243634e+01    1.181196e+00
  2.246809e+01    1.161890e+00
  2.249984e+01    1.167538e+00
  2.253160e+01    1.107111e+00
  2.256335e+01    1.103952e+00
  2.259510e+01    1.083961e+00
  2.262685e+01    1.070495e+00
  2.265860e+01    1.083023e+00
  2.269035e+01    1.067615e+00
  2.272210e+01    1.038376e+00
  2.275385e+01    1.053381e+00
  2.278560e+01    1.077656e+00
  2.281736e+01    1.027119e+00
  2.284911e+01    1.017085e+00
  2.288086e+01    1.043793e+00
  2.291261e+01    9.918990e-01
  2.294436e+01    1.042271e+00
  2.297611e+01    1.028429e+00
  2.300786e+01    1.012209e+00
  2.303961e+01    1.006000e+00
  2.307137e+01    1.016700e+00
  2.310312e+01    9.638794e-01
  2.313487e+01    1.002086e+00
  2.316662e+01    9.790698e-01
  2.319837e+01    9.794838e-01
  2.323012e+01    9.954640e-01
  2.326187e+01    9.868488e-01
  2.329362e+01    9.645502e-01
  2.332537e+01    9.572740e-01
  2.335713e+01    9.441544e-01
  2.338888e+01    9.556278e-01
  2.342063e+01    9.695765e-01
  2.345238e+01    9.532937e-01
  2.348413e+01    9.594455e-01
  2.351588e+01    9.432950e-01
  2.354763e+01    9.355274e-01
  2.357938e+01    9.491373e-01
  2.361113e+01    9.410452e-01
  2.364289e+01    9.169998e-01
  2.367464e+01    9.331372e-01
  2.370639e+01    9.388180e-01
  2.373814e+01    9.295868e-01
  2.376989e+01    9.329746e-01
  2.380164e+01    9.189318e-01
  2.383339e+01    9.160633e-01
  2.386514e+01    8.986290e-01
  2.389689e+01    8.915687e-01
  2.392865e+01    8.737058e-01
  2.396040e+01    8.947493e-01
  2.399215e+01    8.628213e-01
  2.402390e+01    8.858905e-01
  2.405565e+01    8.822695e-01
  2.408740e+01    8.665937e-01
  2.411915e+01    8.790663e-01
  2.415090e+01    8.800644e-01
  2.418266e+01    8.731799e-01
  2.421441e+01    8.576447e-01
  2.424616e+01    8.747280e-01
  2.427791e+01    8.524825e-01
  2.430966e+01    8.648406e-01
  2.434141e+01    9.185288e-01
  2.437316e+01    8.886791e-01
  2.440491e+01    8.777865e-01
  2.443666e+01    8.661643e-01
  2.446842e+01    8.697932e-01
  2.450017e+01    8.972939e-01
  2.453192e+01    8.710062e-01
  2.456367e+01    8.876652e-01
  2.459542e+01    8.734621e-01
  2.462717e+01    8.700981e-01
  2.465892e+01    8.700549e-01
  2.469067e+01    8.702648e-01
  2.472242e+01    8.650838e-01
  2.475418e+01    8.912346e-01
  2.478593e+01    8.908883e-01
  2.481768e+01    8.626876e-01
  2.484943e+01    8.683605e-01
  2.488118e+01    8.727242e-01
  2.491293e+01    8.826587e-01
  2.494468e+01    8.819751e-01
  2.497643e+01    8.974510e-01
  2.500819e+01    8.716044e-01
  2.503994e+01    8.956794e-01
  2.507169e+01    8.577362e-01
  2.510344e+01    8.814395e-01
  2.513519e+01    8.830500e-01
  2.516694e+01    9.054608e-01
  2.519869e+01    9.092449e-01
  2.523044e+01    9.221523e-01
  2.526219e+01    9.201406e-01
  2.529395e+01    9.461440e-01
  2.532570e+01    9.496293e-01
  2.535745e+01    9.493806e-01
  2.538920e+01    9.687982e-01
  2.542095e+01    9.710659e-01
  2.545270e+01    1.010378e+00
  2.548445e+01    1.040457e+00
  2.551620e+01    1.054313e+00
  2.554795e+01    1.075366e+00
  2.557971e+01    1.139844e+00
  2.561146e+01    1.212616e+00
  2.564321e+01    1.291574e+00
  2.567496e+01    1.366365e+00
  2.570671e+01    1.580054e+00
  2.573846e+01    1.806031e+00
  2.577021e+01    2.208286e+00
  2.580196e+01    2.750756e+00
  2.583371e+01    3.609767e+00
  2.586547e+01    4.575551e+00
  2.589722e+01    5.733735e+00
  2.592897e+01    6.698090e+00
  2.596072e+01    7.045687e+00
  2.599247e+01    6.496673e+00
  2.602422e+01    5.237877e+00
  2.605597e+01    3.943935e+00
  2.608772e+01    3.011224e+00
  2.611948e+01    2.343602e+00
  2.615123e+01    1.940886e+00
  2.618298e+01    1.618020e+00
  2.621473e+01    1.457530e+00
  2.624648e+01    1.340122e+00
  2.627823e+01    1.252500e+00
  2.630998e+01    1.167690e+00
  2.634173e+01    1.115300e+00
  2.637348e+01    1.063988e+00
  2.640524e+01    1.007224e+00
  2.643699e+01    1.021346e+00
  2.646874e+01    1.012527e+00
  2.650049e+01    9.878965e-01
  2.653224e+01    9.895768e-01
  2.656399e+01    9.639699e-01
  2.659574e+01    9.681780e-01
  2.662749e+01    9.450725e-01
  2.665924e+01    9.870666e-01
  2.669100e+01    9.340728e-01
  2.672275e+01    9.521767e-01
  2.675450e+01    9.377195e-01
  2.678625e+01    9.646128e-01
  2.681800e+01    9.834044e-01
  2.684975e+01    9.682769e-01
  2.688150e+01    9.718019e-01
  2.691325e+01    1.002265e+00
  2.694501e+01    1.037600e+00
  2.697676e+01    1.028773e+00
  2.700851e+01    1.123105e+00
  2.704026e+01    1.172599e+00
  2.707201e+01    1.290424e+00
  2.710376e+01    1.485386e+00
  2.713551e+01    1.701765e+00
  2.716726e+01    1.962718e+00
  2.719901e+01    2.118421e+00
  2.723077e+01    2.118692e+00
  2.726252e+01    1.918114e+00
  2.729427e+01    1.650502e+00
  2.732602e+01    1.462956e+00
  2.735777e+01    1.270939e+00
  2.738952e+01    1.161413e+00
  2.742127e+01    1.064260e+00
  2.745302e+01    1.051892e+00
  2.748477e+01    9.885861e-01
  2.751653e+01    9.256480e-01
  2.754828e+01    9.081832e-01
  2.758003e+01    9.249890e-01
  2.761178e+01    8.997056e-01
  2.764353e+01    8.895575e-01
  2.767528e+01    8.952504e-01
  2.770703e+01    8.820537e-01
  2.773878e+01    9.135097e-01
  2.777054e+01    8.793384e-01
  2.780229e+01    9.097333e-01
  2.783404e+01    8.908153e-01
  2.786579e+01    8.749902e-01
  2.789754e+01    8.627443e-01
  2.792929e+01    8.755761e-01
  2.796104e+01    8.563153e-01
  2.799279e+01    8.658102e-01
  2.802454e+01    8.475186e-01
  2.805630e+01    8.496929e-01
  2.808805e+01    8.647651e-01
  2.811980e+01    8.653789e-01
  2.815155e+01    8.652127e-01
  2.818330e+01    8.384873e-01
  2.821505e+01    8.307255e-01
  2.824680e+01    8.574079e-01
  2.827855e+01    8.346605e-01
  2.831030e+01    8.249285e-01
  2.834206e+01    8.309642e-01
  2.837381e+01    8.260328e-01
  2.840556e+01    8.234108e-01
  2.843731e+01    8.344364e-01
  2.846906e+01    8.332708e-01
  2.850081e+01    8.335394e-01
  2.853256e+01    8.381067e-01
  2.856431e+01    8.087979e-01
  2.859606e+01    8.225862e-01
  2.862782e+01    8.090363e-01
  2.865957e+01    8.370699e-01
  2.869132e+01    8.287452e-01
  2.872307e+01    8.066205e-01
  2.875482e+01    8.284273e-01
  2.878657e+01    8.231961e-01
  2.881832e+01    8.184001e-01
  2.885007e+01    8.033256e-01
  2.888183e+01    7.998416e-01
  2.891358e+01    8.117809e-01
  2.894533e+01    8.114077e-01
  2.897708e+01    8.101499e-01
  2.900883e+01    8.037101e-01
  2.904058e+01    7.984685e-01
  2.907233e+01    8.156124e-01
  2.910408e+01    8.148668e-01
  2.913583e+01    8.339524e-01
  2.916759e+01    8.015733e-01
  2.919934e+01    7.966545e-01
  2.923109e+01    8.035679e-01
  2.926284e+01    7.966936e-01
  2.929459e+01    7.866605e-01
  2.932634e+01    8.122262e-01
  2.935809e+01    7.820698e-01
  2.938984e+01    8.047911e-01
  2.942159e+01    7.758908e-01
  2.945335e+01    8.006473e-01
  2.948510e+01    7.876589e-01
  2.951685e+01    7.872159e-01
  2.954860e+01    8.014889e-01
  2.958035e+01    7.853932e-01
  2.961210e+01    8.025427e-01
  2.964385e+01    7.702134e-01
  2.967560e+01    7.901827e-01
  2.970736e+01    8.115674e-01
  2.973911e+01    7.768763e-01
  2.977086e+01    7.934151e-01
  2.980261e+01    7.639683e-01
  2.983436e+01    7.649063e-01
  2.986611e+01    7.735841e-01
  2.989786e+01    7.710450e-01
  2.992961e+01    7.898908e-01
  2.996136e+01    7.764251e-01
  2.999312e+01    7.786987e-01
  3.002487e+01    7.938271e-01
  3.005662e+01    8.010106e-01
  3.008837e+01    8.060538e-01
  3.012012e+01    7.791339e-01
  3.015187e+01    8.011071e-01
  3.018362e+01    7.834730e-01
  3.021537e+01    7.762180e-01
  3.024712e+01    7.902153e-01
  3.027888e+01    7.803391e-01
  3.031063e+01    7.624736e-01
  3.034238e+01    7.446562e-01
  3.037413e+01    7.674710e-01
  3.040588e+01    7.834805e-01
  3.043763e+01    7.813052e-01
  3.046938e+01    7.868133e-01
  3.050113e+01    7.609457e-01
  3.053288e+01    7.814959e-01
  3.056464e+01    7.589300e-01
  3.059639e+01    7.763610e-01
  3.062814e+01    7.590109e-01
  3.065989e+01    7.572348e-01
  3.069164e+01    7.484783e-01
  3.072339e+01    7.662314e-01
  3.075514e+01    7.810869e-01
  3.078689e+01    7.674467e-01
  3.081865e+01    7.673362e-01
  3.085040e+01    7.744170e-01
  3.088215e+01    7.500566e-01
  3.091390e+01    7.816397e-01
  3.094565e+01    7.652316e-01
  3.097740e+01    7.804498e-01
  3.100915e+01    7.945839e-01
  3.104090e+01    7.540514e-01
  3.107265e+01    7.761143e-01
  3.110441e+01    7.573274e-01
  3.113616e+01    7.726513e-01
  3.116791e+01    7.895014e-01
  3.119966e+01    7.790365e-01
  3.123141e+01    7.803763e-01
  3.126316e+01    7.990796e-01
  3.129491e+01    8.000856e-01
  3.132666e+01    7.835484e-01
  3.135841e+01    7.887079e-01
  3.139017e+01    7.870820e-01
  3.142192e+01    8.018723e-01
  3.145367e+01    8.130118e-01
  3.148542e+01    7.928553e-01
  3.151717e+01    8.296142e-01
  3.154892e+01    8.199946e-01
  3.158067e+01    8.504173e-01
  3.161242e+01    8.934712e-01
  3.164418e+01    9.222924e-01
  3.167593e+01    9.758556e-01
  3.170768e+01    1.006528e+00
  3.173943e+01    1.071456e+00
  3.177118e+01    1.208600e+00
  3.180293e+01    1.442602e+00
  3.183468e+01    1.670755e+00
  3.186643e+01    1.923867e+00
  3.189818e+01    2.024400e+00
  3.192994e+01    1.983173e+00
  3.196169e+01    1.783709e+00
  3.199344e+01    1.525845e+00
  3.202519e+01    1.325752e+00
  3.205694e+01    1.148958e+00
  3.208869e+01    1.014155e+00
  3.212044e+01    9.334816e-01
  3.215219e+01    9.164816e-01
  3.218394e+01    8.435900e-01
  3.221570e+01    8.312289e-01
  3.224745e+01    7.765748e-01
  3.227920e+01    8.122895e-01
  3.231095e+01    8.018110e-01
  3.234270e+01    8.094184e-01
  3.237445e+01    7.884778e-01
  3.240620e+01    7.647508e-01
  3.243795e+01    7.927402e-01
  3.246970e+01    7.701831e-01
  3.250146e+01    7.613667e-01
  3.253321e+01    7.730906e-01
  3.254908e+01    7.618830e-01