File: XRD/Reaction conditions/2024-07-27_003_Ru-CGO-ex_Reaction_dwell_000023_data_000038.dat
# == pyFAI calibration ==
# Distance Sample to Detector: 0.4 m
# PONI: 9.750e-02, 1.135e-01 m
# Rotations: -0.000175 0.000000 -0.000000 rad
#
# == Fit2d calibration ==
# Distance Sample-beamCenter: 400.000 mm
# Center: x=1514.000, y=1300.000 pix
# Tilt: 0.010 deg  TiltPlanRot: 0.010 deg
#
# Detector Detector	 Spline= None	 PixelSize= 7.500e-05, 7.500e-05 m
#    Detector has a mask: False
#    Detector has a dark current: False
#    detector has a flat field: False
#
# Wavelength: 6.888e-11 m
# Mask applied: user provided
# Dark current applied: False
# Flat field applied: False
# Polarization factor: 0.99
# Normalization factor: 1.0
# --> /home/myspot/data/2024_07_Rosario/Ru-CGO-ex/2024-07-27_003_Ru-CGO-ex_Reaction_dwell_000023_data_000038.dat
#       q_nm^-1             I
  2.003187e-02    7.711996e-02
  5.178302e-02    2.403977e-01
  8.353417e-02    1.146663e-01
  1.152853e-01    4.844750e-02
  1.470365e-01    5.393584e-02
  1.787876e-01    0.000000e+00
  2.105388e-01    4.315188e-02
  2.422899e-01    1.032636e-02
  2.740411e-01    1.946632e-02
  3.057922e-01    4.701589e-02
  3.375433e-01    8.793220e-02
  3.692945e-01    3.128497e-02
  4.010456e-01    5.046287e-02
  4.327968e-01    3.810560e-02
  4.645479e-01    7.747817e-02
  4.962991e-01    6.543037e-02
  5.280502e-01    2.773281e-02
  5.598014e-01    4.183786e-02
  5.915525e-01    6.157200e-02
  6.233037e-01    2.195954e-02
  6.550548e-01    1.668555e-02
  6.868060e-01    3.085359e-02
  7.185571e-01    5.678712e-02
  7.503083e-01    3.512762e-02
  7.820594e-01    1.393921e-01
  8.138106e-01    2.334761e-01
  8.455617e-01    3.782061e-01
  8.773129e-01    4.775606e-01
  9.090640e-01    6.760017e-01
  9.408152e-01    8.075418e-01
  9.725663e-01    1.008982e+00
  1.004317e+00    1.154255e+00
  1.036069e+00    1.363923e+00
  1.067820e+00    1.529061e+00
  1.099571e+00    1.514654e+00
  1.131322e+00    1.641088e+00
  1.163073e+00    1.713186e+00
  1.194824e+00    1.752377e+00
  1.226575e+00    2.233593e+00
  1.258327e+00    2.484813e+00
  1.290078e+00    2.620708e+00
  1.321829e+00    2.726493e+00
  1.353580e+00    2.812502e+00
  1.385331e+00    2.921359e+00
  1.417082e+00    2.651496e+00
  1.448834e+00    2.956859e+00
  1.480585e+00    3.224934e+00
  1.512336e+00    3.223600e+00
  1.544087e+00    3.259040e+00
  1.575838e+00    3.117195e+00
  1.607589e+00    3.272627e+00
  1.639340e+00    3.150754e+00
  1.671092e+00    3.180056e+00
  1.702843e+00    3.133515e+00
  1.734594e+00    3.135882e+00
  1.766345e+00    3.052829e+00
  1.798096e+00    3.090248e+00
  1.829847e+00    3.155419e+00
  1.861598e+00    3.120120e+00
  1.893350e+00    3.185079e+00
  1.925101e+00    3.083326e+00
  1.956852e+00    3.086420e+00
  1.988603e+00    3.154834e+00
  2.020354e+00    3.018783e+00
  2.052105e+00    3.132538e+00
  2.083856e+00    3.090880e+00
  2.115608e+00    3.118498e+00
  2.147359e+00    3.132907e+00
  2.179110e+00    3.139927e+00
  2.210861e+00    3.146343e+00
  2.242612e+00    3.080214e+00
  2.274363e+00    3.113740e+00
  2.306115e+00    3.004504e+00
  2.337866e+00    3.136151e+00
  2.369617e+00    3.163678e+00
  2.401368e+00    3.125006e+00
  2.433119e+00    3.148024e+00
  2.464870e+00    3.157449e+00
  2.496621e+00    3.200935e+00
  2.528373e+00    3.147469e+00
  2.560124e+00    3.250783e+00
  2.591875e+00    3.170614e+00
  2.623626e+00    3.159774e+00
  2.655377e+00    3.261593e+00
  2.687128e+00    3.236910e+00
  2.718879e+00    3.233448e+00
  2.750631e+00    3.256552e+00
  2.782382e+00    3.424216e+00
  2.814133e+00    3.406558e+00
  2.845884e+00    3.313490e+00
  2.877635e+00    3.309330e+00
  2.909386e+00    3.274346e+00
  2.941137e+00    3.388594e+00
  2.972889e+00    3.406342e+00
  3.004640e+00    3.346511e+00
  3.036391e+00    3.317397e+00
  3.068142e+00    3.397132e+00
  3.099893e+00    3.342999e+00
  3.131644e+00    3.350227e+00
  3.163395e+00    3.364160e+00
  3.195147e+00    3.507616e+00
  3.226898e+00    3.459750e+00
  3.258649e+00    3.478030e+00
  3.290400e+00    3.367156e+00
  3.322151e+00    3.423500e+00
  3.353902e+00    3.452410e+00
  3.385654e+00    3.435864e+00
  3.417405e+00    3.427972e+00
  3.449156e+00    3.404255e+00
  3.480907e+00    3.477822e+00
  3.512658e+00    3.451591e+00
  3.544409e+00    3.507174e+00
  3.576160e+00    3.419985e+00
  3.607912e+00    3.444782e+00
  3.639663e+00    3.468411e+00
  3.671414e+00    3.591785e+00
  3.703165e+00    3.463569e+00
  3.734916e+00    3.525463e+00
  3.766667e+00    3.534348e+00
  3.798418e+00    3.562824e+00
  3.830170e+00    3.574046e+00
  3.861921e+00    3.486159e+00
  3.893672e+00    3.458764e+00
  3.925423e+00    3.522384e+00
  3.957174e+00    3.538555e+00
  3.988925e+00    3.540083e+00
  4.020676e+00    3.553422e+00
  4.052428e+00    3.706903e+00
  4.084179e+00    3.421386e+00
  4.115930e+00    3.601645e+00
  4.147681e+00    3.503776e+00
  4.179432e+00    3.586252e+00
  4.211183e+00    3.541997e+00
  4.242935e+00    3.588062e+00
  4.274686e+00    3.574202e+00
  4.306437e+00    3.615087e+00
  4.338188e+00    3.634056e+00
  4.369939e+00    3.629191e+00
  4.401690e+00    3.564225e+00
  4.433441e+00    3.727153e+00
  4.465193e+00    3.691352e+00
  4.496944e+00    3.585715e+00
  4.528695e+00    3.633552e+00
  4.560446e+00    3.654498e+00
  4.592197e+00    3.638716e+00
  4.623948e+00    3.667634e+00
  4.655699e+00    3.659841e+00
  4.687451e+00    3.601635e+00
  4.719202e+00    3.619285e+00
  4.750953e+00    3.718525e+00
  4.782704e+00    3.685003e+00
  4.814455e+00    3.641938e+00
  4.846206e+00    3.681681e+00
  4.877957e+00    3.664941e+00
  4.909709e+00    3.643622e+00
  4.941460e+00    3.605339e+00
  4.973211e+00    3.614553e+00
  5.004962e+00    3.722964e+00
  5.036713e+00    3.658163e+00
  5.068464e+00    3.745513e+00
  5.100216e+00    3.499444e+00
  5.131967e+00    3.640258e+00
  5.163718e+00    3.704147e+00
  5.195469e+00    3.707850e+00
  5.227220e+00    3.773177e+00
  5.258971e+00    3.695965e+00
  5.290722e+00    3.642419e+00
  5.322474e+00    3.637850e+00
  5.354225e+00    3.667578e+00
  5.385976e+00    3.697360e+00
  5.417727e+00    3.598134e+00
  5.449478e+00    3.672589e+00
  5.481229e+00    3.621186e+00
  5.512980e+00    3.573238e+00
  5.544732e+00    3.634668e+00
  5.576483e+00    3.604243e+00
  5.608234e+00    3.490137e+00
  5.639985e+00    3.503314e+00
  5.671736e+00    3.632115e+00
  5.703487e+00    3.604930e+00
  5.735238e+00    3.561895e+00
  5.766990e+00    3.652251e+00
  5.798741e+00    3.574873e+00
  5.830492e+00    3.580950e+00
  5.862243e+00    3.575254e+00
  5.893994e+00    3.519651e+00
  5.925745e+00    3.525846e+00
  5.957497e+00    3.602473e+00
  5.989248e+00    3.582866e+00
  6.020999e+00    3.522956e+00
  6.052750e+00    3.526450e+00
  6.084501e+00    3.587022e+00
  6.116252e+00    3.627794e+00
  6.148003e+00    3.627272e+00
  6.179755e+00    3.647141e+00
  6.211506e+00    3.604021e+00
  6.243257e+00    3.544649e+00
  6.275008e+00    3.535167e+00
  6.306759e+00    3.555897e+00
  6.338510e+00    3.622645e+00
  6.370261e+00    3.576326e+00
  6.402013e+00    3.628239e+00
  6.433764e+00    3.611242e+00
  6.465515e+00    3.575908e+00
  6.497266e+00    3.558142e+00
  6.529017e+00    3.594730e+00
  6.560768e+00    3.611464e+00
  6.592519e+00    3.587310e+00
  6.624271e+00    3.621688e+00
  6.656022e+00    3.565708e+00
  6.687773e+00    3.509670e+00
  6.719524e+00    3.555415e+00
  6.751275e+00    3.635239e+00
  6.783026e+00    3.624798e+00
  6.814777e+00    3.521056e+00
  6.846529e+00    3.608527e+00
  6.878280e+00    3.597904e+00
  6.910031e+00    3.579209e+00
  6.941782e+00    3.495647e+00
  6.973533e+00    3.571979e+00
  7.005284e+00    3.524835e+00
  7.037036e+00    3.509510e+00
  7.068787e+00    3.559013e+00
  7.100538e+00    3.570228e+00
  7.132289e+00    3.533197e+00
  7.164040e+00    3.442498e+00
  7.195791e+00    3.536876e+00
  7.227542e+00    3.474109e+00
  7.259294e+00    3.463758e+00
  7.291045e+00    3.564979e+00
  7.322796e+00    3.432619e+00
  7.354547e+00    3.519176e+00
  7.386298e+00    3.517272e+00
  7.418049e+00    3.494671e+00
  7.449800e+00    3.547910e+00
  7.481552e+00    3.488315e+00
  7.513303e+00    3.441718e+00
  7.545054e+00    3.443949e+00
  7.576805e+00    3.432217e+00
  7.608556e+00    3.566765e+00
  7.640307e+00    3.506632e+00
  7.672058e+00    3.472768e+00
  7.703810e+00    3.357278e+00
  7.735561e+00    3.511654e+00
  7.767312e+00    3.492638e+00
  7.799063e+00    3.495728e+00
  7.830814e+00    3.500633e+00
  7.862565e+00    3.442096e+00
  7.894317e+00    3.493850e+00
  7.926068e+00    3.400301e+00
  7.957819e+00    3.428228e+00
  7.989570e+00    3.450512e+00
  8.021321e+00    3.379063e+00
  8.053072e+00    3.462239e+00
  8.084823e+00    3.429990e+00
  8.116575e+00    3.427762e+00
  8.148326e+00    3.505941e+00
  8.180077e+00    3.388808e+00
  8.211828e+00    3.517897e+00
  8.243579e+00    3.417124e+00
  8.275330e+00    3.419422e+00
  8.307081e+00    3.393164e+00
  8.338833e+00    3.366649e+00
  8.370584e+00    3.442937e+00
  8.402335e+00    3.340787e+00
  8.434086e+00    3.446350e+00
  8.465837e+00    3.411324e+00
  8.497588e+00    3.301352e+00
  8.529339e+00    3.277999e+00
  8.561091e+00    3.373801e+00
  8.592842e+00    3.387227e+00
  8.624593e+00    3.376929e+00
  8.656344e+00    3.350114e+00
  8.688095e+00    3.264446e+00
  8.719846e+00    3.419761e+00
  8.751598e+00    3.363838e+00
  8.783349e+00    3.373353e+00
  8.815100e+00    3.370783e+00
  8.846851e+00    3.316565e+00
  8.878602e+00    3.261851e+00
  8.910353e+00    3.239609e+00
  8.942104e+00    3.300757e+00
  8.973856e+00    3.327211e+00
  9.005607e+00    3.341918e+00
  9.037358e+00    3.341180e+00
  9.069109e+00    3.338591e+00
  9.100860e+00    3.307690e+00
  9.132611e+00    3.248677e+00
  9.164362e+00    3.303898e+00
  9.196114e+00    3.323334e+00
  9.227865e+00    3.242757e+00
  9.259616e+00    3.200945e+00
  9.291367e+00    3.264577e+00
  9.323118e+00    3.249110e+00
  9.354869e+00    3.246179e+00
  9.386620e+00    3.250791e+00
  9.418372e+00    3.258483e+00
  9.450123e+00    3.212994e+00
  9.481874e+00    3.185799e+00
  9.513625e+00    3.267091e+00
  9.545376e+00    3.257288e+00
  9.577127e+00    3.200388e+00
  9.608878e+00    3.305856e+00
  9.640630e+00    3.258336e+00
  9.672381e+00    3.220625e+00
  9.704132e+00    3.245364e+00
  9.735883e+00    3.182433e+00
  9.767634e+00    3.203397e+00
  9.799385e+00    3.197737e+00
  9.831137e+00    3.104126e+00
  9.862888e+00    3.146095e+00
  9.894639e+00    3.143760e+00
  9.926390e+00    3.135877e+00
  9.958141e+00    3.102008e+00
  9.989892e+00    3.120772e+00
  1.002164e+01    3.097708e+00
  1.005339e+01    3.038749e+00
  1.008515e+01    3.103604e+00
  1.011690e+01    3.201485e+00
  1.014865e+01    3.067499e+00
  1.018040e+01    3.105580e+00
  1.021215e+01    3.070543e+00
  1.024390e+01    3.073940e+00
  1.027565e+01    3.107429e+00
  1.030740e+01    3.030239e+00
  1.033915e+01    3.082073e+00
  1.037091e+01    3.043797e+00
  1.040266e+01    3.084057e+00
  1.043441e+01    3.018338e+00
  1.046616e+01    3.019391e+00
  1.049791e+01    3.007725e+00
  1.052966e+01    3.034229e+00
  1.056141e+01    3.029657e+00
  1.059316e+01    3.016742e+00
  1.062492e+01    3.018844e+00
  1.065667e+01    2.969978e+00
  1.068842e+01    2.977091e+00
  1.072017e+01    2.979694e+00
  1.075192e+01    2.964310e+00
  1.078367e+01    2.955564e+00
  1.081542e+01    2.975608e+00
  1.084717e+01    2.933156e+00
  1.087892e+01    3.006361e+00
  1.091068e+01    2.959451e+00
  1.094243e+01    2.937475e+00
  1.097418e+01    2.891481e+00
  1.100593e+01    2.970728e+00
  1.103768e+01    2.905601e+00
  1.106943e+01    2.878269e+00
  1.110118e+01    2.904534e+00
  1.113293e+01    2.930288e+00
  1.116468e+01    2.861021e+00
  1.119644e+01    2.862416e+00
  1.122819e+01    2.887069e+00
  1.125994e+01    2.893743e+00
  1.129169e+01    2.855538e+00
  1.132344e+01    2.840681e+00
  1.135519e+01    2.810706e+00
  1.138694e+01    2.890420e+00
  1.141869e+01    2.843681e+00
  1.145045e+01    2.808712e+00
  1.148220e+01    2.814583e+00
  1.151395e+01    2.811855e+00
  1.154570e+01    2.743024e+00
  1.157745e+01    2.819726e+00
  1.160920e+01    2.846890e+00
  1.164095e+01    2.807410e+00
  1.167270e+01    2.753123e+00
  1.170445e+01    2.759037e+00
  1.173621e+01    2.768775e+00
  1.176796e+01    2.780078e+00
  1.179971e+01    2.790989e+00
  1.183146e+01    2.702829e+00
  1.186321e+01    2.815673e+00
  1.189496e+01    2.739268e+00
  1.192671e+01    2.721056e+00
  1.195846e+01    2.735088e+00
  1.199021e+01    2.707544e+00
  1.202197e+01    2.700181e+00
  1.205372e+01    2.739880e+00
  1.208547e+01    2.744971e+00
  1.211722e+01    2.723560e+00
  1.214897e+01    2.688957e+00
  1.218072e+01    2.686297e+00
  1.221247e+01    2.735564e+00
  1.224422e+01    2.738492e+00
  1.227597e+01    2.731133e+00
  1.230773e+01    2.702825e+00
  1.233948e+01    2.668531e+00
  1.237123e+01    2.726829e+00
  1.240298e+01    2.666482e+00
  1.243473e+01    2.694881e+00
  1.246648e+01    2.742696e+00
  1.249823e+01    2.712815e+00
  1.252998e+01    2.767163e+00
  1.256174e+01    2.681525e+00
  1.259349e+01    2.763714e+00
  1.262524e+01    2.770000e+00
  1.265699e+01    2.809325e+00
  1.268874e+01    2.833538e+00
  1.272049e+01    2.848524e+00
  1.275224e+01    2.888330e+00
  1.278399e+01    2.993425e+00
  1.281574e+01    3.075722e+00
  1.284750e+01    3.211928e+00
  1.287925e+01    3.386831e+00
  1.291100e+01    3.686142e+00
  1.294275e+01    4.134503e+00
  1.297450e+01    4.859703e+00
  1.300625e+01    6.012889e+00
  1.303800e+01    7.750599e+00
  1.306975e+01    1.028759e+01
  1.310150e+01    1.283842e+01
  1.313326e+01    1.492417e+01
  1.316501e+01    1.646383e+01
  1.319676e+01    1.592013e+01
  1.322851e+01    1.248899e+01
  1.326026e+01    9.134533e+00
  1.329201e+01    6.732661e+00
  1.332376e+01    5.298980e+00
  1.335551e+01    4.457407e+00
  1.338727e+01    3.888372e+00
  1.341902e+01    3.509703e+00
  1.345077e+01    3.313347e+00
  1.348252e+01    3.108318e+00
  1.351427e+01    2.898417e+00
  1.354602e+01    2.852919e+00
  1.357777e+01    2.750811e+00
  1.360952e+01    2.672891e+00
  1.364127e+01    2.670139e+00
  1.367303e+01    2.575309e+00
  1.370478e+01    2.570832e+00
  1.373653e+01    2.496054e+00
  1.376828e+01    2.526962e+00
  1.380003e+01    2.464084e+00
  1.383178e+01    2.474980e+00
  1.386353e+01    2.436406e+00
  1.389528e+01    2.439894e+00
  1.392703e+01    2.394678e+00
  1.395879e+01    2.393808e+00
  1.399054e+01    2.379408e+00
  1.402229e+01    2.404184e+00
  1.405404e+01    2.347357e+00
  1.408579e+01    2.353101e+00
  1.411754e+01    2.332256e+00
  1.414929e+01    2.316408e+00
  1.418104e+01    2.297900e+00
  1.421279e+01    2.279512e+00
  1.424455e+01    2.297721e+00
  1.427630e+01    2.244015e+00
  1.430805e+01    2.303652e+00
  1.433980e+01    2.280823e+00
  1.437155e+01    2.259001e+00
  1.440330e+01    2.252172e+00
  1.443505e+01    2.260897e+00
  1.446680e+01    2.249794e+00
  1.449856e+01    2.235751e+00
  1.453031e+01    2.250202e+00
  1.456206e+01    2.208959e+00
  1.459381e+01    2.166185e+00
  1.462556e+01    2.195587e+00
  1.465731e+01    2.205777e+00
  1.468906e+01    2.227126e+00
  1.472081e+01    2.251501e+00
  1.475256e+01    2.197438e+00
  1.478432e+01    2.223326e+00
  1.481607e+01    2.207913e+00
  1.484782e+01    2.184563e+00
  1.487957e+01    2.246305e+00
  1.491132e+01    2.262802e+00
  1.494307e+01    2.286684e+00
  1.497482e+01    2.341067e+00
  1.500657e+01    2.463337e+00
  1.503832e+01    2.619623e+00
  1.507008e+01    2.870236e+00
  1.510183e+01    3.253194e+00
  1.513358e+01    3.886490e+00
  1.516533e+01    4.618445e+00
  1.519708e+01    5.307173e+00
  1.522883e+01    5.655455e+00
  1.526058e+01    5.789015e+00
  1.529233e+01    5.527922e+00
  1.532409e+01    4.749677e+00
  1.535584e+01    3.805063e+00
  1.538759e+01    3.189996e+00
  1.541934e+01    2.776946e+00
  1.545109e+01    2.536906e+00
  1.548284e+01    2.364123e+00
  1.551459e+01    2.260463e+00
  1.554634e+01    2.183150e+00
  1.557809e+01    2.177639e+00
  1.560985e+01    2.091319e+00
  1.564160e+01    2.017137e+00
  1.567335e+01    2.064459e+00
  1.570510e+01    2.018734e+00
  1.573685e+01    1.972770e+00
  1.576860e+01    2.003620e+00
  1.580035e+01    1.938226e+00
  1.583210e+01    1.953382e+00
  1.586385e+01    1.900942e+00
  1.589561e+01    1.934122e+00
  1.592736e+01    1.899814e+00
  1.595911e+01    1.903665e+00
  1.599086e+01    1.914155e+00
  1.602261e+01    1.874184e+00
  1.605436e+01    1.856283e+00
  1.608611e+01    1.826173e+00
  1.611786e+01    1.816207e+00
  1.614961e+01    1.844856e+00
  1.618137e+01    1.849113e+00
  1.621312e+01    1.836036e+00
  1.624487e+01    1.799601e+00
  1.627662e+01    1.805489e+00
  1.630837e+01    1.812613e+00
  1.634012e+01    1.768937e+00
  1.637187e+01    1.797828e+00
  1.640362e+01    1.807267e+00
  1.643538e+01    1.771364e+00
  1.646713e+01    1.774294e+00
  1.649888e+01    1.751824e+00
  1.653063e+01    1.728133e+00
  1.656238e+01    1.756388e+00
  1.659413e+01    1.756715e+00
  1.662588e+01    1.771136e+00
  1.665763e+01    1.739502e+00
  1.668938e+01    1.711993e+00
  1.672114e+01    1.730551e+00
  1.675289e+01    1.721724e+00
  1.678464e+01    1.711553e+00
  1.681639e+01    1.703885e+00
  1.684814e+01    1.703941e+00
  1.687989e+01    1.706560e+00
  1.691164e+01    1.685319e+00
  1.694339e+01    1.699525e+00
  1.697514e+01    1.707869e+00
  1.700690e+01    1.663523e+00
  1.703865e+01    1.650164e+00
  1.707040e+01    1.675267e+00
  1.710215e+01    1.680789e+00
  1.713390e+01    1.634921e+00
  1.716565e+01    1.645510e+00
  1.719740e+01    1.662487e+00
  1.722915e+01    1.634468e+00
  1.726091e+01    1.625567e+00
  1.729266e+01    1.646008e+00
  1.732441e+01    1.626137e+00
  1.735616e+01    1.629333e+00
  1.738791e+01    1.622474e+00
  1.741966e+01    1.614548e+00
  1.745141e+01    1.624271e+00
  1.748316e+01    1.592617e+00
  1.751491e+01    1.599747e+00
  1.754667e+01    1.580302e+00
  1.757842e+01    1.579476e+00
  1.761017e+01    1.594658e+00
  1.764192e+01    1.518043e+00
  1.767367e+01    1.553625e+00
  1.770542e+01    1.590447e+00
  1.773717e+01    1.560841e+00
  1.776892e+01    1.566520e+00
  1.780067e+01    1.542018e+00
  1.783243e+01    1.547689e+00
  1.786418e+01    1.545364e+00
  1.789593e+01    1.528450e+00
  1.792768e+01    1.535801e+00
  1.795943e+01    1.538116e+00
  1.799118e+01    1.528090e+00
  1.802293e+01    1.530653e+00
  1.805468e+01    1.516235e+00
  1.808643e+01    1.519769e+00
  1.811819e+01    1.528656e+00
  1.814994e+01    1.499228e+00
  1.818169e+01    1.491146e+00
  1.821344e+01    1.481505e+00
  1.824519e+01    1.484749e+00
  1.827694e+01    1.492724e+00
  1.830869e+01    1.478186e+00
  1.834044e+01    1.486579e+00
  1.837220e+01    1.468383e+00
  1.840395e+01    1.451263e+00
  1.843570e+01    1.455173e+00
  1.846745e+01    1.440147e+00
  1.849920e+01    1.461926e+00
  1.853095e+01    1.436842e+00
  1.856270e+01    1.473760e+00
  1.859445e+01    1.422874e+00
  1.862620e+01    1.458148e+00
  1.865796e+01    1.395024e+00
  1.868971e+01    1.437425e+00
  1.872146e+01    1.433383e+00
  1.875321e+01    1.418685e+00
  1.878496e+01    1.397643e+00
  1.881671e+01    1.412115e+00
  1.884846e+01    1.398712e+00
  1.888021e+01    1.398908e+00
  1.891196e+01    1.390096e+00
  1.894372e+01    1.412225e+00
  1.897547e+01    1.397348e+00
  1.900722e+01    1.380880e+00
  1.903897e+01    1.386961e+00
  1.907072e+01    1.367224e+00
  1.910247e+01    1.372410e+00
  1.913422e+01    1.389172e+00
  1.916597e+01    1.356206e+00
  1.919773e+01    1.351287e+00
  1.922948e+01    1.361199e+00
  1.926123e+01    1.366809e+00
  1.929298e+01    1.353461e+00
  1.932473e+01    1.369622e+00
  1.935648e+01    1.354322e+00
  1.938823e+01    1.365232e+00
  1.941998e+01    1.348665e+00
  1.945173e+01    1.342119e+00
  1.948349e+01    1.349225e+00
  1.951524e+01    1.320725e+00
  1.954699e+01    1.316535e+00
  1.957874e+01    1.322088e+00
  1.961049e+01    1.336367e+00
  1.964224e+01    1.310966e+00
  1.967399e+01    1.328912e+00
  1.970574e+01    1.305619e+00
  1.973749e+01    1.319438e+00
  1.976925e+01    1.308389e+00
  1.980100e+01    1.282989e+00
  1.983275e+01    1.293976e+00
  1.986450e+01    1.302201e+00
  1.989625e+01    1.282638e+00
  1.992800e+01    1.283043e+00
  1.995975e+01    1.308132e+00
  1.999150e+01    1.295394e+00
  2.002325e+01    1.291710e+00
  2.005501e+01    1.300500e+00
  2.008676e+01    1.294122e+00
  2.011851e+01    1.312688e+00
  2.015026e+01    1.279996e+00
  2.018201e+01    1.264305e+00
  2.021376e+01    1.270115e+00
  2.024551e+01    1.242674e+00
  2.027726e+01    1.275753e+00
  2.030902e+01    1.234267e+00
  2.034077e+01    1.241997e+00
  2.037252e+01    1.270542e+00
  2.040427e+01    1.259068e+00
  2.043602e+01    1.260145e+00
  2.046777e+01    1.259738e+00
  2.049952e+01    1.240094e+00
  2.053127e+01    1.238332e+00
  2.056302e+01    1.245905e+00
  2.059478e+01    1.234926e+00
  2.062653e+01    1.244997e+00
  2.065828e+01    1.225767e+00
  2.069003e+01    1.239235e+00
  2.072178e+01    1.230998e+00
  2.075353e+01    1.264275e+00
  2.078528e+01    1.216600e+00
  2.081703e+01    1.207425e+00
  2.084878e+01    1.234950e+00
  2.088054e+01    1.249160e+00
  2.091229e+01    1.260961e+00
  2.094404e+01    1.236264e+00
  2.097579e+01    1.225192e+00
  2.100754e+01    1.246514e+00
  2.103929e+01    1.245041e+00
  2.107104e+01    1.231437e+00
  2.110279e+01    1.232625e+00
  2.113455e+01    1.242251e+00
  2.116630e+01    1.242541e+00
  2.119805e+01    1.252022e+00
  2.122980e+01    1.251188e+00
  2.126155e+01    1.249386e+00
  2.129330e+01    1.250526e+00
  2.132505e+01    1.265785e+00
  2.135680e+01    1.270812e+00
  2.138855e+01    1.276463e+00
  2.142031e+01    1.350067e+00
  2.145206e+01    1.366825e+00
  2.148381e+01    1.416898e+00
  2.151556e+01    1.464279e+00
  2.154731e+01    1.516655e+00
  2.157906e+01    1.628426e+00
  2.161081e+01    1.793245e+00
  2.164256e+01    1.929527e+00
  2.167431e+01    2.321909e+00
  2.170607e+01    2.788584e+00
  2.173782e+01    3.550002e+00
  2.176957e+01    4.632957e+00
  2.180132e+01    6.000603e+00
  2.183307e+01    7.251905e+00
  2.186482e+01    8.528341e+00
  2.189657e+01    8.953091e+00
  2.192832e+01    8.374004e+00
  2.196007e+01    6.594812e+00
  2.199183e+01    4.825122e+00
  2.202358e+01    3.613514e+00
  2.205533e+01    2.803677e+00
  2.208708e+01    2.386922e+00
  2.211883e+01    2.014371e+00
  2.215058e+01    1.786573e+00
  2.218233e+01    1.633690e+00
  2.221408e+01    1.500559e+00
  2.224584e+01    1.414002e+00
  2.227759e+01    1.345097e+00
  2.230934e+01    1.322162e+00
  2.234109e+01    1.274655e+00
  2.237284e+01    1.247733e+00
  2.240459e+01    1.195472e+00
  2.243634e+01    1.193361e+00
  2.246809e+01    1.191603e+00
  2.249984e+01    1.157812e+00
  2.253160e+01    1.123456e+00
  2.256335e+01    1.145770e+00
  2.259510e+01    1.127534e+00
  2.262685e+01    1.100935e+00
  2.265860e+01    1.100023e+00
  2.269035e+01    1.092477e+00
  2.272210e+01    1.080126e+00
  2.275385e+01    1.070951e+00
  2.278560e+01    1.071743e+00
  2.281736e+01    1.044327e+00
  2.284911e+01    1.057140e+00
  2.288086e+01    1.051118e+00
  2.291261e+01    1.057671e+00
  2.294436e+01    1.036175e+00
  2.297611e+01    1.029060e+00
  2.300786e+01    1.029496e+00
  2.303961e+01    1.022078e+00
  2.307137e+01    1.023770e+00
  2.310312e+01    1.006901e+00
  2.313487e+01    1.008955e+00
  2.316662e+01    9.931984e-01
  2.319837e+01    9.841082e-01
  2.323012e+01    1.011546e+00
  2.326187e+01    9.916708e-01
  2.329362e+01    1.032984e+00
  2.332537e+01    9.564189e-01
  2.335713e+01    9.753575e-01
  2.338888e+01    9.816133e-01
  2.342063e+01    9.682680e-01
  2.345238e+01    9.831409e-01
  2.348413e+01    9.738758e-01
  2.351588e+01    9.704967e-01
  2.354763e+01    9.700012e-01
  2.357938e+01    9.850509e-01
  2.361113e+01    9.815220e-01
  2.364289e+01    9.467108e-01
  2.367464e+01    9.502394e-01
  2.370639e+01    9.213672e-01
  2.373814e+01    9.464345e-01
  2.376989e+01    9.309537e-01
  2.380164e+01    9.406214e-01
  2.383339e+01    9.287227e-01
  2.386514e+01    9.141199e-01
  2.389689e+01    9.086848e-01
  2.392865e+01    8.898710e-01
  2.396040e+01    8.984221e-01
  2.399215e+01    9.083435e-01
  2.402390e+01    8.923655e-01
  2.405565e+01    8.879856e-01
  2.408740e+01    9.020581e-01
  2.411915e+01    8.968910e-01
  2.415090e+01    8.653565e-01
  2.418266e+01    9.075612e-01
  2.421441e+01    8.845708e-01
  2.424616e+01    8.912264e-01
  2.427791e+01    8.906376e-01
  2.430966e+01    9.187605e-01
  2.434141e+01    8.863464e-01
  2.437316e+01    9.020810e-01
  2.440491e+01    8.865651e-01
  2.443666e+01    8.929718e-01
  2.446842e+01    9.173226e-01
  2.450017e+01    8.958476e-01
  2.453192e+01    9.045632e-01
  2.456367e+01    8.925771e-01
  2.459542e+01    9.011507e-01
  2.462717e+01    9.113634e-01
  2.465892e+01    9.179896e-01
  2.469067e+01    8.756058e-01
  2.472242e+01    8.945122e-01
  2.475418e+01    9.031111e-01
  2.478593e+01    8.648527e-01
  2.481768e+01    9.097317e-01
  2.484943e+01    8.974682e-01
  2.488118e+01    9.170215e-01
  2.491293e+01    8.809947e-01
  2.494468e+01    8.953917e-01
  2.497643e+01    9.081592e-01
  2.500819e+01    8.920561e-01
  2.503994e+01    8.987708e-01
  2.507169e+01    9.105020e-01
  2.510344e+01    9.094199e-01
  2.513519e+01    8.978044e-01
  2.516694e+01    9.150887e-01
  2.519869e+01    9.292048e-01
  2.523044e+01    9.568782e-01
  2.526219e+01    9.385830e-01
  2.529395e+01    9.727703e-01
  2.532570e+01    9.825332e-01
  2.535745e+01    9.789928e-01
  2.538920e+01    9.951856e-01
  2.542095e+01    9.963996e-01
  2.545270e+01    1.038564e+00
  2.548445e+01    1.056366e+00
  2.551620e+01    1.087858e+00
  2.554795e+01    1.088990e+00
  2.557971e+01    1.146435e+00
  2.561146e+01    1.201019e+00
  2.564321e+01    1.294379e+00
  2.567496e+01    1.455510e+00
  2.570671e+01    1.610671e+00
  2.573846e+01    1.885680e+00
  2.577021e+01    2.217307e+00
  2.580196e+01    2.857636e+00
  2.583371e+01    3.722382e+00
  2.586547e+01    4.790573e+00
  2.589722e+01    5.908066e+00
  2.592897e+01    6.817029e+00
  2.596072e+01    7.204745e+00
  2.599247e+01    6.591092e+00
  2.602422e+01    5.303858e+00
  2.605597e+01    3.978316e+00
  2.608772e+01    3.003205e+00
  2.611948e+01    2.379858e+00
  2.615123e+01    1.964451e+00
  2.618298e+01    1.684678e+00
  2.621473e+01    1.495271e+00
  2.624648e+01    1.332238e+00
  2.627823e+01    1.291430e+00
  2.630998e+01    1.189221e+00
  2.634173e+01    1.152895e+00
  2.637348e+01    1.110568e+00
  2.640524e+01    1.085721e+00
  2.643699e+01    1.058442e+00
  2.646874e+01    1.021744e+00
  2.650049e+01    1.023328e+00
  2.653224e+01    1.026407e+00
  2.656399e+01    9.845040e-01
  2.659574e+01    9.985288e-01
  2.662749e+01    9.643187e-01
  2.665924e+01    9.726881e-01
  2.669100e+01    9.764946e-01
  2.672275e+01    9.652407e-01
  2.675450e+01    9.678898e-01
  2.678625e+01    1.001651e+00
  2.681800e+01    9.861169e-01
  2.684975e+01    9.786580e-01
  2.688150e+01    1.043349e+00
  2.691325e+01    1.031643e+00
  2.694501e+01    1.018741e+00
  2.697676e+01    1.070709e+00
  2.700851e+01    1.087292e+00
  2.704026e+01    1.182643e+00
  2.707201e+01    1.310232e+00
  2.710376e+01    1.538556e+00
  2.713551e+01    1.737988e+00
  2.716726e+01    2.020442e+00
  2.719901e+01    2.151004e+00
  2.723077e+01    2.173869e+00
  2.726252e+01    1.982342e+00
  2.729427e+01    1.670519e+00
  2.732602e+01    1.473059e+00
  2.735777e+01    1.282148e+00
  2.738952e+01    1.169672e+00
  2.742127e+01    1.113353e+00
  2.745302e+01    1.034853e+00
  2.748477e+01    1.009150e+00
  2.751653e+01    9.621379e-01
  2.754828e+01    9.829960e-01
  2.758003e+01    9.516373e-01
  2.761178e+01    9.330654e-01
  2.764353e+01    9.109070e-01
  2.767528e+01    8.934568e-01
  2.770703e+01    9.194009e-01
  2.773878e+01    9.061384e-01
  2.777054e+01    8.914893e-01
  2.780229e+01    8.890135e-01
  2.783404e+01    8.854438e-01
  2.786579e+01    8.706782e-01
  2.789754e+01    8.786822e-01
  2.792929e+01    8.779086e-01
  2.796104e+01    8.908576e-01
  2.799279e+01    8.740838e-01
  2.802454e+01    8.931028e-01
  2.805630e+01    8.618611e-01
  2.808805e+01    8.739654e-01
  2.811980e+01    8.674240e-01
  2.815155e+01    8.605631e-01
  2.818330e+01    8.689524e-01
  2.821505e+01    8.552248e-01
  2.824680e+01    8.573583e-01
  2.827855e+01    8.701230e-01
  2.831030e+01    8.516063e-01
  2.834206e+01    8.569714e-01
  2.837381e+01    8.644394e-01
  2.840556e+01    8.579975e-01
  2.843731e+01    8.599744e-01
  2.846906e+01    8.358678e-01
  2.850081e+01    8.661979e-01
  2.853256e+01    8.378859e-01
  2.856431e+01    8.207312e-01
  2.859606e+01    8.417373e-01
  2.862782e+01    8.339249e-01
  2.865957e+01    8.520004e-01
  2.869132e+01    8.428734e-01
  2.872307e+01    8.210599e-01
  2.875482e+01    8.414967e-01
  2.878657e+01    8.274232e-01
  2.881832e+01    8.308736e-01
  2.885007e+01    8.368098e-01
  2.888183e+01    8.360959e-01
  2.891358e+01    8.196261e-01
  2.894533e+01    8.271698e-01
  2.897708e+01    8.460851e-01
  2.900883e+01    8.127081e-01
  2.904058e+01    8.109064e-01
  2.907233e+01    8.358402e-01
  2.910408e+01    8.215337e-01
  2.913583e+01    8.349420e-01
  2.916759e+01    8.133619e-01
  2.919934e+01    8.118818e-01
  2.923109e+01    8.252447e-01
  2.926284e+01    8.002300e-01
  2.929459e+01    8.183412e-01
  2.932634e+01    8.322160e-01
  2.935809e+01    8.035099e-01
  2.938984e+01    8.046459e-01
  2.942159e+01    8.349147e-01
  2.945335e+01    8.142858e-01
  2.948510e+01    8.173458e-01
  2.951685e+01    8.037785e-01
  2.954860e+01    7.821435e-01
  2.958035e+01    8.055429e-01
  2.961210e+01    8.092166e-01
  2.964385e+01    8.198758e-01
  2.967560e+01    7.859417e-01
  2.970736e+01    8.059465e-01
  2.973911e+01    7.932401e-01
  2.977086e+01    7.968593e-01
  2.980261e+01    8.008726e-01
  2.983436e+01    7.869226e-01
  2.986611e+01    7.855388e-01
  2.989786e+01    7.976022e-01
  2.992961e+01    8.038179e-01
  2.996136e+01    7.970524e-01
  2.999312e+01    7.976834e-01
  3.002487e+01    8.027631e-01
  3.005662e+01    8.115361e-01
  3.008837e+01    8.153993e-01
  3.012012e+01    7.813739e-01
  3.015187e+01    8.052320e-01
  3.018362e+01    7.966509e-01
  3.021537e+01    7.875597e-01
  3.024712e+01    7.846620e-01
  3.027888e+01    7.940282e-01
  3.031063e+01    7.819426e-01
  3.034238e+01    7.936721e-01
  3.037413e+01    7.533768e-01
  3.040588e+01    8.060668e-01
  3.043763e+01    8.005956e-01
  3.046938e+01    8.086941e-01
  3.050113e+01    7.961691e-01
  3.053288e+01    8.007251e-01
  3.056464e+01    7.951743e-01
  3.059639e+01    7.689168e-01
  3.062814e+01    7.740635e-01
  3.065989e+01    7.887003e-01
  3.069164e+01    8.010026e-01
  3.072339e+01    8.027911e-01
  3.075514e+01    8.018063e-01
  3.078689e+01    7.832501e-01
  3.081865e+01    8.072230e-01
  3.085040e+01    7.793992e-01
  3.088215e+01    8.164909e-01
  3.091390e+01    7.688639e-01
  3.094565e+01    7.881376e-01
  3.097740e+01    7.942381e-01
  3.100915e+01    7.744553e-01
  3.104090e+01    8.122337e-01
  3.107265e+01    7.772064e-01
  3.110441e+01    7.838669e-01
  3.113616e+01    8.037560e-01
  3.116791e+01    7.971936e-01
  3.119966e+01    8.132842e-01
  3.123141e+01    7.903758e-01
  3.126316e+01    7.747947e-01
  3.129491e+01    8.003589e-01
  3.132666e+01    8.274577e-01
  3.135841e+01    8.147205e-01
  3.139017e+01    8.291398e-01
  3.142192e+01    8.031120e-01
  3.145367e+01    8.237695e-01
  3.148542e+01    8.166687e-01
  3.151717e+01    8.605999e-01
  3.154892e+01    8.405291e-01
  3.158067e+01    8.556289e-01
  3.161242e+01    8.873466e-01
  3.164418e+01    9.220970e-01
  3.167593e+01    9.825261e-01
  3.170768e+01    1.037817e+00
  3.173943e+01    1.156259e+00
  3.177118e+01    1.292336e+00
  3.180293e+01    1.484815e+00
  3.183468e+01    1.749660e+00
  3.186643e+01    1.971710e+00
  3.189818e+01    2.141731e+00
  3.192994e+01    2.057030e+00
  3.196169e+01    1.808846e+00
  3.199344e+01    1.543473e+00
  3.202519e+01    1.323443e+00
  3.205694e+01    1.181430e+00
  3.208869e+01    1.063496e+00
  3.212044e+01    1.021355e+00
  3.215219e+01    9.017558e-01
  3.218394e+01    8.861337e-01
  3.221570e+01    8.524196e-01
  3.224745e+01    8.537554e-01
  3.227920e+01    8.351192e-01
  3.231095e+01    8.203447e-01
  3.234270e+01    7.965047e-01
  3.237445e+01    7.697562e-01
  3.240620e+01    7.998031e-01
  3.243795e+01    8.115951e-01
  3.246970e+01    7.732068e-01
  3.250146e+01    7.808455e-01
  3.253321e+01    7.762932e-01
  3.254908e+01    7.741745e-01