File: XRD/Reaction conditions/2024-07-27_003_Ru-CGO-ex_Reaction_dwell_000023_data_000176.dat
# == pyFAI calibration ==
# Distance Sample to Detector: 0.4 m
# PONI: 9.750e-02, 1.135e-01 m
# Rotations: -0.000175 0.000000 -0.000000 rad
#
# == Fit2d calibration ==
# Distance Sample-beamCenter: 400.000 mm
# Center: x=1514.000, y=1300.000 pix
# Tilt: 0.010 deg  TiltPlanRot: 0.010 deg
#
# Detector Detector	 Spline= None	 PixelSize= 7.500e-05, 7.500e-05 m
#    Detector has a mask: False
#    Detector has a dark current: False
#    detector has a flat field: False
#
# Wavelength: 6.888e-11 m
# Mask applied: user provided
# Dark current applied: False
# Flat field applied: False
# Polarization factor: 0.99
# Normalization factor: 1.0
# --> /home/myspot/data/2024_07_Rosario/Ru-CGO-ex/2024-07-27_003_Ru-CGO-ex_Reaction_dwell_000023_data_000176.dat
#       q_nm^-1             I
  2.003187e-02    7.712225e-02
  5.178302e-02    7.652842e-02
  8.353417e-02    2.603012e-01
  1.152853e-01    4.595123e-03
  1.470365e-01    6.693152e-02
  1.787876e-01    5.101997e-02
  2.105388e-01    1.789154e-02
  2.422899e-01    3.632917e-02
  2.740411e-01    3.968165e-02
  3.057922e-01    6.045958e-02
  3.375433e-01    2.117656e-02
  3.692945e-01    4.821609e-02
  4.010456e-01    7.151081e-02
  4.327968e-01    2.320588e-02
  4.645479e-01    2.748511e-02
  4.962991e-01    2.855488e-02
  5.280502e-01    2.425172e-02
  5.598014e-01    6.355804e-02
  5.915525e-01    5.562351e-02
  6.233037e-01    2.586980e-02
  6.550548e-01    4.246572e-02
  6.868060e-01    4.573447e-02
  7.185571e-01    5.343945e-02
  7.503083e-01    3.505016e-02
  7.820594e-01    1.028109e-01
  8.138106e-01    2.226209e-01
  8.455617e-01    3.471048e-01
  8.773129e-01    5.107767e-01
  9.090640e-01    7.712961e-01
  9.408152e-01    7.924612e-01
  9.725663e-01    1.045408e+00
  1.004317e+00    1.191568e+00
  1.036069e+00    1.363073e+00
  1.067820e+00    1.449872e+00
  1.099571e+00    1.578155e+00
  1.131322e+00    1.549085e+00
  1.163073e+00    1.790597e+00
  1.194824e+00    1.846652e+00
  1.226575e+00    2.271941e+00
  1.258327e+00    2.466847e+00
  1.290078e+00    2.523611e+00
  1.321829e+00    2.780793e+00
  1.353580e+00    2.743116e+00
  1.385331e+00    2.748307e+00
  1.417082e+00    2.818774e+00
  1.448834e+00    2.963256e+00
  1.480585e+00    3.075638e+00
  1.512336e+00    3.044534e+00
  1.544087e+00    3.205260e+00
  1.575838e+00    3.308944e+00
  1.607589e+00    3.080585e+00
  1.639340e+00    3.229240e+00
  1.671092e+00    3.025036e+00
  1.702843e+00    2.990876e+00
  1.734594e+00    3.011325e+00
  1.766345e+00    3.146643e+00
  1.798096e+00    2.977035e+00
  1.829847e+00    3.085381e+00
  1.861598e+00    2.919164e+00
  1.893350e+00    3.030228e+00
  1.925101e+00    3.054698e+00
  1.956852e+00    2.991528e+00
  1.988603e+00    2.879610e+00
  2.020354e+00    2.961831e+00
  2.052105e+00    3.086169e+00
  2.083856e+00    3.041723e+00
  2.115608e+00    3.061750e+00
  2.147359e+00    2.936360e+00
  2.179110e+00    2.962775e+00
  2.210861e+00    3.102185e+00
  2.242612e+00    3.024931e+00
  2.274363e+00    3.095951e+00
  2.306115e+00    3.094079e+00
  2.337866e+00    3.125894e+00
  2.369617e+00    3.184609e+00
  2.401368e+00    3.088545e+00
  2.433119e+00    3.232767e+00
  2.464870e+00    3.013016e+00
  2.496621e+00    3.177807e+00
  2.528373e+00    3.135535e+00
  2.560124e+00    3.117385e+00
  2.591875e+00    3.151515e+00
  2.623626e+00    3.080913e+00
  2.655377e+00    3.190600e+00
  2.687128e+00    3.131001e+00
  2.718879e+00    3.208213e+00
  2.750631e+00    3.270359e+00
  2.782382e+00    3.310530e+00
  2.814133e+00    3.207401e+00
  2.845884e+00    3.269803e+00
  2.877635e+00    3.278507e+00
  2.909386e+00    3.247118e+00
  2.941137e+00    3.180487e+00
  2.972889e+00    3.335561e+00
  3.004640e+00    3.297426e+00
  3.036391e+00    3.170811e+00
  3.068142e+00    3.332845e+00
  3.099893e+00    3.404857e+00
  3.131644e+00    3.367843e+00
  3.163395e+00    3.269416e+00
  3.195147e+00    3.294125e+00
  3.226898e+00    3.369431e+00
  3.258649e+00    3.391257e+00
  3.290400e+00    3.391836e+00
  3.322151e+00    3.485988e+00
  3.353902e+00    3.361842e+00
  3.385654e+00    3.386472e+00
  3.417405e+00    3.524455e+00
  3.449156e+00    3.487102e+00
  3.480907e+00    3.359276e+00
  3.512658e+00    3.392273e+00
  3.544409e+00    3.399102e+00
  3.576160e+00    3.479669e+00
  3.607912e+00    3.483702e+00
  3.639663e+00    3.360113e+00
  3.671414e+00    3.319742e+00
  3.703165e+00    3.411649e+00
  3.734916e+00    3.482635e+00
  3.766667e+00    3.374322e+00
  3.798418e+00    3.519382e+00
  3.830170e+00    3.517361e+00
  3.861921e+00    3.433131e+00
  3.893672e+00    3.478389e+00
  3.925423e+00    3.497298e+00
  3.957174e+00    3.431749e+00
  3.988925e+00    3.476976e+00
  4.020676e+00    3.473491e+00
  4.052428e+00    3.463673e+00
  4.084179e+00    3.520460e+00
  4.115930e+00    3.563007e+00
  4.147681e+00    3.446750e+00
  4.179432e+00    3.543365e+00
  4.211183e+00    3.483500e+00
  4.242935e+00    3.532722e+00
  4.274686e+00    3.525423e+00
  4.306437e+00    3.540332e+00
  4.338188e+00    3.569162e+00
  4.369939e+00    3.516555e+00
  4.401690e+00    3.548312e+00
  4.433441e+00    3.562937e+00
  4.465193e+00    3.488732e+00
  4.496944e+00    3.512580e+00
  4.528695e+00    3.508573e+00
  4.560446e+00    3.584050e+00
  4.592197e+00    3.519269e+00
  4.623948e+00    3.583392e+00
  4.655699e+00    3.599300e+00
  4.687451e+00    3.565658e+00
  4.719202e+00    3.611167e+00
  4.750953e+00    3.475494e+00
  4.782704e+00    3.539581e+00
  4.814455e+00    3.589506e+00
  4.846206e+00    3.538854e+00
  4.877957e+00    3.538672e+00
  4.909709e+00    3.531612e+00
  4.941460e+00    3.515325e+00
  4.973211e+00    3.662200e+00
  5.004962e+00    3.597673e+00
  5.036713e+00    3.638333e+00
  5.068464e+00    3.634235e+00
  5.100216e+00    3.706090e+00
  5.131967e+00    3.610218e+00
  5.163718e+00    3.645241e+00
  5.195469e+00    3.608911e+00
  5.227220e+00    3.582543e+00
  5.258971e+00    3.487714e+00
  5.290722e+00    3.550156e+00
  5.322474e+00    3.662788e+00
  5.354225e+00    3.650736e+00
  5.385976e+00    3.633780e+00
  5.417727e+00    3.508058e+00
  5.449478e+00    3.538337e+00
  5.481229e+00    3.507097e+00
  5.512980e+00    3.642061e+00
  5.544732e+00    3.576449e+00
  5.576483e+00    3.530955e+00
  5.608234e+00    3.597643e+00
  5.639985e+00    3.600794e+00
  5.671736e+00    3.497649e+00
  5.703487e+00    3.556226e+00
  5.735238e+00    3.603035e+00
  5.766990e+00    3.494573e+00
  5.798741e+00    3.505625e+00
  5.830492e+00    3.483724e+00
  5.862243e+00    3.572556e+00
  5.893994e+00    3.465761e+00
  5.925745e+00    3.511865e+00
  5.957497e+00    3.466259e+00
  5.989248e+00    3.509260e+00
  6.020999e+00    3.489949e+00
  6.052750e+00    3.503993e+00
  6.084501e+00    3.572061e+00
  6.116252e+00    3.544749e+00
  6.148003e+00    3.584663e+00
  6.179755e+00    3.516258e+00
  6.211506e+00    3.534144e+00
  6.243257e+00    3.515591e+00
  6.275008e+00    3.547390e+00
  6.306759e+00    3.456044e+00
  6.338510e+00    3.489125e+00
  6.370261e+00    3.549008e+00
  6.402013e+00    3.582673e+00
  6.433764e+00    3.521412e+00
  6.465515e+00    3.516360e+00
  6.497266e+00    3.499038e+00
  6.529017e+00    3.570303e+00
  6.560768e+00    3.463319e+00
  6.592519e+00    3.563841e+00
  6.624271e+00    3.553732e+00
  6.656022e+00    3.501682e+00
  6.687773e+00    3.470277e+00
  6.719524e+00    3.512844e+00
  6.751275e+00    3.555185e+00
  6.783026e+00    3.488795e+00
  6.814777e+00    3.439087e+00
  6.846529e+00    3.489589e+00
  6.878280e+00    3.451905e+00
  6.910031e+00    3.450813e+00
  6.941782e+00    3.429171e+00
  6.973533e+00    3.447880e+00
  7.005284e+00    3.487472e+00
  7.037036e+00    3.444538e+00
  7.068787e+00    3.496329e+00
  7.100538e+00    3.440070e+00
  7.132289e+00    3.456149e+00
  7.164040e+00    3.458515e+00
  7.195791e+00    3.494443e+00
  7.227542e+00    3.439791e+00
  7.259294e+00    3.449436e+00
  7.291045e+00    3.462044e+00
  7.322796e+00    3.466480e+00
  7.354547e+00    3.453087e+00
  7.386298e+00    3.423092e+00
  7.418049e+00    3.502964e+00
  7.449800e+00    3.493217e+00
  7.481552e+00    3.501218e+00
  7.513303e+00    3.393230e+00
  7.545054e+00    3.485667e+00
  7.576805e+00    3.368093e+00
  7.608556e+00    3.402410e+00
  7.640307e+00    3.379134e+00
  7.672058e+00    3.364104e+00
  7.703810e+00    3.330892e+00
  7.735561e+00    3.432460e+00
  7.767312e+00    3.343605e+00
  7.799063e+00    3.379898e+00
  7.830814e+00    3.397758e+00
  7.862565e+00    3.357000e+00
  7.894317e+00    3.378009e+00
  7.926068e+00    3.353907e+00
  7.957819e+00    3.356938e+00
  7.989570e+00    3.340834e+00
  8.021321e+00    3.401799e+00
  8.053072e+00    3.344310e+00
  8.084823e+00    3.432357e+00
  8.116575e+00    3.461198e+00
  8.148326e+00    3.399643e+00
  8.180077e+00    3.463032e+00
  8.211828e+00    3.392670e+00
  8.243579e+00    3.446501e+00
  8.275330e+00    3.324750e+00
  8.307081e+00    3.403291e+00
  8.338833e+00    3.414468e+00
  8.370584e+00    3.338303e+00
  8.402335e+00    3.340124e+00
  8.434086e+00    3.388177e+00
  8.465837e+00    3.394079e+00
  8.497588e+00    3.242183e+00
  8.529339e+00    3.324106e+00
  8.561091e+00    3.326999e+00
  8.592842e+00    3.336514e+00
  8.624593e+00    3.330876e+00
  8.656344e+00    3.365953e+00
  8.688095e+00    3.289904e+00
  8.719846e+00    3.319071e+00
  8.751598e+00    3.289784e+00
  8.783349e+00    3.293610e+00
  8.815100e+00    3.279124e+00
  8.846851e+00    3.255682e+00
  8.878602e+00    3.269587e+00
  8.910353e+00    3.248788e+00
  8.942104e+00    3.323185e+00
  8.973856e+00    3.249836e+00
  9.005607e+00    3.258303e+00
  9.037358e+00    3.288651e+00
  9.069109e+00    3.236603e+00
  9.100860e+00    3.204834e+00
  9.132611e+00    3.245697e+00
  9.164362e+00    3.213341e+00
  9.196114e+00    3.232464e+00
  9.227865e+00    3.245235e+00
  9.259616e+00    3.257614e+00
  9.291367e+00    3.225367e+00
  9.323118e+00    3.283506e+00
  9.354869e+00    3.216159e+00
  9.386620e+00    3.227597e+00
  9.418372e+00    3.198727e+00
  9.450123e+00    3.118588e+00
  9.481874e+00    3.108148e+00
  9.513625e+00    3.175056e+00
  9.545376e+00    3.212872e+00
  9.577127e+00    3.152437e+00
  9.608878e+00    3.180742e+00
  9.640630e+00    3.232229e+00
  9.672381e+00    3.161416e+00
  9.704132e+00    3.145196e+00
  9.735883e+00    3.122625e+00
  9.767634e+00    3.144572e+00
  9.799385e+00    3.145364e+00
  9.831137e+00    3.164607e+00
  9.862888e+00    3.161212e+00
  9.894639e+00    3.067167e+00
  9.926390e+00    3.123804e+00
  9.958141e+00    3.119714e+00
  9.989892e+00    3.116073e+00
  1.002164e+01    3.095040e+00
  1.005339e+01    3.082743e+00
  1.008515e+01    3.102519e+00
  1.011690e+01    3.043778e+00
  1.014865e+01    3.084928e+00
  1.018040e+01    3.042531e+00
  1.021215e+01    3.041636e+00
  1.024390e+01    2.952660e+00
  1.027565e+01    3.019083e+00
  1.030740e+01    2.981873e+00
  1.033915e+01    2.936154e+00
  1.037091e+01    2.975147e+00
  1.040266e+01    2.967530e+00
  1.043441e+01    2.994413e+00
  1.046616e+01    3.041345e+00
  1.049791e+01    3.012653e+00
  1.052966e+01    2.965180e+00
  1.056141e+01    2.962354e+00
  1.059316e+01    2.923377e+00
  1.062492e+01    2.924230e+00
  1.065667e+01    2.981549e+00
  1.068842e+01    2.953549e+00
  1.072017e+01    2.895748e+00
  1.075192e+01    2.949894e+00
  1.078367e+01    2.947420e+00
  1.081542e+01    2.887282e+00
  1.084717e+01    2.853658e+00
  1.087892e+01    2.889590e+00
  1.091068e+01    2.892913e+00
  1.094243e+01    2.989348e+00
  1.097418e+01    2.876116e+00
  1.100593e+01    2.900940e+00
  1.103768e+01    2.881946e+00
  1.106943e+01    2.822184e+00
  1.110118e+01    2.792141e+00
  1.113293e+01    2.822969e+00
  1.116468e+01    2.781162e+00
  1.119644e+01    2.859398e+00
  1.122819e+01    2.787189e+00
  1.125994e+01    2.774410e+00
  1.129169e+01    2.790562e+00
  1.132344e+01    2.789995e+00
  1.135519e+01    2.793883e+00
  1.138694e+01    2.762275e+00
  1.141869e+01    2.747104e+00
  1.145045e+01    2.816073e+00
  1.148220e+01    2.760692e+00
  1.151395e+01    2.728003e+00
  1.154570e+01    2.675809e+00
  1.157745e+01    2.780404e+00
  1.160920e+01    2.779424e+00
  1.164095e+01    2.763759e+00
  1.167270e+01    2.731282e+00
  1.170445e+01    2.749412e+00
  1.173621e+01    2.712654e+00
  1.176796e+01    2.708884e+00
  1.179971e+01    2.681196e+00
  1.183146e+01    2.686709e+00
  1.186321e+01    2.692214e+00
  1.189496e+01    2.706236e+00
  1.192671e+01    2.711786e+00
  1.195846e+01    2.708582e+00
  1.199021e+01    2.662298e+00
  1.202197e+01    2.653583e+00
  1.205372e+01    2.665628e+00
  1.208547e+01    2.670042e+00
  1.211722e+01    2.668923e+00
  1.214897e+01    2.681251e+00
  1.218072e+01    2.625828e+00
  1.221247e+01    2.704507e+00
  1.224422e+01    2.679347e+00
  1.227597e+01    2.666450e+00
  1.230773e+01    2.664303e+00
  1.233948e+01    2.695503e+00
  1.237123e+01    2.607093e+00
  1.240298e+01    2.692108e+00
  1.243473e+01    2.705389e+00
  1.246648e+01    2.660315e+00
  1.249823e+01    2.668576e+00
  1.252998e+01    2.680798e+00
  1.256174e+01    2.703983e+00
  1.259349e+01    2.723432e+00
  1.262524e+01    2.766351e+00
  1.265699e+01    2.764482e+00
  1.268874e+01    2.765494e+00
  1.272049e+01    2.792027e+00
  1.275224e+01    2.850935e+00
  1.278399e+01    2.941742e+00
  1.281574e+01    3.030822e+00
  1.284750e+01    3.167430e+00
  1.287925e+01    3.318627e+00
  1.291100e+01    3.666519e+00
  1.294275e+01    4.118936e+00
  1.297450e+01    4.804160e+00
  1.300625e+01    5.898247e+00
  1.303800e+01    7.724921e+00
  1.306975e+01    1.016808e+01
  1.310150e+01    1.271390e+01
  1.313326e+01    1.473727e+01
  1.316501e+01    1.618934e+01
  1.319676e+01    1.549469e+01
  1.322851e+01    1.232793e+01
  1.326026e+01    8.894779e+00
  1.329201e+01    6.709733e+00
  1.332376e+01    5.240499e+00
  1.335551e+01    4.385854e+00
  1.338727e+01    3.861727e+00
  1.341902e+01    3.436724e+00
  1.345077e+01    3.180881e+00
  1.348252e+01    3.045053e+00
  1.351427e+01    2.852118e+00
  1.354602e+01    2.771041e+00
  1.357777e+01    2.702812e+00
  1.360952e+01    2.638937e+00
  1.364127e+01    2.567045e+00
  1.367303e+01    2.518790e+00
  1.370478e+01    2.510647e+00
  1.373653e+01    2.483802e+00
  1.376828e+01    2.471067e+00
  1.380003e+01    2.408608e+00
  1.383178e+01    2.432373e+00
  1.386353e+01    2.435557e+00
  1.389528e+01    2.402485e+00
  1.392703e+01    2.369370e+00
  1.395879e+01    2.345505e+00
  1.399054e+01    2.342078e+00
  1.402229e+01    2.364484e+00
  1.405404e+01    2.336482e+00
  1.408579e+01    2.308864e+00
  1.411754e+01    2.300768e+00
  1.414929e+01    2.278605e+00
  1.418104e+01    2.272471e+00
  1.421279e+01    2.272008e+00
  1.424455e+01    2.266250e+00
  1.427630e+01    2.221700e+00
  1.430805e+01    2.234505e+00
  1.433980e+01    2.227699e+00
  1.437155e+01    2.227761e+00
  1.440330e+01    2.186373e+00
  1.443505e+01    2.228703e+00
  1.446680e+01    2.204658e+00
  1.449856e+01    2.260936e+00
  1.453031e+01    2.198037e+00
  1.456206e+01    2.180801e+00
  1.459381e+01    2.188998e+00
  1.462556e+01    2.176408e+00
  1.465731e+01    2.182560e+00
  1.468906e+01    2.182544e+00
  1.472081e+01    2.179609e+00
  1.475256e+01    2.175097e+00
  1.478432e+01    2.170913e+00
  1.481607e+01    2.173620e+00
  1.484782e+01    2.177478e+00
  1.487957e+01    2.202661e+00
  1.491132e+01    2.233761e+00
  1.494307e+01    2.236550e+00
  1.497482e+01    2.315920e+00
  1.500657e+01    2.384226e+00
  1.503832e+01    2.562349e+00
  1.507008e+01    2.782694e+00
  1.510183e+01    3.227667e+00
  1.513358e+01    3.816382e+00
  1.516533e+01    4.505610e+00
  1.519708e+01    5.116486e+00
  1.522883e+01    5.565699e+00
  1.526058e+01    5.768396e+00
  1.529233e+01    5.372283e+00
  1.532409e+01    4.599558e+00
  1.535584e+01    3.646799e+00
  1.538759e+01    3.113467e+00
  1.541934e+01    2.738598e+00
  1.545109e+01    2.450130e+00
  1.548284e+01    2.332803e+00
  1.551459e+01    2.247775e+00
  1.554634e+01    2.103086e+00
  1.557809e+01    2.057795e+00
  1.560985e+01    2.084001e+00
  1.564160e+01    2.034471e+00
  1.567335e+01    1.986754e+00
  1.570510e+01    2.004791e+00
  1.573685e+01    1.959442e+00
  1.576860e+01    1.950517e+00
  1.580035e+01    1.887880e+00
  1.583210e+01    1.897066e+00
  1.586385e+01    1.866908e+00
  1.589561e+01    1.852109e+00
  1.592736e+01    1.878210e+00
  1.595911e+01    1.873835e+00
  1.599086e+01    1.846684e+00
  1.602261e+01    1.866135e+00
  1.605436e+01    1.841511e+00
  1.608611e+01    1.815141e+00
  1.611786e+01    1.844159e+00
  1.614961e+01    1.797096e+00
  1.618137e+01    1.835404e+00
  1.621312e+01    1.809965e+00
  1.624487e+01    1.785103e+00
  1.627662e+01    1.785274e+00
  1.630837e+01    1.800499e+00
  1.634012e+01    1.754841e+00
  1.637187e+01    1.762382e+00
  1.640362e+01    1.758180e+00
  1.643538e+01    1.744019e+00
  1.646713e+01    1.742518e+00
  1.649888e+01    1.761337e+00
  1.653063e+01    1.728686e+00
  1.656238e+01    1.729267e+00
  1.659413e+01    1.732717e+00
  1.662588e+01    1.667889e+00
  1.665763e+01    1.686558e+00
  1.668938e+01    1.686076e+00
  1.672114e+01    1.690409e+00
  1.675289e+01    1.712423e+00
  1.678464e+01    1.692793e+00
  1.681639e+01    1.655960e+00
  1.684814e+01    1.687029e+00
  1.687989e+01    1.619410e+00
  1.691164e+01    1.702408e+00
  1.694339e+01    1.646075e+00
  1.697514e+01    1.691522e+00
  1.700690e+01    1.637149e+00
  1.703865e+01    1.657276e+00
  1.707040e+01    1.643926e+00
  1.710215e+01    1.642775e+00
  1.713390e+01    1.632894e+00
  1.716565e+01    1.626250e+00
  1.719740e+01    1.614580e+00
  1.722915e+01    1.584283e+00
  1.726091e+01    1.558551e+00
  1.729266e+01    1.570163e+00
  1.732441e+01    1.595327e+00
  1.735616e+01    1.589223e+00
  1.738791e+01    1.562310e+00
  1.741966e+01    1.590348e+00
  1.745141e+01    1.542809e+00
  1.748316e+01    1.559395e+00
  1.751491e+01    1.560781e+00
  1.754667e+01    1.534754e+00
  1.757842e+01    1.569678e+00
  1.761017e+01    1.520562e+00
  1.764192e+01    1.552989e+00
  1.767367e+01    1.540723e+00
  1.770542e+01    1.546569e+00
  1.773717e+01    1.517315e+00
  1.776892e+01    1.530578e+00
  1.780067e+01    1.504516e+00
  1.783243e+01    1.537447e+00
  1.786418e+01    1.485095e+00
  1.789593e+01    1.496059e+00
  1.792768e+01    1.483928e+00
  1.795943e+01    1.502329e+00
  1.799118e+01    1.495169e+00
  1.802293e+01    1.490458e+00
  1.805468e+01    1.507402e+00
  1.808643e+01    1.486606e+00
  1.811819e+01    1.486781e+00
  1.814994e+01    1.477208e+00
  1.818169e+01    1.467665e+00
  1.821344e+01    1.479268e+00
  1.824519e+01    1.460298e+00
  1.827694e+01    1.475669e+00
  1.830869e+01    1.442391e+00
  1.834044e+01    1.453748e+00
  1.837220e+01    1.454358e+00
  1.840395e+01    1.431488e+00
  1.843570e+01    1.430234e+00
  1.846745e+01    1.443760e+00
  1.849920e+01    1.427849e+00
  1.853095e+01    1.399940e+00
  1.856270e+01    1.388853e+00
  1.859445e+01    1.394678e+00
  1.862620e+01    1.396248e+00
  1.865796e+01    1.389132e+00
  1.868971e+01    1.375280e+00
  1.872146e+01    1.409048e+00
  1.875321e+01    1.391090e+00
  1.878496e+01    1.385306e+00
  1.881671e+01    1.395037e+00
  1.884846e+01    1.376847e+00
  1.888021e+01    1.427034e+00
  1.891196e+01    1.367189e+00
  1.894372e+01    1.399704e+00
  1.897547e+01    1.369074e+00
  1.900722e+01    1.366628e+00
  1.903897e+01    1.391343e+00
  1.907072e+01    1.367113e+00
  1.910247e+01    1.363461e+00
  1.913422e+01    1.354012e+00
  1.916597e+01    1.343620e+00
  1.919773e+01    1.338284e+00
  1.922948e+01    1.343432e+00
  1.926123e+01    1.348383e+00
  1.929298e+01    1.346037e+00
  1.932473e+01    1.347509e+00
  1.935648e+01    1.324970e+00
  1.938823e+01    1.305705e+00
  1.941998e+01    1.347101e+00
  1.945173e+01    1.327474e+00
  1.948349e+01    1.296952e+00
  1.951524e+01    1.324463e+00
  1.954699e+01    1.333554e+00
  1.957874e+01    1.320415e+00
  1.961049e+01    1.328040e+00
  1.964224e+01    1.334570e+00
  1.967399e+01    1.319610e+00
  1.970574e+01    1.282902e+00
  1.973749e+01    1.270810e+00
  1.976925e+01    1.288638e+00
  1.980100e+01    1.261164e+00
  1.983275e+01    1.276876e+00
  1.986450e+01    1.248293e+00
  1.989625e+01    1.282253e+00
  1.992800e+01    1.250271e+00
  1.995975e+01    1.293216e+00
  1.999150e+01    1.282047e+00
  2.002325e+01    1.267429e+00
  2.005501e+01    1.294070e+00
  2.008676e+01    1.280097e+00
  2.011851e+01    1.255118e+00
  2.015026e+01    1.235067e+00
  2.018201e+01    1.237296e+00
  2.021376e+01    1.238301e+00
  2.024551e+01    1.211610e+00
  2.027726e+01    1.243749e+00
  2.030902e+01    1.229177e+00
  2.034077e+01    1.259632e+00
  2.037252e+01    1.218337e+00
  2.040427e+01    1.219255e+00
  2.043602e+01    1.233200e+00
  2.046777e+01    1.234096e+00
  2.049952e+01    1.246564e+00
  2.053127e+01    1.209804e+00
  2.056302e+01    1.209913e+00
  2.059478e+01    1.202707e+00
  2.062653e+01    1.227499e+00
  2.065828e+01    1.198840e+00
  2.069003e+01    1.231209e+00
  2.072178e+01    1.240551e+00
  2.075353e+01    1.215815e+00
  2.078528e+01    1.201851e+00
  2.081703e+01    1.240204e+00
  2.084878e+01    1.207151e+00
  2.088054e+01    1.204086e+00
  2.091229e+01    1.219154e+00
  2.094404e+01    1.232061e+00
  2.097579e+01    1.226583e+00
  2.100754e+01    1.187640e+00
  2.103929e+01    1.213860e+00
  2.107104e+01    1.241084e+00
  2.110279e+01    1.228618e+00
  2.113455e+01    1.223800e+00
  2.116630e+01    1.207797e+00
  2.119805e+01    1.222279e+00
  2.122980e+01    1.231489e+00
  2.126155e+01    1.243714e+00
  2.129330e+01    1.239853e+00
  2.132505e+01    1.252204e+00
  2.135680e+01    1.289619e+00
  2.138855e+01    1.262186e+00
  2.142031e+01    1.312291e+00
  2.145206e+01    1.329271e+00
  2.148381e+01    1.385667e+00
  2.151556e+01    1.428444e+00
  2.154731e+01    1.520385e+00
  2.157906e+01    1.577347e+00
  2.161081e+01    1.756027e+00
  2.164256e+01    1.963128e+00
  2.167431e+01    2.282872e+00
  2.170607e+01    2.807442e+00
  2.173782e+01    3.519346e+00
  2.176957e+01    4.602709e+00
  2.180132e+01    5.863778e+00
  2.183307e+01    7.144257e+00
  2.186482e+01    8.347298e+00
  2.189657e+01    8.841678e+00
  2.192832e+01    8.045200e+00
  2.196007e+01    6.408858e+00
  2.199183e+01    4.720490e+00
  2.202358e+01    3.510184e+00
  2.205533e+01    2.782478e+00
  2.208708e+01    2.301258e+00
  2.211883e+01    1.928641e+00
  2.215058e+01    1.759989e+00
  2.218233e+01    1.552670e+00
  2.221408e+01    1.472421e+00
  2.224584e+01    1.367929e+00
  2.227759e+01    1.325940e+00
  2.230934e+01    1.299194e+00
  2.234109e+01    1.233495e+00
  2.237284e+01    1.210808e+00
  2.240459e+01    1.207897e+00
  2.243634e+01    1.157117e+00
  2.246809e+01    1.137032e+00
  2.249984e+01    1.124377e+00
  2.253160e+01    1.118602e+00
  2.256335e+01    1.103935e+00
  2.259510e+01    1.093108e+00
  2.262685e+01    1.098515e+00
  2.265860e+01    1.093794e+00
  2.269035e+01    1.076183e+00
  2.272210e+01    1.084295e+00
  2.275385e+01    1.056378e+00
  2.278560e+01    1.063563e+00
  2.281736e+01    1.060289e+00
  2.284911e+01    1.045205e+00
  2.288086e+01    1.031946e+00
  2.291261e+01    1.037160e+00
  2.294436e+01    1.037699e+00
  2.297611e+01    1.009573e+00
  2.300786e+01    9.951976e-01
  2.303961e+01    1.010242e+00
  2.307137e+01    1.013386e+00
  2.310312e+01    9.840633e-01
  2.313487e+01    9.867900e-01
  2.316662e+01    9.715423e-01
  2.319837e+01    9.961008e-01
  2.323012e+01    9.792362e-01
  2.326187e+01    9.575322e-01
  2.329362e+01    9.674999e-01
  2.332537e+01    9.772747e-01
  2.335713e+01    9.526912e-01
  2.338888e+01    9.720713e-01
  2.342063e+01    9.613419e-01
  2.345238e+01    9.506787e-01
  2.348413e+01    9.469242e-01
  2.351588e+01    9.314103e-01
  2.354763e+01    9.313345e-01
  2.357938e+01    9.512033e-01
  2.361113e+01    9.244707e-01
  2.364289e+01    9.553818e-01
  2.367464e+01    9.286113e-01
  2.370639e+01    9.107683e-01
  2.373814e+01    9.286528e-01
  2.376989e+01    9.337068e-01
  2.380164e+01    9.216052e-01
  2.383339e+01    9.246948e-01
  2.386514e+01    9.096552e-01
  2.389689e+01    8.920072e-01
  2.392865e+01    9.008126e-01
  2.396040e+01    8.834562e-01
  2.399215e+01    8.919333e-01
  2.402390e+01    9.035009e-01
  2.405565e+01    9.083755e-01
  2.408740e+01    8.836496e-01
  2.411915e+01    8.959434e-01
  2.415090e+01    8.627602e-01
  2.418266e+01    8.721573e-01
  2.421441e+01    8.779321e-01
  2.424616e+01    8.787880e-01
  2.427791e+01    8.667333e-01
  2.430966e+01    8.904539e-01
  2.434141e+01    8.853605e-01
  2.437316e+01    8.818120e-01
  2.440491e+01    8.779694e-01
  2.443666e+01    8.598390e-01
  2.446842e+01    8.758945e-01
  2.450017e+01    8.748078e-01
  2.453192e+01    8.777686e-01
  2.456367e+01    9.060261e-01
  2.459542e+01    8.695751e-01
  2.462717e+01    8.930880e-01
  2.465892e+01    9.031510e-01
  2.469067e+01    8.730322e-01
  2.472242e+01    8.875186e-01
  2.475418e+01    8.823472e-01
  2.478593e+01    9.101107e-01
  2.481768e+01    8.966895e-01
  2.484943e+01    8.814856e-01
  2.488118e+01    8.704116e-01
  2.491293e+01    9.111755e-01
  2.494468e+01    8.934573e-01
  2.497643e+01    8.975822e-01
  2.500819e+01    8.685707e-01
  2.503994e+01    8.958877e-01
  2.507169e+01    8.998538e-01
  2.510344e+01    9.065821e-01
  2.513519e+01    9.011636e-01
  2.516694e+01    9.179060e-01
  2.519869e+01    9.170855e-01
  2.523044e+01    9.307072e-01
  2.526219e+01    9.305692e-01
  2.529395e+01    9.403539e-01
  2.532570e+01    9.475815e-01
  2.535745e+01    9.805281e-01
  2.538920e+01    1.007185e+00
  2.542095e+01    9.981670e-01
  2.545270e+01    1.021423e+00
  2.548445e+01    1.044774e+00
  2.551620e+01    1.054991e+00
  2.554795e+01    1.094060e+00
  2.557971e+01    1.141965e+00
  2.561146e+01    1.223020e+00
  2.564321e+01    1.302526e+00
  2.567496e+01    1.416023e+00
  2.570671e+01    1.581711e+00
  2.573846e+01    1.839557e+00
  2.577021e+01    2.261290e+00
  2.580196e+01    2.840142e+00
  2.583371e+01    3.654412e+00
  2.586547e+01    4.751781e+00
  2.589722e+01    5.860996e+00
  2.592897e+01    6.757505e+00
  2.596072e+01    7.054859e+00
  2.599247e+01    6.406070e+00
  2.602422e+01    5.157971e+00
  2.605597e+01    3.816658e+00
  2.608772e+01    2.887315e+00
  2.611948e+01    2.291495e+00
  2.615123e+01    1.895949e+00
  2.618298e+01    1.671061e+00
  2.621473e+01    1.455615e+00
  2.624648e+01    1.296165e+00
  2.627823e+01    1.237702e+00
  2.630998e+01    1.162541e+00
  2.634173e+01    1.107884e+00
  2.637348e+01    1.049875e+00
  2.640524e+01    1.043611e+00
  2.643699e+01    1.027880e+00
  2.646874e+01    1.025653e+00
  2.650049e+01    1.016931e+00
  2.653224e+01    9.710698e-01
  2.656399e+01    9.739330e-01
  2.659574e+01    9.929439e-01
  2.662749e+01    9.596627e-01
  2.665924e+01    9.770734e-01
  2.669100e+01    9.584270e-01
  2.672275e+01    9.426211e-01
  2.675450e+01    9.503655e-01
  2.678625e+01    9.632152e-01
  2.681800e+01    9.846957e-01
  2.684975e+01    9.654226e-01
  2.688150e+01    9.974844e-01
  2.691325e+01    1.007585e+00
  2.694501e+01    1.009331e+00
  2.697676e+01    1.070763e+00
  2.700851e+01    1.116966e+00
  2.704026e+01    1.197520e+00
  2.707201e+01    1.307120e+00
  2.710376e+01    1.510821e+00
  2.713551e+01    1.721465e+00
  2.716726e+01    1.957603e+00
  2.719901e+01    2.172847e+00
  2.723077e+01    2.141478e+00
  2.726252e+01    1.913383e+00
  2.729427e+01    1.667024e+00
  2.732602e+01    1.413277e+00
  2.735777e+01    1.254646e+00
  2.738952e+01    1.148611e+00
  2.742127e+01    1.071452e+00
  2.745302e+01    1.051899e+00
  2.748477e+01    1.001797e+00
  2.751653e+01    9.543266e-01
  2.754828e+01    9.393963e-01
  2.758003e+01    9.600596e-01
  2.761178e+01    9.226721e-01
  2.764353e+01    8.948764e-01
  2.767528e+01    8.903250e-01
  2.770703e+01    9.131263e-01
  2.773878e+01    8.784844e-01
  2.777054e+01    8.803178e-01
  2.780229e+01    8.620455e-01
  2.783404e+01    8.598757e-01
  2.786579e+01    8.797870e-01
  2.789754e+01    8.784397e-01
  2.792929e+01    8.842968e-01
  2.796104e+01    8.666634e-01
  2.799279e+01    8.463787e-01
  2.802454e+01    8.446448e-01
  2.805630e+01    8.601984e-01
  2.808805e+01    8.649592e-01
  2.811980e+01    8.430882e-01
  2.815155e+01    8.436506e-01
  2.818330e+01    8.355245e-01
  2.821505e+01    8.279697e-01
  2.824680e+01    8.407024e-01
  2.827855e+01    8.316503e-01
  2.831030e+01    8.428692e-01
  2.834206e+01    8.491398e-01
  2.837381e+01    8.200814e-01
  2.840556e+01    8.537166e-01
  2.843731e+01    8.290529e-01
  2.846906e+01    8.328782e-01
  2.850081e+01    8.419857e-01
  2.853256e+01    8.288842e-01
  2.856431e+01    8.373894e-01
  2.859606e+01    8.485075e-01
  2.862782e+01    8.197976e-01
  2.865957e+01    8.204043e-01
  2.869132e+01    8.183078e-01
  2.872307e+01    7.970496e-01
  2.875482e+01    8.113906e-01
  2.878657e+01    8.288549e-01
  2.881832e+01    8.191302e-01
  2.885007e+01    8.188086e-01
  2.888183e+01    8.069698e-01
  2.891358e+01    8.103876e-01
  2.894533e+01    8.071946e-01
  2.897708e+01    8.444906e-01
  2.900883e+01    8.104897e-01
  2.904058e+01    8.097856e-01
  2.907233e+01    7.985026e-01
  2.910408e+01    8.125201e-01
  2.913583e+01    8.132275e-01
  2.916759e+01    7.924745e-01
  2.919934e+01    7.931573e-01
  2.923109e+01    7.861223e-01
  2.926284e+01    7.990040e-01
  2.929459e+01    7.995533e-01
  2.932634e+01    8.062779e-01
  2.935809e+01    8.077570e-01
  2.938984e+01    7.730461e-01
  2.942159e+01    8.015493e-01
  2.945335e+01    8.165006e-01
  2.948510e+01    7.871878e-01
  2.951685e+01    8.058559e-01
  2.954860e+01    7.959085e-01
  2.958035e+01    7.987472e-01
  2.961210e+01    7.927493e-01
  2.964385e+01    8.004541e-01
  2.967560e+01    7.800782e-01
  2.970736e+01    7.788189e-01
  2.973911e+01    7.717173e-01
  2.977086e+01    7.800232e-01
  2.980261e+01    7.979668e-01
  2.983436e+01    7.712417e-01
  2.986611e+01    7.750960e-01
  2.989786e+01    8.013517e-01
  2.992961e+01    7.709394e-01
  2.996136e+01    7.998765e-01
  2.999312e+01    7.804367e-01
  3.002487e+01    7.997112e-01
  3.005662e+01    8.172353e-01
  3.008837e+01    8.073171e-01
  3.012012e+01    7.971203e-01
  3.015187e+01    7.714524e-01
  3.018362e+01    7.765555e-01
  3.021537e+01    7.915037e-01
  3.024712e+01    7.524686e-01
  3.027888e+01    7.792169e-01
  3.031063e+01    7.642201e-01
  3.034238e+01    7.770717e-01
  3.037413e+01    7.797264e-01
  3.040588e+01    7.770868e-01
  3.043763e+01    7.701002e-01
  3.046938e+01    7.922249e-01
  3.050113e+01    7.535647e-01
  3.053288e+01    7.895480e-01
  3.056464e+01    8.013951e-01
  3.059639e+01    7.838878e-01
  3.062814e+01    7.850473e-01
  3.065989e+01    7.755267e-01
  3.069164e+01    7.812778e-01
  3.072339e+01    7.962341e-01
  3.075514e+01    7.650715e-01
  3.078689e+01    7.787929e-01
  3.081865e+01    7.722972e-01
  3.085040e+01    7.726458e-01
  3.088215e+01    7.672005e-01
  3.091390e+01    7.722679e-01
  3.094565e+01    7.763049e-01
  3.097740e+01    7.711957e-01
  3.100915e+01    7.761344e-01
  3.104090e+01    7.672718e-01
  3.107265e+01    8.021658e-01
  3.110441e+01    7.520103e-01
  3.113616e+01    7.734049e-01
  3.116791e+01    7.585728e-01
  3.119966e+01    8.021624e-01
  3.123141e+01    7.826825e-01
  3.126316e+01    7.913184e-01
  3.129491e+01    7.762886e-01
  3.132666e+01    7.969860e-01
  3.135841e+01    7.855006e-01
  3.139017e+01    7.983251e-01
  3.142192e+01    8.007084e-01
  3.145367e+01    8.209531e-01
  3.148542e+01    8.267156e-01
  3.151717e+01    8.136615e-01
  3.154892e+01    8.213655e-01
  3.158067e+01    8.728455e-01
  3.161242e+01    8.690602e-01
  3.164418e+01    9.126273e-01
  3.167593e+01    9.477998e-01
  3.170768e+01    1.033410e+00
  3.173943e+01    1.098648e+00
  3.177118e+01    1.260462e+00
  3.180293e+01    1.441355e+00
  3.183468e+01    1.738413e+00
  3.186643e+01    1.944426e+00
  3.189818e+01    2.068655e+00
  3.192994e+01    1.994431e+00
  3.196169e+01    1.761205e+00
  3.199344e+01    1.521743e+00
  3.202519e+01    1.288597e+00
  3.205694e+01    1.135365e+00
  3.208869e+01    1.024263e+00
  3.212044e+01    9.549309e-01
  3.215219e+01    9.107867e-01
  3.218394e+01    8.790078e-01
  3.221570e+01    8.464411e-01
  3.224745e+01    8.215903e-01
  3.227920e+01    8.106739e-01
  3.231095e+01    8.168457e-01
  3.234270e+01    7.918822e-01
  3.237445e+01    7.907452e-01
  3.240620e+01    7.868491e-01
  3.243795e+01    7.646807e-01
  3.246970e+01    7.926389e-01
  3.250146e+01    7.415120e-01
  3.253321e+01    7.771314e-01
  3.254908e+01    7.788064e-01