File: XRD/Reaction conditions/2024-07-27_003_Ru-CGO-ex_Reaction_dwell_000023_data_000058.dat
# == pyFAI calibration ==
# Distance Sample to Detector: 0.4 m
# PONI: 9.750e-02, 1.135e-01 m
# Rotations: -0.000175 0.000000 -0.000000 rad
#
# == Fit2d calibration ==
# Distance Sample-beamCenter: 400.000 mm
# Center: x=1514.000, y=1300.000 pix
# Tilt: 0.010 deg  TiltPlanRot: 0.010 deg
#
# Detector Detector	 Spline= None	 PixelSize= 7.500e-05, 7.500e-05 m
#    Detector has a mask: False
#    Detector has a dark current: False
#    detector has a flat field: False
#
# Wavelength: 6.888e-11 m
# Mask applied: user provided
# Dark current applied: False
# Flat field applied: False
# Polarization factor: 0.99
# Normalization factor: 1.0
# --> /home/myspot/data/2024_07_Rosario/Ru-CGO-ex/2024-07-27_003_Ru-CGO-ex_Reaction_dwell_000023_data_000058.dat
#       q_nm^-1             I
  2.003187e-02    3.843212e-01
  5.178302e-02    2.308002e-01
  8.353417e-02    9.355985e-02
  1.152853e-01    1.177244e-01
  1.470365e-01    6.953402e-02
  1.787876e-01    4.807883e-02
  2.105388e-01    4.768453e-02
  2.422899e-01    7.358242e-03
  2.740411e-01    4.378078e-02
  3.057922e-01    2.588499e-02
  3.375433e-01    5.307245e-02
  3.692945e-01    1.707218e-02
  4.010456e-01    3.810789e-02
  4.327968e-01    5.001341e-02
  4.645479e-01    3.582577e-02
  4.962991e-01    2.847332e-02
  5.280502e-01    7.766687e-02
  5.598014e-01    5.200309e-02
  5.915525e-01    4.879919e-02
  6.233037e-01    2.735221e-02
  6.550548e-01    2.594737e-02
  6.868060e-01    5.474755e-02
  7.185571e-01    6.915230e-02
  7.503083e-01    5.930165e-02
  7.820594e-01    9.652086e-02
  8.138106e-01    2.386846e-01
  8.455617e-01    2.986166e-01
  8.773129e-01    5.162700e-01
  9.090640e-01    6.966930e-01
  9.408152e-01    8.170874e-01
  9.725663e-01    9.101546e-01
  1.004317e+00    1.202214e+00
  1.036069e+00    1.360532e+00
  1.067820e+00    1.595045e+00
  1.099571e+00    1.560898e+00
  1.131322e+00    1.564218e+00
  1.163073e+00    1.705395e+00
  1.194824e+00    1.728173e+00
  1.226575e+00    2.184842e+00
  1.258327e+00    2.379822e+00
  1.290078e+00    2.567033e+00
  1.321829e+00    2.730719e+00
  1.353580e+00    2.810667e+00
  1.385331e+00    2.807897e+00
  1.417082e+00    2.919706e+00
  1.448834e+00    2.943544e+00
  1.480585e+00    2.877319e+00
  1.512336e+00    3.085625e+00
  1.544087e+00    3.122167e+00
  1.575838e+00    3.160304e+00
  1.607589e+00    3.198628e+00
  1.639340e+00    3.239543e+00
  1.671092e+00    3.080629e+00
  1.702843e+00    3.112028e+00
  1.734594e+00    3.198807e+00
  1.766345e+00    3.118094e+00
  1.798096e+00    3.169387e+00
  1.829847e+00    3.070851e+00
  1.861598e+00    3.125279e+00
  1.893350e+00    3.080121e+00
  1.925101e+00    3.085141e+00
  1.956852e+00    3.097056e+00
  1.988603e+00    3.024343e+00
  2.020354e+00    3.110756e+00
  2.052105e+00    3.191018e+00
  2.083856e+00    3.086824e+00
  2.115608e+00    3.196296e+00
  2.147359e+00    3.121744e+00
  2.179110e+00    3.135981e+00
  2.210861e+00    3.125780e+00
  2.242612e+00    3.110492e+00
  2.274363e+00    3.088665e+00
  2.306115e+00    3.143311e+00
  2.337866e+00    3.155219e+00
  2.369617e+00    3.040483e+00
  2.401368e+00    3.137032e+00
  2.433119e+00    3.196205e+00
  2.464870e+00    3.252529e+00
  2.496621e+00    3.201100e+00
  2.528373e+00    3.191414e+00
  2.560124e+00    3.141081e+00
  2.591875e+00    3.192066e+00
  2.623626e+00    3.362507e+00
  2.655377e+00    3.158097e+00
  2.687128e+00    3.323905e+00
  2.718879e+00    3.167355e+00
  2.750631e+00    3.354187e+00
  2.782382e+00    3.266330e+00
  2.814133e+00    3.342181e+00
  2.845884e+00    3.422255e+00
  2.877635e+00    3.120628e+00
  2.909386e+00    3.370017e+00
  2.941137e+00    3.359615e+00
  2.972889e+00    3.258749e+00
  3.004640e+00    3.264563e+00
  3.036391e+00    3.291274e+00
  3.068142e+00    3.425457e+00
  3.099893e+00    3.418492e+00
  3.131644e+00    3.380991e+00
  3.163395e+00    3.382849e+00
  3.195147e+00    3.323331e+00
  3.226898e+00    3.492412e+00
  3.258649e+00    3.365982e+00
  3.290400e+00    3.350373e+00
  3.322151e+00    3.359282e+00
  3.353902e+00    3.415075e+00
  3.385654e+00    3.463938e+00
  3.417405e+00    3.429284e+00
  3.449156e+00    3.544018e+00
  3.480907e+00    3.473942e+00
  3.512658e+00    3.479689e+00
  3.544409e+00    3.510967e+00
  3.576160e+00    3.508427e+00
  3.607912e+00    3.480586e+00
  3.639663e+00    3.458174e+00
  3.671414e+00    3.487264e+00
  3.703165e+00    3.566877e+00
  3.734916e+00    3.543494e+00
  3.766667e+00    3.390891e+00
  3.798418e+00    3.426421e+00
  3.830170e+00    3.541984e+00
  3.861921e+00    3.555622e+00
  3.893672e+00    3.585658e+00
  3.925423e+00    3.494299e+00
  3.957174e+00    3.528088e+00
  3.988925e+00    3.520203e+00
  4.020676e+00    3.512119e+00
  4.052428e+00    3.560283e+00
  4.084179e+00    3.482931e+00
  4.115930e+00    3.610464e+00
  4.147681e+00    3.599765e+00
  4.179432e+00    3.534312e+00
  4.211183e+00    3.564877e+00
  4.242935e+00    3.600092e+00
  4.274686e+00    3.508396e+00
  4.306437e+00    3.465333e+00
  4.338188e+00    3.560030e+00
  4.369939e+00    3.627833e+00
  4.401690e+00    3.563802e+00
  4.433441e+00    3.608741e+00
  4.465193e+00    3.591648e+00
  4.496944e+00    3.522005e+00
  4.528695e+00    3.571609e+00
  4.560446e+00    3.548599e+00
  4.592197e+00    3.582765e+00
  4.623948e+00    3.669455e+00
  4.655699e+00    3.684573e+00
  4.687451e+00    3.708784e+00
  4.719202e+00    3.596545e+00
  4.750953e+00    3.642524e+00
  4.782704e+00    3.529980e+00
  4.814455e+00    3.613786e+00
  4.846206e+00    3.668936e+00
  4.877957e+00    3.634354e+00
  4.909709e+00    3.754449e+00
  4.941460e+00    3.608292e+00
  4.973211e+00    3.660562e+00
  5.004962e+00    3.657708e+00
  5.036713e+00    3.616835e+00
  5.068464e+00    3.640635e+00
  5.100216e+00    3.665116e+00
  5.131967e+00    3.609731e+00
  5.163718e+00    3.625753e+00
  5.195469e+00    3.613226e+00
  5.227220e+00    3.593160e+00
  5.258971e+00    3.709297e+00
  5.290722e+00    3.670876e+00
  5.322474e+00    3.706858e+00
  5.354225e+00    3.651612e+00
  5.385976e+00    3.688700e+00
  5.417727e+00    3.643204e+00
  5.449478e+00    3.549298e+00
  5.481229e+00    3.604564e+00
  5.512980e+00    3.573411e+00
  5.544732e+00    3.682558e+00
  5.576483e+00    3.702570e+00
  5.608234e+00    3.611073e+00
  5.639985e+00    3.637053e+00
  5.671736e+00    3.672567e+00
  5.703487e+00    3.517715e+00
  5.735238e+00    3.516805e+00
  5.766990e+00    3.590545e+00
  5.798741e+00    3.571451e+00
  5.830492e+00    3.565240e+00
  5.862243e+00    3.564044e+00
  5.893994e+00    3.600434e+00
  5.925745e+00    3.594520e+00
  5.957497e+00    3.567718e+00
  5.989248e+00    3.513820e+00
  6.020999e+00    3.524679e+00
  6.052750e+00    3.530887e+00
  6.084501e+00    3.572204e+00
  6.116252e+00    3.678109e+00
  6.148003e+00    3.638159e+00
  6.179755e+00    3.593447e+00
  6.211506e+00    3.637455e+00
  6.243257e+00    3.607041e+00
  6.275008e+00    3.609221e+00
  6.306759e+00    3.629216e+00
  6.338510e+00    3.646903e+00
  6.370261e+00    3.578331e+00
  6.402013e+00    3.623307e+00
  6.433764e+00    3.557660e+00
  6.465515e+00    3.518059e+00
  6.497266e+00    3.676415e+00
  6.529017e+00    3.602520e+00
  6.560768e+00    3.597568e+00
  6.592519e+00    3.521527e+00
  6.624271e+00    3.543672e+00
  6.656022e+00    3.577222e+00
  6.687773e+00    3.556630e+00
  6.719524e+00    3.616053e+00
  6.751275e+00    3.570646e+00
  6.783026e+00    3.564281e+00
  6.814777e+00    3.563415e+00
  6.846529e+00    3.478384e+00
  6.878280e+00    3.527402e+00
  6.910031e+00    3.554633e+00
  6.941782e+00    3.623146e+00
  6.973533e+00    3.466603e+00
  7.005284e+00    3.508909e+00
  7.037036e+00    3.576756e+00
  7.068787e+00    3.600757e+00
  7.100538e+00    3.462484e+00
  7.132289e+00    3.490370e+00
  7.164040e+00    3.538603e+00
  7.195791e+00    3.505197e+00
  7.227542e+00    3.455627e+00
  7.259294e+00    3.438865e+00
  7.291045e+00    3.484723e+00
  7.322796e+00    3.471398e+00
  7.354547e+00    3.508346e+00
  7.386298e+00    3.581340e+00
  7.418049e+00    3.491396e+00
  7.449800e+00    3.566688e+00
  7.481552e+00    3.517554e+00
  7.513303e+00    3.537071e+00
  7.545054e+00    3.499870e+00
  7.576805e+00    3.579800e+00
  7.608556e+00    3.504324e+00
  7.640307e+00    3.398591e+00
  7.672058e+00    3.437404e+00
  7.703810e+00    3.440399e+00
  7.735561e+00    3.460915e+00
  7.767312e+00    3.513272e+00
  7.799063e+00    3.440165e+00
  7.830814e+00    3.380785e+00
  7.862565e+00    3.501293e+00
  7.894317e+00    3.418887e+00
  7.926068e+00    3.460902e+00
  7.957819e+00    3.442556e+00
  7.989570e+00    3.429230e+00
  8.021321e+00    3.475565e+00
  8.053072e+00    3.379829e+00
  8.084823e+00    3.460563e+00
  8.116575e+00    3.435101e+00
  8.148326e+00    3.412522e+00
  8.180077e+00    3.485518e+00
  8.211828e+00    3.506619e+00
  8.243579e+00    3.577015e+00
  8.275330e+00    3.477665e+00
  8.307081e+00    3.440547e+00
  8.338833e+00    3.415189e+00
  8.370584e+00    3.425602e+00
  8.402335e+00    3.397538e+00
  8.434086e+00    3.387786e+00
  8.465837e+00    3.445571e+00
  8.497588e+00    3.394443e+00
  8.529339e+00    3.358564e+00
  8.561091e+00    3.436453e+00
  8.592842e+00    3.428094e+00
  8.624593e+00    3.405936e+00
  8.656344e+00    3.438802e+00
  8.688095e+00    3.336874e+00
  8.719846e+00    3.320242e+00
  8.751598e+00    3.256338e+00
  8.783349e+00    3.429150e+00
  8.815100e+00    3.393412e+00
  8.846851e+00    3.344373e+00
  8.878602e+00    3.307500e+00
  8.910353e+00    3.272728e+00
  8.942104e+00    3.298248e+00
  8.973856e+00    3.276285e+00
  9.005607e+00    3.324911e+00
  9.037358e+00    3.266672e+00
  9.069109e+00    3.322265e+00
  9.100860e+00    3.265058e+00
  9.132611e+00    3.249398e+00
  9.164362e+00    3.289308e+00
  9.196114e+00    3.337067e+00
  9.227865e+00    3.275435e+00
  9.259616e+00    3.252039e+00
  9.291367e+00    3.283700e+00
  9.323118e+00    3.241481e+00
  9.354869e+00    3.302850e+00
  9.386620e+00    3.265335e+00
  9.418372e+00    3.148527e+00
  9.450123e+00    3.234337e+00
  9.481874e+00    3.228237e+00
  9.513625e+00    3.329185e+00
  9.545376e+00    3.210722e+00
  9.577127e+00    3.241601e+00
  9.608878e+00    3.254022e+00
  9.640630e+00    3.233326e+00
  9.672381e+00    3.238804e+00
  9.704132e+00    3.129686e+00
  9.735883e+00    3.139505e+00
  9.767634e+00    3.160681e+00
  9.799385e+00    3.175236e+00
  9.831137e+00    3.173621e+00
  9.862888e+00    3.193830e+00
  9.894639e+00    3.188040e+00
  9.926390e+00    3.095480e+00
  9.958141e+00    3.165520e+00
  9.989892e+00    3.102549e+00
  1.002164e+01    3.101694e+00
  1.005339e+01    3.133054e+00
  1.008515e+01    3.119595e+00
  1.011690e+01    3.150373e+00
  1.014865e+01    3.074900e+00
  1.018040e+01    3.084998e+00
  1.021215e+01    3.078648e+00
  1.024390e+01    3.096143e+00
  1.027565e+01    3.112824e+00
  1.030740e+01    3.067692e+00
  1.033915e+01    2.965657e+00
  1.037091e+01    3.072456e+00
  1.040266e+01    3.082749e+00
  1.043441e+01    3.074847e+00
  1.046616e+01    3.083278e+00
  1.049791e+01    3.027037e+00
  1.052966e+01    3.070476e+00
  1.056141e+01    3.033259e+00
  1.059316e+01    2.983186e+00
  1.062492e+01    3.011176e+00
  1.065667e+01    2.995120e+00
  1.068842e+01    2.956227e+00
  1.072017e+01    2.975044e+00
  1.075192e+01    2.971377e+00
  1.078367e+01    2.970253e+00
  1.081542e+01    2.927204e+00
  1.084717e+01    2.951094e+00
  1.087892e+01    2.971212e+00
  1.091068e+01    2.942062e+00
  1.094243e+01    2.956120e+00
  1.097418e+01    2.933699e+00
  1.100593e+01    2.895732e+00
  1.103768e+01    2.919614e+00
  1.106943e+01    2.903394e+00
  1.110118e+01    2.922067e+00
  1.113293e+01    2.871805e+00
  1.116468e+01    2.817001e+00
  1.119644e+01    2.869843e+00
  1.122819e+01    2.800293e+00
  1.125994e+01    2.808657e+00
  1.129169e+01    2.850249e+00
  1.132344e+01    2.843256e+00
  1.135519e+01    2.833391e+00
  1.138694e+01    2.878653e+00
  1.141869e+01    2.838848e+00
  1.145045e+01    2.804985e+00
  1.148220e+01    2.796932e+00
  1.151395e+01    2.786050e+00
  1.154570e+01    2.808783e+00
  1.157745e+01    2.825874e+00
  1.160920e+01    2.790040e+00
  1.164095e+01    2.777139e+00
  1.167270e+01    2.780167e+00
  1.170445e+01    2.786107e+00
  1.173621e+01    2.754841e+00
  1.176796e+01    2.746975e+00
  1.179971e+01    2.774973e+00
  1.183146e+01    2.778306e+00
  1.186321e+01    2.776396e+00
  1.189496e+01    2.761796e+00
  1.192671e+01    2.724288e+00
  1.195846e+01    2.740265e+00
  1.199021e+01    2.677982e+00
  1.202197e+01    2.698316e+00
  1.205372e+01    2.729368e+00
  1.208547e+01    2.687509e+00
  1.211722e+01    2.681523e+00
  1.214897e+01    2.741146e+00
  1.218072e+01    2.716114e+00
  1.221247e+01    2.716056e+00
  1.224422e+01    2.701530e+00
  1.227597e+01    2.712523e+00
  1.230773e+01    2.693761e+00
  1.233948e+01    2.699350e+00
  1.237123e+01    2.650508e+00
  1.240298e+01    2.661899e+00
  1.243473e+01    2.695001e+00
  1.246648e+01    2.726309e+00
  1.249823e+01    2.732351e+00
  1.252998e+01    2.763661e+00
  1.256174e+01    2.699186e+00
  1.259349e+01    2.778297e+00
  1.262524e+01    2.734950e+00
  1.265699e+01    2.803510e+00
  1.268874e+01    2.761237e+00
  1.272049e+01    2.850484e+00
  1.275224e+01    2.916410e+00
  1.278399e+01    2.997513e+00
  1.281574e+01    3.102325e+00
  1.284750e+01    3.208076e+00
  1.287925e+01    3.347209e+00
  1.291100e+01    3.653790e+00
  1.294275e+01    4.077603e+00
  1.297450e+01    4.840673e+00
  1.300625e+01    5.949661e+00
  1.303800e+01    7.701106e+00
  1.306975e+01    1.007633e+01
  1.310150e+01    1.254537e+01
  1.313326e+01    1.481069e+01
  1.316501e+01    1.621603e+01
  1.319676e+01    1.563329e+01
  1.322851e+01    1.246395e+01
  1.326026e+01    9.152149e+00
  1.329201e+01    6.725311e+00
  1.332376e+01    5.357467e+00
  1.335551e+01    4.495850e+00
  1.338727e+01    3.871011e+00
  1.341902e+01    3.474114e+00
  1.345077e+01    3.193487e+00
  1.348252e+01    3.051948e+00
  1.351427e+01    2.916320e+00
  1.354602e+01    2.850199e+00
  1.357777e+01    2.743574e+00
  1.360952e+01    2.682067e+00
  1.364127e+01    2.636737e+00
  1.367303e+01    2.654999e+00
  1.370478e+01    2.516494e+00
  1.373653e+01    2.536886e+00
  1.376828e+01    2.578289e+00
  1.380003e+01    2.478509e+00
  1.383178e+01    2.458269e+00
  1.386353e+01    2.439661e+00
  1.389528e+01    2.443562e+00
  1.392703e+01    2.428693e+00
  1.395879e+01    2.395020e+00
  1.399054e+01    2.442246e+00
  1.402229e+01    2.337704e+00
  1.405404e+01    2.369321e+00
  1.408579e+01    2.392909e+00
  1.411754e+01    2.382450e+00
  1.414929e+01    2.359797e+00
  1.418104e+01    2.301929e+00
  1.421279e+01    2.330323e+00
  1.424455e+01    2.303486e+00
  1.427630e+01    2.253080e+00
  1.430805e+01    2.283973e+00
  1.433980e+01    2.224826e+00
  1.437155e+01    2.307676e+00
  1.440330e+01    2.236582e+00
  1.443505e+01    2.236695e+00
  1.446680e+01    2.247086e+00
  1.449856e+01    2.230255e+00
  1.453031e+01    2.259034e+00
  1.456206e+01    2.228233e+00
  1.459381e+01    2.233930e+00
  1.462556e+01    2.202659e+00
  1.465731e+01    2.192943e+00
  1.468906e+01    2.212378e+00
  1.472081e+01    2.220123e+00
  1.475256e+01    2.195534e+00
  1.478432e+01    2.230740e+00
  1.481607e+01    2.238281e+00
  1.484782e+01    2.241623e+00
  1.487957e+01    2.208215e+00
  1.491132e+01    2.254589e+00
  1.494307e+01    2.327482e+00
  1.497482e+01    2.357260e+00
  1.500657e+01    2.453334e+00
  1.503832e+01    2.630253e+00
  1.507008e+01    2.855932e+00
  1.510183e+01    3.235331e+00
  1.513358e+01    3.718105e+00
  1.516533e+01    4.550860e+00
  1.519708e+01    5.150977e+00
  1.522883e+01    5.593730e+00
  1.526058e+01    5.821812e+00
  1.529233e+01    5.504678e+00
  1.532409e+01    4.644746e+00
  1.535584e+01    3.789556e+00
  1.538759e+01    3.227408e+00
  1.541934e+01    2.768233e+00
  1.545109e+01    2.536810e+00
  1.548284e+01    2.389967e+00
  1.551459e+01    2.293837e+00
  1.554634e+01    2.185602e+00
  1.557809e+01    2.094914e+00
  1.560985e+01    2.081532e+00
  1.564160e+01    2.064573e+00
  1.567335e+01    2.007017e+00
  1.570510e+01    1.981670e+00
  1.573685e+01    1.970624e+00
  1.576860e+01    1.950720e+00
  1.580035e+01    1.953543e+00
  1.583210e+01    1.944763e+00
  1.586385e+01    1.896376e+00
  1.589561e+01    1.907804e+00
  1.592736e+01    1.907181e+00
  1.595911e+01    1.875943e+00
  1.599086e+01    1.893636e+00
  1.602261e+01    1.873867e+00
  1.605436e+01    1.882957e+00
  1.608611e+01    1.818605e+00
  1.611786e+01    1.843965e+00
  1.614961e+01    1.832761e+00
  1.618137e+01    1.817163e+00
  1.621312e+01    1.853067e+00
  1.624487e+01    1.857206e+00
  1.627662e+01    1.797056e+00
  1.630837e+01    1.802587e+00
  1.634012e+01    1.818941e+00
  1.637187e+01    1.797675e+00
  1.640362e+01    1.774375e+00
  1.643538e+01    1.761708e+00
  1.646713e+01    1.767224e+00
  1.649888e+01    1.776637e+00
  1.653063e+01    1.740721e+00
  1.656238e+01    1.770866e+00
  1.659413e+01    1.725824e+00
  1.662588e+01    1.731558e+00
  1.665763e+01    1.764075e+00
  1.668938e+01    1.706254e+00
  1.672114e+01    1.721817e+00
  1.675289e+01    1.693613e+00
  1.678464e+01    1.725291e+00
  1.681639e+01    1.718398e+00
  1.684814e+01    1.662199e+00
  1.687989e+01    1.722854e+00
  1.691164e+01    1.703685e+00
  1.694339e+01    1.646113e+00
  1.697514e+01    1.692586e+00
  1.700690e+01    1.689809e+00
  1.703865e+01    1.673697e+00
  1.707040e+01    1.661620e+00
  1.710215e+01    1.660709e+00
  1.713390e+01    1.642593e+00
  1.716565e+01    1.649653e+00
  1.719740e+01    1.644407e+00
  1.722915e+01    1.641601e+00
  1.726091e+01    1.651012e+00
  1.729266e+01    1.644544e+00
  1.732441e+01    1.639718e+00
  1.735616e+01    1.595701e+00
  1.738791e+01    1.583652e+00
  1.741966e+01    1.563992e+00
  1.745141e+01    1.601934e+00
  1.748316e+01    1.596655e+00
  1.751491e+01    1.595359e+00
  1.754667e+01    1.592758e+00
  1.757842e+01    1.599914e+00
  1.761017e+01    1.577199e+00
  1.764192e+01    1.564866e+00
  1.767367e+01    1.564107e+00
  1.770542e+01    1.556485e+00
  1.773717e+01    1.541153e+00
  1.776892e+01    1.575095e+00
  1.780067e+01    1.504597e+00
  1.783243e+01    1.536613e+00
  1.786418e+01    1.524711e+00
  1.789593e+01    1.540501e+00
  1.792768e+01    1.546171e+00
  1.795943e+01    1.544430e+00
  1.799118e+01    1.535035e+00
  1.802293e+01    1.496919e+00
  1.805468e+01    1.509199e+00
  1.808643e+01    1.485288e+00
  1.811819e+01    1.471831e+00
  1.814994e+01    1.491423e+00
  1.818169e+01    1.484277e+00
  1.821344e+01    1.450144e+00
  1.824519e+01    1.484283e+00
  1.827694e+01    1.451124e+00
  1.830869e+01    1.499434e+00
  1.834044e+01    1.471094e+00
  1.837220e+01    1.478204e+00
  1.840395e+01    1.464916e+00
  1.843570e+01    1.427289e+00
  1.846745e+01    1.472879e+00
  1.849920e+01    1.469564e+00
  1.853095e+01    1.443747e+00
  1.856270e+01    1.444889e+00
  1.859445e+01    1.415308e+00
  1.862620e+01    1.424189e+00
  1.865796e+01    1.434337e+00
  1.868971e+01    1.439428e+00
  1.872146e+01    1.480393e+00
  1.875321e+01    1.392335e+00
  1.878496e+01    1.401277e+00
  1.881671e+01    1.413392e+00
  1.884846e+01    1.412308e+00
  1.888021e+01    1.425415e+00
  1.891196e+01    1.405643e+00
  1.894372e+01    1.381975e+00
  1.897547e+01    1.401480e+00
  1.900722e+01    1.407044e+00
  1.903897e+01    1.399348e+00
  1.907072e+01    1.399659e+00
  1.910247e+01    1.400830e+00
  1.913422e+01    1.396844e+00
  1.916597e+01    1.378498e+00
  1.919773e+01    1.375101e+00
  1.922948e+01    1.382387e+00
  1.926123e+01    1.357099e+00
  1.929298e+01    1.346117e+00
  1.932473e+01    1.354346e+00
  1.935648e+01    1.378689e+00
  1.938823e+01    1.315072e+00
  1.941998e+01    1.348296e+00
  1.945173e+01    1.362433e+00
  1.948349e+01    1.335560e+00
  1.951524e+01    1.343451e+00
  1.954699e+01    1.337409e+00
  1.957874e+01    1.306314e+00
  1.961049e+01    1.315541e+00
  1.964224e+01    1.317079e+00
  1.967399e+01    1.340364e+00
  1.970574e+01    1.328303e+00
  1.973749e+01    1.305481e+00
  1.976925e+01    1.311844e+00
  1.980100e+01    1.318756e+00
  1.983275e+01    1.309771e+00
  1.986450e+01    1.294235e+00
  1.989625e+01    1.321466e+00
  1.992800e+01    1.284752e+00
  1.995975e+01    1.297079e+00
  1.999150e+01    1.295794e+00
  2.002325e+01    1.269634e+00
  2.005501e+01    1.238506e+00
  2.008676e+01    1.272652e+00
  2.011851e+01    1.274459e+00
  2.015026e+01    1.284902e+00
  2.018201e+01    1.287932e+00
  2.021376e+01    1.265367e+00
  2.024551e+01    1.246023e+00
  2.027726e+01    1.266245e+00
  2.030902e+01    1.229031e+00
  2.034077e+01    1.245244e+00
  2.037252e+01    1.253624e+00
  2.040427e+01    1.243826e+00
  2.043602e+01    1.231541e+00
  2.046777e+01    1.247068e+00
  2.049952e+01    1.256518e+00
  2.053127e+01    1.242894e+00
  2.056302e+01    1.269774e+00
  2.059478e+01    1.268404e+00
  2.062653e+01    1.233568e+00
  2.065828e+01    1.203990e+00
  2.069003e+01    1.252848e+00
  2.072178e+01    1.232966e+00
  2.075353e+01    1.264546e+00
  2.078528e+01    1.244027e+00
  2.081703e+01    1.205528e+00
  2.084878e+01    1.239260e+00
  2.088054e+01    1.215814e+00
  2.091229e+01    1.240158e+00
  2.094404e+01    1.214058e+00
  2.097579e+01    1.216462e+00
  2.100754e+01    1.232534e+00
  2.103929e+01    1.226596e+00
  2.107104e+01    1.246989e+00
  2.110279e+01    1.272316e+00
  2.113455e+01    1.233680e+00
  2.116630e+01    1.219700e+00
  2.119805e+01    1.234589e+00
  2.122980e+01    1.261228e+00
  2.126155e+01    1.260666e+00
  2.129330e+01    1.260387e+00
  2.132505e+01    1.263332e+00
  2.135680e+01    1.275529e+00
  2.138855e+01    1.280015e+00
  2.142031e+01    1.315698e+00
  2.145206e+01    1.359642e+00
  2.148381e+01    1.385339e+00
  2.151556e+01    1.455237e+00
  2.154731e+01    1.520062e+00
  2.157906e+01    1.585457e+00
  2.161081e+01    1.732042e+00
  2.164256e+01    1.976045e+00
  2.167431e+01    2.281896e+00
  2.170607e+01    2.768582e+00
  2.173782e+01    3.493428e+00
  2.176957e+01    4.558587e+00
  2.180132e+01    5.863792e+00
  2.183307e+01    7.165295e+00
  2.186482e+01    8.336307e+00
  2.189657e+01    8.953252e+00
  2.192832e+01    8.272807e+00
  2.196007e+01    6.582847e+00
  2.199183e+01    4.922400e+00
  2.202358e+01    3.629488e+00
  2.205533e+01    2.852207e+00
  2.208708e+01    2.358954e+00
  2.211883e+01    1.990293e+00
  2.215058e+01    1.774413e+00
  2.218233e+01    1.613763e+00
  2.221408e+01    1.480368e+00
  2.224584e+01    1.392482e+00
  2.227759e+01    1.374114e+00
  2.230934e+01    1.322683e+00
  2.234109e+01    1.252520e+00
  2.237284e+01    1.257811e+00
  2.240459e+01    1.215275e+00
  2.243634e+01    1.191448e+00
  2.246809e+01    1.173982e+00
  2.249984e+01    1.147945e+00
  2.253160e+01    1.145337e+00
  2.256335e+01    1.137627e+00
  2.259510e+01    1.117427e+00
  2.262685e+01    1.119365e+00
  2.265860e+01    1.091236e+00
  2.269035e+01    1.047788e+00
  2.272210e+01    1.072694e+00
  2.275385e+01    1.060918e+00
  2.278560e+01    1.059402e+00
  2.281736e+01    1.039324e+00
  2.284911e+01    1.042887e+00
  2.288086e+01    1.043163e+00
  2.291261e+01    1.037459e+00
  2.294436e+01    1.010503e+00
  2.297611e+01    1.028243e+00
  2.300786e+01    1.019944e+00
  2.303961e+01    1.015508e+00
  2.307137e+01    1.012932e+00
  2.310312e+01    9.977165e-01
  2.313487e+01    1.016500e+00
  2.316662e+01    1.005567e+00
  2.319837e+01    1.006114e+00
  2.323012e+01    1.005329e+00
  2.326187e+01    9.761907e-01
  2.329362e+01    1.005616e+00
  2.332537e+01    9.819997e-01
  2.335713e+01    9.765838e-01
  2.338888e+01    9.670008e-01
  2.342063e+01    9.822068e-01
  2.345238e+01    9.828482e-01
  2.348413e+01    9.559721e-01
  2.351588e+01    9.773394e-01
  2.354763e+01    9.785534e-01
  2.357938e+01    9.564110e-01
  2.361113e+01    9.687921e-01
  2.364289e+01    9.682129e-01
  2.367464e+01    9.499788e-01
  2.370639e+01    9.389820e-01
  2.373814e+01    9.530441e-01
  2.376989e+01    9.373587e-01
  2.380164e+01    9.345694e-01
  2.383339e+01    9.320198e-01
  2.386514e+01    9.225548e-01
  2.389689e+01    9.134699e-01
  2.392865e+01    9.150906e-01
  2.396040e+01    8.923591e-01
  2.399215e+01    9.143412e-01
  2.402390e+01    8.917635e-01
  2.405565e+01    9.265543e-01
  2.408740e+01    8.721329e-01
  2.411915e+01    9.014738e-01
  2.415090e+01    8.815635e-01
  2.418266e+01    8.827367e-01
  2.421441e+01    9.055195e-01
  2.424616e+01    8.859422e-01
  2.427791e+01    9.027945e-01
  2.430966e+01    8.924251e-01
  2.434141e+01    8.905360e-01
  2.437316e+01    8.908020e-01
  2.440491e+01    8.956478e-01
  2.443666e+01    8.995293e-01
  2.446842e+01    8.718163e-01
  2.450017e+01    8.978643e-01
  2.453192e+01    8.989784e-01
  2.456367e+01    8.701724e-01
  2.459542e+01    9.052320e-01
  2.462717e+01    8.942715e-01
  2.465892e+01    8.904495e-01
  2.469067e+01    9.087104e-01
  2.472242e+01    8.992850e-01
  2.475418e+01    8.800133e-01
  2.478593e+01    9.020941e-01
  2.481768e+01    9.005938e-01
  2.484943e+01    8.959051e-01
  2.488118e+01    8.897538e-01
  2.491293e+01    8.968694e-01
  2.494468e+01    9.047991e-01
  2.497643e+01    8.965263e-01
  2.500819e+01    8.983056e-01
  2.503994e+01    9.122285e-01
  2.507169e+01    9.060642e-01
  2.510344e+01    9.223999e-01
  2.513519e+01    9.332121e-01
  2.516694e+01    9.199647e-01
  2.519869e+01    9.084224e-01
  2.523044e+01    9.165221e-01
  2.526219e+01    9.405679e-01
  2.529395e+01    9.333521e-01
  2.532570e+01    9.551996e-01
  2.535745e+01    9.644953e-01
  2.538920e+01    9.878317e-01
  2.542095e+01    1.006931e+00
  2.545270e+01    1.036907e+00
  2.548445e+01    1.040486e+00
  2.551620e+01    1.065283e+00
  2.554795e+01    1.120343e+00
  2.557971e+01    1.164687e+00
  2.561146e+01    1.208448e+00
  2.564321e+01    1.317432e+00
  2.567496e+01    1.425078e+00
  2.570671e+01    1.590387e+00
  2.573846e+01    1.852253e+00
  2.577021e+01    2.246268e+00
  2.580196e+01    2.797880e+00
  2.583371e+01    3.627108e+00
  2.586547e+01    4.628494e+00
  2.589722e+01    5.829891e+00
  2.592897e+01    6.815647e+00
  2.596072e+01    7.102422e+00
  2.599247e+01    6.602285e+00
  2.602422e+01    5.312386e+00
  2.605597e+01    4.011762e+00
  2.608772e+01    3.032185e+00
  2.611948e+01    2.377255e+00
  2.615123e+01    1.945046e+00
  2.618298e+01    1.688098e+00
  2.621473e+01    1.496749e+00
  2.624648e+01    1.340973e+00
  2.627823e+01    1.277347e+00
  2.630998e+01    1.185036e+00
  2.634173e+01    1.129450e+00
  2.637348e+01    1.092642e+00
  2.640524e+01    1.073154e+00
  2.643699e+01    1.022990e+00
  2.646874e+01    1.003536e+00
  2.650049e+01    9.988582e-01
  2.653224e+01    1.011944e+00
  2.656399e+01    9.946610e-01
  2.659574e+01    9.844466e-01
  2.662749e+01    9.747463e-01
  2.665924e+01    9.701408e-01
  2.669100e+01    9.657992e-01
  2.672275e+01    9.413261e-01
  2.675450e+01    9.597929e-01
  2.678625e+01    9.936211e-01
  2.681800e+01    9.655219e-01
  2.684975e+01    9.875510e-01
  2.688150e+01    9.907688e-01
  2.691325e+01    9.987082e-01
  2.694501e+01    1.025575e+00
  2.697676e+01    1.041637e+00
  2.700851e+01    1.111630e+00
  2.704026e+01    1.207692e+00
  2.707201e+01    1.307867e+00
  2.710376e+01    1.469605e+00
  2.713551e+01    1.715060e+00
  2.716726e+01    1.959169e+00
  2.719901e+01    2.143400e+00
  2.723077e+01    2.158196e+00
  2.726252e+01    2.003701e+00
  2.729427e+01    1.699924e+00
  2.732602e+01    1.465899e+00
  2.735777e+01    1.282976e+00
  2.738952e+01    1.183978e+00
  2.742127e+01    1.092325e+00
  2.745302e+01    1.034335e+00
  2.748477e+01    1.012979e+00
  2.751653e+01    9.793472e-01
  2.754828e+01    9.683951e-01
  2.758003e+01    9.369825e-01
  2.761178e+01    9.313774e-01
  2.764353e+01    9.169759e-01
  2.767528e+01    9.131285e-01
  2.770703e+01    9.130713e-01
  2.773878e+01    9.098834e-01
  2.777054e+01    9.041929e-01
  2.780229e+01    8.942984e-01
  2.783404e+01    8.926379e-01
  2.786579e+01    8.903568e-01
  2.789754e+01    8.793885e-01
  2.792929e+01    8.762127e-01
  2.796104e+01    8.620607e-01
  2.799279e+01    8.767508e-01
  2.802454e+01    8.680625e-01
  2.805630e+01    8.652071e-01
  2.808805e+01    8.851840e-01
  2.811980e+01    8.766128e-01
  2.815155e+01    8.370771e-01
  2.818330e+01    8.434869e-01
  2.821505e+01    8.519440e-01
  2.824680e+01    8.610331e-01
  2.827855e+01    8.369631e-01
  2.831030e+01    8.643574e-01
  2.834206e+01    8.463283e-01
  2.837381e+01    8.556405e-01
  2.840556e+01    8.623102e-01
  2.843731e+01    8.384014e-01
  2.846906e+01    8.585586e-01
  2.850081e+01    8.391532e-01
  2.853256e+01    8.438188e-01
  2.856431e+01    8.597406e-01
  2.859606e+01    8.385741e-01
  2.862782e+01    8.382004e-01
  2.865957e+01    8.424480e-01
  2.869132e+01    8.262885e-01
  2.872307e+01    8.509005e-01
  2.875482e+01    8.389300e-01
  2.878657e+01    8.300749e-01
  2.881832e+01    8.280166e-01
  2.885007e+01    8.166202e-01
  2.888183e+01    8.282844e-01
  2.891358e+01    8.117474e-01
  2.894533e+01    8.328048e-01
  2.897708e+01    8.244893e-01
  2.900883e+01    8.103542e-01
  2.904058e+01    8.246760e-01
  2.907233e+01    8.127932e-01
  2.910408e+01    8.176818e-01
  2.913583e+01    8.208945e-01
  2.916759e+01    8.018563e-01
  2.919934e+01    7.989264e-01
  2.923109e+01    8.073193e-01
  2.926284e+01    8.152534e-01
  2.929459e+01    7.946053e-01
  2.932634e+01    7.995509e-01
  2.935809e+01    8.204678e-01
  2.938984e+01    7.803838e-01
  2.942159e+01    7.991882e-01
  2.945335e+01    8.097660e-01
  2.948510e+01    8.132560e-01
  2.951685e+01    8.347549e-01
  2.954860e+01    8.057930e-01
  2.958035e+01    8.026152e-01
  2.961210e+01    7.865490e-01
  2.964385e+01    7.951322e-01
  2.967560e+01    8.054588e-01
  2.970736e+01    7.994773e-01
  2.973911e+01    8.023586e-01
  2.977086e+01    8.059710e-01
  2.980261e+01    7.947007e-01
  2.983436e+01    7.998868e-01
  2.986611e+01    7.986989e-01
  2.989786e+01    7.903972e-01
  2.992961e+01    8.119876e-01
  2.996136e+01    7.916246e-01
  2.999312e+01    8.065696e-01
  3.002487e+01    8.167909e-01
  3.005662e+01    8.094976e-01
  3.008837e+01    7.878619e-01
  3.012012e+01    8.063518e-01
  3.015187e+01    8.004149e-01
  3.018362e+01    7.771953e-01
  3.021537e+01    7.876953e-01
  3.024712e+01    7.746487e-01
  3.027888e+01    7.865582e-01
  3.031063e+01    8.035741e-01
  3.034238e+01    7.783155e-01
  3.037413e+01    8.046142e-01
  3.040588e+01    7.893768e-01
  3.043763e+01    7.774428e-01
  3.046938e+01    7.662303e-01
  3.050113e+01    7.689140e-01
  3.053288e+01    7.905331e-01
  3.056464e+01    7.818566e-01
  3.059639e+01    7.834804e-01
  3.062814e+01    7.739358e-01
  3.065989e+01    7.597676e-01
  3.069164e+01    7.934631e-01
  3.072339e+01    7.718942e-01
  3.075514e+01    7.870544e-01
  3.078689e+01    7.899607e-01
  3.081865e+01    7.693119e-01
  3.085040e+01    7.791625e-01
  3.088215e+01    7.813600e-01
  3.091390e+01    7.875755e-01
  3.094565e+01    7.835254e-01
  3.097740e+01    8.042532e-01
  3.100915e+01    7.853710e-01
  3.104090e+01    7.847055e-01
  3.107265e+01    7.835322e-01
  3.110441e+01    7.954971e-01
  3.113616e+01    7.937925e-01
  3.116791e+01    7.901042e-01
  3.119966e+01    7.809742e-01
  3.123141e+01    8.152673e-01
  3.126316e+01    8.194053e-01
  3.129491e+01    7.998157e-01
  3.132666e+01    8.072780e-01
  3.135841e+01    7.906402e-01
  3.139017e+01    8.051121e-01
  3.142192e+01    8.095069e-01
  3.145367e+01    7.996201e-01
  3.148542e+01    8.042361e-01
  3.151717e+01    8.468953e-01
  3.154892e+01    8.428650e-01
  3.158067e+01    8.858948e-01
  3.161242e+01    9.009545e-01
  3.164418e+01    9.084508e-01
  3.167593e+01    9.687600e-01
  3.170768e+01    1.039465e+00
  3.173943e+01    1.101269e+00
  3.177118e+01    1.248852e+00
  3.180293e+01    1.458319e+00
  3.183468e+01    1.679195e+00
  3.186643e+01    1.938000e+00
  3.189818e+01    2.070911e+00
  3.192994e+01    2.053547e+00
  3.196169e+01    1.841897e+00
  3.199344e+01    1.542612e+00
  3.202519e+01    1.332118e+00
  3.205694e+01    1.169863e+00
  3.208869e+01    1.063387e+00
  3.212044e+01    9.804872e-01
  3.215219e+01    9.194306e-01
  3.218394e+01    8.984258e-01
  3.221570e+01    8.540829e-01
  3.224745e+01    8.119877e-01
  3.227920e+01    8.338370e-01
  3.231095e+01    8.270425e-01
  3.234270e+01    7.991794e-01
  3.237445e+01    7.913833e-01
  3.240620e+01    7.721084e-01
  3.243795e+01    7.705237e-01
  3.246970e+01    7.965747e-01
  3.250146e+01    8.066478e-01
  3.253321e+01    7.782195e-01
  3.254908e+01    7.761285e-01