File: XRD/Reaction conditions/2024-07-27_003_Ru-CGO-ex_Reaction_dwell_000023_data_000122.dat
# == pyFAI calibration ==
# Distance Sample to Detector: 0.4 m
# PONI: 9.750e-02, 1.135e-01 m
# Rotations: -0.000175 0.000000 -0.000000 rad
#
# == Fit2d calibration ==
# Distance Sample-beamCenter: 400.000 mm
# Center: x=1514.000, y=1300.000 pix
# Tilt: 0.010 deg  TiltPlanRot: 0.010 deg
#
# Detector Detector	 Spline= None	 PixelSize= 7.500e-05, 7.500e-05 m
#    Detector has a mask: False
#    Detector has a dark current: False
#    detector has a flat field: False
#
# Wavelength: 6.888e-11 m
# Mask applied: user provided
# Dark current applied: False
# Flat field applied: False
# Polarization factor: 0.99
# Normalization factor: 1.0
# --> /home/myspot/data/2024_07_Rosario/Ru-CGO-ex/2024-07-27_003_Ru-CGO-ex_Reaction_dwell_000023_data_000122.dat
#       q_nm^-1             I
  2.003187e-02    3.412363e-01
  5.178302e-02    3.822055e-02
  8.353417e-02    4.263481e-02
  1.152853e-01    2.774768e-02
  1.470365e-01    7.785992e-04
  1.787876e-01    3.018425e-02
  2.105388e-01    3.871210e-02
  2.422899e-01    3.952050e-02
  2.740411e-01    5.021735e-02
  3.057922e-01    6.237812e-02
  3.375433e-01    3.337280e-02
  3.692945e-01    5.126067e-02
  4.010456e-01    7.422373e-02
  4.327968e-01    1.967468e-02
  4.645479e-01    2.635274e-02
  4.962991e-01    2.246552e-02
  5.280502e-01    2.196717e-02
  5.598014e-01    2.961190e-02
  5.915525e-01    4.509046e-02
  6.233037e-01    4.997434e-02
  6.550548e-01    4.290667e-02
  6.868060e-01    4.494018e-02
  7.185571e-01    4.524622e-02
  7.503083e-01    5.950041e-02
  7.820594e-01    1.343714e-01
  8.138106e-01    2.246378e-01
  8.455617e-01    3.849542e-01
  8.773129e-01    4.942074e-01
  9.090640e-01    5.912964e-01
  9.408152e-01    8.282910e-01
  9.725663e-01    9.374138e-01
  1.004317e+00    1.076252e+00
  1.036069e+00    1.355982e+00
  1.067820e+00    1.530277e+00
  1.099571e+00    1.548605e+00
  1.131322e+00    1.592852e+00
  1.163073e+00    1.678295e+00
  1.194824e+00    1.748143e+00
  1.226575e+00    2.250708e+00
  1.258327e+00    2.470526e+00
  1.290078e+00    2.557487e+00
  1.321829e+00    2.620017e+00
  1.353580e+00    2.646944e+00
  1.385331e+00    2.940510e+00
  1.417082e+00    2.858510e+00
  1.448834e+00    3.026102e+00
  1.480585e+00    3.058380e+00
  1.512336e+00    3.025858e+00
  1.544087e+00    3.252333e+00
  1.575838e+00    3.193891e+00
  1.607589e+00    3.202359e+00
  1.639340e+00    3.159657e+00
  1.671092e+00    3.075322e+00
  1.702843e+00    3.120736e+00
  1.734594e+00    3.046319e+00
  1.766345e+00    3.017958e+00
  1.798096e+00    3.029825e+00
  1.829847e+00    3.042471e+00
  1.861598e+00    3.039675e+00
  1.893350e+00    3.028745e+00
  1.925101e+00    3.100598e+00
  1.956852e+00    3.018332e+00
  1.988603e+00    3.088475e+00
  2.020354e+00    3.184612e+00
  2.052105e+00    3.107973e+00
  2.083856e+00    3.181970e+00
  2.115608e+00    3.111144e+00
  2.147359e+00    3.057764e+00
  2.179110e+00    3.169597e+00
  2.210861e+00    3.058714e+00
  2.242612e+00    3.105247e+00
  2.274363e+00    3.171611e+00
  2.306115e+00    3.223237e+00
  2.337866e+00    3.125753e+00
  2.369617e+00    3.154804e+00
  2.401368e+00    3.182853e+00
  2.433119e+00    3.140563e+00
  2.464870e+00    3.188289e+00
  2.496621e+00    3.186325e+00
  2.528373e+00    3.234838e+00
  2.560124e+00    3.203917e+00
  2.591875e+00    3.188578e+00
  2.623626e+00    3.216566e+00
  2.655377e+00    3.221162e+00
  2.687128e+00    3.187489e+00
  2.718879e+00    3.302738e+00
  2.750631e+00    3.126401e+00
  2.782382e+00    3.247149e+00
  2.814133e+00    3.254642e+00
  2.845884e+00    3.186862e+00
  2.877635e+00    3.309221e+00
  2.909386e+00    3.277208e+00
  2.941137e+00    3.308038e+00
  2.972889e+00    3.378109e+00
  3.004640e+00    3.381339e+00
  3.036391e+00    3.305439e+00
  3.068142e+00    3.421257e+00
  3.099893e+00    3.296174e+00
  3.131644e+00    3.393921e+00
  3.163395e+00    3.426740e+00
  3.195147e+00    3.413520e+00
  3.226898e+00    3.393282e+00
  3.258649e+00    3.395752e+00
  3.290400e+00    3.328230e+00
  3.322151e+00    3.431370e+00
  3.353902e+00    3.512063e+00
  3.385654e+00    3.394681e+00
  3.417405e+00    3.491753e+00
  3.449156e+00    3.429156e+00
  3.480907e+00    3.425942e+00
  3.512658e+00    3.465877e+00
  3.544409e+00    3.524302e+00
  3.576160e+00    3.460551e+00
  3.607912e+00    3.446406e+00
  3.639663e+00    3.478081e+00
  3.671414e+00    3.490446e+00
  3.703165e+00    3.487888e+00
  3.734916e+00    3.363019e+00
  3.766667e+00    3.450971e+00
  3.798418e+00    3.378815e+00
  3.830170e+00    3.529839e+00
  3.861921e+00    3.488798e+00
  3.893672e+00    3.495970e+00
  3.925423e+00    3.437195e+00
  3.957174e+00    3.483581e+00
  3.988925e+00    3.554328e+00
  4.020676e+00    3.506927e+00
  4.052428e+00    3.508171e+00
  4.084179e+00    3.506362e+00
  4.115930e+00    3.613246e+00
  4.147681e+00    3.426961e+00
  4.179432e+00    3.527248e+00
  4.211183e+00    3.508060e+00
  4.242935e+00    3.615817e+00
  4.274686e+00    3.613330e+00
  4.306437e+00    3.553474e+00
  4.338188e+00    3.534667e+00
  4.369939e+00    3.598301e+00
  4.401690e+00    3.559403e+00
  4.433441e+00    3.657358e+00
  4.465193e+00    3.637316e+00
  4.496944e+00    3.624499e+00
  4.528695e+00    3.709159e+00
  4.560446e+00    3.542853e+00
  4.592197e+00    3.600422e+00
  4.623948e+00    3.575257e+00
  4.655699e+00    3.597571e+00
  4.687451e+00    3.685590e+00
  4.719202e+00    3.601270e+00
  4.750953e+00    3.582951e+00
  4.782704e+00    3.566832e+00
  4.814455e+00    3.633121e+00
  4.846206e+00    3.669335e+00
  4.877957e+00    3.587638e+00
  4.909709e+00    3.661794e+00
  4.941460e+00    3.679527e+00
  4.973211e+00    3.612281e+00
  5.004962e+00    3.617989e+00
  5.036713e+00    3.591563e+00
  5.068464e+00    3.652534e+00
  5.100216e+00    3.684036e+00
  5.131967e+00    3.663079e+00
  5.163718e+00    3.663831e+00
  5.195469e+00    3.568146e+00
  5.227220e+00    3.718058e+00
  5.258971e+00    3.656335e+00
  5.290722e+00    3.567119e+00
  5.322474e+00    3.649468e+00
  5.354225e+00    3.700318e+00
  5.385976e+00    3.619241e+00
  5.417727e+00    3.685558e+00
  5.449478e+00    3.555665e+00
  5.481229e+00    3.557344e+00
  5.512980e+00    3.520287e+00
  5.544732e+00    3.635054e+00
  5.576483e+00    3.511628e+00
  5.608234e+00    3.544742e+00
  5.639985e+00    3.556651e+00
  5.671736e+00    3.639342e+00
  5.703487e+00    3.653943e+00
  5.735238e+00    3.518769e+00
  5.766990e+00    3.580436e+00
  5.798741e+00    3.469179e+00
  5.830492e+00    3.550212e+00
  5.862243e+00    3.541257e+00
  5.893994e+00    3.613861e+00
  5.925745e+00    3.559108e+00
  5.957497e+00    3.530701e+00
  5.989248e+00    3.454218e+00
  6.020999e+00    3.511336e+00
  6.052750e+00    3.505685e+00
  6.084501e+00    3.646354e+00
  6.116252e+00    3.560759e+00
  6.148003e+00    3.618022e+00
  6.179755e+00    3.565394e+00
  6.211506e+00    3.577495e+00
  6.243257e+00    3.490119e+00
  6.275008e+00    3.591122e+00
  6.306759e+00    3.583676e+00
  6.338510e+00    3.541732e+00
  6.370261e+00    3.515717e+00
  6.402013e+00    3.552159e+00
  6.433764e+00    3.581980e+00
  6.465515e+00    3.616687e+00
  6.497266e+00    3.523610e+00
  6.529017e+00    3.612786e+00
  6.560768e+00    3.492300e+00
  6.592519e+00    3.574389e+00
  6.624271e+00    3.570083e+00
  6.656022e+00    3.562787e+00
  6.687773e+00    3.551398e+00
  6.719524e+00    3.530240e+00
  6.751275e+00    3.528641e+00
  6.783026e+00    3.585315e+00
  6.814777e+00    3.526509e+00
  6.846529e+00    3.511343e+00
  6.878280e+00    3.517867e+00
  6.910031e+00    3.555426e+00
  6.941782e+00    3.559048e+00
  6.973533e+00    3.570938e+00
  7.005284e+00    3.590029e+00
  7.037036e+00    3.505716e+00
  7.068787e+00    3.569952e+00
  7.100538e+00    3.535515e+00
  7.132289e+00    3.510234e+00
  7.164040e+00    3.571770e+00
  7.195791e+00    3.474383e+00
  7.227542e+00    3.514413e+00
  7.259294e+00    3.507639e+00
  7.291045e+00    3.536690e+00
  7.322796e+00    3.501955e+00
  7.354547e+00    3.474225e+00
  7.386298e+00    3.437294e+00
  7.418049e+00    3.542062e+00
  7.449800e+00    3.436746e+00
  7.481552e+00    3.543707e+00
  7.513303e+00    3.525630e+00
  7.545054e+00    3.436347e+00
  7.576805e+00    3.442715e+00
  7.608556e+00    3.448245e+00
  7.640307e+00    3.510582e+00
  7.672058e+00    3.476462e+00
  7.703810e+00    3.430703e+00
  7.735561e+00    3.415962e+00
  7.767312e+00    3.474881e+00
  7.799063e+00    3.421943e+00
  7.830814e+00    3.428335e+00
  7.862565e+00    3.498666e+00
  7.894317e+00    3.380200e+00
  7.926068e+00    3.406897e+00
  7.957819e+00    3.393669e+00
  7.989570e+00    3.373500e+00
  8.021321e+00    3.387039e+00
  8.053072e+00    3.413493e+00
  8.084823e+00    3.413800e+00
  8.116575e+00    3.420365e+00
  8.148326e+00    3.466547e+00
  8.180077e+00    3.499365e+00
  8.211828e+00    3.392745e+00
  8.243579e+00    3.498549e+00
  8.275330e+00    3.431266e+00
  8.307081e+00    3.479379e+00
  8.338833e+00    3.339790e+00
  8.370584e+00    3.441058e+00
  8.402335e+00    3.394682e+00
  8.434086e+00    3.351539e+00
  8.465837e+00    3.405053e+00
  8.497588e+00    3.407243e+00
  8.529339e+00    3.278262e+00
  8.561091e+00    3.355066e+00
  8.592842e+00    3.400559e+00
  8.624593e+00    3.354301e+00
  8.656344e+00    3.358841e+00
  8.688095e+00    3.362423e+00
  8.719846e+00    3.380436e+00
  8.751598e+00    3.340257e+00
  8.783349e+00    3.281212e+00
  8.815100e+00    3.343056e+00
  8.846851e+00    3.341620e+00
  8.878602e+00    3.350737e+00
  8.910353e+00    3.326868e+00
  8.942104e+00    3.337635e+00
  8.973856e+00    3.285011e+00
  9.005607e+00    3.263426e+00
  9.037358e+00    3.278862e+00
  9.069109e+00    3.256569e+00
  9.100860e+00    3.337043e+00
  9.132611e+00    3.269052e+00
  9.164362e+00    3.256999e+00
  9.196114e+00    3.244056e+00
  9.227865e+00    3.313770e+00
  9.259616e+00    3.248538e+00
  9.291367e+00    3.258645e+00
  9.323118e+00    3.267784e+00
  9.354869e+00    3.250142e+00
  9.386620e+00    3.189838e+00
  9.418372e+00    3.213566e+00
  9.450123e+00    3.170382e+00
  9.481874e+00    3.249053e+00
  9.513625e+00    3.250830e+00
  9.545376e+00    3.185036e+00
  9.577127e+00    3.196133e+00
  9.608878e+00    3.236688e+00
  9.640630e+00    3.218300e+00
  9.672381e+00    3.140968e+00
  9.704132e+00    3.182727e+00
  9.735883e+00    3.250933e+00
  9.767634e+00    3.166912e+00
  9.799385e+00    3.186380e+00
  9.831137e+00    3.092294e+00
  9.862888e+00    3.141417e+00
  9.894639e+00    3.178750e+00
  9.926390e+00    3.123720e+00
  9.958141e+00    3.175864e+00
  9.989892e+00    3.139141e+00
  1.002164e+01    3.069873e+00
  1.005339e+01    3.132445e+00
  1.008515e+01    3.102721e+00
  1.011690e+01    3.072345e+00
  1.014865e+01    3.040978e+00
  1.018040e+01    3.057329e+00
  1.021215e+01    3.084349e+00
  1.024390e+01    3.101705e+00
  1.027565e+01    3.134497e+00
  1.030740e+01    3.074342e+00
  1.033915e+01    3.057023e+00
  1.037091e+01    3.033777e+00
  1.040266e+01    3.024917e+00
  1.043441e+01    3.019073e+00
  1.046616e+01    3.060028e+00
  1.049791e+01    2.982584e+00
  1.052966e+01    3.029198e+00
  1.056141e+01    3.004927e+00
  1.059316e+01    2.976986e+00
  1.062492e+01    2.971890e+00
  1.065667e+01    3.028154e+00
  1.068842e+01    2.975642e+00
  1.072017e+01    2.993306e+00
  1.075192e+01    2.946980e+00
  1.078367e+01    2.973994e+00
  1.081542e+01    2.922949e+00
  1.084717e+01    2.927617e+00
  1.087892e+01    2.979192e+00
  1.091068e+01    2.938059e+00
  1.094243e+01    2.930933e+00
  1.097418e+01    2.905550e+00
  1.100593e+01    2.891359e+00
  1.103768e+01    2.924634e+00
  1.106943e+01    2.909023e+00
  1.110118e+01    2.911546e+00
  1.113293e+01    2.883657e+00
  1.116468e+01    2.868876e+00
  1.119644e+01    2.823192e+00
  1.122819e+01    2.827996e+00
  1.125994e+01    2.814007e+00
  1.129169e+01    2.829709e+00
  1.132344e+01    2.849429e+00
  1.135519e+01    2.792746e+00
  1.138694e+01    2.795751e+00
  1.141869e+01    2.836882e+00
  1.145045e+01    2.785625e+00
  1.148220e+01    2.784853e+00
  1.151395e+01    2.780431e+00
  1.154570e+01    2.833988e+00
  1.157745e+01    2.750147e+00
  1.160920e+01    2.746462e+00
  1.164095e+01    2.784032e+00
  1.167270e+01    2.710544e+00
  1.170445e+01    2.760260e+00
  1.173621e+01    2.717192e+00
  1.176796e+01    2.771853e+00
  1.179971e+01    2.731481e+00
  1.183146e+01    2.729524e+00
  1.186321e+01    2.720879e+00
  1.189496e+01    2.699682e+00
  1.192671e+01    2.713854e+00
  1.195846e+01    2.719886e+00
  1.199021e+01    2.678716e+00
  1.202197e+01    2.683878e+00
  1.205372e+01    2.685563e+00
  1.208547e+01    2.650654e+00
  1.211722e+01    2.698925e+00
  1.214897e+01    2.725538e+00
  1.218072e+01    2.687670e+00
  1.221247e+01    2.699749e+00
  1.224422e+01    2.701372e+00
  1.227597e+01    2.733517e+00
  1.230773e+01    2.704063e+00
  1.233948e+01    2.714115e+00
  1.237123e+01    2.715871e+00
  1.240298e+01    2.721169e+00
  1.243473e+01    2.648661e+00
  1.246648e+01    2.712651e+00
  1.249823e+01    2.721148e+00
  1.252998e+01    2.755647e+00
  1.256174e+01    2.702633e+00
  1.259349e+01    2.789891e+00
  1.262524e+01    2.772074e+00
  1.265699e+01    2.769599e+00
  1.268874e+01    2.810232e+00
  1.272049e+01    2.881512e+00
  1.275224e+01    2.913223e+00
  1.278399e+01    2.964426e+00
  1.281574e+01    3.071140e+00
  1.284750e+01    3.175574e+00
  1.287925e+01    3.308391e+00
  1.291100e+01    3.706041e+00
  1.294275e+01    4.112677e+00
  1.297450e+01    4.824337e+00
  1.300625e+01    5.939695e+00
  1.303800e+01    7.669547e+00
  1.306975e+01    1.017088e+01
  1.310150e+01    1.260418e+01
  1.313326e+01    1.482816e+01
  1.316501e+01    1.624095e+01
  1.319676e+01    1.565748e+01
  1.322851e+01    1.251868e+01
  1.326026e+01    9.152920e+00
  1.329201e+01    6.768964e+00
  1.332376e+01    5.322588e+00
  1.335551e+01    4.456545e+00
  1.338727e+01    3.891310e+00
  1.341902e+01    3.550513e+00
  1.345077e+01    3.245279e+00
  1.348252e+01    3.040100e+00
  1.351427e+01    2.930092e+00
  1.354602e+01    2.815748e+00
  1.357777e+01    2.738132e+00
  1.360952e+01    2.650397e+00
  1.364127e+01    2.631040e+00
  1.367303e+01    2.589321e+00
  1.370478e+01    2.528441e+00
  1.373653e+01    2.528194e+00
  1.376828e+01    2.493828e+00
  1.380003e+01    2.449981e+00
  1.383178e+01    2.485410e+00
  1.386353e+01    2.459856e+00
  1.389528e+01    2.385451e+00
  1.392703e+01    2.346963e+00
  1.395879e+01    2.373517e+00
  1.399054e+01    2.370173e+00
  1.402229e+01    2.360130e+00
  1.405404e+01    2.338927e+00
  1.408579e+01    2.329186e+00
  1.411754e+01    2.356558e+00
  1.414929e+01    2.291307e+00
  1.418104e+01    2.301890e+00
  1.421279e+01    2.323726e+00
  1.424455e+01    2.250256e+00
  1.427630e+01    2.270913e+00
  1.430805e+01    2.289197e+00
  1.433980e+01    2.261804e+00
  1.437155e+01    2.248661e+00
  1.440330e+01    2.251405e+00
  1.443505e+01    2.238936e+00
  1.446680e+01    2.237391e+00
  1.449856e+01    2.234314e+00
  1.453031e+01    2.189570e+00
  1.456206e+01    2.244415e+00
  1.459381e+01    2.235922e+00
  1.462556e+01    2.169733e+00
  1.465731e+01    2.196176e+00
  1.468906e+01    2.230810e+00
  1.472081e+01    2.201349e+00
  1.475256e+01    2.206711e+00
  1.478432e+01    2.206548e+00
  1.481607e+01    2.214365e+00
  1.484782e+01    2.239497e+00
  1.487957e+01    2.224714e+00
  1.491132e+01    2.230054e+00
  1.494307e+01    2.290578e+00
  1.497482e+01    2.378880e+00
  1.500657e+01    2.413585e+00
  1.503832e+01    2.597177e+00
  1.507008e+01    2.802985e+00
  1.510183e+01    3.243939e+00
  1.513358e+01    3.841550e+00
  1.516533e+01    4.511756e+00
  1.519708e+01    5.170091e+00
  1.522883e+01    5.571940e+00
  1.526058e+01    5.794268e+00
  1.529233e+01    5.475062e+00
  1.532409e+01    4.639873e+00
  1.535584e+01    3.760834e+00
  1.538759e+01    3.167683e+00
  1.541934e+01    2.784095e+00
  1.545109e+01    2.502020e+00
  1.548284e+01    2.349360e+00
  1.551459e+01    2.285281e+00
  1.554634e+01    2.167530e+00
  1.557809e+01    2.135807e+00
  1.560985e+01    2.069087e+00
  1.564160e+01    2.049874e+00
  1.567335e+01    2.038294e+00
  1.570510e+01    1.999191e+00
  1.573685e+01    1.976452e+00
  1.576860e+01    1.988451e+00
  1.580035e+01    1.948351e+00
  1.583210e+01    1.942112e+00
  1.586385e+01    1.908049e+00
  1.589561e+01    1.942026e+00
  1.592736e+01    1.919498e+00
  1.595911e+01    1.896828e+00
  1.599086e+01    1.871189e+00
  1.602261e+01    1.916029e+00
  1.605436e+01    1.875485e+00
  1.608611e+01    1.875234e+00
  1.611786e+01    1.836450e+00
  1.614961e+01    1.814419e+00
  1.618137e+01    1.831657e+00
  1.621312e+01    1.835855e+00
  1.624487e+01    1.797604e+00
  1.627662e+01    1.810934e+00
  1.630837e+01    1.805866e+00
  1.634012e+01    1.789981e+00
  1.637187e+01    1.741131e+00
  1.640362e+01    1.780628e+00
  1.643538e+01    1.793060e+00
  1.646713e+01    1.784817e+00
  1.649888e+01    1.745647e+00
  1.653063e+01    1.735500e+00
  1.656238e+01    1.747728e+00
  1.659413e+01    1.738781e+00
  1.662588e+01    1.732281e+00
  1.665763e+01    1.754053e+00
  1.668938e+01    1.735165e+00
  1.672114e+01    1.738590e+00
  1.675289e+01    1.692838e+00
  1.678464e+01    1.689837e+00
  1.681639e+01    1.695943e+00
  1.684814e+01    1.682739e+00
  1.687989e+01    1.719712e+00
  1.691164e+01    1.717782e+00
  1.694339e+01    1.674461e+00
  1.697514e+01    1.674579e+00
  1.700690e+01    1.692900e+00
  1.703865e+01    1.663918e+00
  1.707040e+01    1.675035e+00
  1.710215e+01    1.658276e+00
  1.713390e+01    1.652055e+00
  1.716565e+01    1.621369e+00
  1.719740e+01    1.635805e+00
  1.722915e+01    1.620347e+00
  1.726091e+01    1.618178e+00
  1.729266e+01    1.609842e+00
  1.732441e+01    1.619732e+00
  1.735616e+01    1.625708e+00
  1.738791e+01    1.595042e+00
  1.741966e+01    1.564909e+00
  1.745141e+01    1.610445e+00
  1.748316e+01    1.577899e+00
  1.751491e+01    1.584040e+00
  1.754667e+01    1.583762e+00
  1.757842e+01    1.613924e+00
  1.761017e+01    1.581678e+00
  1.764192e+01    1.561143e+00
  1.767367e+01    1.543599e+00
  1.770542e+01    1.552661e+00
  1.773717e+01    1.558143e+00
  1.776892e+01    1.549633e+00
  1.780067e+01    1.541766e+00
  1.783243e+01    1.520628e+00
  1.786418e+01    1.538855e+00
  1.789593e+01    1.528107e+00
  1.792768e+01    1.532080e+00
  1.795943e+01    1.512260e+00
  1.799118e+01    1.510300e+00
  1.802293e+01    1.514889e+00
  1.805468e+01    1.504765e+00
  1.808643e+01    1.502713e+00
  1.811819e+01    1.497494e+00
  1.814994e+01    1.506196e+00
  1.818169e+01    1.492269e+00
  1.821344e+01    1.520534e+00
  1.824519e+01    1.464811e+00
  1.827694e+01    1.494450e+00
  1.830869e+01    1.417866e+00
  1.834044e+01    1.441672e+00
  1.837220e+01    1.454385e+00
  1.840395e+01    1.471909e+00
  1.843570e+01    1.445889e+00
  1.846745e+01    1.437909e+00
  1.849920e+01    1.424273e+00
  1.853095e+01    1.400258e+00
  1.856270e+01    1.447797e+00
  1.859445e+01    1.441068e+00
  1.862620e+01    1.415950e+00
  1.865796e+01    1.427880e+00
  1.868971e+01    1.461565e+00
  1.872146e+01    1.450289e+00
  1.875321e+01    1.394267e+00
  1.878496e+01    1.431090e+00
  1.881671e+01    1.409226e+00
  1.884846e+01    1.420800e+00
  1.888021e+01    1.418641e+00
  1.891196e+01    1.379404e+00
  1.894372e+01    1.399030e+00
  1.897547e+01    1.371036e+00
  1.900722e+01    1.424299e+00
  1.903897e+01    1.393192e+00
  1.907072e+01    1.358366e+00
  1.910247e+01    1.380944e+00
  1.913422e+01    1.402213e+00
  1.916597e+01    1.354583e+00
  1.919773e+01    1.338599e+00
  1.922948e+01    1.380161e+00
  1.926123e+01    1.346421e+00
  1.929298e+01    1.339381e+00
  1.932473e+01    1.367722e+00
  1.935648e+01    1.334255e+00
  1.938823e+01    1.348663e+00
  1.941998e+01    1.327887e+00
  1.945173e+01    1.344147e+00
  1.948349e+01    1.339179e+00
  1.951524e+01    1.341787e+00
  1.954699e+01    1.325506e+00
  1.957874e+01    1.319831e+00
  1.961049e+01    1.296868e+00
  1.964224e+01    1.323014e+00
  1.967399e+01    1.330092e+00
  1.970574e+01    1.290849e+00
  1.973749e+01    1.300909e+00
  1.976925e+01    1.323344e+00
  1.980100e+01    1.333321e+00
  1.983275e+01    1.307152e+00
  1.986450e+01    1.279768e+00
  1.989625e+01    1.295973e+00
  1.992800e+01    1.325593e+00
  1.995975e+01    1.274284e+00
  1.999150e+01    1.254893e+00
  2.002325e+01    1.292690e+00
  2.005501e+01    1.270350e+00
  2.008676e+01    1.270335e+00
  2.011851e+01    1.278401e+00
  2.015026e+01    1.286775e+00
  2.018201e+01    1.275239e+00
  2.021376e+01    1.288927e+00
  2.024551e+01    1.240590e+00
  2.027726e+01    1.245456e+00
  2.030902e+01    1.261308e+00
  2.034077e+01    1.253716e+00
  2.037252e+01    1.242389e+00
  2.040427e+01    1.272425e+00
  2.043602e+01    1.233327e+00
  2.046777e+01    1.229086e+00
  2.049952e+01    1.235695e+00
  2.053127e+01    1.209693e+00
  2.056302e+01    1.235975e+00
  2.059478e+01    1.244081e+00
  2.062653e+01    1.220612e+00
  2.065828e+01    1.228674e+00
  2.069003e+01    1.227235e+00
  2.072178e+01    1.232540e+00
  2.075353e+01    1.231469e+00
  2.078528e+01    1.240578e+00
  2.081703e+01    1.221171e+00
  2.084878e+01    1.212444e+00
  2.088054e+01    1.243247e+00
  2.091229e+01    1.230177e+00
  2.094404e+01    1.209697e+00
  2.097579e+01    1.201356e+00
  2.100754e+01    1.214535e+00
  2.103929e+01    1.228407e+00
  2.107104e+01    1.200198e+00
  2.110279e+01    1.230045e+00
  2.113455e+01    1.242267e+00
  2.116630e+01    1.224221e+00
  2.119805e+01    1.218782e+00
  2.122980e+01    1.256049e+00
  2.126155e+01    1.255188e+00
  2.129330e+01    1.273872e+00
  2.132505e+01    1.276291e+00
  2.135680e+01    1.277469e+00
  2.138855e+01    1.302353e+00
  2.142031e+01    1.332565e+00
  2.145206e+01    1.331838e+00
  2.148381e+01    1.413945e+00
  2.151556e+01    1.459969e+00
  2.154731e+01    1.501129e+00
  2.157906e+01    1.631883e+00
  2.161081e+01    1.746008e+00
  2.164256e+01    1.961170e+00
  2.167431e+01    2.264645e+00
  2.170607e+01    2.789057e+00
  2.173782e+01    3.604260e+00
  2.176957e+01    4.619061e+00
  2.180132e+01    5.865515e+00
  2.183307e+01    7.147814e+00
  2.186482e+01    8.327196e+00
  2.189657e+01    8.972543e+00
  2.192832e+01    8.282419e+00
  2.196007e+01    6.682324e+00
  2.199183e+01    4.934240e+00
  2.202358e+01    3.634346e+00
  2.205533e+01    2.843624e+00
  2.208708e+01    2.359765e+00
  2.211883e+01    1.991362e+00
  2.215058e+01    1.760023e+00
  2.218233e+01    1.605620e+00
  2.221408e+01    1.485888e+00
  2.224584e+01    1.399585e+00
  2.227759e+01    1.339630e+00
  2.230934e+01    1.285669e+00
  2.234109e+01    1.284521e+00
  2.237284e+01    1.208162e+00
  2.240459e+01    1.191326e+00
  2.243634e+01    1.162488e+00
  2.246809e+01    1.135435e+00
  2.249984e+01    1.146085e+00
  2.253160e+01    1.127850e+00
  2.256335e+01    1.092121e+00
  2.259510e+01    1.118453e+00
  2.262685e+01    1.099896e+00
  2.265860e+01    1.106166e+00
  2.269035e+01    1.059716e+00
  2.272210e+01    1.062932e+00
  2.275385e+01    1.074840e+00
  2.278560e+01    1.054142e+00
  2.281736e+01    1.063920e+00
  2.284911e+01    1.057027e+00
  2.288086e+01    1.030434e+00
  2.291261e+01    1.028209e+00
  2.294436e+01    1.002833e+00
  2.297611e+01    1.042678e+00
  2.300786e+01    1.019143e+00
  2.303961e+01    1.008454e+00
  2.307137e+01    1.019794e+00
  2.310312e+01    1.022711e+00
  2.313487e+01    1.002277e+00
  2.316662e+01    9.940835e-01
  2.319837e+01    9.984766e-01
  2.323012e+01    9.835839e-01
  2.326187e+01    9.925933e-01
  2.329362e+01    1.006271e+00
  2.332537e+01    9.774868e-01
  2.335713e+01    9.676192e-01
  2.338888e+01    9.802396e-01
  2.342063e+01    9.803510e-01
  2.345238e+01    9.576593e-01
  2.348413e+01    9.662278e-01
  2.351588e+01    9.772675e-01
  2.354763e+01    9.582381e-01
  2.357938e+01    9.544222e-01
  2.361113e+01    9.560127e-01
  2.364289e+01    9.472210e-01
  2.367464e+01    9.332310e-01
  2.370639e+01    9.501084e-01
  2.373814e+01    9.323496e-01
  2.376989e+01    9.333619e-01
  2.380164e+01    9.142487e-01
  2.383339e+01    9.144694e-01
  2.386514e+01    9.029080e-01
  2.389689e+01    9.103677e-01
  2.392865e+01    9.016451e-01
  2.396040e+01    9.007828e-01
  2.399215e+01    9.149665e-01
  2.402390e+01    9.055513e-01
  2.405565e+01    9.045625e-01
  2.408740e+01    8.805408e-01
  2.411915e+01    8.656613e-01
  2.415090e+01    8.774242e-01
  2.418266e+01    8.880613e-01
  2.421441e+01    8.661457e-01
  2.424616e+01    9.079627e-01
  2.427791e+01    8.891876e-01
  2.430966e+01    8.777880e-01
  2.434141e+01    9.088755e-01
  2.437316e+01    9.032632e-01
  2.440491e+01    9.023100e-01
  2.443666e+01    8.801842e-01
  2.446842e+01    9.023362e-01
  2.450017e+01    8.760565e-01
  2.453192e+01    8.893095e-01
  2.456367e+01    9.099683e-01
  2.459542e+01    8.650104e-01
  2.462717e+01    8.896967e-01
  2.465892e+01    9.105768e-01
  2.469067e+01    8.844836e-01
  2.472242e+01    8.959099e-01
  2.475418e+01    8.999206e-01
  2.478593e+01    8.924723e-01
  2.481768e+01    8.775792e-01
  2.484943e+01    8.889919e-01
  2.488118e+01    8.948643e-01
  2.491293e+01    8.818120e-01
  2.494468e+01    8.894392e-01
  2.497643e+01    8.846499e-01
  2.500819e+01    9.001257e-01
  2.503994e+01    9.219615e-01
  2.507169e+01    9.157152e-01
  2.510344e+01    9.173957e-01
  2.513519e+01    9.080150e-01
  2.516694e+01    9.294407e-01
  2.519869e+01    9.046584e-01
  2.523044e+01    9.439066e-01
  2.526219e+01    9.337081e-01
  2.529395e+01    9.423424e-01
  2.532570e+01    9.660906e-01
  2.535745e+01    9.797038e-01
  2.538920e+01    9.882065e-01
  2.542095e+01    9.889326e-01
  2.545270e+01    9.991932e-01
  2.548445e+01    1.018148e+00
  2.551620e+01    1.056614e+00
  2.554795e+01    1.088941e+00
  2.557971e+01    1.148575e+00
  2.561146e+01    1.228420e+00
  2.564321e+01    1.297955e+00
  2.567496e+01    1.425524e+00
  2.570671e+01    1.574555e+00
  2.573846e+01    1.832303e+00
  2.577021e+01    2.223739e+00
  2.580196e+01    2.801660e+00
  2.583371e+01    3.593838e+00
  2.586547e+01    4.656547e+00
  2.589722e+01    5.783558e+00
  2.592897e+01    6.757170e+00
  2.596072e+01    7.123633e+00
  2.599247e+01    6.575804e+00
  2.602422e+01    5.340945e+00
  2.605597e+01    3.962070e+00
  2.608772e+01    2.977749e+00
  2.611948e+01    2.380698e+00
  2.615123e+01    1.968352e+00
  2.618298e+01    1.658707e+00
  2.621473e+01    1.475154e+00
  2.624648e+01    1.344464e+00
  2.627823e+01    1.257988e+00
  2.630998e+01    1.170585e+00
  2.634173e+01    1.148314e+00
  2.637348e+01    1.091087e+00
  2.640524e+01    1.051372e+00
  2.643699e+01    1.022686e+00
  2.646874e+01    1.019173e+00
  2.650049e+01    1.014091e+00
  2.653224e+01    1.011667e+00
  2.656399e+01    9.846012e-01
  2.659574e+01    9.745411e-01
  2.662749e+01    9.840315e-01
  2.665924e+01    9.905347e-01
  2.669100e+01    9.792912e-01
  2.672275e+01    9.759144e-01
  2.675450e+01    9.809067e-01
  2.678625e+01    9.937625e-01
  2.681800e+01    9.559591e-01
  2.684975e+01    9.801832e-01
  2.688150e+01    9.892540e-01
  2.691325e+01    1.007007e+00
  2.694501e+01    1.025400e+00
  2.697676e+01    1.071632e+00
  2.700851e+01    1.097838e+00
  2.704026e+01    1.224676e+00
  2.707201e+01    1.295498e+00
  2.710376e+01    1.503694e+00
  2.713551e+01    1.712660e+00
  2.716726e+01    1.937722e+00
  2.719901e+01    2.121212e+00
  2.723077e+01    2.192926e+00
  2.726252e+01    1.978994e+00
  2.729427e+01    1.728097e+00
  2.732602e+01    1.434735e+00
  2.735777e+01    1.294957e+00
  2.738952e+01    1.166746e+00
  2.742127e+01    1.110285e+00
  2.745302e+01    1.068306e+00
  2.748477e+01    1.008575e+00
  2.751653e+01    9.749586e-01
  2.754828e+01    9.640447e-01
  2.758003e+01    8.889753e-01
  2.761178e+01    9.193037e-01
  2.764353e+01    9.327014e-01
  2.767528e+01    9.132585e-01
  2.770703e+01    9.153867e-01
  2.773878e+01    8.869537e-01
  2.777054e+01    9.014875e-01
  2.780229e+01    8.843238e-01
  2.783404e+01    8.674101e-01
  2.786579e+01    9.018989e-01
  2.789754e+01    8.897713e-01
  2.792929e+01    8.784487e-01
  2.796104e+01    8.754523e-01
  2.799279e+01    8.484566e-01
  2.802454e+01    8.762082e-01
  2.805630e+01    8.790304e-01
  2.808805e+01    8.471859e-01
  2.811980e+01    8.431304e-01
  2.815155e+01    8.772016e-01
  2.818330e+01    8.542368e-01
  2.821505e+01    8.544005e-01
  2.824680e+01    8.724242e-01
  2.827855e+01    8.783978e-01
  2.831030e+01    8.319075e-01
  2.834206e+01    8.464557e-01
  2.837381e+01    8.362640e-01
  2.840556e+01    8.366476e-01
  2.843731e+01    8.453523e-01
  2.846906e+01    8.508082e-01
  2.850081e+01    8.365896e-01
  2.853256e+01    8.471863e-01
  2.856431e+01    8.466790e-01
  2.859606e+01    8.638754e-01
  2.862782e+01    8.365989e-01
  2.865957e+01    8.298802e-01
  2.869132e+01    8.352081e-01
  2.872307e+01    8.342022e-01
  2.875482e+01    8.161154e-01
  2.878657e+01    8.458620e-01
  2.881832e+01    8.450438e-01
  2.885007e+01    8.250118e-01
  2.888183e+01    8.504772e-01
  2.891358e+01    8.109868e-01
  2.894533e+01    8.194006e-01
  2.897708e+01    7.961466e-01
  2.900883e+01    8.252733e-01
  2.904058e+01    8.440027e-01
  2.907233e+01    8.145308e-01
  2.910408e+01    8.148778e-01
  2.913583e+01    8.167452e-01
  2.916759e+01    8.260009e-01
  2.919934e+01    8.059444e-01
  2.923109e+01    8.018897e-01
  2.926284e+01    7.959118e-01
  2.929459e+01    8.088651e-01
  2.932634e+01    8.252155e-01
  2.935809e+01    8.192252e-01
  2.938984e+01    7.804301e-01
  2.942159e+01    7.966818e-01
  2.945335e+01    8.000291e-01
  2.948510e+01    8.004650e-01
  2.951685e+01    8.051959e-01
  2.954860e+01    8.034949e-01
  2.958035e+01    7.900770e-01
  2.961210e+01    7.941987e-01
  2.964385e+01    8.123119e-01
  2.967560e+01    8.058357e-01
  2.970736e+01    8.033442e-01
  2.973911e+01    7.891633e-01
  2.977086e+01    7.910224e-01
  2.980261e+01    7.825084e-01
  2.983436e+01    7.922286e-01
  2.986611e+01    7.993282e-01
  2.989786e+01    7.996070e-01
  2.992961e+01    8.038378e-01
  2.996136e+01    8.027384e-01
  2.999312e+01    8.096457e-01
  3.002487e+01    8.068880e-01
  3.005662e+01    8.016361e-01
  3.008837e+01    8.105806e-01
  3.012012e+01    8.093811e-01
  3.015187e+01    7.978489e-01
  3.018362e+01    8.054332e-01
  3.021537e+01    7.937005e-01
  3.024712e+01    7.884673e-01
  3.027888e+01    8.065141e-01
  3.031063e+01    7.911693e-01
  3.034238e+01    8.053124e-01
  3.037413e+01    7.748354e-01
  3.040588e+01    7.856305e-01
  3.043763e+01    7.688550e-01
  3.046938e+01    7.959713e-01
  3.050113e+01    8.048930e-01
  3.053288e+01    7.815394e-01
  3.056464e+01    7.874621e-01
  3.059639e+01    7.961437e-01
  3.062814e+01    7.861590e-01
  3.065989e+01    7.968653e-01
  3.069164e+01    7.871739e-01
  3.072339e+01    7.715300e-01
  3.075514e+01    7.971263e-01
  3.078689e+01    7.845705e-01
  3.081865e+01    7.742802e-01
  3.085040e+01    7.841981e-01
  3.088215e+01    7.804905e-01
  3.091390e+01    7.821968e-01
  3.094565e+01    7.754915e-01
  3.097740e+01    7.750826e-01
  3.100915e+01    7.892238e-01
  3.104090e+01    7.904716e-01
  3.107265e+01    7.817118e-01
  3.110441e+01    7.756538e-01
  3.113616e+01    7.889338e-01
  3.116791e+01    7.727493e-01
  3.119966e+01    8.085908e-01
  3.123141e+01    7.996512e-01
  3.126316e+01    7.950120e-01
  3.129491e+01    7.958384e-01
  3.132666e+01    7.993233e-01
  3.135841e+01    7.981370e-01
  3.139017e+01    8.035590e-01
  3.142192e+01    8.158588e-01
  3.145367e+01    8.447709e-01
  3.148542e+01    8.364860e-01
  3.151717e+01    8.430493e-01
  3.154892e+01    8.520635e-01
  3.158067e+01    8.652992e-01
  3.161242e+01    8.608021e-01
  3.164418e+01    9.329530e-01
  3.167593e+01    9.516236e-01
  3.170768e+01    9.965281e-01
  3.173943e+01    1.118129e+00
  3.177118e+01    1.273576e+00
  3.180293e+01    1.431074e+00
  3.183468e+01    1.709314e+00
  3.186643e+01    1.947986e+00
  3.189818e+01    2.085440e+00
  3.192994e+01    2.041842e+00
  3.196169e+01    1.821808e+00
  3.199344e+01    1.530533e+00
  3.202519e+01    1.333232e+00
  3.205694e+01    1.180987e+00
  3.208869e+01    1.047371e+00
  3.212044e+01    9.592959e-01
  3.215219e+01    9.180114e-01
  3.218394e+01    8.728471e-01
  3.221570e+01    8.624172e-01
  3.224745e+01    8.338486e-01
  3.227920e+01    8.191957e-01
  3.231095e+01    8.063982e-01
  3.234270e+01    8.072451e-01
  3.237445e+01    8.054608e-01
  3.240620e+01    7.532684e-01
  3.243795e+01    7.830415e-01
  3.246970e+01    7.663521e-01
  3.250146e+01    7.827461e-01
  3.253321e+01    7.754771e-01
  3.254908e+01    7.917293e-01