File: XRD/Reaction conditions/2024-07-27_003_Ru-CGO-ex_Reaction_dwell_000023_data_000124.dat
# == pyFAI calibration ==
# Distance Sample to Detector: 0.4 m
# PONI: 9.750e-02, 1.135e-01 m
# Rotations: -0.000175 0.000000 -0.000000 rad
#
# == Fit2d calibration ==
# Distance Sample-beamCenter: 400.000 mm
# Center: x=1514.000, y=1300.000 pix
# Tilt: 0.010 deg  TiltPlanRot: 0.010 deg
#
# Detector Detector	 Spline= None	 PixelSize= 7.500e-05, 7.500e-05 m
#    Detector has a mask: False
#    Detector has a dark current: False
#    detector has a flat field: False
#
# Wavelength: 6.888e-11 m
# Mask applied: user provided
# Dark current applied: False
# Flat field applied: False
# Polarization factor: 0.99
# Normalization factor: 1.0
# --> /home/myspot/data/2024_07_Rosario/Ru-CGO-ex/2024-07-27_003_Ru-CGO-ex_Reaction_dwell_000023_data_000124.dat
#       q_nm^-1             I
  2.003187e-02    0.000000e+00
  5.178302e-02    1.635691e-01
  8.353417e-02    2.985253e-01
  1.152853e-01    7.583782e-02
  1.470365e-01    3.665998e-03
  1.787876e-01    5.199479e-02
  2.105388e-01    7.451414e-02
  2.422899e-01    6.445657e-02
  2.740411e-01    4.213852e-02
  3.057922e-01    3.534761e-02
  3.375433e-01    3.857728e-02
  3.692945e-01    3.284937e-02
  4.010456e-01    3.477927e-02
  4.327968e-01    2.126999e-02
  4.645479e-01    4.525321e-02
  4.962991e-01    2.569298e-02
  5.280502e-01    5.880363e-02
  5.598014e-01    8.157130e-02
  5.915525e-01    3.642019e-02
  6.233037e-01    3.409310e-02
  6.550548e-01    5.225045e-02
  6.868060e-01    3.206662e-02
  7.185571e-01    6.613097e-02
  7.503083e-01    2.793958e-02
  7.820594e-01    1.087843e-01
  8.138106e-01    2.320171e-01
  8.455617e-01    3.547890e-01
  8.773129e-01    5.384562e-01
  9.090640e-01    7.165275e-01
  9.408152e-01    7.474496e-01
  9.725663e-01    9.198201e-01
  1.004317e+00    1.137473e+00
  1.036069e+00    1.334769e+00
  1.067820e+00    1.433668e+00
  1.099571e+00    1.479461e+00
  1.131322e+00    1.538196e+00
  1.163073e+00    1.562626e+00
  1.194824e+00    1.831437e+00
  1.226575e+00    2.299106e+00
  1.258327e+00    2.435678e+00
  1.290078e+00    2.615723e+00
  1.321829e+00    2.644236e+00
  1.353580e+00    2.664551e+00
  1.385331e+00    3.003316e+00
  1.417082e+00    2.806490e+00
  1.448834e+00    3.087239e+00
  1.480585e+00    3.106870e+00
  1.512336e+00    3.209982e+00
  1.544087e+00    3.271860e+00
  1.575838e+00    3.231359e+00
  1.607589e+00    3.217263e+00
  1.639340e+00    3.320055e+00
  1.671092e+00    3.185110e+00
  1.702843e+00    3.047101e+00
  1.734594e+00    3.163308e+00
  1.766345e+00    3.015196e+00
  1.798096e+00    3.094131e+00
  1.829847e+00    3.139866e+00
  1.861598e+00    2.990642e+00
  1.893350e+00    3.002417e+00
  1.925101e+00    3.021229e+00
  1.956852e+00    3.015268e+00
  1.988603e+00    3.123542e+00
  2.020354e+00    3.057537e+00
  2.052105e+00    3.105867e+00
  2.083856e+00    3.055485e+00
  2.115608e+00    3.149199e+00
  2.147359e+00    3.114154e+00
  2.179110e+00    3.037605e+00
  2.210861e+00    3.002415e+00
  2.242612e+00    3.087617e+00
  2.274363e+00    3.108613e+00
  2.306115e+00    2.958492e+00
  2.337866e+00    3.105084e+00
  2.369617e+00    3.196445e+00
  2.401368e+00    3.039200e+00
  2.433119e+00    3.160503e+00
  2.464870e+00    3.134046e+00
  2.496621e+00    3.099572e+00
  2.528373e+00    3.143084e+00
  2.560124e+00    3.193600e+00
  2.591875e+00    3.103947e+00
  2.623626e+00    3.233451e+00
  2.655377e+00    3.117831e+00
  2.687128e+00    3.266759e+00
  2.718879e+00    3.337708e+00
  2.750631e+00    3.302555e+00
  2.782382e+00    3.281788e+00
  2.814133e+00    3.363709e+00
  2.845884e+00    3.346780e+00
  2.877635e+00    3.250916e+00
  2.909386e+00    3.272784e+00
  2.941137e+00    3.290543e+00
  2.972889e+00    3.283331e+00
  3.004640e+00    3.274768e+00
  3.036391e+00    3.400951e+00
  3.068142e+00    3.381683e+00
  3.099893e+00    3.288979e+00
  3.131644e+00    3.283392e+00
  3.163395e+00    3.277003e+00
  3.195147e+00    3.367238e+00
  3.226898e+00    3.451917e+00
  3.258649e+00    3.285745e+00
  3.290400e+00    3.472783e+00
  3.322151e+00    3.402399e+00
  3.353902e+00    3.414325e+00
  3.385654e+00    3.376484e+00
  3.417405e+00    3.317616e+00
  3.449156e+00    3.439905e+00
  3.480907e+00    3.532494e+00
  3.512658e+00    3.396128e+00
  3.544409e+00    3.401785e+00
  3.576160e+00    3.517450e+00
  3.607912e+00    3.376520e+00
  3.639663e+00    3.468518e+00
  3.671414e+00    3.454808e+00
  3.703165e+00    3.547800e+00
  3.734916e+00    3.495501e+00
  3.766667e+00    3.561169e+00
  3.798418e+00    3.495578e+00
  3.830170e+00    3.459015e+00
  3.861921e+00    3.482922e+00
  3.893672e+00    3.529117e+00
  3.925423e+00    3.445882e+00
  3.957174e+00    3.459020e+00
  3.988925e+00    3.474778e+00
  4.020676e+00    3.421223e+00
  4.052428e+00    3.514851e+00
  4.084179e+00    3.520944e+00
  4.115930e+00    3.551075e+00
  4.147681e+00    3.605335e+00
  4.179432e+00    3.603936e+00
  4.211183e+00    3.459747e+00
  4.242935e+00    3.563615e+00
  4.274686e+00    3.515923e+00
  4.306437e+00    3.683601e+00
  4.338188e+00    3.471771e+00
  4.369939e+00    3.563033e+00
  4.401690e+00    3.618533e+00
  4.433441e+00    3.523246e+00
  4.465193e+00    3.484880e+00
  4.496944e+00    3.657133e+00
  4.528695e+00    3.653751e+00
  4.560446e+00    3.661991e+00
  4.592197e+00    3.640530e+00
  4.623948e+00    3.541932e+00
  4.655699e+00    3.683451e+00
  4.687451e+00    3.548768e+00
  4.719202e+00    3.655480e+00
  4.750953e+00    3.627729e+00
  4.782704e+00    3.668104e+00
  4.814455e+00    3.594952e+00
  4.846206e+00    3.660959e+00
  4.877957e+00    3.713169e+00
  4.909709e+00    3.635158e+00
  4.941460e+00    3.679197e+00
  4.973211e+00    3.630591e+00
  5.004962e+00    3.624604e+00
  5.036713e+00    3.599454e+00
  5.068464e+00    3.641328e+00
  5.100216e+00    3.736338e+00
  5.131967e+00    3.694019e+00
  5.163718e+00    3.630510e+00
  5.195469e+00    3.667318e+00
  5.227220e+00    3.617628e+00
  5.258971e+00    3.561041e+00
  5.290722e+00    3.665598e+00
  5.322474e+00    3.701026e+00
  5.354225e+00    3.727595e+00
  5.385976e+00    3.652605e+00
  5.417727e+00    3.644381e+00
  5.449478e+00    3.557572e+00
  5.481229e+00    3.552495e+00
  5.512980e+00    3.532938e+00
  5.544732e+00    3.606256e+00
  5.576483e+00    3.699701e+00
  5.608234e+00    3.689291e+00
  5.639985e+00    3.492890e+00
  5.671736e+00    3.587891e+00
  5.703487e+00    3.642016e+00
  5.735238e+00    3.606441e+00
  5.766990e+00    3.522179e+00
  5.798741e+00    3.525328e+00
  5.830492e+00    3.512770e+00
  5.862243e+00    3.593840e+00
  5.893994e+00    3.584095e+00
  5.925745e+00    3.497653e+00
  5.957497e+00    3.450015e+00
  5.989248e+00    3.568366e+00
  6.020999e+00    3.465689e+00
  6.052750e+00    3.525165e+00
  6.084501e+00    3.568751e+00
  6.116252e+00    3.579889e+00
  6.148003e+00    3.682190e+00
  6.179755e+00    3.625752e+00
  6.211506e+00    3.619977e+00
  6.243257e+00    3.647692e+00
  6.275008e+00    3.574586e+00
  6.306759e+00    3.535064e+00
  6.338510e+00    3.503342e+00
  6.370261e+00    3.513680e+00
  6.402013e+00    3.603197e+00
  6.433764e+00    3.526133e+00
  6.465515e+00    3.554010e+00
  6.497266e+00    3.510039e+00
  6.529017e+00    3.560612e+00
  6.560768e+00    3.517718e+00
  6.592519e+00    3.573604e+00
  6.624271e+00    3.526050e+00
  6.656022e+00    3.573069e+00
  6.687773e+00    3.594899e+00
  6.719524e+00    3.526629e+00
  6.751275e+00    3.555409e+00
  6.783026e+00    3.587142e+00
  6.814777e+00    3.519003e+00
  6.846529e+00    3.489134e+00
  6.878280e+00    3.578657e+00
  6.910031e+00    3.618156e+00
  6.941782e+00    3.549609e+00
  6.973533e+00    3.579189e+00
  7.005284e+00    3.521654e+00
  7.037036e+00    3.531643e+00
  7.068787e+00    3.488690e+00
  7.100538e+00    3.512353e+00
  7.132289e+00    3.490204e+00
  7.164040e+00    3.464654e+00
  7.195791e+00    3.536420e+00
  7.227542e+00    3.466097e+00
  7.259294e+00    3.536177e+00
  7.291045e+00    3.503109e+00
  7.322796e+00    3.531756e+00
  7.354547e+00    3.575634e+00
  7.386298e+00    3.490328e+00
  7.418049e+00    3.442709e+00
  7.449800e+00    3.458465e+00
  7.481552e+00    3.499437e+00
  7.513303e+00    3.487309e+00
  7.545054e+00    3.568474e+00
  7.576805e+00    3.419239e+00
  7.608556e+00    3.462796e+00
  7.640307e+00    3.448761e+00
  7.672058e+00    3.434946e+00
  7.703810e+00    3.479207e+00
  7.735561e+00    3.402725e+00
  7.767312e+00    3.478847e+00
  7.799063e+00    3.474692e+00
  7.830814e+00    3.445254e+00
  7.862565e+00    3.413568e+00
  7.894317e+00    3.434762e+00
  7.926068e+00    3.404462e+00
  7.957819e+00    3.455298e+00
  7.989570e+00    3.395076e+00
  8.021321e+00    3.307469e+00
  8.053072e+00    3.411760e+00
  8.084823e+00    3.468446e+00
  8.116575e+00    3.442738e+00
  8.148326e+00    3.462264e+00
  8.180077e+00    3.512670e+00
  8.211828e+00    3.397896e+00
  8.243579e+00    3.440295e+00
  8.275330e+00    3.426649e+00
  8.307081e+00    3.382982e+00
  8.338833e+00    3.322586e+00
  8.370584e+00    3.424985e+00
  8.402335e+00    3.376344e+00
  8.434086e+00    3.441037e+00
  8.465837e+00    3.339795e+00
  8.497588e+00    3.323689e+00
  8.529339e+00    3.414410e+00
  8.561091e+00    3.358818e+00
  8.592842e+00    3.364539e+00
  8.624593e+00    3.371310e+00
  8.656344e+00    3.325251e+00
  8.688095e+00    3.329560e+00
  8.719846e+00    3.329407e+00
  8.751598e+00    3.333654e+00
  8.783349e+00    3.284368e+00
  8.815100e+00    3.334073e+00
  8.846851e+00    3.399825e+00
  8.878602e+00    3.320604e+00
  8.910353e+00    3.313635e+00
  8.942104e+00    3.340550e+00
  8.973856e+00    3.321455e+00
  9.005607e+00    3.282361e+00
  9.037358e+00    3.300796e+00
  9.069109e+00    3.260140e+00
  9.100860e+00    3.263192e+00
  9.132611e+00    3.301411e+00
  9.164362e+00    3.217447e+00
  9.196114e+00    3.266813e+00
  9.227865e+00    3.229842e+00
  9.259616e+00    3.255137e+00
  9.291367e+00    3.176107e+00
  9.323118e+00    3.264243e+00
  9.354869e+00    3.249640e+00
  9.386620e+00    3.215406e+00
  9.418372e+00    3.264465e+00
  9.450123e+00    3.206582e+00
  9.481874e+00    3.238194e+00
  9.513625e+00    3.262586e+00
  9.545376e+00    3.199100e+00
  9.577127e+00    3.260691e+00
  9.608878e+00    3.236304e+00
  9.640630e+00    3.218209e+00
  9.672381e+00    3.172027e+00
  9.704132e+00    3.206277e+00
  9.735883e+00    3.182968e+00
  9.767634e+00    3.183122e+00
  9.799385e+00    3.197470e+00
  9.831137e+00    3.157809e+00
  9.862888e+00    3.103040e+00
  9.894639e+00    3.157491e+00
  9.926390e+00    3.147357e+00
  9.958141e+00    3.052802e+00
  9.989892e+00    3.148909e+00
  1.002164e+01    3.119365e+00
  1.005339e+01    3.056659e+00
  1.008515e+01    3.081036e+00
  1.011690e+01    3.124781e+00
  1.014865e+01    3.054234e+00
  1.018040e+01    3.107113e+00
  1.021215e+01    2.996652e+00
  1.024390e+01    3.028900e+00
  1.027565e+01    3.050743e+00
  1.030740e+01    3.114832e+00
  1.033915e+01    3.015476e+00
  1.037091e+01    3.073180e+00
  1.040266e+01    3.064158e+00
  1.043441e+01    3.021530e+00
  1.046616e+01    2.973143e+00
  1.049791e+01    3.019366e+00
  1.052966e+01    3.065595e+00
  1.056141e+01    2.972232e+00
  1.059316e+01    3.010848e+00
  1.062492e+01    2.989487e+00
  1.065667e+01    2.940272e+00
  1.068842e+01    2.974863e+00
  1.072017e+01    2.973029e+00
  1.075192e+01    2.947225e+00
  1.078367e+01    2.925889e+00
  1.081542e+01    2.930854e+00
  1.084717e+01    2.950935e+00
  1.087892e+01    2.890533e+00
  1.091068e+01    2.937296e+00
  1.094243e+01    2.902756e+00
  1.097418e+01    2.903010e+00
  1.100593e+01    2.877234e+00
  1.103768e+01    2.872283e+00
  1.106943e+01    2.934556e+00
  1.110118e+01    2.884085e+00
  1.113293e+01    2.875595e+00
  1.116468e+01    2.903478e+00
  1.119644e+01    2.831347e+00
  1.122819e+01    2.865202e+00
  1.125994e+01    2.830132e+00
  1.129169e+01    2.906459e+00
  1.132344e+01    2.862090e+00
  1.135519e+01    2.883286e+00
  1.138694e+01    2.849857e+00
  1.141869e+01    2.811352e+00
  1.145045e+01    2.788076e+00
  1.148220e+01    2.795021e+00
  1.151395e+01    2.759570e+00
  1.154570e+01    2.779760e+00
  1.157745e+01    2.773655e+00
  1.160920e+01    2.749815e+00
  1.164095e+01    2.768548e+00
  1.167270e+01    2.728765e+00
  1.170445e+01    2.714401e+00
  1.173621e+01    2.731608e+00
  1.176796e+01    2.739350e+00
  1.179971e+01    2.764087e+00
  1.183146e+01    2.756474e+00
  1.186321e+01    2.697778e+00
  1.189496e+01    2.725215e+00
  1.192671e+01    2.737175e+00
  1.195846e+01    2.703953e+00
  1.199021e+01    2.738301e+00
  1.202197e+01    2.672167e+00
  1.205372e+01    2.707528e+00
  1.208547e+01    2.721419e+00
  1.211722e+01    2.717951e+00
  1.214897e+01    2.724096e+00
  1.218072e+01    2.734316e+00
  1.221247e+01    2.647870e+00
  1.224422e+01    2.661429e+00
  1.227597e+01    2.683829e+00
  1.230773e+01    2.676538e+00
  1.233948e+01    2.676335e+00
  1.237123e+01    2.715381e+00
  1.240298e+01    2.694611e+00
  1.243473e+01    2.652646e+00
  1.246648e+01    2.700676e+00
  1.249823e+01    2.685775e+00
  1.252998e+01    2.713319e+00
  1.256174e+01    2.727325e+00
  1.259349e+01    2.700237e+00
  1.262524e+01    2.758925e+00
  1.265699e+01    2.821611e+00
  1.268874e+01    2.818617e+00
  1.272049e+01    2.843582e+00
  1.275224e+01    2.888443e+00
  1.278399e+01    2.963098e+00
  1.281574e+01    3.043252e+00
  1.284750e+01    3.183120e+00
  1.287925e+01    3.362964e+00
  1.291100e+01    3.695293e+00
  1.294275e+01    4.098504e+00
  1.297450e+01    4.775291e+00
  1.300625e+01    5.942769e+00
  1.303800e+01    7.657097e+00
  1.306975e+01    1.015834e+01
  1.310150e+01    1.269776e+01
  1.313326e+01    1.481874e+01
  1.316501e+01    1.610243e+01
  1.319676e+01    1.558120e+01
  1.322851e+01    1.243114e+01
  1.326026e+01    8.999496e+00
  1.329201e+01    6.727551e+00
  1.332376e+01    5.424860e+00
  1.335551e+01    4.402079e+00
  1.338727e+01    3.847460e+00
  1.341902e+01    3.470561e+00
  1.345077e+01    3.217996e+00
  1.348252e+01    3.116026e+00
  1.351427e+01    2.910828e+00
  1.354602e+01    2.793881e+00
  1.357777e+01    2.724198e+00
  1.360952e+01    2.697327e+00
  1.364127e+01    2.627998e+00
  1.367303e+01    2.592491e+00
  1.370478e+01    2.557780e+00
  1.373653e+01    2.516715e+00
  1.376828e+01    2.513932e+00
  1.380003e+01    2.465762e+00
  1.383178e+01    2.484391e+00
  1.386353e+01    2.415746e+00
  1.389528e+01    2.418446e+00
  1.392703e+01    2.430186e+00
  1.395879e+01    2.425820e+00
  1.399054e+01    2.389419e+00
  1.402229e+01    2.387911e+00
  1.405404e+01    2.362592e+00
  1.408579e+01    2.321850e+00
  1.411754e+01    2.330698e+00
  1.414929e+01    2.277323e+00
  1.418104e+01    2.315238e+00
  1.421279e+01    2.266807e+00
  1.424455e+01    2.292176e+00
  1.427630e+01    2.247378e+00
  1.430805e+01    2.281583e+00
  1.433980e+01    2.328318e+00
  1.437155e+01    2.312005e+00
  1.440330e+01    2.222804e+00
  1.443505e+01    2.252720e+00
  1.446680e+01    2.238118e+00
  1.449856e+01    2.218153e+00
  1.453031e+01    2.228552e+00
  1.456206e+01    2.212902e+00
  1.459381e+01    2.254273e+00
  1.462556e+01    2.225412e+00
  1.465731e+01    2.153965e+00
  1.468906e+01    2.204134e+00
  1.472081e+01    2.162125e+00
  1.475256e+01    2.244420e+00
  1.478432e+01    2.196579e+00
  1.481607e+01    2.222746e+00
  1.484782e+01    2.211274e+00
  1.487957e+01    2.234246e+00
  1.491132e+01    2.256090e+00
  1.494307e+01    2.270351e+00
  1.497482e+01    2.338621e+00
  1.500657e+01    2.452321e+00
  1.503832e+01    2.629369e+00
  1.507008e+01    2.812504e+00
  1.510183e+01    3.202069e+00
  1.513358e+01    3.825303e+00
  1.516533e+01    4.596614e+00
  1.519708e+01    5.202088e+00
  1.522883e+01    5.522024e+00
  1.526058e+01    5.727527e+00
  1.529233e+01    5.460121e+00
  1.532409e+01    4.612421e+00
  1.535584e+01    3.769779e+00
  1.538759e+01    3.180871e+00
  1.541934e+01    2.793179e+00
  1.545109e+01    2.503159e+00
  1.548284e+01    2.347220e+00
  1.551459e+01    2.247563e+00
  1.554634e+01    2.206298e+00
  1.557809e+01    2.133342e+00
  1.560985e+01    2.074593e+00
  1.564160e+01    2.022284e+00
  1.567335e+01    2.026442e+00
  1.570510e+01    1.968855e+00
  1.573685e+01    2.005143e+00
  1.576860e+01    1.989157e+00
  1.580035e+01    1.949677e+00
  1.583210e+01    1.910133e+00
  1.586385e+01    1.915130e+00
  1.589561e+01    1.921862e+00
  1.592736e+01    1.916398e+00
  1.595911e+01    1.899884e+00
  1.599086e+01    1.904204e+00
  1.602261e+01    1.848651e+00
  1.605436e+01    1.862627e+00
  1.608611e+01    1.871735e+00
  1.611786e+01    1.811489e+00
  1.614961e+01    1.864784e+00
  1.618137e+01    1.840842e+00
  1.621312e+01    1.797150e+00
  1.624487e+01    1.794950e+00
  1.627662e+01    1.822775e+00
  1.630837e+01    1.776827e+00
  1.634012e+01    1.794467e+00
  1.637187e+01    1.777511e+00
  1.640362e+01    1.756627e+00
  1.643538e+01    1.758383e+00
  1.646713e+01    1.787569e+00
  1.649888e+01    1.769090e+00
  1.653063e+01    1.764432e+00
  1.656238e+01    1.783489e+00
  1.659413e+01    1.746909e+00
  1.662588e+01    1.708270e+00
  1.665763e+01    1.704766e+00
  1.668938e+01    1.683357e+00
  1.672114e+01    1.704233e+00
  1.675289e+01    1.698288e+00
  1.678464e+01    1.723863e+00
  1.681639e+01    1.670370e+00
  1.684814e+01    1.724699e+00
  1.687989e+01    1.711906e+00
  1.691164e+01    1.688533e+00
  1.694339e+01    1.679385e+00
  1.697514e+01    1.684603e+00
  1.700690e+01    1.680747e+00
  1.703865e+01    1.651363e+00
  1.707040e+01    1.660598e+00
  1.710215e+01    1.658840e+00
  1.713390e+01    1.665664e+00
  1.716565e+01    1.618704e+00
  1.719740e+01    1.597318e+00
  1.722915e+01    1.615467e+00
  1.726091e+01    1.622501e+00
  1.729266e+01    1.601033e+00
  1.732441e+01    1.610463e+00
  1.735616e+01    1.598654e+00
  1.738791e+01    1.613673e+00
  1.741966e+01    1.600203e+00
  1.745141e+01    1.571196e+00
  1.748316e+01    1.617423e+00
  1.751491e+01    1.594395e+00
  1.754667e+01    1.600704e+00
  1.757842e+01    1.586881e+00
  1.761017e+01    1.567667e+00
  1.764192e+01    1.562487e+00
  1.767367e+01    1.558222e+00
  1.770542e+01    1.558836e+00
  1.773717e+01    1.528551e+00
  1.776892e+01    1.544535e+00
  1.780067e+01    1.587582e+00
  1.783243e+01    1.525349e+00
  1.786418e+01    1.531812e+00
  1.789593e+01    1.528883e+00
  1.792768e+01    1.524877e+00
  1.795943e+01    1.505441e+00
  1.799118e+01    1.504388e+00
  1.802293e+01    1.495648e+00
  1.805468e+01    1.486923e+00
  1.808643e+01    1.490357e+00
  1.811819e+01    1.470162e+00
  1.814994e+01    1.508652e+00
  1.818169e+01    1.484242e+00
  1.821344e+01    1.508207e+00
  1.824519e+01    1.508572e+00
  1.827694e+01    1.490282e+00
  1.830869e+01    1.509829e+00
  1.834044e+01    1.454757e+00
  1.837220e+01    1.463503e+00
  1.840395e+01    1.432910e+00
  1.843570e+01    1.391748e+00
  1.846745e+01    1.467581e+00
  1.849920e+01    1.455489e+00
  1.853095e+01    1.448812e+00
  1.856270e+01    1.450538e+00
  1.859445e+01    1.413486e+00
  1.862620e+01    1.439752e+00
  1.865796e+01    1.446607e+00
  1.868971e+01    1.429755e+00
  1.872146e+01    1.441270e+00
  1.875321e+01    1.446935e+00
  1.878496e+01    1.396041e+00
  1.881671e+01    1.384969e+00
  1.884846e+01    1.422706e+00
  1.888021e+01    1.397452e+00
  1.891196e+01    1.398100e+00
  1.894372e+01    1.357178e+00
  1.897547e+01    1.399088e+00
  1.900722e+01    1.381526e+00
  1.903897e+01    1.364771e+00
  1.907072e+01    1.374711e+00
  1.910247e+01    1.335496e+00
  1.913422e+01    1.392349e+00
  1.916597e+01    1.364580e+00
  1.919773e+01    1.373334e+00
  1.922948e+01    1.343259e+00
  1.926123e+01    1.330499e+00
  1.929298e+01    1.395013e+00
  1.932473e+01    1.342296e+00
  1.935648e+01    1.346988e+00
  1.938823e+01    1.344157e+00
  1.941998e+01    1.342300e+00
  1.945173e+01    1.335371e+00
  1.948349e+01    1.324823e+00
  1.951524e+01    1.318368e+00
  1.954699e+01    1.335682e+00
  1.957874e+01    1.334772e+00
  1.961049e+01    1.324948e+00
  1.964224e+01    1.307802e+00
  1.967399e+01    1.330633e+00
  1.970574e+01    1.272663e+00
  1.973749e+01    1.309313e+00
  1.976925e+01    1.291887e+00
  1.980100e+01    1.294759e+00
  1.983275e+01    1.280116e+00
  1.986450e+01    1.299091e+00
  1.989625e+01    1.292240e+00
  1.992800e+01    1.272737e+00
  1.995975e+01    1.304067e+00
  1.999150e+01    1.280031e+00
  2.002325e+01    1.315382e+00
  2.005501e+01    1.271314e+00
  2.008676e+01    1.264562e+00
  2.011851e+01    1.275919e+00
  2.015026e+01    1.257222e+00
  2.018201e+01    1.260224e+00
  2.021376e+01    1.261770e+00
  2.024551e+01    1.253270e+00
  2.027726e+01    1.265999e+00
  2.030902e+01    1.263487e+00
  2.034077e+01    1.239356e+00
  2.037252e+01    1.251059e+00
  2.040427e+01    1.233912e+00
  2.043602e+01    1.249791e+00
  2.046777e+01    1.259376e+00
  2.049952e+01    1.248613e+00
  2.053127e+01    1.217162e+00
  2.056302e+01    1.241940e+00
  2.059478e+01    1.244576e+00
  2.062653e+01    1.215466e+00
  2.065828e+01    1.212305e+00
  2.069003e+01    1.247246e+00
  2.072178e+01    1.208161e+00
  2.075353e+01    1.233582e+00
  2.078528e+01    1.238649e+00
  2.081703e+01    1.221754e+00
  2.084878e+01    1.240679e+00
  2.088054e+01    1.214026e+00
  2.091229e+01    1.221052e+00
  2.094404e+01    1.261486e+00
  2.097579e+01    1.214581e+00
  2.100754e+01    1.219981e+00
  2.103929e+01    1.233574e+00
  2.107104e+01    1.210091e+00
  2.110279e+01    1.222941e+00
  2.113455e+01    1.229782e+00
  2.116630e+01    1.215530e+00
  2.119805e+01    1.236566e+00
  2.122980e+01    1.223209e+00
  2.126155e+01    1.239287e+00
  2.129330e+01    1.229111e+00
  2.132505e+01    1.298838e+00
  2.135680e+01    1.280325e+00
  2.138855e+01    1.308483e+00
  2.142031e+01    1.337541e+00
  2.145206e+01    1.339176e+00
  2.148381e+01    1.396885e+00
  2.151556e+01    1.450875e+00
  2.154731e+01    1.522244e+00
  2.157906e+01    1.611373e+00
  2.161081e+01    1.745474e+00
  2.164256e+01    1.959394e+00
  2.167431e+01    2.322256e+00
  2.170607e+01    2.770666e+00
  2.173782e+01    3.523311e+00
  2.176957e+01    4.559758e+00
  2.180132e+01    5.828694e+00
  2.183307e+01    7.158896e+00
  2.186482e+01    8.306145e+00
  2.189657e+01    8.941894e+00
  2.192832e+01    8.272803e+00
  2.196007e+01    6.556704e+00
  2.199183e+01    4.861789e+00
  2.202358e+01    3.582925e+00
  2.205533e+01    2.874227e+00
  2.208708e+01    2.338229e+00
  2.211883e+01    1.956487e+00
  2.215058e+01    1.739589e+00
  2.218233e+01    1.603295e+00
  2.221408e+01    1.467355e+00
  2.224584e+01    1.421764e+00
  2.227759e+01    1.345725e+00
  2.230934e+01    1.314515e+00
  2.234109e+01    1.243259e+00
  2.237284e+01    1.202953e+00
  2.240459e+01    1.230629e+00
  2.243634e+01    1.154077e+00
  2.246809e+01    1.158744e+00
  2.249984e+01    1.139581e+00
  2.253160e+01    1.120519e+00
  2.256335e+01    1.141057e+00
  2.259510e+01    1.114932e+00
  2.262685e+01    1.087705e+00
  2.265860e+01    1.098143e+00
  2.269035e+01    1.057616e+00
  2.272210e+01    1.074049e+00
  2.275385e+01    1.042861e+00
  2.278560e+01    1.060157e+00
  2.281736e+01    1.032967e+00
  2.284911e+01    1.048154e+00
  2.288086e+01    1.059933e+00
  2.291261e+01    1.046488e+00
  2.294436e+01    1.024886e+00
  2.297611e+01    1.021756e+00
  2.300786e+01    1.042105e+00
  2.303961e+01    1.045924e+00
  2.307137e+01    1.008464e+00
  2.310312e+01    1.019713e+00
  2.313487e+01    9.963704e-01
  2.316662e+01    1.006368e+00
  2.319837e+01    9.767357e-01
  2.323012e+01    9.908012e-01
  2.326187e+01    9.799020e-01
  2.329362e+01    9.835467e-01
  2.332537e+01    1.001753e+00
  2.335713e+01    9.614781e-01
  2.338888e+01    9.695997e-01
  2.342063e+01    9.620790e-01
  2.345238e+01    9.646986e-01
  2.348413e+01    9.671730e-01
  2.351588e+01    9.572434e-01
  2.354763e+01    9.778544e-01
  2.357938e+01    9.642343e-01
  2.361113e+01    9.576231e-01
  2.364289e+01    9.825004e-01
  2.367464e+01    9.597359e-01
  2.370639e+01    9.318641e-01
  2.373814e+01    9.451919e-01
  2.376989e+01    9.374020e-01
  2.380164e+01    9.154528e-01
  2.383339e+01    9.186677e-01
  2.386514e+01    8.888525e-01
  2.389689e+01    9.161631e-01
  2.392865e+01    8.969821e-01
  2.396040e+01    9.121155e-01
  2.399215e+01    9.061244e-01
  2.402390e+01    8.981832e-01
  2.405565e+01    9.008966e-01
  2.408740e+01    8.840643e-01
  2.411915e+01    8.683044e-01
  2.415090e+01    8.874840e-01
  2.418266e+01    8.709962e-01
  2.421441e+01    8.869970e-01
  2.424616e+01    8.562069e-01
  2.427791e+01    8.820307e-01
  2.430966e+01    9.019120e-01
  2.434141e+01    8.811446e-01
  2.437316e+01    8.927450e-01
  2.440491e+01    9.042975e-01
  2.443666e+01    8.988116e-01
  2.446842e+01    8.804549e-01
  2.450017e+01    8.806548e-01
  2.453192e+01    8.783042e-01
  2.456367e+01    9.089450e-01
  2.459542e+01    8.834337e-01
  2.462717e+01    8.736538e-01
  2.465892e+01    9.024203e-01
  2.469067e+01    9.000732e-01
  2.472242e+01    8.834894e-01
  2.475418e+01    9.067917e-01
  2.478593e+01    8.846284e-01
  2.481768e+01    8.760138e-01
  2.484943e+01    8.793232e-01
  2.488118e+01    8.767334e-01
  2.491293e+01    8.823161e-01
  2.494468e+01    9.162858e-01
  2.497643e+01    8.979875e-01
  2.500819e+01    8.980388e-01
  2.503994e+01    9.395159e-01
  2.507169e+01    8.885857e-01
  2.510344e+01    9.113120e-01
  2.513519e+01    9.022223e-01
  2.516694e+01    9.296329e-01
  2.519869e+01    9.318737e-01
  2.523044e+01    9.347810e-01
  2.526219e+01    9.418903e-01
  2.529395e+01    9.270275e-01
  2.532570e+01    9.752032e-01
  2.535745e+01    9.824185e-01
  2.538920e+01    9.835434e-01
  2.542095e+01    1.025394e+00
  2.545270e+01    1.007617e+00
  2.548445e+01    1.041882e+00
  2.551620e+01    1.096114e+00
  2.554795e+01    1.102184e+00
  2.557971e+01    1.155759e+00
  2.561146e+01    1.214117e+00
  2.564321e+01    1.287674e+00
  2.567496e+01    1.416471e+00
  2.570671e+01    1.609790e+00
  2.573846e+01    1.869636e+00
  2.577021e+01    2.228975e+00
  2.580196e+01    2.827795e+00
  2.583371e+01    3.572529e+00
  2.586547e+01    4.677231e+00
  2.589722e+01    5.812404e+00
  2.592897e+01    6.763340e+00
  2.596072e+01    7.070630e+00
  2.599247e+01    6.521173e+00
  2.602422e+01    5.251226e+00
  2.605597e+01    3.937875e+00
  2.608772e+01    2.983781e+00
  2.611948e+01    2.359092e+00
  2.615123e+01    1.944820e+00
  2.618298e+01    1.655416e+00
  2.621473e+01    1.467317e+00
  2.624648e+01    1.354489e+00
  2.627823e+01    1.239281e+00
  2.630998e+01    1.187018e+00
  2.634173e+01    1.106253e+00
  2.637348e+01    1.098815e+00
  2.640524e+01    1.061147e+00
  2.643699e+01    1.033611e+00
  2.646874e+01    1.040722e+00
  2.650049e+01    1.009681e+00
  2.653224e+01    9.782344e-01
  2.656399e+01    9.891053e-01
  2.659574e+01    9.801546e-01
  2.662749e+01    9.798220e-01
  2.665924e+01    9.602721e-01
  2.669100e+01    1.000577e+00
  2.672275e+01    9.812003e-01
  2.675450e+01    9.559192e-01
  2.678625e+01    9.726220e-01
  2.681800e+01    9.545715e-01
  2.684975e+01    9.865682e-01
  2.688150e+01    9.921253e-01
  2.691325e+01    1.012746e+00
  2.694501e+01    1.021356e+00
  2.697676e+01    1.057716e+00
  2.700851e+01    1.124402e+00
  2.704026e+01    1.169993e+00
  2.707201e+01    1.284419e+00
  2.710376e+01    1.497042e+00
  2.713551e+01    1.701685e+00
  2.716726e+01    1.953712e+00
  2.719901e+01    2.104109e+00
  2.723077e+01    2.134013e+00
  2.726252e+01    1.952329e+00
  2.729427e+01    1.715839e+00
  2.732602e+01    1.485339e+00
  2.735777e+01    1.291509e+00
  2.738952e+01    1.161351e+00
  2.742127e+01    1.087364e+00
  2.745302e+01    1.040201e+00
  2.748477e+01    1.020393e+00
  2.751653e+01    9.859286e-01
  2.754828e+01    9.470720e-01
  2.758003e+01    9.382364e-01
  2.761178e+01    9.110345e-01
  2.764353e+01    9.101406e-01
  2.767528e+01    9.192142e-01
  2.770703e+01    9.062207e-01
  2.773878e+01    9.180160e-01
  2.777054e+01    8.856365e-01
  2.780229e+01    8.992593e-01
  2.783404e+01    8.673422e-01
  2.786579e+01    8.818071e-01
  2.789754e+01    8.943711e-01
  2.792929e+01    8.701031e-01
  2.796104e+01    8.697951e-01
  2.799279e+01    8.807723e-01
  2.802454e+01    8.672010e-01
  2.805630e+01    8.714685e-01
  2.808805e+01    8.476214e-01
  2.811980e+01    8.683511e-01
  2.815155e+01    8.500739e-01
  2.818330e+01    8.713788e-01
  2.821505e+01    8.689390e-01
  2.824680e+01    8.500753e-01
  2.827855e+01    8.468492e-01
  2.831030e+01    8.565540e-01
  2.834206e+01    8.298970e-01
  2.837381e+01    8.332276e-01
  2.840556e+01    8.364120e-01
  2.843731e+01    8.404012e-01
  2.846906e+01    8.349371e-01
  2.850081e+01    8.399119e-01
  2.853256e+01    8.274497e-01
  2.856431e+01    8.513691e-01
  2.859606e+01    8.201597e-01
  2.862782e+01    8.458301e-01
  2.865957e+01    8.439428e-01
  2.869132e+01    8.284702e-01
  2.872307e+01    8.365809e-01
  2.875482e+01    8.306681e-01
  2.878657e+01    8.318218e-01
  2.881832e+01    7.970005e-01
  2.885007e+01    8.225812e-01
  2.888183e+01    8.184677e-01
  2.891358e+01    8.356918e-01
  2.894533e+01    8.271926e-01
  2.897708e+01    8.143571e-01
  2.900883e+01    8.355056e-01
  2.904058e+01    8.242312e-01
  2.907233e+01    8.217745e-01
  2.910408e+01    8.078417e-01
  2.913583e+01    8.168153e-01
  2.916759e+01    8.226863e-01
  2.919934e+01    8.063471e-01
  2.923109e+01    7.977697e-01
  2.926284e+01    8.066066e-01
  2.929459e+01    8.102042e-01
  2.932634e+01    8.172133e-01
  2.935809e+01    8.046089e-01
  2.938984e+01    8.160599e-01
  2.942159e+01    8.238427e-01
  2.945335e+01    8.019828e-01
  2.948510e+01    7.957867e-01
  2.951685e+01    8.073544e-01
  2.954860e+01    7.911875e-01
  2.958035e+01    7.979784e-01
  2.961210e+01    8.047339e-01
  2.964385e+01    8.019940e-01
  2.967560e+01    7.809808e-01
  2.970736e+01    7.965378e-01
  2.973911e+01    7.934704e-01
  2.977086e+01    8.094670e-01
  2.980261e+01    7.845622e-01
  2.983436e+01    7.729206e-01
  2.986611e+01    7.758677e-01
  2.989786e+01    7.831174e-01
  2.992961e+01    7.762391e-01
  2.996136e+01    7.990534e-01
  2.999312e+01    7.903855e-01
  3.002487e+01    7.781443e-01
  3.005662e+01    8.209526e-01
  3.008837e+01    8.187680e-01
  3.012012e+01    8.079264e-01
  3.015187e+01    8.010747e-01
  3.018362e+01    7.887342e-01
  3.021537e+01    8.084731e-01
  3.024712e+01    7.842846e-01
  3.027888e+01    7.863668e-01
  3.031063e+01    7.803419e-01
  3.034238e+01    7.819020e-01
  3.037413e+01    7.823929e-01
  3.040588e+01    7.862477e-01
  3.043763e+01    7.844057e-01
  3.046938e+01    7.889570e-01
  3.050113e+01    7.922925e-01
  3.053288e+01    7.566932e-01
  3.056464e+01    7.884904e-01
  3.059639e+01    7.965594e-01
  3.062814e+01    7.649999e-01
  3.065989e+01    7.847625e-01
  3.069164e+01    7.796748e-01
  3.072339e+01    7.758725e-01
  3.075514e+01    7.905408e-01
  3.078689e+01    7.870967e-01
  3.081865e+01    7.945897e-01
  3.085040e+01    7.756554e-01
  3.088215e+01    7.820600e-01
  3.091390e+01    7.843243e-01
  3.094565e+01    7.925435e-01
  3.097740e+01    7.843205e-01
  3.100915e+01    7.809001e-01
  3.104090e+01    7.803752e-01
  3.107265e+01    7.738959e-01
  3.110441e+01    7.772900e-01
  3.113616e+01    8.060952e-01
  3.116791e+01    7.882159e-01
  3.119966e+01    7.872558e-01
  3.123141e+01    7.876887e-01
  3.126316e+01    7.891856e-01
  3.129491e+01    7.914503e-01
  3.132666e+01    8.142453e-01
  3.135841e+01    7.958585e-01
  3.139017e+01    7.900230e-01
  3.142192e+01    8.217062e-01
  3.145367e+01    8.327439e-01
  3.148542e+01    8.256586e-01
  3.151717e+01    8.527381e-01
  3.154892e+01    8.458586e-01
  3.158067e+01    8.746942e-01
  3.161242e+01    8.667975e-01
  3.164418e+01    9.280664e-01
  3.167593e+01    9.612949e-01
  3.170768e+01    1.012915e+00
  3.173943e+01    1.099466e+00
  3.177118e+01    1.263294e+00
  3.180293e+01    1.416560e+00
  3.183468e+01    1.697419e+00
  3.186643e+01    1.950030e+00
  3.189818e+01    2.065884e+00
  3.192994e+01    2.036866e+00
  3.196169e+01    1.823232e+00
  3.199344e+01    1.549343e+00
  3.202519e+01    1.322329e+00
  3.205694e+01    1.191502e+00
  3.208869e+01    1.053789e+00
  3.212044e+01    9.736156e-01
  3.215219e+01    9.225466e-01
  3.218394e+01    8.802037e-01
  3.221570e+01    8.686556e-01
  3.224745e+01    8.332350e-01
  3.227920e+01    8.048993e-01
  3.231095e+01    8.006135e-01
  3.234270e+01    8.151047e-01
  3.237445e+01    7.864473e-01
  3.240620e+01    7.716292e-01
  3.243795e+01    7.769247e-01
  3.246970e+01    7.791903e-01
  3.250146e+01    7.868353e-01
  3.253321e+01    7.561111e-01
  3.254908e+01    7.605835e-01