File: XRD/Reaction conditions/2024-07-27_003_Ru-CGO-ex_Reaction_dwell_000023_data_000060.dat
# == pyFAI calibration ==
# Distance Sample to Detector: 0.4 m
# PONI: 9.750e-02, 1.135e-01 m
# Rotations: -0.000175 0.000000 -0.000000 rad
#
# == Fit2d calibration ==
# Distance Sample-beamCenter: 400.000 mm
# Center: x=1514.000, y=1300.000 pix
# Tilt: 0.010 deg  TiltPlanRot: 0.010 deg
#
# Detector Detector	 Spline= None	 PixelSize= 7.500e-05, 7.500e-05 m
#    Detector has a mask: False
#    Detector has a dark current: False
#    detector has a flat field: False
#
# Wavelength: 6.888e-11 m
# Mask applied: user provided
# Dark current applied: False
# Flat field applied: False
# Polarization factor: 0.99
# Normalization factor: 1.0
# --> /home/myspot/data/2024_07_Rosario/Ru-CGO-ex/2024-07-27_003_Ru-CGO-ex_Reaction_dwell_000023_data_000060.dat
#       q_nm^-1             I
  2.003187e-02    2.195834e-01
  5.178302e-02    2.377422e-01
  8.353417e-02    1.931456e-01
  1.152853e-01    4.845412e-02
  1.470365e-01    3.349864e-02
  1.787876e-01    6.550180e-02
  2.105388e-01    1.820069e-02
  2.422899e-01    5.424368e-02
  2.740411e-01    2.831270e-02
  3.057922e-01    6.135690e-02
  3.375433e-01    3.981101e-02
  3.692945e-01    6.968679e-02
  4.010456e-01    4.882045e-02
  4.327968e-01    3.320885e-02
  4.645479e-01    3.863389e-02
  4.962991e-01    3.445635e-02
  5.280502e-01    5.069847e-02
  5.598014e-01    3.029879e-02
  5.915525e-01    5.295629e-02
  6.233037e-01    4.428950e-02
  6.550548e-01    3.918943e-02
  6.868060e-01    5.723612e-02
  7.185571e-01    1.640218e-02
  7.503083e-01    4.541652e-02
  7.820594e-01    9.008011e-02
  8.138106e-01    2.141617e-01
  8.455617e-01    3.643457e-01
  8.773129e-01    4.757167e-01
  9.090640e-01    6.029428e-01
  9.408152e-01    8.581152e-01
  9.725663e-01    1.005062e+00
  1.004317e+00    1.152562e+00
  1.036069e+00    1.387198e+00
  1.067820e+00    1.427757e+00
  1.099571e+00    1.599949e+00
  1.131322e+00    1.635159e+00
  1.163073e+00    1.717128e+00
  1.194824e+00    1.901865e+00
  1.226575e+00    2.269503e+00
  1.258327e+00    2.553719e+00
  1.290078e+00    2.489805e+00
  1.321829e+00    2.547094e+00
  1.353580e+00    2.841867e+00
  1.385331e+00    2.862029e+00
  1.417082e+00    2.944215e+00
  1.448834e+00    2.945328e+00
  1.480585e+00    3.113998e+00
  1.512336e+00    3.066010e+00
  1.544087e+00    3.207088e+00
  1.575838e+00    3.297539e+00
  1.607589e+00    2.957331e+00
  1.639340e+00    2.994741e+00
  1.671092e+00    3.102037e+00
  1.702843e+00    3.079012e+00
  1.734594e+00    3.188087e+00
  1.766345e+00    3.117288e+00
  1.798096e+00    2.967513e+00
  1.829847e+00    3.116176e+00
  1.861598e+00    3.091822e+00
  1.893350e+00    3.051554e+00
  1.925101e+00    3.080445e+00
  1.956852e+00    3.075945e+00
  1.988603e+00    3.129796e+00
  2.020354e+00    3.153883e+00
  2.052105e+00    3.047662e+00
  2.083856e+00    3.069267e+00
  2.115608e+00    3.166727e+00
  2.147359e+00    3.176711e+00
  2.179110e+00    3.018297e+00
  2.210861e+00    3.157625e+00
  2.242612e+00    3.238127e+00
  2.274363e+00    3.158277e+00
  2.306115e+00    3.129748e+00
  2.337866e+00    3.223770e+00
  2.369617e+00    3.179598e+00
  2.401368e+00    3.166494e+00
  2.433119e+00    3.178651e+00
  2.464870e+00    3.252406e+00
  2.496621e+00    3.244055e+00
  2.528373e+00    3.229927e+00
  2.560124e+00    3.205845e+00
  2.591875e+00    3.142831e+00
  2.623626e+00    3.306972e+00
  2.655377e+00    3.232772e+00
  2.687128e+00    3.260382e+00
  2.718879e+00    3.237642e+00
  2.750631e+00    3.282462e+00
  2.782382e+00    3.320315e+00
  2.814133e+00    3.274418e+00
  2.845884e+00    3.345533e+00
  2.877635e+00    3.257147e+00
  2.909386e+00    3.401189e+00
  2.941137e+00    3.408115e+00
  2.972889e+00    3.364115e+00
  3.004640e+00    3.360424e+00
  3.036391e+00    3.258635e+00
  3.068142e+00    3.181277e+00
  3.099893e+00    3.370981e+00
  3.131644e+00    3.321941e+00
  3.163395e+00    3.404013e+00
  3.195147e+00    3.405592e+00
  3.226898e+00    3.317501e+00
  3.258649e+00    3.370641e+00
  3.290400e+00    3.364808e+00
  3.322151e+00    3.502901e+00
  3.353902e+00    3.473288e+00
  3.385654e+00    3.420231e+00
  3.417405e+00    3.418095e+00
  3.449156e+00    3.391815e+00
  3.480907e+00    3.487278e+00
  3.512658e+00    3.514114e+00
  3.544409e+00    3.536832e+00
  3.576160e+00    3.537992e+00
  3.607912e+00    3.394970e+00
  3.639663e+00    3.470315e+00
  3.671414e+00    3.539531e+00
  3.703165e+00    3.568246e+00
  3.734916e+00    3.537802e+00
  3.766667e+00    3.477180e+00
  3.798418e+00    3.475332e+00
  3.830170e+00    3.494265e+00
  3.861921e+00    3.515211e+00
  3.893672e+00    3.554114e+00
  3.925423e+00    3.480603e+00
  3.957174e+00    3.534759e+00
  3.988925e+00    3.559965e+00
  4.020676e+00    3.450489e+00
  4.052428e+00    3.569270e+00
  4.084179e+00    3.544370e+00
  4.115930e+00    3.497752e+00
  4.147681e+00    3.567552e+00
  4.179432e+00    3.566448e+00
  4.211183e+00    3.617371e+00
  4.242935e+00    3.545006e+00
  4.274686e+00    3.619193e+00
  4.306437e+00    3.553727e+00
  4.338188e+00    3.630755e+00
  4.369939e+00    3.468963e+00
  4.401690e+00    3.599655e+00
  4.433441e+00    3.541318e+00
  4.465193e+00    3.563733e+00
  4.496944e+00    3.623616e+00
  4.528695e+00    3.655058e+00
  4.560446e+00    3.539064e+00
  4.592197e+00    3.632564e+00
  4.623948e+00    3.704922e+00
  4.655699e+00    3.627815e+00
  4.687451e+00    3.619500e+00
  4.719202e+00    3.668686e+00
  4.750953e+00    3.669868e+00
  4.782704e+00    3.664233e+00
  4.814455e+00    3.581825e+00
  4.846206e+00    3.632345e+00
  4.877957e+00    3.695186e+00
  4.909709e+00    3.707825e+00
  4.941460e+00    3.642258e+00
  4.973211e+00    3.636250e+00
  5.004962e+00    3.615555e+00
  5.036713e+00    3.624353e+00
  5.068464e+00    3.659748e+00
  5.100216e+00    3.655328e+00
  5.131967e+00    3.683304e+00
  5.163718e+00    3.706355e+00
  5.195469e+00    3.637651e+00
  5.227220e+00    3.620301e+00
  5.258971e+00    3.720486e+00
  5.290722e+00    3.663622e+00
  5.322474e+00    3.657866e+00
  5.354225e+00    3.613015e+00
  5.385976e+00    3.709407e+00
  5.417727e+00    3.688767e+00
  5.449478e+00    3.584175e+00
  5.481229e+00    3.614158e+00
  5.512980e+00    3.611779e+00
  5.544732e+00    3.650240e+00
  5.576483e+00    3.612561e+00
  5.608234e+00    3.668617e+00
  5.639985e+00    3.609769e+00
  5.671736e+00    3.525663e+00
  5.703487e+00    3.606878e+00
  5.735238e+00    3.659234e+00
  5.766990e+00    3.682981e+00
  5.798741e+00    3.463243e+00
  5.830492e+00    3.486208e+00
  5.862243e+00    3.551491e+00
  5.893994e+00    3.578993e+00
  5.925745e+00    3.614141e+00
  5.957497e+00    3.446695e+00
  5.989248e+00    3.496222e+00
  6.020999e+00    3.549812e+00
  6.052750e+00    3.499292e+00
  6.084501e+00    3.606289e+00
  6.116252e+00    3.579392e+00
  6.148003e+00    3.527532e+00
  6.179755e+00    3.606589e+00
  6.211506e+00    3.518006e+00
  6.243257e+00    3.585313e+00
  6.275008e+00    3.572210e+00
  6.306759e+00    3.598073e+00
  6.338510e+00    3.529241e+00
  6.370261e+00    3.612228e+00
  6.402013e+00    3.586415e+00
  6.433764e+00    3.614541e+00
  6.465515e+00    3.582370e+00
  6.497266e+00    3.583889e+00
  6.529017e+00    3.618994e+00
  6.560768e+00    3.523337e+00
  6.592519e+00    3.591068e+00
  6.624271e+00    3.626200e+00
  6.656022e+00    3.564507e+00
  6.687773e+00    3.553373e+00
  6.719524e+00    3.546706e+00
  6.751275e+00    3.516151e+00
  6.783026e+00    3.477348e+00
  6.814777e+00    3.566211e+00
  6.846529e+00    3.551087e+00
  6.878280e+00    3.556082e+00
  6.910031e+00    3.514505e+00
  6.941782e+00    3.504541e+00
  6.973533e+00    3.523660e+00
  7.005284e+00    3.552071e+00
  7.037036e+00    3.485568e+00
  7.068787e+00    3.594449e+00
  7.100538e+00    3.527957e+00
  7.132289e+00    3.511738e+00
  7.164040e+00    3.493280e+00
  7.195791e+00    3.486369e+00
  7.227542e+00    3.482362e+00
  7.259294e+00    3.471675e+00
  7.291045e+00    3.528632e+00
  7.322796e+00    3.523219e+00
  7.354547e+00    3.422851e+00
  7.386298e+00    3.611506e+00
  7.418049e+00    3.544492e+00
  7.449800e+00    3.485855e+00
  7.481552e+00    3.494003e+00
  7.513303e+00    3.581277e+00
  7.545054e+00    3.463142e+00
  7.576805e+00    3.470264e+00
  7.608556e+00    3.506706e+00
  7.640307e+00    3.365450e+00
  7.672058e+00    3.522713e+00
  7.703810e+00    3.444389e+00
  7.735561e+00    3.532146e+00
  7.767312e+00    3.417379e+00
  7.799063e+00    3.429539e+00
  7.830814e+00    3.400203e+00
  7.862565e+00    3.405371e+00
  7.894317e+00    3.379270e+00
  7.926068e+00    3.453058e+00
  7.957819e+00    3.466929e+00
  7.989570e+00    3.518829e+00
  8.021321e+00    3.460276e+00
  8.053072e+00    3.441125e+00
  8.084823e+00    3.475360e+00
  8.116575e+00    3.558731e+00
  8.148326e+00    3.426150e+00
  8.180077e+00    3.445820e+00
  8.211828e+00    3.461380e+00
  8.243579e+00    3.464607e+00
  8.275330e+00    3.446284e+00
  8.307081e+00    3.392449e+00
  8.338833e+00    3.384732e+00
  8.370584e+00    3.432780e+00
  8.402335e+00    3.456762e+00
  8.434086e+00    3.442812e+00
  8.465837e+00    3.385746e+00
  8.497588e+00    3.347339e+00
  8.529339e+00    3.339367e+00
  8.561091e+00    3.421944e+00
  8.592842e+00    3.366108e+00
  8.624593e+00    3.339071e+00
  8.656344e+00    3.369474e+00
  8.688095e+00    3.248399e+00
  8.719846e+00    3.320352e+00
  8.751598e+00    3.300753e+00
  8.783349e+00    3.300265e+00
  8.815100e+00    3.323496e+00
  8.846851e+00    3.315745e+00
  8.878602e+00    3.304049e+00
  8.910353e+00    3.312299e+00
  8.942104e+00    3.319722e+00
  8.973856e+00    3.312978e+00
  9.005607e+00    3.253891e+00
  9.037358e+00    3.330438e+00
  9.069109e+00    3.284767e+00
  9.100860e+00    3.315636e+00
  9.132611e+00    3.243912e+00
  9.164362e+00    3.230292e+00
  9.196114e+00    3.245454e+00
  9.227865e+00    3.280661e+00
  9.259616e+00    3.190521e+00
  9.291367e+00    3.238317e+00
  9.323118e+00    3.258052e+00
  9.354869e+00    3.243490e+00
  9.386620e+00    3.253349e+00
  9.418372e+00    3.228289e+00
  9.450123e+00    3.197619e+00
  9.481874e+00    3.185499e+00
  9.513625e+00    3.258436e+00
  9.545376e+00    3.253016e+00
  9.577127e+00    3.267204e+00
  9.608878e+00    3.218259e+00
  9.640630e+00    3.186918e+00
  9.672381e+00    3.223327e+00
  9.704132e+00    3.190430e+00
  9.735883e+00    3.166290e+00
  9.767634e+00    3.159594e+00
  9.799385e+00    3.143545e+00
  9.831137e+00    3.129441e+00
  9.862888e+00    3.121330e+00
  9.894639e+00    3.138395e+00
  9.926390e+00    3.117428e+00
  9.958141e+00    3.107040e+00
  9.989892e+00    3.140039e+00
  1.002164e+01    3.069114e+00
  1.005339e+01    3.146510e+00
  1.008515e+01    3.164280e+00
  1.011690e+01    3.076253e+00
  1.014865e+01    3.127407e+00
  1.018040e+01    3.085220e+00
  1.021215e+01    3.031160e+00
  1.024390e+01    3.076296e+00
  1.027565e+01    3.096628e+00
  1.030740e+01    3.019841e+00
  1.033915e+01    3.028470e+00
  1.037091e+01    3.038340e+00
  1.040266e+01    3.108256e+00
  1.043441e+01    3.017408e+00
  1.046616e+01    3.051058e+00
  1.049791e+01    3.012974e+00
  1.052966e+01    3.026303e+00
  1.056141e+01    2.992903e+00
  1.059316e+01    2.974283e+00
  1.062492e+01    2.980318e+00
  1.065667e+01    3.001208e+00
  1.068842e+01    2.970936e+00
  1.072017e+01    2.962067e+00
  1.075192e+01    2.981545e+00
  1.078367e+01    2.911273e+00
  1.081542e+01    2.965110e+00
  1.084717e+01    2.943285e+00
  1.087892e+01    2.929514e+00
  1.091068e+01    2.940660e+00
  1.094243e+01    2.930277e+00
  1.097418e+01    2.972282e+00
  1.100593e+01    2.915339e+00
  1.103768e+01    2.947883e+00
  1.106943e+01    2.869740e+00
  1.110118e+01    2.974129e+00
  1.113293e+01    2.877677e+00
  1.116468e+01    2.914963e+00
  1.119644e+01    2.912758e+00
  1.122819e+01    2.881398e+00
  1.125994e+01    2.847659e+00
  1.129169e+01    2.826009e+00
  1.132344e+01    2.864413e+00
  1.135519e+01    2.890907e+00
  1.138694e+01    2.805797e+00
  1.141869e+01    2.818932e+00
  1.145045e+01    2.786725e+00
  1.148220e+01    2.760356e+00
  1.151395e+01    2.785851e+00
  1.154570e+01    2.801663e+00
  1.157745e+01    2.766660e+00
  1.160920e+01    2.761554e+00
  1.164095e+01    2.803951e+00
  1.167270e+01    2.732255e+00
  1.170445e+01    2.713548e+00
  1.173621e+01    2.753179e+00
  1.176796e+01    2.804335e+00
  1.179971e+01    2.737637e+00
  1.183146e+01    2.727521e+00
  1.186321e+01    2.738690e+00
  1.189496e+01    2.708300e+00
  1.192671e+01    2.719216e+00
  1.195846e+01    2.796936e+00
  1.199021e+01    2.733989e+00
  1.202197e+01    2.717267e+00
  1.205372e+01    2.721963e+00
  1.208547e+01    2.715087e+00
  1.211722e+01    2.682093e+00
  1.214897e+01    2.732913e+00
  1.218072e+01    2.697442e+00
  1.221247e+01    2.712276e+00
  1.224422e+01    2.734631e+00
  1.227597e+01    2.692145e+00
  1.230773e+01    2.727283e+00
  1.233948e+01    2.712441e+00
  1.237123e+01    2.720372e+00
  1.240298e+01    2.696753e+00
  1.243473e+01    2.697130e+00
  1.246648e+01    2.651486e+00
  1.249823e+01    2.747946e+00
  1.252998e+01    2.729446e+00
  1.256174e+01    2.660805e+00
  1.259349e+01    2.743030e+00
  1.262524e+01    2.772788e+00
  1.265699e+01    2.761755e+00
  1.268874e+01    2.829291e+00
  1.272049e+01    2.864382e+00
  1.275224e+01    2.914402e+00
  1.278399e+01    2.965332e+00
  1.281574e+01    3.064537e+00
  1.284750e+01    3.205753e+00
  1.287925e+01    3.365892e+00
  1.291100e+01    3.656291e+00
  1.294275e+01    4.137540e+00
  1.297450e+01    4.833214e+00
  1.300625e+01    5.901037e+00
  1.303800e+01    7.639475e+00
  1.306975e+01    1.023573e+01
  1.310150e+01    1.270720e+01
  1.313326e+01    1.486551e+01
  1.316501e+01    1.630598e+01
  1.319676e+01    1.573919e+01
  1.322851e+01    1.244097e+01
  1.326026e+01    9.125495e+00
  1.329201e+01    6.702911e+00
  1.332376e+01    5.286817e+00
  1.335551e+01    4.409668e+00
  1.338727e+01    3.889269e+00
  1.341902e+01    3.435478e+00
  1.345077e+01    3.258725e+00
  1.348252e+01    3.059823e+00
  1.351427e+01    2.906296e+00
  1.354602e+01    2.792657e+00
  1.357777e+01    2.741044e+00
  1.360952e+01    2.634064e+00
  1.364127e+01    2.663476e+00
  1.367303e+01    2.568601e+00
  1.370478e+01    2.586275e+00
  1.373653e+01    2.506716e+00
  1.376828e+01    2.486559e+00
  1.380003e+01    2.523267e+00
  1.383178e+01    2.447674e+00
  1.386353e+01    2.419947e+00
  1.389528e+01    2.414431e+00
  1.392703e+01    2.405149e+00
  1.395879e+01    2.375599e+00
  1.399054e+01    2.378258e+00
  1.402229e+01    2.335680e+00
  1.405404e+01    2.355678e+00
  1.408579e+01    2.355796e+00
  1.411754e+01    2.285987e+00
  1.414929e+01    2.305438e+00
  1.418104e+01    2.274656e+00
  1.421279e+01    2.290736e+00
  1.424455e+01    2.273833e+00
  1.427630e+01    2.258476e+00
  1.430805e+01    2.342366e+00
  1.433980e+01    2.235846e+00
  1.437155e+01    2.230428e+00
  1.440330e+01    2.268500e+00
  1.443505e+01    2.242104e+00
  1.446680e+01    2.244045e+00
  1.449856e+01    2.239302e+00
  1.453031e+01    2.219337e+00
  1.456206e+01    2.223572e+00
  1.459381e+01    2.208226e+00
  1.462556e+01    2.215719e+00
  1.465731e+01    2.196203e+00
  1.468906e+01    2.247972e+00
  1.472081e+01    2.184325e+00
  1.475256e+01    2.214030e+00
  1.478432e+01    2.196438e+00
  1.481607e+01    2.211300e+00
  1.484782e+01    2.251587e+00
  1.487957e+01    2.240066e+00
  1.491132e+01    2.261415e+00
  1.494307e+01    2.241565e+00
  1.497482e+01    2.371696e+00
  1.500657e+01    2.450415e+00
  1.503832e+01    2.588912e+00
  1.507008e+01    2.824317e+00
  1.510183e+01    3.189885e+00
  1.513358e+01    3.833316e+00
  1.516533e+01    4.493786e+00
  1.519708e+01    5.116694e+00
  1.522883e+01    5.575914e+00
  1.526058e+01    5.765372e+00
  1.529233e+01    5.479816e+00
  1.532409e+01    4.599173e+00
  1.535584e+01    3.757947e+00
  1.538759e+01    3.188630e+00
  1.541934e+01    2.813084e+00
  1.545109e+01    2.531259e+00
  1.548284e+01    2.360906e+00
  1.551459e+01    2.267425e+00
  1.554634e+01    2.161177e+00
  1.557809e+01    2.138322e+00
  1.560985e+01    2.081996e+00
  1.564160e+01    2.025144e+00
  1.567335e+01    2.025449e+00
  1.570510e+01    2.008398e+00
  1.573685e+01    1.972789e+00
  1.576860e+01    1.945846e+00
  1.580035e+01    1.928359e+00
  1.583210e+01    1.924772e+00
  1.586385e+01    1.941311e+00
  1.589561e+01    1.881510e+00
  1.592736e+01    1.908127e+00
  1.595911e+01    1.857152e+00
  1.599086e+01    1.885912e+00
  1.602261e+01    1.882438e+00
  1.605436e+01    1.874327e+00
  1.608611e+01    1.865199e+00
  1.611786e+01    1.848145e+00
  1.614961e+01    1.837816e+00
  1.618137e+01    1.809274e+00
  1.621312e+01    1.834369e+00
  1.624487e+01    1.846153e+00
  1.627662e+01    1.803309e+00
  1.630837e+01    1.792977e+00
  1.634012e+01    1.765816e+00
  1.637187e+01    1.811132e+00
  1.640362e+01    1.777892e+00
  1.643538e+01    1.779706e+00
  1.646713e+01    1.748893e+00
  1.649888e+01    1.761293e+00
  1.653063e+01    1.754037e+00
  1.656238e+01    1.774294e+00
  1.659413e+01    1.744029e+00
  1.662588e+01    1.710988e+00
  1.665763e+01    1.718922e+00
  1.668938e+01    1.705875e+00
  1.672114e+01    1.741474e+00
  1.675289e+01    1.717297e+00
  1.678464e+01    1.717641e+00
  1.681639e+01    1.695613e+00
  1.684814e+01    1.685501e+00
  1.687989e+01    1.667159e+00
  1.691164e+01    1.706851e+00
  1.694339e+01    1.685412e+00
  1.697514e+01    1.694358e+00
  1.700690e+01    1.679253e+00
  1.703865e+01    1.658272e+00
  1.707040e+01    1.684052e+00
  1.710215e+01    1.656431e+00
  1.713390e+01    1.647194e+00
  1.716565e+01    1.662723e+00
  1.719740e+01    1.629402e+00
  1.722915e+01    1.620598e+00
  1.726091e+01    1.648701e+00
  1.729266e+01    1.629557e+00
  1.732441e+01    1.631499e+00
  1.735616e+01    1.598535e+00
  1.738791e+01    1.617923e+00
  1.741966e+01    1.601654e+00
  1.745141e+01    1.603867e+00
  1.748316e+01    1.597994e+00
  1.751491e+01    1.596373e+00
  1.754667e+01    1.609853e+00
  1.757842e+01    1.583493e+00
  1.761017e+01    1.569881e+00
  1.764192e+01    1.590303e+00
  1.767367e+01    1.560874e+00
  1.770542e+01    1.557667e+00
  1.773717e+01    1.563387e+00
  1.776892e+01    1.550605e+00
  1.780067e+01    1.529217e+00
  1.783243e+01    1.532084e+00
  1.786418e+01    1.529877e+00
  1.789593e+01    1.536693e+00
  1.792768e+01    1.548915e+00
  1.795943e+01    1.545588e+00
  1.799118e+01    1.540475e+00
  1.802293e+01    1.508674e+00
  1.805468e+01    1.500818e+00
  1.808643e+01    1.514801e+00
  1.811819e+01    1.487457e+00
  1.814994e+01    1.496235e+00
  1.818169e+01    1.483742e+00
  1.821344e+01    1.468783e+00
  1.824519e+01    1.468796e+00
  1.827694e+01    1.479146e+00
  1.830869e+01    1.473153e+00
  1.834044e+01    1.436568e+00
  1.837220e+01    1.446738e+00
  1.840395e+01    1.442869e+00
  1.843570e+01    1.445755e+00
  1.846745e+01    1.478664e+00
  1.849920e+01    1.439935e+00
  1.853095e+01    1.449591e+00
  1.856270e+01    1.449618e+00
  1.859445e+01    1.457866e+00
  1.862620e+01    1.421327e+00
  1.865796e+01    1.433420e+00
  1.868971e+01    1.418144e+00
  1.872146e+01    1.431645e+00
  1.875321e+01    1.416328e+00
  1.878496e+01    1.445764e+00
  1.881671e+01    1.433308e+00
  1.884846e+01    1.397978e+00
  1.888021e+01    1.415717e+00
  1.891196e+01    1.388074e+00
  1.894372e+01    1.378078e+00
  1.897547e+01    1.410167e+00
  1.900722e+01    1.385640e+00
  1.903897e+01    1.383171e+00
  1.907072e+01    1.358122e+00
  1.910247e+01    1.410197e+00
  1.913422e+01    1.388869e+00
  1.916597e+01    1.387258e+00
  1.919773e+01    1.357064e+00
  1.922948e+01    1.378307e+00
  1.926123e+01    1.370387e+00
  1.929298e+01    1.363785e+00
  1.932473e+01    1.363630e+00
  1.935648e+01    1.344849e+00
  1.938823e+01    1.334023e+00
  1.941998e+01    1.348955e+00
  1.945173e+01    1.335471e+00
  1.948349e+01    1.340645e+00
  1.951524e+01    1.346282e+00
  1.954699e+01    1.331944e+00
  1.957874e+01    1.314210e+00
  1.961049e+01    1.324230e+00
  1.964224e+01    1.298490e+00
  1.967399e+01    1.306047e+00
  1.970574e+01    1.293234e+00
  1.973749e+01    1.283513e+00
  1.976925e+01    1.280731e+00
  1.980100e+01    1.311651e+00
  1.983275e+01    1.309664e+00
  1.986450e+01    1.307462e+00
  1.989625e+01    1.326540e+00
  1.992800e+01    1.272267e+00
  1.995975e+01    1.275070e+00
  1.999150e+01    1.267816e+00
  2.002325e+01    1.279107e+00
  2.005501e+01    1.265910e+00
  2.008676e+01    1.278028e+00
  2.011851e+01    1.277673e+00
  2.015026e+01    1.265079e+00
  2.018201e+01    1.281185e+00
  2.021376e+01    1.258810e+00
  2.024551e+01    1.270777e+00
  2.027726e+01    1.280848e+00
  2.030902e+01    1.240974e+00
  2.034077e+01    1.268841e+00
  2.037252e+01    1.282899e+00
  2.040427e+01    1.281870e+00
  2.043602e+01    1.243347e+00
  2.046777e+01    1.266307e+00
  2.049952e+01    1.264684e+00
  2.053127e+01    1.231286e+00
  2.056302e+01    1.227507e+00
  2.059478e+01    1.253439e+00
  2.062653e+01    1.246353e+00
  2.065828e+01    1.238598e+00
  2.069003e+01    1.232860e+00
  2.072178e+01    1.215195e+00
  2.075353e+01    1.246611e+00
  2.078528e+01    1.236399e+00
  2.081703e+01    1.216353e+00
  2.084878e+01    1.206885e+00
  2.088054e+01    1.213583e+00
  2.091229e+01    1.219408e+00
  2.094404e+01    1.225833e+00
  2.097579e+01    1.252019e+00
  2.100754e+01    1.206791e+00
  2.103929e+01    1.230972e+00
  2.107104e+01    1.230876e+00
  2.110279e+01    1.214530e+00
  2.113455e+01    1.205564e+00
  2.116630e+01    1.258570e+00
  2.119805e+01    1.254514e+00
  2.122980e+01    1.240635e+00
  2.126155e+01    1.240271e+00
  2.129330e+01    1.269632e+00
  2.132505e+01    1.267816e+00
  2.135680e+01    1.268160e+00
  2.138855e+01    1.319349e+00
  2.142031e+01    1.321427e+00
  2.145206e+01    1.376181e+00
  2.148381e+01    1.397747e+00
  2.151556e+01    1.451825e+00
  2.154731e+01    1.497660e+00
  2.157906e+01    1.614875e+00
  2.161081e+01    1.779862e+00
  2.164256e+01    1.960062e+00
  2.167431e+01    2.283419e+00
  2.170607e+01    2.779172e+00
  2.173782e+01    3.522196e+00
  2.176957e+01    4.621473e+00
  2.180132e+01    5.876522e+00
  2.183307e+01    7.161240e+00
  2.186482e+01    8.376779e+00
  2.189657e+01    8.942404e+00
  2.192832e+01    8.225043e+00
  2.196007e+01    6.523432e+00
  2.199183e+01    4.860618e+00
  2.202358e+01    3.621431e+00
  2.205533e+01    2.845021e+00
  2.208708e+01    2.307030e+00
  2.211883e+01    1.963869e+00
  2.215058e+01    1.782265e+00
  2.218233e+01    1.596562e+00
  2.221408e+01    1.508513e+00
  2.224584e+01    1.423291e+00
  2.227759e+01    1.351035e+00
  2.230934e+01    1.296534e+00
  2.234109e+01    1.247208e+00
  2.237284e+01    1.211123e+00
  2.240459e+01    1.199777e+00
  2.243634e+01    1.213700e+00
  2.246809e+01    1.155872e+00
  2.249984e+01    1.122442e+00
  2.253160e+01    1.132133e+00
  2.256335e+01    1.112749e+00
  2.259510e+01    1.091645e+00
  2.262685e+01    1.113703e+00
  2.265860e+01    1.072604e+00
  2.269035e+01    1.115585e+00
  2.272210e+01    1.084842e+00
  2.275385e+01    1.063507e+00
  2.278560e+01    1.052394e+00
  2.281736e+01    1.048756e+00
  2.284911e+01    1.058483e+00
  2.288086e+01    1.063170e+00
  2.291261e+01    1.030956e+00
  2.294436e+01    1.032913e+00
  2.297611e+01    1.052431e+00
  2.300786e+01    1.023038e+00
  2.303961e+01    1.022403e+00
  2.307137e+01    1.034185e+00
  2.310312e+01    1.012388e+00
  2.313487e+01    1.007120e+00
  2.316662e+01    9.878445e-01
  2.319837e+01    1.005438e+00
  2.323012e+01    1.002876e+00
  2.326187e+01    1.002762e+00
  2.329362e+01    9.921829e-01
  2.332537e+01    9.649900e-01
  2.335713e+01    9.925193e-01
  2.338888e+01    9.602793e-01
  2.342063e+01    9.696835e-01
  2.345238e+01    9.610830e-01
  2.348413e+01    9.766313e-01
  2.351588e+01    9.659433e-01
  2.354763e+01    9.666393e-01
  2.357938e+01    9.493672e-01
  2.361113e+01    9.592439e-01
  2.364289e+01    9.493146e-01
  2.367464e+01    9.439950e-01
  2.370639e+01    9.316732e-01
  2.373814e+01    9.317260e-01
  2.376989e+01    9.302129e-01
  2.380164e+01    9.241787e-01
  2.383339e+01    9.181140e-01
  2.386514e+01    9.392675e-01
  2.389689e+01    9.312131e-01
  2.392865e+01    9.137313e-01
  2.396040e+01    9.203110e-01
  2.399215e+01    9.098650e-01
  2.402390e+01    8.943574e-01
  2.405565e+01    9.130892e-01
  2.408740e+01    8.864469e-01
  2.411915e+01    9.235148e-01
  2.415090e+01    8.819022e-01
  2.418266e+01    8.763815e-01
  2.421441e+01    8.877447e-01
  2.424616e+01    8.771091e-01
  2.427791e+01    8.980348e-01
  2.430966e+01    9.044736e-01
  2.434141e+01    9.191444e-01
  2.437316e+01    9.045234e-01
  2.440491e+01    8.964223e-01
  2.443666e+01    8.880360e-01
  2.446842e+01    9.125928e-01
  2.450017e+01    8.985345e-01
  2.453192e+01    9.019773e-01
  2.456367e+01    8.827976e-01
  2.459542e+01    8.967417e-01
  2.462717e+01    8.997526e-01
  2.465892e+01    8.975823e-01
  2.469067e+01    9.176334e-01
  2.472242e+01    8.915243e-01
  2.475418e+01    8.964196e-01
  2.478593e+01    9.130230e-01
  2.481768e+01    9.041788e-01
  2.484943e+01    9.071407e-01
  2.488118e+01    8.898162e-01
  2.491293e+01    8.951625e-01
  2.494468e+01    8.887728e-01
  2.497643e+01    8.985557e-01
  2.500819e+01    9.124297e-01
  2.503994e+01    9.189005e-01
  2.507169e+01    8.976775e-01
  2.510344e+01    9.243314e-01
  2.513519e+01    9.201792e-01
  2.516694e+01    9.431595e-01
  2.519869e+01    9.208378e-01
  2.523044e+01    9.502882e-01
  2.526219e+01    9.163427e-01
  2.529395e+01    9.635627e-01
  2.532570e+01    9.687971e-01
  2.535745e+01    9.781375e-01
  2.538920e+01    9.855030e-01
  2.542095e+01    9.985250e-01
  2.545270e+01    1.024559e+00
  2.548445e+01    1.056896e+00
  2.551620e+01    1.069896e+00
  2.554795e+01    1.109787e+00
  2.557971e+01    1.149234e+00
  2.561146e+01    1.232648e+00
  2.564321e+01    1.321699e+00
  2.567496e+01    1.416780e+00
  2.570671e+01    1.607989e+00
  2.573846e+01    1.857798e+00
  2.577021e+01    2.273664e+00
  2.580196e+01    2.764225e+00
  2.583371e+01    3.625835e+00
  2.586547e+01    4.685439e+00
  2.589722e+01    5.840476e+00
  2.592897e+01    6.767402e+00
  2.596072e+01    7.094867e+00
  2.599247e+01    6.541142e+00
  2.602422e+01    5.213221e+00
  2.605597e+01    3.941513e+00
  2.608772e+01    2.976591e+00
  2.611948e+01    2.332944e+00
  2.615123e+01    1.964309e+00
  2.618298e+01    1.675671e+00
  2.621473e+01    1.477930e+00
  2.624648e+01    1.355823e+00
  2.627823e+01    1.279541e+00
  2.630998e+01    1.188868e+00
  2.634173e+01    1.105224e+00
  2.637348e+01    1.089548e+00
  2.640524e+01    1.043353e+00
  2.643699e+01    1.045203e+00
  2.646874e+01    1.016493e+00
  2.650049e+01    1.012547e+00
  2.653224e+01    9.827701e-01
  2.656399e+01    9.869009e-01
  2.659574e+01    9.757203e-01
  2.662749e+01    9.582406e-01
  2.665924e+01    9.908190e-01
  2.669100e+01    9.666573e-01
  2.672275e+01    9.530038e-01
  2.675450e+01    9.466273e-01
  2.678625e+01    1.002796e+00
  2.681800e+01    9.765159e-01
  2.684975e+01    9.657604e-01
  2.688150e+01    1.016974e+00
  2.691325e+01    9.992796e-01
  2.694501e+01    1.045918e+00
  2.697676e+01    1.069046e+00
  2.700851e+01    1.093455e+00
  2.704026e+01    1.206989e+00
  2.707201e+01    1.335320e+00
  2.710376e+01    1.478748e+00
  2.713551e+01    1.735934e+00
  2.716726e+01    1.975431e+00
  2.719901e+01    2.153446e+00
  2.723077e+01    2.125818e+00
  2.726252e+01    1.988758e+00
  2.729427e+01    1.683550e+00
  2.732602e+01    1.442022e+00
  2.735777e+01    1.285628e+00
  2.738952e+01    1.152829e+00
  2.742127e+01    1.091817e+00
  2.745302e+01    1.035208e+00
  2.748477e+01    1.010430e+00
  2.751653e+01    9.859658e-01
  2.754828e+01    9.700100e-01
  2.758003e+01    9.215384e-01
  2.761178e+01    9.195212e-01
  2.764353e+01    9.400284e-01
  2.767528e+01    9.133292e-01
  2.770703e+01    8.939238e-01
  2.773878e+01    8.998721e-01
  2.777054e+01    9.163834e-01
  2.780229e+01    9.036711e-01
  2.783404e+01    8.812829e-01
  2.786579e+01    8.867030e-01
  2.789754e+01    8.576944e-01
  2.792929e+01    8.693570e-01
  2.796104e+01    8.712968e-01
  2.799279e+01    8.646384e-01
  2.802454e+01    8.741311e-01
  2.805630e+01    8.630859e-01
  2.808805e+01    8.691087e-01
  2.811980e+01    8.743878e-01
  2.815155e+01    8.701496e-01
  2.818330e+01    8.602221e-01
  2.821505e+01    8.514678e-01
  2.824680e+01    8.755485e-01
  2.827855e+01    8.269988e-01
  2.831030e+01    8.446161e-01
  2.834206e+01    8.498407e-01
  2.837381e+01    8.488954e-01
  2.840556e+01    8.518990e-01
  2.843731e+01    8.419930e-01
  2.846906e+01    8.326824e-01
  2.850081e+01    8.367656e-01
  2.853256e+01    8.447295e-01
  2.856431e+01    8.327892e-01
  2.859606e+01    8.670927e-01
  2.862782e+01    8.188220e-01
  2.865957e+01    8.249875e-01
  2.869132e+01    8.236611e-01
  2.872307e+01    8.248591e-01
  2.875482e+01    8.204048e-01
  2.878657e+01    8.273236e-01
  2.881832e+01    8.205638e-01
  2.885007e+01    8.160308e-01
  2.888183e+01    8.112133e-01
  2.891358e+01    8.072103e-01
  2.894533e+01    8.317651e-01
  2.897708e+01    7.853690e-01
  2.900883e+01    8.401065e-01
  2.904058e+01    8.454615e-01
  2.907233e+01    8.201140e-01
  2.910408e+01    8.190355e-01
  2.913583e+01    8.207454e-01
  2.916759e+01    8.238375e-01
  2.919934e+01    8.214236e-01
  2.923109e+01    8.238071e-01
  2.926284e+01    8.011907e-01
  2.929459e+01    8.140690e-01
  2.932634e+01    8.296943e-01
  2.935809e+01    7.977465e-01
  2.938984e+01    8.029025e-01
  2.942159e+01    8.063304e-01
  2.945335e+01    8.156577e-01
  2.948510e+01    7.852879e-01
  2.951685e+01    7.988434e-01
  2.954860e+01    8.084147e-01
  2.958035e+01    7.852234e-01
  2.961210e+01    8.076590e-01
  2.964385e+01    8.162320e-01
  2.967560e+01    7.845042e-01
  2.970736e+01    7.871060e-01
  2.973911e+01    8.095427e-01
  2.977086e+01    8.122316e-01
  2.980261e+01    7.945180e-01
  2.983436e+01    7.968121e-01
  2.986611e+01    7.925824e-01
  2.989786e+01    7.997655e-01
  2.992961e+01    7.877322e-01
  2.996136e+01    7.848397e-01
  2.999312e+01    7.947748e-01
  3.002487e+01    8.110304e-01
  3.005662e+01    8.063175e-01
  3.008837e+01    7.985092e-01
  3.012012e+01    8.369603e-01
  3.015187e+01    7.857028e-01
  3.018362e+01    7.966995e-01
  3.021537e+01    7.624609e-01
  3.024712e+01    8.015894e-01
  3.027888e+01    7.848290e-01
  3.031063e+01    7.986481e-01
  3.034238e+01    7.919272e-01
  3.037413e+01    8.051556e-01
  3.040588e+01    7.799915e-01
  3.043763e+01    7.783645e-01
  3.046938e+01    7.848411e-01
  3.050113e+01    7.642864e-01
  3.053288e+01    7.861217e-01
  3.056464e+01    7.616771e-01
  3.059639e+01    7.961862e-01
  3.062814e+01    7.605067e-01
  3.065989e+01    7.890582e-01
  3.069164e+01    7.983813e-01
  3.072339e+01    7.823778e-01
  3.075514e+01    7.799096e-01
  3.078689e+01    7.675923e-01
  3.081865e+01    7.714916e-01
  3.085040e+01    8.166631e-01
  3.088215e+01    7.794021e-01
  3.091390e+01    7.704335e-01
  3.094565e+01    8.008441e-01
  3.097740e+01    7.756537e-01
  3.100915e+01    7.622361e-01
  3.104090e+01    7.985429e-01
  3.107265e+01    7.628005e-01
  3.110441e+01    7.781317e-01
  3.113616e+01    7.901331e-01
  3.116791e+01    7.877011e-01
  3.119966e+01    7.811639e-01
  3.123141e+01    8.119934e-01
  3.126316e+01    8.013552e-01
  3.129491e+01    8.126915e-01
  3.132666e+01    8.079272e-01
  3.135841e+01    8.181479e-01
  3.139017e+01    8.046069e-01
  3.142192e+01    8.065058e-01
  3.145367e+01    8.223447e-01
  3.148542e+01    8.402994e-01
  3.151717e+01    8.183407e-01
  3.154892e+01    8.472221e-01
  3.158067e+01    8.770328e-01
  3.161242e+01    9.161904e-01
  3.164418e+01    9.271633e-01
  3.167593e+01    9.468124e-01
  3.170768e+01    1.033200e+00
  3.173943e+01    1.109374e+00
  3.177118e+01    1.254945e+00
  3.180293e+01    1.442965e+00
  3.183468e+01    1.703382e+00
  3.186643e+01    1.928849e+00
  3.189818e+01    2.083003e+00
  3.192994e+01    2.045844e+00
  3.196169e+01    1.843685e+00
  3.199344e+01    1.549473e+00
  3.202519e+01    1.347333e+00
  3.205694e+01    1.179741e+00
  3.208869e+01    1.006488e+00
  3.212044e+01    9.872712e-01
  3.215219e+01    9.196814e-01
  3.218394e+01    8.803697e-01
  3.221570e+01    8.528864e-01
  3.224745e+01    8.386030e-01
  3.227920e+01    8.332034e-01
  3.231095e+01    8.150402e-01
  3.234270e+01    7.962096e-01
  3.237445e+01    7.967206e-01
  3.240620e+01    7.852035e-01
  3.243795e+01    7.909498e-01
  3.246970e+01    7.721554e-01
  3.250146e+01    7.728688e-01
  3.253321e+01    7.927118e-01
  3.254908e+01    7.832713e-01