File: XRD/Reaction conditions/2024-07-27_003_Ru-CGO-ex_Reaction_dwell_000023_data_000098.dat
# == pyFAI calibration ==
# Distance Sample to Detector: 0.4 m
# PONI: 9.750e-02, 1.135e-01 m
# Rotations: -0.000175 0.000000 -0.000000 rad
#
# == Fit2d calibration ==
# Distance Sample-beamCenter: 400.000 mm
# Center: x=1514.000, y=1300.000 pix
# Tilt: 0.010 deg  TiltPlanRot: 0.010 deg
#
# Detector Detector	 Spline= None	 PixelSize= 7.500e-05, 7.500e-05 m
#    Detector has a mask: False
#    Detector has a dark current: False
#    detector has a flat field: False
#
# Wavelength: 6.888e-11 m
# Mask applied: user provided
# Dark current applied: False
# Flat field applied: False
# Polarization factor: 0.99
# Normalization factor: 1.0
# --> /home/myspot/data/2024_07_Rosario/Ru-CGO-ex/2024-07-27_003_Ru-CGO-ex_Reaction_dwell_000023_data_000098.dat
#       q_nm^-1             I
  2.003187e-02    0.000000e+00
  5.178302e-02    2.688038e-01
  8.353417e-02    1.545487e-01
  1.152853e-01    3.773214e-02
  1.470365e-01    7.725076e-02
  1.787876e-01    2.786847e-02
  2.105388e-01    1.407113e-02
  2.422899e-01    4.948013e-02
  2.740411e-01    4.990095e-02
  3.057922e-01    5.704523e-02
  3.375433e-01    4.319317e-02
  3.692945e-01    3.093580e-02
  4.010456e-01    2.671904e-02
  4.327968e-01    2.012150e-02
  4.645479e-01    3.478895e-02
  4.962991e-01    2.581719e-02
  5.280502e-01    2.194926e-02
  5.598014e-01    3.091957e-02
  5.915525e-01    4.624626e-02
  6.233037e-01    2.227066e-02
  6.550548e-01    3.160364e-02
  6.868060e-01    5.608593e-02
  7.185571e-01    2.940869e-02
  7.503083e-01    7.691498e-02
  7.820594e-01    1.307767e-01
  8.138106e-01    2.311846e-01
  8.455617e-01    3.581915e-01
  8.773129e-01    5.183973e-01
  9.090640e-01    6.714201e-01
  9.408152e-01    8.188443e-01
  9.725663e-01    1.052700e+00
  1.004317e+00    1.245388e+00
  1.036069e+00    1.371032e+00
  1.067820e+00    1.401193e+00
  1.099571e+00    1.703741e+00
  1.131322e+00    1.685111e+00
  1.163073e+00    1.811202e+00
  1.194824e+00    1.635377e+00
  1.226575e+00    2.271903e+00
  1.258327e+00    2.472438e+00
  1.290078e+00    2.635727e+00
  1.321829e+00    2.712133e+00
  1.353580e+00    2.739100e+00
  1.385331e+00    2.807867e+00
  1.417082e+00    2.798703e+00
  1.448834e+00    2.878801e+00
  1.480585e+00    2.952881e+00
  1.512336e+00    3.089424e+00
  1.544087e+00    3.147359e+00
  1.575838e+00    3.125344e+00
  1.607589e+00    3.092543e+00
  1.639340e+00    3.113384e+00
  1.671092e+00    3.080540e+00
  1.702843e+00    2.957385e+00
  1.734594e+00    3.148345e+00
  1.766345e+00    3.096185e+00
  1.798096e+00    3.160252e+00
  1.829847e+00    3.144473e+00
  1.861598e+00    3.077411e+00
  1.893350e+00    3.025600e+00
  1.925101e+00    3.039537e+00
  1.956852e+00    3.033314e+00
  1.988603e+00    3.059756e+00
  2.020354e+00    3.047414e+00
  2.052105e+00    3.031003e+00
  2.083856e+00    3.060451e+00
  2.115608e+00    3.114271e+00
  2.147359e+00    3.172877e+00
  2.179110e+00    2.990345e+00
  2.210861e+00    3.117992e+00
  2.242612e+00    3.139886e+00
  2.274363e+00    3.048512e+00
  2.306115e+00    3.170559e+00
  2.337866e+00    3.079365e+00
  2.369617e+00    3.063908e+00
  2.401368e+00    3.105598e+00
  2.433119e+00    3.233466e+00
  2.464870e+00    3.086360e+00
  2.496621e+00    3.306327e+00
  2.528373e+00    3.075530e+00
  2.560124e+00    3.249089e+00
  2.591875e+00    3.239740e+00
  2.623626e+00    3.194597e+00
  2.655377e+00    3.235132e+00
  2.687128e+00    3.218499e+00
  2.718879e+00    3.230144e+00
  2.750631e+00    3.290076e+00
  2.782382e+00    3.341180e+00
  2.814133e+00    3.081693e+00
  2.845884e+00    3.288796e+00
  2.877635e+00    3.260577e+00
  2.909386e+00    3.417040e+00
  2.941137e+00    3.310076e+00
  2.972889e+00    3.371448e+00
  3.004640e+00    3.279857e+00
  3.036391e+00    3.381774e+00
  3.068142e+00    3.403211e+00
  3.099893e+00    3.333516e+00
  3.131644e+00    3.340116e+00
  3.163395e+00    3.294607e+00
  3.195147e+00    3.402531e+00
  3.226898e+00    3.406244e+00
  3.258649e+00    3.391869e+00
  3.290400e+00    3.300767e+00
  3.322151e+00    3.507947e+00
  3.353902e+00    3.456206e+00
  3.385654e+00    3.462378e+00
  3.417405e+00    3.387636e+00
  3.449156e+00    3.393718e+00
  3.480907e+00    3.411280e+00
  3.512658e+00    3.492774e+00
  3.544409e+00    3.515118e+00
  3.576160e+00    3.530036e+00
  3.607912e+00    3.375115e+00
  3.639663e+00    3.414725e+00
  3.671414e+00    3.403227e+00
  3.703165e+00    3.593604e+00
  3.734916e+00    3.567086e+00
  3.766667e+00    3.511997e+00
  3.798418e+00    3.495893e+00
  3.830170e+00    3.480767e+00
  3.861921e+00    3.505312e+00
  3.893672e+00    3.585778e+00
  3.925423e+00    3.639541e+00
  3.957174e+00    3.570345e+00
  3.988925e+00    3.479521e+00
  4.020676e+00    3.472176e+00
  4.052428e+00    3.486494e+00
  4.084179e+00    3.458495e+00
  4.115930e+00    3.549934e+00
  4.147681e+00    3.557474e+00
  4.179432e+00    3.512091e+00
  4.211183e+00    3.500741e+00
  4.242935e+00    3.504517e+00
  4.274686e+00    3.552844e+00
  4.306437e+00    3.595461e+00
  4.338188e+00    3.570856e+00
  4.369939e+00    3.526254e+00
  4.401690e+00    3.537176e+00
  4.433441e+00    3.553338e+00
  4.465193e+00    3.631621e+00
  4.496944e+00    3.644490e+00
  4.528695e+00    3.676619e+00
  4.560446e+00    3.522250e+00
  4.592197e+00    3.526511e+00
  4.623948e+00    3.632618e+00
  4.655699e+00    3.587902e+00
  4.687451e+00    3.671330e+00
  4.719202e+00    3.598744e+00
  4.750953e+00    3.600530e+00
  4.782704e+00    3.667015e+00
  4.814455e+00    3.587870e+00
  4.846206e+00    3.615520e+00
  4.877957e+00    3.655569e+00
  4.909709e+00    3.689514e+00
  4.941460e+00    3.638197e+00
  4.973211e+00    3.693486e+00
  5.004962e+00    3.716782e+00
  5.036713e+00    3.636308e+00
  5.068464e+00    3.595537e+00
  5.100216e+00    3.672429e+00
  5.131967e+00    3.671725e+00
  5.163718e+00    3.690047e+00
  5.195469e+00    3.627893e+00
  5.227220e+00    3.610218e+00
  5.258971e+00    3.575584e+00
  5.290722e+00    3.614513e+00
  5.322474e+00    3.642174e+00
  5.354225e+00    3.702214e+00
  5.385976e+00    3.682873e+00
  5.417727e+00    3.625598e+00
  5.449478e+00    3.664902e+00
  5.481229e+00    3.619612e+00
  5.512980e+00    3.570220e+00
  5.544732e+00    3.617832e+00
  5.576483e+00    3.580550e+00
  5.608234e+00    3.609444e+00
  5.639985e+00    3.556806e+00
  5.671736e+00    3.664145e+00
  5.703487e+00    3.594924e+00
  5.735238e+00    3.544949e+00
  5.766990e+00    3.558862e+00
  5.798741e+00    3.486361e+00
  5.830492e+00    3.465219e+00
  5.862243e+00    3.480308e+00
  5.893994e+00    3.523246e+00
  5.925745e+00    3.646466e+00
  5.957497e+00    3.507354e+00
  5.989248e+00    3.486406e+00
  6.020999e+00    3.562023e+00
  6.052750e+00    3.577576e+00
  6.084501e+00    3.591135e+00
  6.116252e+00    3.529987e+00
  6.148003e+00    3.584702e+00
  6.179755e+00    3.562115e+00
  6.211506e+00    3.635320e+00
  6.243257e+00    3.614424e+00
  6.275008e+00    3.501690e+00
  6.306759e+00    3.641700e+00
  6.338510e+00    3.502178e+00
  6.370261e+00    3.515874e+00
  6.402013e+00    3.530322e+00
  6.433764e+00    3.345383e+00
  6.465515e+00    3.538376e+00
  6.497266e+00    3.475195e+00
  6.529017e+00    3.563914e+00
  6.560768e+00    3.600077e+00
  6.592519e+00    3.537024e+00
  6.624271e+00    3.592086e+00
  6.656022e+00    3.514854e+00
  6.687773e+00    3.602070e+00
  6.719524e+00    3.502588e+00
  6.751275e+00    3.571336e+00
  6.783026e+00    3.496442e+00
  6.814777e+00    3.527617e+00
  6.846529e+00    3.438259e+00
  6.878280e+00    3.604092e+00
  6.910031e+00    3.538224e+00
  6.941782e+00    3.542057e+00
  6.973533e+00    3.633559e+00
  7.005284e+00    3.519761e+00
  7.037036e+00    3.562927e+00
  7.068787e+00    3.478577e+00
  7.100538e+00    3.536074e+00
  7.132289e+00    3.526540e+00
  7.164040e+00    3.455621e+00
  7.195791e+00    3.433622e+00
  7.227542e+00    3.477824e+00
  7.259294e+00    3.527201e+00
  7.291045e+00    3.524584e+00
  7.322796e+00    3.438182e+00
  7.354547e+00    3.494733e+00
  7.386298e+00    3.444250e+00
  7.418049e+00    3.500181e+00
  7.449800e+00    3.482067e+00
  7.481552e+00    3.390378e+00
  7.513303e+00    3.416150e+00
  7.545054e+00    3.527706e+00
  7.576805e+00    3.430234e+00
  7.608556e+00    3.479024e+00
  7.640307e+00    3.486004e+00
  7.672058e+00    3.470970e+00
  7.703810e+00    3.456465e+00
  7.735561e+00    3.441648e+00
  7.767312e+00    3.443135e+00
  7.799063e+00    3.427287e+00
  7.830814e+00    3.498289e+00
  7.862565e+00    3.436821e+00
  7.894317e+00    3.436796e+00
  7.926068e+00    3.411671e+00
  7.957819e+00    3.379189e+00
  7.989570e+00    3.501651e+00
  8.021321e+00    3.450624e+00
  8.053072e+00    3.381192e+00
  8.084823e+00    3.402382e+00
  8.116575e+00    3.388245e+00
  8.148326e+00    3.401156e+00
  8.180077e+00    3.490911e+00
  8.211828e+00    3.534609e+00
  8.243579e+00    3.489141e+00
  8.275330e+00    3.417123e+00
  8.307081e+00    3.431030e+00
  8.338833e+00    3.391100e+00
  8.370584e+00    3.444573e+00
  8.402335e+00    3.358965e+00
  8.434086e+00    3.324909e+00
  8.465837e+00    3.366383e+00
  8.497588e+00    3.433585e+00
  8.529339e+00    3.296018e+00
  8.561091e+00    3.350756e+00
  8.592842e+00    3.398619e+00
  8.624593e+00    3.345646e+00
  8.656344e+00    3.406142e+00
  8.688095e+00    3.369499e+00
  8.719846e+00    3.312580e+00
  8.751598e+00    3.346591e+00
  8.783349e+00    3.370479e+00
  8.815100e+00    3.319796e+00
  8.846851e+00    3.340620e+00
  8.878602e+00    3.336550e+00
  8.910353e+00    3.338917e+00
  8.942104e+00    3.332818e+00
  8.973856e+00    3.249361e+00
  9.005607e+00    3.317845e+00
  9.037358e+00    3.336740e+00
  9.069109e+00    3.258007e+00
  9.100860e+00    3.290362e+00
  9.132611e+00    3.261631e+00
  9.164362e+00    3.281925e+00
  9.196114e+00    3.214275e+00
  9.227865e+00    3.216609e+00
  9.259616e+00    3.213769e+00
  9.291367e+00    3.153786e+00
  9.323118e+00    3.244002e+00
  9.354869e+00    3.242093e+00
  9.386620e+00    3.297165e+00
  9.418372e+00    3.232370e+00
  9.450123e+00    3.175477e+00
  9.481874e+00    3.261680e+00
  9.513625e+00    3.260436e+00
  9.545376e+00    3.229014e+00
  9.577127e+00    3.211935e+00
  9.608878e+00    3.208120e+00
  9.640630e+00    3.180959e+00
  9.672381e+00    3.154112e+00
  9.704132e+00    3.129062e+00
  9.735883e+00    3.145970e+00
  9.767634e+00    3.161891e+00
  9.799385e+00    3.103547e+00
  9.831137e+00    3.172565e+00
  9.862888e+00    3.185949e+00
  9.894639e+00    3.090263e+00
  9.926390e+00    3.112620e+00
  9.958141e+00    3.039630e+00
  9.989892e+00    3.078610e+00
  1.002164e+01    3.085273e+00
  1.005339e+01    3.097646e+00
  1.008515e+01    3.035923e+00
  1.011690e+01    3.082688e+00
  1.014865e+01    3.091808e+00
  1.018040e+01    3.051503e+00
  1.021215e+01    3.050603e+00
  1.024390e+01    3.112978e+00
  1.027565e+01    3.089316e+00
  1.030740e+01    3.021005e+00
  1.033915e+01    3.022143e+00
  1.037091e+01    3.013004e+00
  1.040266e+01    3.007264e+00
  1.043441e+01    3.040533e+00
  1.046616e+01    3.032851e+00
  1.049791e+01    3.061041e+00
  1.052966e+01    3.002547e+00
  1.056141e+01    2.979769e+00
  1.059316e+01    2.968814e+00
  1.062492e+01    2.990321e+00
  1.065667e+01    2.952887e+00
  1.068842e+01    2.948431e+00
  1.072017e+01    2.974935e+00
  1.075192e+01    3.006851e+00
  1.078367e+01    2.882955e+00
  1.081542e+01    2.976756e+00
  1.084717e+01    2.933546e+00
  1.087892e+01    2.934091e+00
  1.091068e+01    2.938720e+00
  1.094243e+01    2.947623e+00
  1.097418e+01    2.870002e+00
  1.100593e+01    2.836702e+00
  1.103768e+01    2.840853e+00
  1.106943e+01    2.868877e+00
  1.110118e+01    2.885689e+00
  1.113293e+01    2.925401e+00
  1.116468e+01    2.875563e+00
  1.119644e+01    2.886198e+00
  1.122819e+01    2.827897e+00
  1.125994e+01    2.857318e+00
  1.129169e+01    2.811091e+00
  1.132344e+01    2.860156e+00
  1.135519e+01    2.759592e+00
  1.138694e+01    2.805127e+00
  1.141869e+01    2.819203e+00
  1.145045e+01    2.857156e+00
  1.148220e+01    2.825680e+00
  1.151395e+01    2.854536e+00
  1.154570e+01    2.767604e+00
  1.157745e+01    2.803166e+00
  1.160920e+01    2.825179e+00
  1.164095e+01    2.799684e+00
  1.167270e+01    2.820594e+00
  1.170445e+01    2.781767e+00
  1.173621e+01    2.735589e+00
  1.176796e+01    2.774534e+00
  1.179971e+01    2.722679e+00
  1.183146e+01    2.709520e+00
  1.186321e+01    2.708065e+00
  1.189496e+01    2.766928e+00
  1.192671e+01    2.742253e+00
  1.195846e+01    2.725353e+00
  1.199021e+01    2.725727e+00
  1.202197e+01    2.674033e+00
  1.205372e+01    2.728094e+00
  1.208547e+01    2.723720e+00
  1.211722e+01    2.707773e+00
  1.214897e+01    2.736906e+00
  1.218072e+01    2.688336e+00
  1.221247e+01    2.717107e+00
  1.224422e+01    2.709598e+00
  1.227597e+01    2.695750e+00
  1.230773e+01    2.652163e+00
  1.233948e+01    2.679828e+00
  1.237123e+01    2.685490e+00
  1.240298e+01    2.654222e+00
  1.243473e+01    2.688283e+00
  1.246648e+01    2.700040e+00
  1.249823e+01    2.745044e+00
  1.252998e+01    2.667600e+00
  1.256174e+01    2.729037e+00
  1.259349e+01    2.709185e+00
  1.262524e+01    2.763930e+00
  1.265699e+01    2.742357e+00
  1.268874e+01    2.820212e+00
  1.272049e+01    2.831969e+00
  1.275224e+01    2.875092e+00
  1.278399e+01    2.933733e+00
  1.281574e+01    3.023550e+00
  1.284750e+01    3.182936e+00
  1.287925e+01    3.380716e+00
  1.291100e+01    3.648206e+00
  1.294275e+01    4.041490e+00
  1.297450e+01    4.773602e+00
  1.300625e+01    5.875052e+00
  1.303800e+01    7.739684e+00
  1.306975e+01    1.011447e+01
  1.310150e+01    1.256123e+01
  1.313326e+01    1.472646e+01
  1.316501e+01    1.636595e+01
  1.319676e+01    1.561760e+01
  1.322851e+01    1.262502e+01
  1.326026e+01    9.186783e+00
  1.329201e+01    6.801174e+00
  1.332376e+01    5.340031e+00
  1.335551e+01    4.423424e+00
  1.338727e+01    3.898064e+00
  1.341902e+01    3.510058e+00
  1.345077e+01    3.236312e+00
  1.348252e+01    3.079940e+00
  1.351427e+01    2.955657e+00
  1.354602e+01    2.776234e+00
  1.357777e+01    2.750015e+00
  1.360952e+01    2.686099e+00
  1.364127e+01    2.664801e+00
  1.367303e+01    2.591053e+00
  1.370478e+01    2.550913e+00
  1.373653e+01    2.480253e+00
  1.376828e+01    2.489455e+00
  1.380003e+01    2.508111e+00
  1.383178e+01    2.434963e+00
  1.386353e+01    2.419039e+00
  1.389528e+01    2.419585e+00
  1.392703e+01    2.392992e+00
  1.395879e+01    2.392523e+00
  1.399054e+01    2.356914e+00
  1.402229e+01    2.318444e+00
  1.405404e+01    2.324118e+00
  1.408579e+01    2.308077e+00
  1.411754e+01    2.328218e+00
  1.414929e+01    2.312727e+00
  1.418104e+01    2.349033e+00
  1.421279e+01    2.282319e+00
  1.424455e+01    2.265629e+00
  1.427630e+01    2.284138e+00
  1.430805e+01    2.268543e+00
  1.433980e+01    2.305926e+00
  1.437155e+01    2.296148e+00
  1.440330e+01    2.238334e+00
  1.443505e+01    2.284172e+00
  1.446680e+01    2.232422e+00
  1.449856e+01    2.220323e+00
  1.453031e+01    2.242289e+00
  1.456206e+01    2.221236e+00
  1.459381e+01    2.215065e+00
  1.462556e+01    2.212741e+00
  1.465731e+01    2.193736e+00
  1.468906e+01    2.196176e+00
  1.472081e+01    2.174145e+00
  1.475256e+01    2.194512e+00
  1.478432e+01    2.205329e+00
  1.481607e+01    2.182936e+00
  1.484782e+01    2.213308e+00
  1.487957e+01    2.226326e+00
  1.491132e+01    2.253438e+00
  1.494307e+01    2.278717e+00
  1.497482e+01    2.336804e+00
  1.500657e+01    2.386931e+00
  1.503832e+01    2.592093e+00
  1.507008e+01    2.810852e+00
  1.510183e+01    3.186485e+00
  1.513358e+01    3.740442e+00
  1.516533e+01    4.482821e+00
  1.519708e+01    5.205724e+00
  1.522883e+01    5.598446e+00
  1.526058e+01    5.797681e+00
  1.529233e+01    5.522172e+00
  1.532409e+01    4.700206e+00
  1.535584e+01    3.737756e+00
  1.538759e+01    3.146682e+00
  1.541934e+01    2.779347e+00
  1.545109e+01    2.517391e+00
  1.548284e+01    2.340592e+00
  1.551459e+01    2.257206e+00
  1.554634e+01    2.201214e+00
  1.557809e+01    2.102977e+00
  1.560985e+01    2.113019e+00
  1.564160e+01    2.004256e+00
  1.567335e+01    2.046689e+00
  1.570510e+01    2.003995e+00
  1.573685e+01    2.030290e+00
  1.576860e+01    1.937199e+00
  1.580035e+01    1.931570e+00
  1.583210e+01    1.928099e+00
  1.586385e+01    1.917825e+00
  1.589561e+01    1.921228e+00
  1.592736e+01    1.907366e+00
  1.595911e+01    1.890026e+00
  1.599086e+01    1.923908e+00
  1.602261e+01    1.879578e+00
  1.605436e+01    1.862551e+00
  1.608611e+01    1.821411e+00
  1.611786e+01    1.859646e+00
  1.614961e+01    1.818528e+00
  1.618137e+01    1.802889e+00
  1.621312e+01    1.829032e+00
  1.624487e+01    1.814490e+00
  1.627662e+01    1.797725e+00
  1.630837e+01    1.819311e+00
  1.634012e+01    1.794332e+00
  1.637187e+01    1.778571e+00
  1.640362e+01    1.766452e+00
  1.643538e+01    1.762216e+00
  1.646713e+01    1.798667e+00
  1.649888e+01    1.783983e+00
  1.653063e+01    1.738813e+00
  1.656238e+01    1.757720e+00
  1.659413e+01    1.767036e+00
  1.662588e+01    1.709323e+00
  1.665763e+01    1.762559e+00
  1.668938e+01    1.749308e+00
  1.672114e+01    1.732630e+00
  1.675289e+01    1.702421e+00
  1.678464e+01    1.733169e+00
  1.681639e+01    1.714872e+00
  1.684814e+01    1.707979e+00
  1.687989e+01    1.696511e+00
  1.691164e+01    1.679160e+00
  1.694339e+01    1.660121e+00
  1.697514e+01    1.663373e+00
  1.700690e+01    1.667172e+00
  1.703865e+01    1.664977e+00
  1.707040e+01    1.651460e+00
  1.710215e+01    1.690789e+00
  1.713390e+01    1.661604e+00
  1.716565e+01    1.641162e+00
  1.719740e+01    1.618524e+00
  1.722915e+01    1.602186e+00
  1.726091e+01    1.644248e+00
  1.729266e+01    1.595096e+00
  1.732441e+01    1.581758e+00
  1.735616e+01    1.626544e+00
  1.738791e+01    1.558518e+00
  1.741966e+01    1.584139e+00
  1.745141e+01    1.590852e+00
  1.748316e+01    1.578289e+00
  1.751491e+01    1.600725e+00
  1.754667e+01    1.588137e+00
  1.757842e+01    1.569326e+00
  1.761017e+01    1.553306e+00
  1.764192e+01    1.568417e+00
  1.767367e+01    1.593079e+00
  1.770542e+01    1.592147e+00
  1.773717e+01    1.557243e+00
  1.776892e+01    1.578123e+00
  1.780067e+01    1.547758e+00
  1.783243e+01    1.524101e+00
  1.786418e+01    1.499092e+00
  1.789593e+01    1.517964e+00
  1.792768e+01    1.536886e+00
  1.795943e+01    1.522508e+00
  1.799118e+01    1.473614e+00
  1.802293e+01    1.516645e+00
  1.805468e+01    1.524658e+00
  1.808643e+01    1.514829e+00
  1.811819e+01    1.463850e+00
  1.814994e+01    1.500075e+00
  1.818169e+01    1.515513e+00
  1.821344e+01    1.496089e+00
  1.824519e+01    1.462577e+00
  1.827694e+01    1.504679e+00
  1.830869e+01    1.480378e+00
  1.834044e+01    1.472306e+00
  1.837220e+01    1.443033e+00
  1.840395e+01    1.420061e+00
  1.843570e+01    1.447009e+00
  1.846745e+01    1.456056e+00
  1.849920e+01    1.459910e+00
  1.853095e+01    1.430411e+00
  1.856270e+01    1.412207e+00
  1.859445e+01    1.434060e+00
  1.862620e+01    1.414517e+00
  1.865796e+01    1.402131e+00
  1.868971e+01    1.440015e+00
  1.872146e+01    1.427656e+00
  1.875321e+01    1.417484e+00
  1.878496e+01    1.424697e+00
  1.881671e+01    1.431281e+00
  1.884846e+01    1.392285e+00
  1.888021e+01    1.383854e+00
  1.891196e+01    1.405722e+00
  1.894372e+01    1.382199e+00
  1.897547e+01    1.389230e+00
  1.900722e+01    1.375667e+00
  1.903897e+01    1.418372e+00
  1.907072e+01    1.380547e+00
  1.910247e+01    1.380741e+00
  1.913422e+01    1.363562e+00
  1.916597e+01    1.360127e+00
  1.919773e+01    1.351266e+00
  1.922948e+01    1.347130e+00
  1.926123e+01    1.391362e+00
  1.929298e+01    1.385330e+00
  1.932473e+01    1.365470e+00
  1.935648e+01    1.334381e+00
  1.938823e+01    1.353757e+00
  1.941998e+01    1.368821e+00
  1.945173e+01    1.313497e+00
  1.948349e+01    1.360157e+00
  1.951524e+01    1.331502e+00
  1.954699e+01    1.343890e+00
  1.957874e+01    1.319520e+00
  1.961049e+01    1.304600e+00
  1.964224e+01    1.310444e+00
  1.967399e+01    1.327589e+00
  1.970574e+01    1.317477e+00
  1.973749e+01    1.324690e+00
  1.976925e+01    1.314121e+00
  1.980100e+01    1.288961e+00
  1.983275e+01    1.284104e+00
  1.986450e+01    1.276605e+00
  1.989625e+01    1.294647e+00
  1.992800e+01    1.292557e+00
  1.995975e+01    1.270365e+00
  1.999150e+01    1.309886e+00
  2.002325e+01    1.282634e+00
  2.005501e+01    1.318130e+00
  2.008676e+01    1.274710e+00
  2.011851e+01    1.279067e+00
  2.015026e+01    1.263401e+00
  2.018201e+01    1.265277e+00
  2.021376e+01    1.256206e+00
  2.024551e+01    1.271510e+00
  2.027726e+01    1.253186e+00
  2.030902e+01    1.296910e+00
  2.034077e+01    1.243976e+00
  2.037252e+01    1.267521e+00
  2.040427e+01    1.252167e+00
  2.043602e+01    1.234971e+00
  2.046777e+01    1.227256e+00
  2.049952e+01    1.266628e+00
  2.053127e+01    1.204776e+00
  2.056302e+01    1.244154e+00
  2.059478e+01    1.233343e+00
  2.062653e+01    1.215586e+00
  2.065828e+01    1.214644e+00
  2.069003e+01    1.212384e+00
  2.072178e+01    1.230653e+00
  2.075353e+01    1.201083e+00
  2.078528e+01    1.234059e+00
  2.081703e+01    1.214701e+00
  2.084878e+01    1.245198e+00
  2.088054e+01    1.211338e+00
  2.091229e+01    1.243572e+00
  2.094404e+01    1.200703e+00
  2.097579e+01    1.198363e+00
  2.100754e+01    1.216824e+00
  2.103929e+01    1.213197e+00
  2.107104e+01    1.224692e+00
  2.110279e+01    1.202080e+00
  2.113455e+01    1.232442e+00
  2.116630e+01    1.220979e+00
  2.119805e+01    1.224622e+00
  2.122980e+01    1.235273e+00
  2.126155e+01    1.257805e+00
  2.129330e+01    1.257086e+00
  2.132505e+01    1.255187e+00
  2.135680e+01    1.283354e+00
  2.138855e+01    1.298885e+00
  2.142031e+01    1.345254e+00
  2.145206e+01    1.359175e+00
  2.148381e+01    1.426142e+00
  2.151556e+01    1.454324e+00
  2.154731e+01    1.515864e+00
  2.157906e+01    1.593470e+00
  2.161081e+01    1.772014e+00
  2.164256e+01    1.968144e+00
  2.167431e+01    2.299968e+00
  2.170607e+01    2.769192e+00
  2.173782e+01    3.483737e+00
  2.176957e+01    4.534421e+00
  2.180132e+01    5.786500e+00
  2.183307e+01    7.170097e+00
  2.186482e+01    8.345134e+00
  2.189657e+01    8.918821e+00
  2.192832e+01    8.209782e+00
  2.196007e+01    6.607157e+00
  2.199183e+01    4.893149e+00
  2.202358e+01    3.621527e+00
  2.205533e+01    2.829431e+00
  2.208708e+01    2.383365e+00
  2.211883e+01    1.984967e+00
  2.215058e+01    1.770331e+00
  2.218233e+01    1.617223e+00
  2.221408e+01    1.476331e+00
  2.224584e+01    1.418402e+00
  2.227759e+01    1.337701e+00
  2.230934e+01    1.306054e+00
  2.234109e+01    1.239621e+00
  2.237284e+01    1.239094e+00
  2.240459e+01    1.223988e+00
  2.243634e+01    1.175032e+00
  2.246809e+01    1.161180e+00
  2.249984e+01    1.144162e+00
  2.253160e+01    1.155789e+00
  2.256335e+01    1.124565e+00
  2.259510e+01    1.114762e+00
  2.262685e+01    1.079496e+00
  2.265860e+01    1.067923e+00
  2.269035e+01    1.089947e+00
  2.272210e+01    1.068363e+00
  2.275385e+01    1.069348e+00
  2.278560e+01    1.063686e+00
  2.281736e+01    1.032388e+00
  2.284911e+01    1.049027e+00
  2.288086e+01    1.037028e+00
  2.291261e+01    1.039090e+00
  2.294436e+01    1.034388e+00
  2.297611e+01    1.024203e+00
  2.300786e+01    1.006365e+00
  2.303961e+01    1.023600e+00
  2.307137e+01    1.003887e+00
  2.310312e+01    9.947044e-01
  2.313487e+01    1.014852e+00
  2.316662e+01    9.807148e-01
  2.319837e+01    9.957864e-01
  2.323012e+01    9.795234e-01
  2.326187e+01    1.014971e+00
  2.329362e+01    9.835097e-01
  2.332537e+01    9.498441e-01
  2.335713e+01    9.735025e-01
  2.338888e+01    9.854287e-01
  2.342063e+01    9.715945e-01
  2.345238e+01    9.622285e-01
  2.348413e+01    9.681090e-01
  2.351588e+01    9.736192e-01
  2.354763e+01    9.374974e-01
  2.357938e+01    9.579718e-01
  2.361113e+01    9.766595e-01
  2.364289e+01    9.562522e-01
  2.367464e+01    9.620547e-01
  2.370639e+01    9.545350e-01
  2.373814e+01    9.328358e-01
  2.376989e+01    9.452867e-01
  2.380164e+01    9.257419e-01
  2.383339e+01    9.222555e-01
  2.386514e+01    9.019641e-01
  2.389689e+01    9.119369e-01
  2.392865e+01    9.357213e-01
  2.396040e+01    8.995706e-01
  2.399215e+01    8.699805e-01
  2.402390e+01    9.072238e-01
  2.405565e+01    9.023729e-01
  2.408740e+01    8.789417e-01
  2.411915e+01    8.933911e-01
  2.415090e+01    8.711479e-01
  2.418266e+01    8.811837e-01
  2.421441e+01    8.672470e-01
  2.424616e+01    8.805570e-01
  2.427791e+01    9.095122e-01
  2.430966e+01    8.639885e-01
  2.434141e+01    9.010574e-01
  2.437316e+01    9.014794e-01
  2.440491e+01    8.926412e-01
  2.443666e+01    9.091268e-01
  2.446842e+01    8.929113e-01
  2.450017e+01    8.841310e-01
  2.453192e+01    8.986245e-01
  2.456367e+01    8.836505e-01
  2.459542e+01    8.903775e-01
  2.462717e+01    8.867267e-01
  2.465892e+01    8.872293e-01
  2.469067e+01    8.759678e-01
  2.472242e+01    8.997944e-01
  2.475418e+01    8.763359e-01
  2.478593e+01    9.165270e-01
  2.481768e+01    8.749005e-01
  2.484943e+01    8.852867e-01
  2.488118e+01    8.894359e-01
  2.491293e+01    8.890804e-01
  2.494468e+01    8.782103e-01
  2.497643e+01    8.730867e-01
  2.500819e+01    8.964223e-01
  2.503994e+01    8.939173e-01
  2.507169e+01    9.142942e-01
  2.510344e+01    8.966078e-01
  2.513519e+01    9.262451e-01
  2.516694e+01    9.212941e-01
  2.519869e+01    9.190734e-01
  2.523044e+01    9.077026e-01
  2.526219e+01    9.478413e-01
  2.529395e+01    9.299629e-01
  2.532570e+01    9.569404e-01
  2.535745e+01    9.543365e-01
  2.538920e+01    9.831167e-01
  2.542095e+01    9.981444e-01
  2.545270e+01    1.006504e+00
  2.548445e+01    1.031929e+00
  2.551620e+01    1.087011e+00
  2.554795e+01    1.096907e+00
  2.557971e+01    1.140968e+00
  2.561146e+01    1.211170e+00
  2.564321e+01    1.278023e+00
  2.567496e+01    1.425362e+00
  2.570671e+01    1.561395e+00
  2.573846e+01    1.795997e+00
  2.577021e+01    2.231243e+00
  2.580196e+01    2.730117e+00
  2.583371e+01    3.606895e+00
  2.586547e+01    4.629726e+00
  2.589722e+01    5.728811e+00
  2.592897e+01    6.707939e+00
  2.596072e+01    7.092549e+00
  2.599247e+01    6.566904e+00
  2.602422e+01    5.349717e+00
  2.605597e+01    3.988324e+00
  2.608772e+01    2.992609e+00
  2.611948e+01    2.395435e+00
  2.615123e+01    1.965082e+00
  2.618298e+01    1.664029e+00
  2.621473e+01    1.474318e+00
  2.624648e+01    1.369184e+00
  2.627823e+01    1.248946e+00
  2.630998e+01    1.203512e+00
  2.634173e+01    1.139459e+00
  2.637348e+01    1.076972e+00
  2.640524e+01    1.057624e+00
  2.643699e+01    1.029935e+00
  2.646874e+01    1.031561e+00
  2.650049e+01    1.013142e+00
  2.653224e+01    1.013290e+00
  2.656399e+01    9.923189e-01
  2.659574e+01    9.850320e-01
  2.662749e+01    9.859579e-01
  2.665924e+01    9.866280e-01
  2.669100e+01    9.750830e-01
  2.672275e+01    9.793410e-01
  2.675450e+01    9.747795e-01
  2.678625e+01    9.997361e-01
  2.681800e+01    9.717802e-01
  2.684975e+01    9.983862e-01
  2.688150e+01    9.906431e-01
  2.691325e+01    1.023752e+00
  2.694501e+01    1.024953e+00
  2.697676e+01    1.041718e+00
  2.700851e+01    1.113607e+00
  2.704026e+01    1.187633e+00
  2.707201e+01    1.315565e+00
  2.710376e+01    1.483527e+00
  2.713551e+01    1.718067e+00
  2.716726e+01    1.942178e+00
  2.719901e+01    2.126484e+00
  2.723077e+01    2.147795e+00
  2.726252e+01    1.953709e+00
  2.729427e+01    1.708648e+00
  2.732602e+01    1.467067e+00
  2.735777e+01    1.287932e+00
  2.738952e+01    1.186568e+00
  2.742127e+01    1.098270e+00
  2.745302e+01    1.031525e+00
  2.748477e+01    1.008386e+00
  2.751653e+01    9.788655e-01
  2.754828e+01    9.720857e-01
  2.758003e+01    9.436433e-01
  2.761178e+01    9.311028e-01
  2.764353e+01    9.158224e-01
  2.767528e+01    9.290094e-01
  2.770703e+01    9.201726e-01
  2.773878e+01    9.120643e-01
  2.777054e+01    9.124296e-01
  2.780229e+01    8.795083e-01
  2.783404e+01    8.837990e-01
  2.786579e+01    8.604429e-01
  2.789754e+01    8.877459e-01
  2.792929e+01    8.806528e-01
  2.796104e+01    8.629642e-01
  2.799279e+01    8.632997e-01
  2.802454e+01    8.698359e-01
  2.805630e+01    8.679605e-01
  2.808805e+01    8.424459e-01
  2.811980e+01    8.456705e-01
  2.815155e+01    8.795043e-01
  2.818330e+01    8.591350e-01
  2.821505e+01    8.340236e-01
  2.824680e+01    8.546078e-01
  2.827855e+01    8.546337e-01
  2.831030e+01    8.775409e-01
  2.834206e+01    8.615547e-01
  2.837381e+01    8.750412e-01
  2.840556e+01    8.403841e-01
  2.843731e+01    8.447458e-01
  2.846906e+01    8.300962e-01
  2.850081e+01    8.554428e-01
  2.853256e+01    8.686075e-01
  2.856431e+01    8.230335e-01
  2.859606e+01    8.437460e-01
  2.862782e+01    8.410603e-01
  2.865957e+01    8.309392e-01
  2.869132e+01    8.324357e-01
  2.872307e+01    8.380917e-01
  2.875482e+01    8.271002e-01
  2.878657e+01    8.125299e-01
  2.881832e+01    8.281208e-01
  2.885007e+01    8.426751e-01
  2.888183e+01    8.258135e-01
  2.891358e+01    8.178385e-01
  2.894533e+01    8.066449e-01
  2.897708e+01    8.260472e-01
  2.900883e+01    8.176058e-01
  2.904058e+01    7.953534e-01
  2.907233e+01    8.205839e-01
  2.910408e+01    8.176356e-01
  2.913583e+01    7.814820e-01
  2.916759e+01    8.236836e-01
  2.919934e+01    7.998962e-01
  2.923109e+01    8.391742e-01
  2.926284e+01    8.036128e-01
  2.929459e+01    7.999822e-01
  2.932634e+01    7.992294e-01
  2.935809e+01    8.183397e-01
  2.938984e+01    8.048816e-01
  2.942159e+01    8.028286e-01
  2.945335e+01    8.049163e-01
  2.948510e+01    7.984782e-01
  2.951685e+01    8.103317e-01
  2.954860e+01    7.795296e-01
  2.958035e+01    7.826605e-01
  2.961210e+01    7.932790e-01
  2.964385e+01    8.003632e-01
  2.967560e+01    8.085091e-01
  2.970736e+01    8.033371e-01
  2.973911e+01    8.005298e-01
  2.977086e+01    7.997077e-01
  2.980261e+01    7.833995e-01
  2.983436e+01    7.974497e-01
  2.986611e+01    8.015976e-01
  2.989786e+01    8.085216e-01
  2.992961e+01    7.833350e-01
  2.996136e+01    8.080327e-01
  2.999312e+01    7.881965e-01
  3.002487e+01    8.041392e-01
  3.005662e+01    8.037841e-01
  3.008837e+01    8.028339e-01
  3.012012e+01    7.998312e-01
  3.015187e+01    7.911242e-01
  3.018362e+01    7.859208e-01
  3.021537e+01    8.055043e-01
  3.024712e+01    7.838668e-01
  3.027888e+01    7.792724e-01
  3.031063e+01    7.820415e-01
  3.034238e+01    8.015460e-01
  3.037413e+01    7.740846e-01
  3.040588e+01    7.970712e-01
  3.043763e+01    7.871628e-01
  3.046938e+01    7.703366e-01
  3.050113e+01    7.819991e-01
  3.053288e+01    7.831644e-01
  3.056464e+01    7.717620e-01
  3.059639e+01    8.075515e-01
  3.062814e+01    7.452484e-01
  3.065989e+01    7.948022e-01
  3.069164e+01    7.735515e-01
  3.072339e+01    7.683811e-01
  3.075514e+01    7.745003e-01
  3.078689e+01    7.692142e-01
  3.081865e+01    7.586661e-01
  3.085040e+01    7.759193e-01
  3.088215e+01    7.756919e-01
  3.091390e+01    7.924069e-01
  3.094565e+01    7.932518e-01
  3.097740e+01    7.627571e-01
  3.100915e+01    7.824073e-01
  3.104090e+01    7.725381e-01
  3.107265e+01    7.576514e-01
  3.110441e+01    7.905955e-01
  3.113616e+01    7.749850e-01
  3.116791e+01    7.915271e-01
  3.119966e+01    7.982808e-01
  3.123141e+01    7.702067e-01
  3.126316e+01    7.943243e-01
  3.129491e+01    7.948470e-01
  3.132666e+01    7.746425e-01
  3.135841e+01    8.031433e-01
  3.139017e+01    7.995027e-01
  3.142192e+01    8.349031e-01
  3.145367e+01    8.085930e-01
  3.148542e+01    8.111112e-01
  3.151717e+01    8.334843e-01
  3.154892e+01    8.547756e-01
  3.158067e+01    8.601587e-01
  3.161242e+01    8.801063e-01
  3.164418e+01    9.132301e-01
  3.167593e+01    9.837707e-01
  3.170768e+01    1.005875e+00
  3.173943e+01    1.127795e+00
  3.177118e+01    1.281661e+00
  3.180293e+01    1.436916e+00
  3.183468e+01    1.705973e+00
  3.186643e+01    1.908953e+00
  3.189818e+01    2.102088e+00
  3.192994e+01    2.017391e+00
  3.196169e+01    1.824159e+00
  3.199344e+01    1.553839e+00
  3.202519e+01    1.341430e+00
  3.205694e+01    1.177097e+00
  3.208869e+01    1.051905e+00
  3.212044e+01    9.785581e-01
  3.215219e+01    9.200570e-01
  3.218394e+01    8.875723e-01
  3.221570e+01    8.369338e-01
  3.224745e+01    8.456284e-01
  3.227920e+01    8.091993e-01
  3.231095e+01    8.512754e-01
  3.234270e+01    8.274519e-01
  3.237445e+01    7.958870e-01
  3.240620e+01    7.820198e-01
  3.243795e+01    7.950639e-01
  3.246970e+01    7.867382e-01
  3.250146e+01    7.711962e-01
  3.253321e+01    8.007880e-01
  3.254908e+01    7.715911e-01