File: XRD/Reaction conditions/2024-07-27_003_Ru-CGO-ex_Reaction_dwell_000023_data_000138.dat
# == pyFAI calibration ==
# Distance Sample to Detector: 0.4 m
# PONI: 9.750e-02, 1.135e-01 m
# Rotations: -0.000175 0.000000 -0.000000 rad
#
# == Fit2d calibration ==
# Distance Sample-beamCenter: 400.000 mm
# Center: x=1514.000, y=1300.000 pix
# Tilt: 0.010 deg  TiltPlanRot: 0.010 deg
#
# Detector Detector	 Spline= None	 PixelSize= 7.500e-05, 7.500e-05 m
#    Detector has a mask: False
#    Detector has a dark current: False
#    detector has a flat field: False
#
# Wavelength: 6.888e-11 m
# Mask applied: user provided
# Dark current applied: False
# Flat field applied: False
# Polarization factor: 0.99
# Normalization factor: 1.0
# --> /home/myspot/data/2024_07_Rosario/Ru-CGO-ex/2024-07-27_003_Ru-CGO-ex_Reaction_dwell_000023_data_000138.dat
#       q_nm^-1             I
  2.003187e-02    0.000000e+00
  5.178302e-02    2.670345e-02
  8.353417e-02    6.068722e-02
  1.152853e-01    1.126254e-01
  1.470365e-01    9.624198e-03
  1.787876e-01    7.808249e-02
  2.105388e-01    3.434169e-02
  2.422899e-01    2.985434e-02
  2.740411e-01    5.082726e-02
  3.057922e-01    4.674361e-02
  3.375433e-01    5.114147e-02
  3.692945e-01    1.251291e-02
  4.010456e-01    8.552524e-02
  4.327968e-01    3.896952e-02
  4.645479e-01    4.522070e-02
  4.962991e-01    5.524397e-02
  5.280502e-01    6.382284e-02
  5.598014e-01    4.920215e-02
  5.915525e-01    5.239787e-02
  6.233037e-01    6.494777e-02
  6.550548e-01    2.689433e-02
  6.868060e-01    3.808383e-02
  7.185571e-01    3.527782e-02
  7.503083e-01    4.846747e-02
  7.820594e-01    1.581696e-01
  8.138106e-01    2.363505e-01
  8.455617e-01    3.008580e-01
  8.773129e-01    5.334734e-01
  9.090640e-01    6.023473e-01
  9.408152e-01    7.771478e-01
  9.725663e-01    1.082537e+00
  1.004317e+00    1.407504e+00
  1.036069e+00    1.436364e+00
  1.067820e+00    1.529968e+00
  1.099571e+00    1.614231e+00
  1.131322e+00    1.641881e+00
  1.163073e+00    1.666937e+00
  1.194824e+00    1.817728e+00
  1.226575e+00    2.197269e+00
  1.258327e+00    2.455122e+00
  1.290078e+00    2.317799e+00
  1.321829e+00    2.770857e+00
  1.353580e+00    2.737904e+00
  1.385331e+00    2.814250e+00
  1.417082e+00    2.895569e+00
  1.448834e+00    2.909599e+00
  1.480585e+00    3.201000e+00
  1.512336e+00    3.008355e+00
  1.544087e+00    3.153232e+00
  1.575838e+00    3.087739e+00
  1.607589e+00    3.223357e+00
  1.639340e+00    3.142683e+00
  1.671092e+00    3.201434e+00
  1.702843e+00    3.169539e+00
  1.734594e+00    3.086029e+00
  1.766345e+00    3.043442e+00
  1.798096e+00    3.165925e+00
  1.829847e+00    3.145891e+00
  1.861598e+00    3.020042e+00
  1.893350e+00    3.107550e+00
  1.925101e+00    3.077739e+00
  1.956852e+00    3.163996e+00
  1.988603e+00    3.070953e+00
  2.020354e+00    3.042495e+00
  2.052105e+00    3.061411e+00
  2.083856e+00    3.134688e+00
  2.115608e+00    3.056197e+00
  2.147359e+00    3.064493e+00
  2.179110e+00    3.065409e+00
  2.210861e+00    3.149568e+00
  2.242612e+00    3.173700e+00
  2.274363e+00    3.099160e+00
  2.306115e+00    2.979182e+00
  2.337866e+00    3.159784e+00
  2.369617e+00    3.143009e+00
  2.401368e+00    3.110512e+00
  2.433119e+00    3.130089e+00
  2.464870e+00    3.108148e+00
  2.496621e+00    3.227885e+00
  2.528373e+00    3.136512e+00
  2.560124e+00    3.191569e+00
  2.591875e+00    3.060288e+00
  2.623626e+00    3.170226e+00
  2.655377e+00    3.219141e+00
  2.687128e+00    3.236658e+00
  2.718879e+00    3.225343e+00
  2.750631e+00    3.255231e+00
  2.782382e+00    3.400741e+00
  2.814133e+00    3.300062e+00
  2.845884e+00    3.262427e+00
  2.877635e+00    3.272146e+00
  2.909386e+00    3.160748e+00
  2.941137e+00    3.373564e+00
  2.972889e+00    3.352957e+00
  3.004640e+00    3.280255e+00
  3.036391e+00    3.251851e+00
  3.068142e+00    3.434758e+00
  3.099893e+00    3.427278e+00
  3.131644e+00    3.373992e+00
  3.163395e+00    3.255659e+00
  3.195147e+00    3.500532e+00
  3.226898e+00    3.336198e+00
  3.258649e+00    3.452618e+00
  3.290400e+00    3.476187e+00
  3.322151e+00    3.371523e+00
  3.353902e+00    3.336561e+00
  3.385654e+00    3.321521e+00
  3.417405e+00    3.448147e+00
  3.449156e+00    3.391944e+00
  3.480907e+00    3.441880e+00
  3.512658e+00    3.403728e+00
  3.544409e+00    3.416402e+00
  3.576160e+00    3.480259e+00
  3.607912e+00    3.456151e+00
  3.639663e+00    3.476731e+00
  3.671414e+00    3.397254e+00
  3.703165e+00    3.508630e+00
  3.734916e+00    3.358715e+00
  3.766667e+00    3.404573e+00
  3.798418e+00    3.445530e+00
  3.830170e+00    3.532829e+00
  3.861921e+00    3.511768e+00
  3.893672e+00    3.485619e+00
  3.925423e+00    3.551361e+00
  3.957174e+00    3.473607e+00
  3.988925e+00    3.523434e+00
  4.020676e+00    3.571572e+00
  4.052428e+00    3.453063e+00
  4.084179e+00    3.536805e+00
  4.115930e+00    3.502576e+00
  4.147681e+00    3.575213e+00
  4.179432e+00    3.534578e+00
  4.211183e+00    3.564415e+00
  4.242935e+00    3.524016e+00
  4.274686e+00    3.541559e+00
  4.306437e+00    3.547199e+00
  4.338188e+00    3.551695e+00
  4.369939e+00    3.612541e+00
  4.401690e+00    3.550925e+00
  4.433441e+00    3.566632e+00
  4.465193e+00    3.545923e+00
  4.496944e+00    3.593973e+00
  4.528695e+00    3.568088e+00
  4.560446e+00    3.544600e+00
  4.592197e+00    3.612139e+00
  4.623948e+00    3.626509e+00
  4.655699e+00    3.604497e+00
  4.687451e+00    3.626673e+00
  4.719202e+00    3.578948e+00
  4.750953e+00    3.641017e+00
  4.782704e+00    3.610276e+00
  4.814455e+00    3.654698e+00
  4.846206e+00    3.666338e+00
  4.877957e+00    3.624974e+00
  4.909709e+00    3.617351e+00
  4.941460e+00    3.717484e+00
  4.973211e+00    3.629662e+00
  5.004962e+00    3.642956e+00
  5.036713e+00    3.662420e+00
  5.068464e+00    3.618848e+00
  5.100216e+00    3.682406e+00
  5.131967e+00    3.727731e+00
  5.163718e+00    3.654956e+00
  5.195469e+00    3.674829e+00
  5.227220e+00    3.684832e+00
  5.258971e+00    3.681719e+00
  5.290722e+00    3.604773e+00
  5.322474e+00    3.670280e+00
  5.354225e+00    3.694116e+00
  5.385976e+00    3.621480e+00
  5.417727e+00    3.648545e+00
  5.449478e+00    3.661143e+00
  5.481229e+00    3.525366e+00
  5.512980e+00    3.612278e+00
  5.544732e+00    3.652890e+00
  5.576483e+00    3.600713e+00
  5.608234e+00    3.631222e+00
  5.639985e+00    3.549637e+00
  5.671736e+00    3.519909e+00
  5.703487e+00    3.553323e+00
  5.735238e+00    3.570560e+00
  5.766990e+00    3.567170e+00
  5.798741e+00    3.517692e+00
  5.830492e+00    3.606571e+00
  5.862243e+00    3.567771e+00
  5.893994e+00    3.522217e+00
  5.925745e+00    3.553333e+00
  5.957497e+00    3.475435e+00
  5.989248e+00    3.604513e+00
  6.020999e+00    3.507104e+00
  6.052750e+00    3.513264e+00
  6.084501e+00    3.567410e+00
  6.116252e+00    3.638185e+00
  6.148003e+00    3.547634e+00
  6.179755e+00    3.584416e+00
  6.211506e+00    3.615705e+00
  6.243257e+00    3.655399e+00
  6.275008e+00    3.523765e+00
  6.306759e+00    3.580922e+00
  6.338510e+00    3.578922e+00
  6.370261e+00    3.568866e+00
  6.402013e+00    3.563885e+00
  6.433764e+00    3.551803e+00
  6.465515e+00    3.553520e+00
  6.497266e+00    3.495167e+00
  6.529017e+00    3.632012e+00
  6.560768e+00    3.539269e+00
  6.592519e+00    3.626968e+00
  6.624271e+00    3.555418e+00
  6.656022e+00    3.544632e+00
  6.687773e+00    3.592157e+00
  6.719524e+00    3.559259e+00
  6.751275e+00    3.541944e+00
  6.783026e+00    3.574104e+00
  6.814777e+00    3.589559e+00
  6.846529e+00    3.548588e+00
  6.878280e+00    3.523453e+00
  6.910031e+00    3.556224e+00
  6.941782e+00    3.534439e+00
  6.973533e+00    3.516655e+00
  7.005284e+00    3.564602e+00
  7.037036e+00    3.454782e+00
  7.068787e+00    3.528107e+00
  7.100538e+00    3.476817e+00
  7.132289e+00    3.486348e+00
  7.164040e+00    3.545944e+00
  7.195791e+00    3.478391e+00
  7.227542e+00    3.510320e+00
  7.259294e+00    3.569687e+00
  7.291045e+00    3.463473e+00
  7.322796e+00    3.472795e+00
  7.354547e+00    3.539534e+00
  7.386298e+00    3.512941e+00
  7.418049e+00    3.542785e+00
  7.449800e+00    3.545983e+00
  7.481552e+00    3.507182e+00
  7.513303e+00    3.473311e+00
  7.545054e+00    3.532921e+00
  7.576805e+00    3.520646e+00
  7.608556e+00    3.470956e+00
  7.640307e+00    3.521329e+00
  7.672058e+00    3.494872e+00
  7.703810e+00    3.504725e+00
  7.735561e+00    3.365552e+00
  7.767312e+00    3.483704e+00
  7.799063e+00    3.478322e+00
  7.830814e+00    3.430779e+00
  7.862565e+00    3.407014e+00
  7.894317e+00    3.426930e+00
  7.926068e+00    3.410168e+00
  7.957819e+00    3.431743e+00
  7.989570e+00    3.405418e+00
  8.021321e+00    3.407338e+00
  8.053072e+00    3.322857e+00
  8.084823e+00    3.437199e+00
  8.116575e+00    3.483123e+00
  8.148326e+00    3.481777e+00
  8.180077e+00    3.460484e+00
  8.211828e+00    3.482270e+00
  8.243579e+00    3.477585e+00
  8.275330e+00    3.504253e+00
  8.307081e+00    3.421226e+00
  8.338833e+00    3.347834e+00
  8.370584e+00    3.401542e+00
  8.402335e+00    3.451846e+00
  8.434086e+00    3.331511e+00
  8.465837e+00    3.363374e+00
  8.497588e+00    3.303077e+00
  8.529339e+00    3.445706e+00
  8.561091e+00    3.327064e+00
  8.592842e+00    3.336158e+00
  8.624593e+00    3.346226e+00
  8.656344e+00    3.292343e+00
  8.688095e+00    3.246283e+00
  8.719846e+00    3.297796e+00
  8.751598e+00    3.341185e+00
  8.783349e+00    3.304991e+00
  8.815100e+00    3.306473e+00
  8.846851e+00    3.262801e+00
  8.878602e+00    3.321976e+00
  8.910353e+00    3.310568e+00
  8.942104e+00    3.241805e+00
  8.973856e+00    3.253931e+00
  9.005607e+00    3.344066e+00
  9.037358e+00    3.212556e+00
  9.069109e+00    3.239965e+00
  9.100860e+00    3.315466e+00
  9.132611e+00    3.303059e+00
  9.164362e+00    3.281293e+00
  9.196114e+00    3.204853e+00
  9.227865e+00    3.262071e+00
  9.259616e+00    3.252665e+00
  9.291367e+00    3.203591e+00
  9.323118e+00    3.209327e+00
  9.354869e+00    3.271374e+00
  9.386620e+00    3.244826e+00
  9.418372e+00    3.159881e+00
  9.450123e+00    3.190879e+00
  9.481874e+00    3.199690e+00
  9.513625e+00    3.237652e+00
  9.545376e+00    3.251778e+00
  9.577127e+00    3.167012e+00
  9.608878e+00    3.211410e+00
  9.640630e+00    3.219364e+00
  9.672381e+00    3.205195e+00
  9.704132e+00    3.160125e+00
  9.735883e+00    3.145112e+00
  9.767634e+00    3.176351e+00
  9.799385e+00    3.091964e+00
  9.831137e+00    3.105686e+00
  9.862888e+00    3.165531e+00
  9.894639e+00    3.104438e+00
  9.926390e+00    3.168393e+00
  9.958141e+00    3.120790e+00
  9.989892e+00    3.098022e+00
  1.002164e+01    3.040867e+00
  1.005339e+01    3.043545e+00
  1.008515e+01    3.111012e+00
  1.011690e+01    3.059473e+00
  1.014865e+01    3.056191e+00
  1.018040e+01    3.089097e+00
  1.021215e+01    2.992831e+00
  1.024390e+01    3.118637e+00
  1.027565e+01    3.050216e+00
  1.030740e+01    3.066194e+00
  1.033915e+01    3.033060e+00
  1.037091e+01    3.055058e+00
  1.040266e+01    3.011744e+00
  1.043441e+01    3.052443e+00
  1.046616e+01    2.981966e+00
  1.049791e+01    3.027779e+00
  1.052966e+01    2.981344e+00
  1.056141e+01    3.004765e+00
  1.059316e+01    3.088098e+00
  1.062492e+01    2.959610e+00
  1.065667e+01    2.950196e+00
  1.068842e+01    2.963936e+00
  1.072017e+01    2.977915e+00
  1.075192e+01    2.947725e+00
  1.078367e+01    2.991677e+00
  1.081542e+01    2.938014e+00
  1.084717e+01    2.946592e+00
  1.087892e+01    2.920210e+00
  1.091068e+01    2.964212e+00
  1.094243e+01    2.915576e+00
  1.097418e+01    2.934159e+00
  1.100593e+01    2.889223e+00
  1.103768e+01    2.953312e+00
  1.106943e+01    2.894660e+00
  1.110118e+01    2.868435e+00
  1.113293e+01    2.903240e+00
  1.116468e+01    2.860496e+00
  1.119644e+01    2.854807e+00
  1.122819e+01    2.846715e+00
  1.125994e+01    2.882234e+00
  1.129169e+01    2.838411e+00
  1.132344e+01    2.846130e+00
  1.135519e+01    2.820923e+00
  1.138694e+01    2.820587e+00
  1.141869e+01    2.810806e+00
  1.145045e+01    2.871088e+00
  1.148220e+01    2.796549e+00
  1.151395e+01    2.769114e+00
  1.154570e+01    2.756933e+00
  1.157745e+01    2.810291e+00
  1.160920e+01    2.758980e+00
  1.164095e+01    2.741836e+00
  1.167270e+01    2.799104e+00
  1.170445e+01    2.817611e+00
  1.173621e+01    2.762055e+00
  1.176796e+01    2.742218e+00
  1.179971e+01    2.735012e+00
  1.183146e+01    2.717257e+00
  1.186321e+01    2.726068e+00
  1.189496e+01    2.725327e+00
  1.192671e+01    2.729264e+00
  1.195846e+01    2.715963e+00
  1.199021e+01    2.712467e+00
  1.202197e+01    2.746989e+00
  1.205372e+01    2.722128e+00
  1.208547e+01    2.687616e+00
  1.211722e+01    2.631919e+00
  1.214897e+01    2.728100e+00
  1.218072e+01    2.678386e+00
  1.221247e+01    2.690445e+00
  1.224422e+01    2.713464e+00
  1.227597e+01    2.669249e+00
  1.230773e+01    2.649340e+00
  1.233948e+01    2.705721e+00
  1.237123e+01    2.687073e+00
  1.240298e+01    2.694703e+00
  1.243473e+01    2.713586e+00
  1.246648e+01    2.703105e+00
  1.249823e+01    2.662446e+00
  1.252998e+01    2.719671e+00
  1.256174e+01    2.752869e+00
  1.259349e+01    2.722875e+00
  1.262524e+01    2.798911e+00
  1.265699e+01    2.794199e+00
  1.268874e+01    2.847008e+00
  1.272049e+01    2.821682e+00
  1.275224e+01    2.930680e+00
  1.278399e+01    2.929650e+00
  1.281574e+01    3.091825e+00
  1.284750e+01    3.220640e+00
  1.287925e+01    3.359262e+00
  1.291100e+01    3.608075e+00
  1.294275e+01    4.141033e+00
  1.297450e+01    4.788122e+00
  1.300625e+01    5.935005e+00
  1.303800e+01    7.755964e+00
  1.306975e+01    1.023453e+01
  1.310150e+01    1.286633e+01
  1.313326e+01    1.492315e+01
  1.316501e+01    1.616732e+01
  1.319676e+01    1.571651e+01
  1.322851e+01    1.251732e+01
  1.326026e+01    9.184484e+00
  1.329201e+01    6.754155e+00
  1.332376e+01    5.346981e+00
  1.335551e+01    4.452757e+00
  1.338727e+01    3.869337e+00
  1.341902e+01    3.424771e+00
  1.345077e+01    3.188830e+00
  1.348252e+01    3.016372e+00
  1.351427e+01    2.902949e+00
  1.354602e+01    2.841920e+00
  1.357777e+01    2.726202e+00
  1.360952e+01    2.685599e+00
  1.364127e+01    2.611483e+00
  1.367303e+01    2.609992e+00
  1.370478e+01    2.535591e+00
  1.373653e+01    2.530255e+00
  1.376828e+01    2.445017e+00
  1.380003e+01    2.472629e+00
  1.383178e+01    2.473311e+00
  1.386353e+01    2.438780e+00
  1.389528e+01    2.406016e+00
  1.392703e+01    2.339593e+00
  1.395879e+01    2.397908e+00
  1.399054e+01    2.399015e+00
  1.402229e+01    2.356742e+00
  1.405404e+01    2.341556e+00
  1.408579e+01    2.317454e+00
  1.411754e+01    2.308165e+00
  1.414929e+01    2.340873e+00
  1.418104e+01    2.295492e+00
  1.421279e+01    2.273207e+00
  1.424455e+01    2.280361e+00
  1.427630e+01    2.309820e+00
  1.430805e+01    2.250712e+00
  1.433980e+01    2.268305e+00
  1.437155e+01    2.250400e+00
  1.440330e+01    2.258306e+00
  1.443505e+01    2.238085e+00
  1.446680e+01    2.201327e+00
  1.449856e+01    2.203887e+00
  1.453031e+01    2.228966e+00
  1.456206e+01    2.201837e+00
  1.459381e+01    2.181997e+00
  1.462556e+01    2.231201e+00
  1.465731e+01    2.246493e+00
  1.468906e+01    2.160016e+00
  1.472081e+01    2.187953e+00
  1.475256e+01    2.181052e+00
  1.478432e+01    2.195891e+00
  1.481607e+01    2.230768e+00
  1.484782e+01    2.244351e+00
  1.487957e+01    2.215251e+00
  1.491132e+01    2.273380e+00
  1.494307e+01    2.272136e+00
  1.497482e+01    2.314336e+00
  1.500657e+01    2.426391e+00
  1.503832e+01    2.624360e+00
  1.507008e+01    2.848521e+00
  1.510183e+01    3.242581e+00
  1.513358e+01    3.837818e+00
  1.516533e+01    4.491671e+00
  1.519708e+01    5.195299e+00
  1.522883e+01    5.626151e+00
  1.526058e+01    5.755814e+00
  1.529233e+01    5.482583e+00
  1.532409e+01    4.669191e+00
  1.535584e+01    3.774635e+00
  1.538759e+01    3.137369e+00
  1.541934e+01    2.733543e+00
  1.545109e+01    2.501601e+00
  1.548284e+01    2.329740e+00
  1.551459e+01    2.210998e+00
  1.554634e+01    2.177207e+00
  1.557809e+01    2.123541e+00
  1.560985e+01    2.097984e+00
  1.564160e+01    2.032673e+00
  1.567335e+01    2.001631e+00
  1.570510e+01    1.976691e+00
  1.573685e+01    1.950791e+00
  1.576860e+01    1.968118e+00
  1.580035e+01    1.963418e+00
  1.583210e+01    1.925796e+00
  1.586385e+01    1.911923e+00
  1.589561e+01    1.906430e+00
  1.592736e+01    1.852977e+00
  1.595911e+01    1.906440e+00
  1.599086e+01    1.864434e+00
  1.602261e+01    1.843065e+00
  1.605436e+01    1.867224e+00
  1.608611e+01    1.833978e+00
  1.611786e+01    1.803928e+00
  1.614961e+01    1.858099e+00
  1.618137e+01    1.802418e+00
  1.621312e+01    1.841346e+00
  1.624487e+01    1.793576e+00
  1.627662e+01    1.780867e+00
  1.630837e+01    1.800759e+00
  1.634012e+01    1.819699e+00
  1.637187e+01    1.795465e+00
  1.640362e+01    1.766758e+00
  1.643538e+01    1.765939e+00
  1.646713e+01    1.784381e+00
  1.649888e+01    1.781767e+00
  1.653063e+01    1.751739e+00
  1.656238e+01    1.768295e+00
  1.659413e+01    1.727588e+00
  1.662588e+01    1.723719e+00
  1.665763e+01    1.725257e+00
  1.668938e+01    1.711755e+00
  1.672114e+01    1.707331e+00
  1.675289e+01    1.725078e+00
  1.678464e+01    1.688581e+00
  1.681639e+01    1.703452e+00
  1.684814e+01    1.686049e+00
  1.687989e+01    1.670940e+00
  1.691164e+01    1.675900e+00
  1.694339e+01    1.706552e+00
  1.697514e+01    1.694533e+00
  1.700690e+01    1.674517e+00
  1.703865e+01    1.675738e+00
  1.707040e+01    1.617493e+00
  1.710215e+01    1.646683e+00
  1.713390e+01    1.686910e+00
  1.716565e+01    1.609757e+00
  1.719740e+01    1.606164e+00
  1.722915e+01    1.624143e+00
  1.726091e+01    1.576733e+00
  1.729266e+01    1.602024e+00
  1.732441e+01    1.622631e+00
  1.735616e+01    1.623432e+00
  1.738791e+01    1.603759e+00
  1.741966e+01    1.625614e+00
  1.745141e+01    1.609847e+00
  1.748316e+01    1.577927e+00
  1.751491e+01    1.586424e+00
  1.754667e+01    1.579094e+00
  1.757842e+01    1.563392e+00
  1.761017e+01    1.575557e+00
  1.764192e+01    1.580941e+00
  1.767367e+01    1.532599e+00
  1.770542e+01    1.573190e+00
  1.773717e+01    1.580212e+00
  1.776892e+01    1.564570e+00
  1.780067e+01    1.517322e+00
  1.783243e+01    1.516525e+00
  1.786418e+01    1.542899e+00
  1.789593e+01    1.531567e+00
  1.792768e+01    1.501403e+00
  1.795943e+01    1.544827e+00
  1.799118e+01    1.522060e+00
  1.802293e+01    1.480572e+00
  1.805468e+01    1.501695e+00
  1.808643e+01    1.512484e+00
  1.811819e+01    1.470377e+00
  1.814994e+01    1.513458e+00
  1.818169e+01    1.501755e+00
  1.821344e+01    1.435898e+00
  1.824519e+01    1.467542e+00
  1.827694e+01    1.466525e+00
  1.830869e+01    1.485392e+00
  1.834044e+01    1.458178e+00
  1.837220e+01    1.432238e+00
  1.840395e+01    1.510366e+00
  1.843570e+01    1.462459e+00
  1.846745e+01    1.492005e+00
  1.849920e+01    1.469629e+00
  1.853095e+01    1.432743e+00
  1.856270e+01    1.447964e+00
  1.859445e+01    1.423404e+00
  1.862620e+01    1.427712e+00
  1.865796e+01    1.431142e+00
  1.868971e+01    1.420627e+00
  1.872146e+01    1.404773e+00
  1.875321e+01    1.413755e+00
  1.878496e+01    1.402476e+00
  1.881671e+01    1.426208e+00
  1.884846e+01    1.439758e+00
  1.888021e+01    1.393922e+00
  1.891196e+01    1.372228e+00
  1.894372e+01    1.379071e+00
  1.897547e+01    1.420312e+00
  1.900722e+01    1.363565e+00
  1.903897e+01    1.380618e+00
  1.907072e+01    1.348411e+00
  1.910247e+01    1.373709e+00
  1.913422e+01    1.344236e+00
  1.916597e+01    1.352383e+00
  1.919773e+01    1.376712e+00
  1.922948e+01    1.378847e+00
  1.926123e+01    1.360556e+00
  1.929298e+01    1.336650e+00
  1.932473e+01    1.311662e+00
  1.935648e+01    1.356403e+00
  1.938823e+01    1.344754e+00
  1.941998e+01    1.343041e+00
  1.945173e+01    1.339298e+00
  1.948349e+01    1.329204e+00
  1.951524e+01    1.341533e+00
  1.954699e+01    1.349534e+00
  1.957874e+01    1.322070e+00
  1.961049e+01    1.292243e+00
  1.964224e+01    1.286055e+00
  1.967399e+01    1.281535e+00
  1.970574e+01    1.297257e+00
  1.973749e+01    1.278100e+00
  1.976925e+01    1.297321e+00
  1.980100e+01    1.320349e+00
  1.983275e+01    1.288169e+00
  1.986450e+01    1.298141e+00
  1.989625e+01    1.297794e+00
  1.992800e+01    1.306149e+00
  1.995975e+01    1.275966e+00
  1.999150e+01    1.275984e+00
  2.002325e+01    1.302851e+00
  2.005501e+01    1.262548e+00
  2.008676e+01    1.280239e+00
  2.011851e+01    1.255037e+00
  2.015026e+01    1.257070e+00
  2.018201e+01    1.251988e+00
  2.021376e+01    1.263442e+00
  2.024551e+01    1.272899e+00
  2.027726e+01    1.263585e+00
  2.030902e+01    1.253648e+00
  2.034077e+01    1.255384e+00
  2.037252e+01    1.222799e+00
  2.040427e+01    1.229434e+00
  2.043602e+01    1.230811e+00
  2.046777e+01    1.233166e+00
  2.049952e+01    1.219625e+00
  2.053127e+01    1.228151e+00
  2.056302e+01    1.229956e+00
  2.059478e+01    1.234466e+00
  2.062653e+01    1.224106e+00
  2.065828e+01    1.234162e+00
  2.069003e+01    1.230286e+00
  2.072178e+01    1.226862e+00
  2.075353e+01    1.216462e+00
  2.078528e+01    1.210094e+00
  2.081703e+01    1.244315e+00
  2.084878e+01    1.210065e+00
  2.088054e+01    1.199327e+00
  2.091229e+01    1.228348e+00
  2.094404e+01    1.217932e+00
  2.097579e+01    1.224610e+00
  2.100754e+01    1.231991e+00
  2.103929e+01    1.224525e+00
  2.107104e+01    1.217734e+00
  2.110279e+01    1.218116e+00
  2.113455e+01    1.198748e+00
  2.116630e+01    1.254570e+00
  2.119805e+01    1.243051e+00
  2.122980e+01    1.245530e+00
  2.126155e+01    1.265491e+00
  2.129330e+01    1.255180e+00
  2.132505e+01    1.285541e+00
  2.135680e+01    1.293774e+00
  2.138855e+01    1.301040e+00
  2.142031e+01    1.334484e+00
  2.145206e+01    1.346151e+00
  2.148381e+01    1.406490e+00
  2.151556e+01    1.445748e+00
  2.154731e+01    1.527481e+00
  2.157906e+01    1.625907e+00
  2.161081e+01    1.754889e+00
  2.164256e+01    1.957960e+00
  2.167431e+01    2.266091e+00
  2.170607e+01    2.828835e+00
  2.173782e+01    3.524561e+00
  2.176957e+01    4.634153e+00
  2.180132e+01    5.875332e+00
  2.183307e+01    7.171231e+00
  2.186482e+01    8.412512e+00
  2.189657e+01    8.944498e+00
  2.192832e+01    8.258183e+00
  2.196007e+01    6.542329e+00
  2.199183e+01    4.877218e+00
  2.202358e+01    3.626062e+00
  2.205533e+01    2.842129e+00
  2.208708e+01    2.303851e+00
  2.211883e+01    1.980518e+00
  2.215058e+01    1.738955e+00
  2.218233e+01    1.616189e+00
  2.221408e+01    1.468844e+00
  2.224584e+01    1.399712e+00
  2.227759e+01    1.344259e+00
  2.230934e+01    1.302936e+00
  2.234109e+01    1.271429e+00
  2.237284e+01    1.213518e+00
  2.240459e+01    1.201088e+00
  2.243634e+01    1.164317e+00
  2.246809e+01    1.148440e+00
  2.249984e+01    1.157366e+00
  2.253160e+01    1.135332e+00
  2.256335e+01    1.117822e+00
  2.259510e+01    1.127218e+00
  2.262685e+01    1.099801e+00
  2.265860e+01    1.105149e+00
  2.269035e+01    1.089780e+00
  2.272210e+01    1.082430e+00
  2.275385e+01    1.069150e+00
  2.278560e+01    1.047891e+00
  2.281736e+01    1.049252e+00
  2.284911e+01    1.043361e+00
  2.288086e+01    1.033073e+00
  2.291261e+01    1.018598e+00
  2.294436e+01    1.031480e+00
  2.297611e+01    1.023014e+00
  2.300786e+01    1.004164e+00
  2.303961e+01    1.023331e+00
  2.307137e+01    1.015531e+00
  2.310312e+01    9.997315e-01
  2.313487e+01    1.011603e+00
  2.316662e+01    1.011484e+00
  2.319837e+01    1.010736e+00
  2.323012e+01    9.882874e-01
  2.326187e+01    9.864705e-01
  2.329362e+01    9.835436e-01
  2.332537e+01    9.790217e-01
  2.335713e+01    9.842370e-01
  2.338888e+01    9.726348e-01
  2.342063e+01    9.874511e-01
  2.345238e+01    9.953117e-01
  2.348413e+01    9.607171e-01
  2.351588e+01    9.653059e-01
  2.354763e+01    9.836434e-01
  2.357938e+01    9.492687e-01
  2.361113e+01    9.379268e-01
  2.364289e+01    9.622974e-01
  2.367464e+01    9.375559e-01
  2.370639e+01    9.297726e-01
  2.373814e+01    9.258134e-01
  2.376989e+01    9.490616e-01
  2.380164e+01    9.146693e-01
  2.383339e+01    9.228778e-01
  2.386514e+01    9.412529e-01
  2.389689e+01    9.292233e-01
  2.392865e+01    8.950812e-01
  2.396040e+01    8.831509e-01
  2.399215e+01    9.133033e-01
  2.402390e+01    8.936463e-01
  2.405565e+01    8.709015e-01
  2.408740e+01    8.859364e-01
  2.411915e+01    8.718995e-01
  2.415090e+01    8.663538e-01
  2.418266e+01    8.992360e-01
  2.421441e+01    8.623849e-01
  2.424616e+01    8.843001e-01
  2.427791e+01    8.882586e-01
  2.430966e+01    8.826783e-01
  2.434141e+01    9.089370e-01
  2.437316e+01    8.936520e-01
  2.440491e+01    9.064956e-01
  2.443666e+01    9.053276e-01
  2.446842e+01    8.925557e-01
  2.450017e+01    8.729160e-01
  2.453192e+01    8.862284e-01
  2.456367e+01    8.951269e-01
  2.459542e+01    8.859333e-01
  2.462717e+01    8.923874e-01
  2.465892e+01    8.878055e-01
  2.469067e+01    9.060448e-01
  2.472242e+01    8.644244e-01
  2.475418e+01    9.049489e-01
  2.478593e+01    8.921307e-01
  2.481768e+01    8.944121e-01
  2.484943e+01    8.734286e-01
  2.488118e+01    8.883614e-01
  2.491293e+01    9.024504e-01
  2.494468e+01    8.781943e-01
  2.497643e+01    8.776091e-01
  2.500819e+01    8.790091e-01
  2.503994e+01    8.980171e-01
  2.507169e+01    9.112383e-01
  2.510344e+01    9.223809e-01
  2.513519e+01    9.127257e-01
  2.516694e+01    9.124133e-01
  2.519869e+01    9.274744e-01
  2.523044e+01    9.422684e-01
  2.526219e+01    9.285486e-01
  2.529395e+01    9.440742e-01
  2.532570e+01    9.729804e-01
  2.535745e+01    9.658071e-01
  2.538920e+01    9.870333e-01
  2.542095e+01    1.001946e+00
  2.545270e+01    1.021121e+00
  2.548445e+01    1.025843e+00
  2.551620e+01    1.100536e+00
  2.554795e+01    1.128133e+00
  2.557971e+01    1.161273e+00
  2.561146e+01    1.222146e+00
  2.564321e+01    1.323441e+00
  2.567496e+01    1.442242e+00
  2.570671e+01    1.618555e+00
  2.573846e+01    1.855579e+00
  2.577021e+01    2.233351e+00
  2.580196e+01    2.779618e+00
  2.583371e+01    3.655711e+00
  2.586547e+01    4.731777e+00
  2.589722e+01    5.853585e+00
  2.592897e+01    6.824914e+00
  2.596072e+01    7.175238e+00
  2.599247e+01    6.553860e+00
  2.602422e+01    5.276428e+00
  2.605597e+01    3.936715e+00
  2.608772e+01    2.966477e+00
  2.611948e+01    2.352473e+00
  2.615123e+01    1.947731e+00
  2.618298e+01    1.659439e+00
  2.621473e+01    1.447794e+00
  2.624648e+01    1.352651e+00
  2.627823e+01    1.250141e+00
  2.630998e+01    1.173704e+00
  2.634173e+01    1.111544e+00
  2.637348e+01    1.065734e+00
  2.640524e+01    1.060893e+00
  2.643699e+01    1.053192e+00
  2.646874e+01    1.028327e+00
  2.650049e+01    1.012499e+00
  2.653224e+01    9.918135e-01
  2.656399e+01    9.915398e-01
  2.659574e+01    9.597005e-01
  2.662749e+01    9.580472e-01
  2.665924e+01    9.764556e-01
  2.669100e+01    9.822801e-01
  2.672275e+01    9.667365e-01
  2.675450e+01    9.836585e-01
  2.678625e+01    9.632912e-01
  2.681800e+01    9.616316e-01
  2.684975e+01    9.777238e-01
  2.688150e+01    9.943261e-01
  2.691325e+01    1.011073e+00
  2.694501e+01    1.030626e+00
  2.697676e+01    1.083712e+00
  2.700851e+01    1.096900e+00
  2.704026e+01    1.193916e+00
  2.707201e+01    1.304664e+00
  2.710376e+01    1.501140e+00
  2.713551e+01    1.719579e+00
  2.716726e+01    1.982210e+00
  2.719901e+01    2.159608e+00
  2.723077e+01    2.134376e+00
  2.726252e+01    1.974736e+00
  2.729427e+01    1.696050e+00
  2.732602e+01    1.439711e+00
  2.735777e+01    1.295558e+00
  2.738952e+01    1.151137e+00
  2.742127e+01    1.087536e+00
  2.745302e+01    1.040856e+00
  2.748477e+01    9.971950e-01
  2.751653e+01    9.681321e-01
  2.754828e+01    9.519602e-01
  2.758003e+01    9.241338e-01
  2.761178e+01    9.016882e-01
  2.764353e+01    9.044305e-01
  2.767528e+01    9.223123e-01
  2.770703e+01    8.941225e-01
  2.773878e+01    9.114327e-01
  2.777054e+01    9.032347e-01
  2.780229e+01    8.862002e-01
  2.783404e+01    8.894871e-01
  2.786579e+01    8.922992e-01
  2.789754e+01    8.759088e-01
  2.792929e+01    8.929699e-01
  2.796104e+01    8.575997e-01
  2.799279e+01    8.636584e-01
  2.802454e+01    8.780739e-01
  2.805630e+01    8.612963e-01
  2.808805e+01    8.586338e-01
  2.811980e+01    8.576955e-01
  2.815155e+01    8.708118e-01
  2.818330e+01    8.479667e-01
  2.821505e+01    8.443772e-01
  2.824680e+01    8.571312e-01
  2.827855e+01    8.377841e-01
  2.831030e+01    8.500586e-01
  2.834206e+01    8.461245e-01
  2.837381e+01    8.426759e-01
  2.840556e+01    8.496468e-01
  2.843731e+01    8.416400e-01
  2.846906e+01    8.327335e-01
  2.850081e+01    8.219615e-01
  2.853256e+01    8.431386e-01
  2.856431e+01    8.459436e-01
  2.859606e+01    8.519507e-01
  2.862782e+01    8.452729e-01
  2.865957e+01    8.206893e-01
  2.869132e+01    8.244486e-01
  2.872307e+01    8.235680e-01
  2.875482e+01    8.225500e-01
  2.878657e+01    8.272284e-01
  2.881832e+01    8.196831e-01
  2.885007e+01    8.067654e-01
  2.888183e+01    8.091535e-01
  2.891358e+01    8.249161e-01
  2.894533e+01    8.275996e-01
  2.897708e+01    8.266785e-01
  2.900883e+01    8.298891e-01
  2.904058e+01    8.095119e-01
  2.907233e+01    8.282899e-01
  2.910408e+01    8.005470e-01
  2.913583e+01    8.144988e-01
  2.916759e+01    8.261876e-01
  2.919934e+01    8.033646e-01
  2.923109e+01    8.057012e-01
  2.926284e+01    8.523116e-01
  2.929459e+01    7.912068e-01
  2.932634e+01    7.900184e-01
  2.935809e+01    8.093017e-01
  2.938984e+01    8.059828e-01
  2.942159e+01    7.875441e-01
  2.945335e+01    7.948303e-01
  2.948510e+01    8.131626e-01
  2.951685e+01    7.827590e-01
  2.954860e+01    8.037605e-01
  2.958035e+01    8.059666e-01
  2.961210e+01    7.934731e-01
  2.964385e+01    7.928030e-01
  2.967560e+01    8.058149e-01
  2.970736e+01    7.995938e-01
  2.973911e+01    7.954950e-01
  2.977086e+01    7.962376e-01
  2.980261e+01    7.878590e-01
  2.983436e+01    7.923526e-01
  2.986611e+01    7.951854e-01
  2.989786e+01    7.961023e-01
  2.992961e+01    7.819422e-01
  2.996136e+01    7.707587e-01
  2.999312e+01    8.058146e-01
  3.002487e+01    8.147810e-01
  3.005662e+01    8.266691e-01
  3.008837e+01    8.085760e-01
  3.012012e+01    8.045853e-01
  3.015187e+01    7.821124e-01
  3.018362e+01    7.977840e-01
  3.021537e+01    7.813569e-01
  3.024712e+01    7.754967e-01
  3.027888e+01    7.612439e-01
  3.031063e+01    7.942680e-01
  3.034238e+01    7.667358e-01
  3.037413e+01    7.965658e-01
  3.040588e+01    7.858861e-01
  3.043763e+01    7.813484e-01
  3.046938e+01    7.865037e-01
  3.050113e+01    7.685710e-01
  3.053288e+01    7.542029e-01
  3.056464e+01    7.914184e-01
  3.059639e+01    7.902599e-01
  3.062814e+01    7.802910e-01
  3.065989e+01    7.890396e-01
  3.069164e+01    7.595355e-01
  3.072339e+01    7.745898e-01
  3.075514e+01    7.759185e-01
  3.078689e+01    8.051862e-01
  3.081865e+01    7.962446e-01
  3.085040e+01    7.908386e-01
  3.088215e+01    8.117974e-01
  3.091390e+01    7.709876e-01
  3.094565e+01    7.815446e-01
  3.097740e+01    7.670716e-01
  3.100915e+01    8.022877e-01
  3.104090e+01    7.924143e-01
  3.107265e+01    7.617199e-01
  3.110441e+01    7.921409e-01
  3.113616e+01    7.866641e-01
  3.116791e+01    8.039195e-01
  3.119966e+01    7.911410e-01
  3.123141e+01    7.915012e-01
  3.126316e+01    7.896888e-01
  3.129491e+01    8.152571e-01
  3.132666e+01    7.978000e-01
  3.135841e+01    7.955407e-01
  3.139017e+01    8.132539e-01
  3.142192e+01    8.141900e-01
  3.145367e+01    8.133480e-01
  3.148542e+01    8.278930e-01
  3.151717e+01    8.259025e-01
  3.154892e+01    8.375715e-01
  3.158067e+01    8.732793e-01
  3.161242e+01    8.993564e-01
  3.164418e+01    9.203985e-01
  3.167593e+01    9.286690e-01
  3.170768e+01    1.018251e+00
  3.173943e+01    1.118314e+00
  3.177118e+01    1.279927e+00
  3.180293e+01    1.471371e+00
  3.183468e+01    1.675301e+00
  3.186643e+01    1.933867e+00
  3.189818e+01    2.113317e+00
  3.192994e+01    2.082029e+00
  3.196169e+01    1.836902e+00
  3.199344e+01    1.584536e+00
  3.202519e+01    1.323337e+00
  3.205694e+01    1.136070e+00
  3.208869e+01    1.026403e+00
  3.212044e+01    9.816875e-01
  3.215219e+01    8.859231e-01
  3.218394e+01    8.622477e-01
  3.221570e+01    8.617477e-01
  3.224745e+01    8.367704e-01
  3.227920e+01    7.926002e-01
  3.231095e+01    8.263945e-01
  3.234270e+01    8.210799e-01
  3.237445e+01    7.926162e-01
  3.240620e+01    7.985454e-01
  3.243795e+01    7.858841e-01
  3.246970e+01    7.573531e-01
  3.250146e+01    7.893241e-01
  3.253321e+01    7.469255e-01
  3.254908e+01    7.577115e-01