File: XRD/Reaction conditions/2024-07-27_003_Ru-CGO-ex_Reaction_dwell_000023_data_000066.dat
# == pyFAI calibration ==
# Distance Sample to Detector: 0.4 m
# PONI: 9.750e-02, 1.135e-01 m
# Rotations: -0.000175 0.000000 -0.000000 rad
#
# == Fit2d calibration ==
# Distance Sample-beamCenter: 400.000 mm
# Center: x=1514.000, y=1300.000 pix
# Tilt: 0.010 deg  TiltPlanRot: 0.010 deg
#
# Detector Detector	 Spline= None	 PixelSize= 7.500e-05, 7.500e-05 m
#    Detector has a mask: False
#    Detector has a dark current: False
#    detector has a flat field: False
#
# Wavelength: 6.888e-11 m
# Mask applied: user provided
# Dark current applied: False
# Flat field applied: False
# Polarization factor: 0.99
# Normalization factor: 1.0
# --> /home/myspot/data/2024_07_Rosario/Ru-CGO-ex/2024-07-27_003_Ru-CGO-ex_Reaction_dwell_000023_data_000066.dat
#       q_nm^-1             I
  2.003187e-02    0.000000e+00
  5.178302e-02    1.490579e-01
  8.353417e-02    2.120601e-01
  1.152853e-01    1.256428e-02
  1.470365e-01    5.842787e-02
  1.787876e-01    8.835183e-02
  2.105388e-01    1.023969e-01
  2.422899e-01    5.436834e-02
  2.740411e-01    6.461696e-02
  3.057922e-01    3.666877e-02
  3.375433e-01    9.800668e-04
  3.692945e-01    7.016941e-02
  4.010456e-01    2.008327e-02
  4.327968e-01    4.673721e-02
  4.645479e-01    6.157523e-02
  4.962991e-01    4.270637e-02
  5.280502e-01    3.408861e-02
  5.598014e-01    4.873830e-02
  5.915525e-01    4.154595e-02
  6.233037e-01    4.978645e-02
  6.550548e-01    3.906862e-02
  6.868060e-01    5.465668e-02
  7.185571e-01    4.011166e-02
  7.503083e-01    5.732748e-02
  7.820594e-01    8.836136e-02
  8.138106e-01    2.090523e-01
  8.455617e-01    3.240489e-01
  8.773129e-01    4.870770e-01
  9.090640e-01    5.863137e-01
  9.408152e-01    7.789772e-01
  9.725663e-01    1.085420e+00
  1.004317e+00    1.223465e+00
  1.036069e+00    1.315527e+00
  1.067820e+00    1.446326e+00
  1.099571e+00    1.524721e+00
  1.131322e+00    1.590675e+00
  1.163073e+00    1.708046e+00
  1.194824e+00    1.867966e+00
  1.226575e+00    2.196703e+00
  1.258327e+00    2.414536e+00
  1.290078e+00    2.700484e+00
  1.321829e+00    2.855710e+00
  1.353580e+00    2.734644e+00
  1.385331e+00    2.813609e+00
  1.417082e+00    2.774694e+00
  1.448834e+00    2.971391e+00
  1.480585e+00    3.053274e+00
  1.512336e+00    2.974944e+00
  1.544087e+00    3.152117e+00
  1.575838e+00    3.175115e+00
  1.607589e+00    3.159974e+00
  1.639340e+00    3.067194e+00
  1.671092e+00    2.961270e+00
  1.702843e+00    2.961512e+00
  1.734594e+00    3.146332e+00
  1.766345e+00    3.178252e+00
  1.798096e+00    3.160774e+00
  1.829847e+00    3.025174e+00
  1.861598e+00    3.058561e+00
  1.893350e+00    3.058607e+00
  1.925101e+00    3.053801e+00
  1.956852e+00    3.169409e+00
  1.988603e+00    3.145730e+00
  2.020354e+00    3.075420e+00
  2.052105e+00    3.145061e+00
  2.083856e+00    3.139813e+00
  2.115608e+00    2.986947e+00
  2.147359e+00    3.048330e+00
  2.179110e+00    2.892716e+00
  2.210861e+00    3.043514e+00
  2.242612e+00    3.119181e+00
  2.274363e+00    3.177748e+00
  2.306115e+00    3.072022e+00
  2.337866e+00    3.136433e+00
  2.369617e+00    3.132796e+00
  2.401368e+00    3.231396e+00
  2.433119e+00    3.057452e+00
  2.464870e+00    3.129991e+00
  2.496621e+00    3.233359e+00
  2.528373e+00    3.275068e+00
  2.560124e+00    3.138601e+00
  2.591875e+00    3.202356e+00
  2.623626e+00    3.197806e+00
  2.655377e+00    3.315557e+00
  2.687128e+00    3.284271e+00
  2.718879e+00    3.221445e+00
  2.750631e+00    3.211456e+00
  2.782382e+00    3.326260e+00
  2.814133e+00    3.324073e+00
  2.845884e+00    3.320057e+00
  2.877635e+00    3.279883e+00
  2.909386e+00    3.288081e+00
  2.941137e+00    3.426317e+00
  2.972889e+00    3.356452e+00
  3.004640e+00    3.313330e+00
  3.036391e+00    3.353627e+00
  3.068142e+00    3.229925e+00
  3.099893e+00    3.407397e+00
  3.131644e+00    3.312516e+00
  3.163395e+00    3.395535e+00
  3.195147e+00    3.329046e+00
  3.226898e+00    3.304917e+00
  3.258649e+00    3.390240e+00
  3.290400e+00    3.383491e+00
  3.322151e+00    3.499224e+00
  3.353902e+00    3.451835e+00
  3.385654e+00    3.414139e+00
  3.417405e+00    3.408221e+00
  3.449156e+00    3.411772e+00
  3.480907e+00    3.400590e+00
  3.512658e+00    3.453063e+00
  3.544409e+00    3.508044e+00
  3.576160e+00    3.316447e+00
  3.607912e+00    3.491659e+00
  3.639663e+00    3.524171e+00
  3.671414e+00    3.439068e+00
  3.703165e+00    3.540245e+00
  3.734916e+00    3.421339e+00
  3.766667e+00    3.471453e+00
  3.798418e+00    3.465159e+00
  3.830170e+00    3.467037e+00
  3.861921e+00    3.522371e+00
  3.893672e+00    3.441476e+00
  3.925423e+00    3.490647e+00
  3.957174e+00    3.529810e+00
  3.988925e+00    3.499782e+00
  4.020676e+00    3.529781e+00
  4.052428e+00    3.406140e+00
  4.084179e+00    3.455542e+00
  4.115930e+00    3.491866e+00
  4.147681e+00    3.640246e+00
  4.179432e+00    3.560060e+00
  4.211183e+00    3.674973e+00
  4.242935e+00    3.586193e+00
  4.274686e+00    3.553940e+00
  4.306437e+00    3.497634e+00
  4.338188e+00    3.557983e+00
  4.369939e+00    3.652473e+00
  4.401690e+00    3.574548e+00
  4.433441e+00    3.640930e+00
  4.465193e+00    3.649220e+00
  4.496944e+00    3.611364e+00
  4.528695e+00    3.518933e+00
  4.560446e+00    3.608823e+00
  4.592197e+00    3.679539e+00
  4.623948e+00    3.565383e+00
  4.655699e+00    3.558332e+00
  4.687451e+00    3.604774e+00
  4.719202e+00    3.536735e+00
  4.750953e+00    3.709411e+00
  4.782704e+00    3.635301e+00
  4.814455e+00    3.585654e+00
  4.846206e+00    3.638173e+00
  4.877957e+00    3.602059e+00
  4.909709e+00    3.626701e+00
  4.941460e+00    3.599622e+00
  4.973211e+00    3.725335e+00
  5.004962e+00    3.629517e+00
  5.036713e+00    3.700329e+00
  5.068464e+00    3.702934e+00
  5.100216e+00    3.716588e+00
  5.131967e+00    3.692711e+00
  5.163718e+00    3.708683e+00
  5.195469e+00    3.695581e+00
  5.227220e+00    3.762804e+00
  5.258971e+00    3.642421e+00
  5.290722e+00    3.704570e+00
  5.322474e+00    3.676694e+00
  5.354225e+00    3.733230e+00
  5.385976e+00    3.714926e+00
  5.417727e+00    3.605489e+00
  5.449478e+00    3.478813e+00
  5.481229e+00    3.584109e+00
  5.512980e+00    3.650587e+00
  5.544732e+00    3.649853e+00
  5.576483e+00    3.524530e+00
  5.608234e+00    3.533983e+00
  5.639985e+00    3.656183e+00
  5.671736e+00    3.613603e+00
  5.703487e+00    3.561121e+00
  5.735238e+00    3.653682e+00
  5.766990e+00    3.548928e+00
  5.798741e+00    3.483061e+00
  5.830492e+00    3.491905e+00
  5.862243e+00    3.496634e+00
  5.893994e+00    3.506059e+00
  5.925745e+00    3.494467e+00
  5.957497e+00    3.561649e+00
  5.989248e+00    3.560475e+00
  6.020999e+00    3.506489e+00
  6.052750e+00    3.556849e+00
  6.084501e+00    3.578613e+00
  6.116252e+00    3.568736e+00
  6.148003e+00    3.617951e+00
  6.179755e+00    3.549567e+00
  6.211506e+00    3.502546e+00
  6.243257e+00    3.578969e+00
  6.275008e+00    3.574973e+00
  6.306759e+00    3.634991e+00
  6.338510e+00    3.545633e+00
  6.370261e+00    3.560628e+00
  6.402013e+00    3.601888e+00
  6.433764e+00    3.527703e+00
  6.465515e+00    3.537434e+00
  6.497266e+00    3.593663e+00
  6.529017e+00    3.573959e+00
  6.560768e+00    3.580814e+00
  6.592519e+00    3.594115e+00
  6.624271e+00    3.552491e+00
  6.656022e+00    3.605447e+00
  6.687773e+00    3.560925e+00
  6.719524e+00    3.574675e+00
  6.751275e+00    3.568443e+00
  6.783026e+00    3.636052e+00
  6.814777e+00    3.539390e+00
  6.846529e+00    3.621941e+00
  6.878280e+00    3.601197e+00
  6.910031e+00    3.614524e+00
  6.941782e+00    3.530930e+00
  6.973533e+00    3.416079e+00
  7.005284e+00    3.595804e+00
  7.037036e+00    3.515396e+00
  7.068787e+00    3.435553e+00
  7.100538e+00    3.500767e+00
  7.132289e+00    3.571776e+00
  7.164040e+00    3.477177e+00
  7.195791e+00    3.524861e+00
  7.227542e+00    3.522117e+00
  7.259294e+00    3.474684e+00
  7.291045e+00    3.540344e+00
  7.322796e+00    3.436167e+00
  7.354547e+00    3.548882e+00
  7.386298e+00    3.529467e+00
  7.418049e+00    3.459035e+00
  7.449800e+00    3.525524e+00
  7.481552e+00    3.498969e+00
  7.513303e+00    3.618442e+00
  7.545054e+00    3.486889e+00
  7.576805e+00    3.549866e+00
  7.608556e+00    3.516021e+00
  7.640307e+00    3.447586e+00
  7.672058e+00    3.507679e+00
  7.703810e+00    3.348652e+00
  7.735561e+00    3.465371e+00
  7.767312e+00    3.406937e+00
  7.799063e+00    3.430925e+00
  7.830814e+00    3.418534e+00
  7.862565e+00    3.406306e+00
  7.894317e+00    3.407116e+00
  7.926068e+00    3.393391e+00
  7.957819e+00    3.406340e+00
  7.989570e+00    3.430307e+00
  8.021321e+00    3.354603e+00
  8.053072e+00    3.411557e+00
  8.084823e+00    3.386087e+00
  8.116575e+00    3.445495e+00
  8.148326e+00    3.465071e+00
  8.180077e+00    3.409537e+00
  8.211828e+00    3.487947e+00
  8.243579e+00    3.490146e+00
  8.275330e+00    3.416864e+00
  8.307081e+00    3.439609e+00
  8.338833e+00    3.409642e+00
  8.370584e+00    3.381307e+00
  8.402335e+00    3.393632e+00
  8.434086e+00    3.260537e+00
  8.465837e+00    3.396796e+00
  8.497588e+00    3.389310e+00
  8.529339e+00    3.372678e+00
  8.561091e+00    3.371595e+00
  8.592842e+00    3.355629e+00
  8.624593e+00    3.295598e+00
  8.656344e+00    3.331771e+00
  8.688095e+00    3.346050e+00
  8.719846e+00    3.355708e+00
  8.751598e+00    3.367325e+00
  8.783349e+00    3.330034e+00
  8.815100e+00    3.297529e+00
  8.846851e+00    3.292626e+00
  8.878602e+00    3.324354e+00
  8.910353e+00    3.283220e+00
  8.942104e+00    3.293751e+00
  8.973856e+00    3.335563e+00
  9.005607e+00    3.284475e+00
  9.037358e+00    3.353735e+00
  9.069109e+00    3.284228e+00
  9.100860e+00    3.243301e+00
  9.132611e+00    3.211973e+00
  9.164362e+00    3.232308e+00
  9.196114e+00    3.278662e+00
  9.227865e+00    3.202989e+00
  9.259616e+00    3.300304e+00
  9.291367e+00    3.253634e+00
  9.323118e+00    3.207038e+00
  9.354869e+00    3.259563e+00
  9.386620e+00    3.217941e+00
  9.418372e+00    3.273089e+00
  9.450123e+00    3.266948e+00
  9.481874e+00    3.222373e+00
  9.513625e+00    3.247098e+00
  9.545376e+00    3.237583e+00
  9.577127e+00    3.157546e+00
  9.608878e+00    3.240783e+00
  9.640630e+00    3.256383e+00
  9.672381e+00    3.234832e+00
  9.704132e+00    3.187368e+00
  9.735883e+00    3.149338e+00
  9.767634e+00    3.194882e+00
  9.799385e+00    3.079800e+00
  9.831137e+00    3.130546e+00
  9.862888e+00    3.128629e+00
  9.894639e+00    3.082573e+00
  9.926390e+00    3.095663e+00
  9.958141e+00    3.093760e+00
  9.989892e+00    3.070213e+00
  1.002164e+01    3.086686e+00
  1.005339e+01    3.146502e+00
  1.008515e+01    3.073066e+00
  1.011690e+01    3.079084e+00
  1.014865e+01    3.110533e+00
  1.018040e+01    3.112392e+00
  1.021215e+01    3.070092e+00
  1.024390e+01    3.020442e+00
  1.027565e+01    3.125520e+00
  1.030740e+01    3.002956e+00
  1.033915e+01    3.054095e+00
  1.037091e+01    3.018178e+00
  1.040266e+01    3.017972e+00
  1.043441e+01    3.033434e+00
  1.046616e+01    3.028310e+00
  1.049791e+01    3.012962e+00
  1.052966e+01    2.964086e+00
  1.056141e+01    2.995474e+00
  1.059316e+01    3.003605e+00
  1.062492e+01    2.999895e+00
  1.065667e+01    3.048843e+00
  1.068842e+01    3.020098e+00
  1.072017e+01    2.973680e+00
  1.075192e+01    2.941363e+00
  1.078367e+01    2.968201e+00
  1.081542e+01    2.964538e+00
  1.084717e+01    2.956905e+00
  1.087892e+01    2.947187e+00
  1.091068e+01    2.935850e+00
  1.094243e+01    2.939628e+00
  1.097418e+01    2.874055e+00
  1.100593e+01    2.936155e+00
  1.103768e+01    2.926049e+00
  1.106943e+01    2.898968e+00
  1.110118e+01    2.867888e+00
  1.113293e+01    2.871685e+00
  1.116468e+01    2.879131e+00
  1.119644e+01    2.839590e+00
  1.122819e+01    2.938917e+00
  1.125994e+01    2.877695e+00
  1.129169e+01    2.849824e+00
  1.132344e+01    2.805205e+00
  1.135519e+01    2.818126e+00
  1.138694e+01    2.864163e+00
  1.141869e+01    2.809276e+00
  1.145045e+01    2.804437e+00
  1.148220e+01    2.809218e+00
  1.151395e+01    2.761864e+00
  1.154570e+01    2.802731e+00
  1.157745e+01    2.832796e+00
  1.160920e+01    2.774889e+00
  1.164095e+01    2.793424e+00
  1.167270e+01    2.795521e+00
  1.170445e+01    2.795591e+00
  1.173621e+01    2.752009e+00
  1.176796e+01    2.751229e+00
  1.179971e+01    2.764386e+00
  1.183146e+01    2.758260e+00
  1.186321e+01    2.755064e+00
  1.189496e+01    2.726399e+00
  1.192671e+01    2.735787e+00
  1.195846e+01    2.744025e+00
  1.199021e+01    2.706327e+00
  1.202197e+01    2.711105e+00
  1.205372e+01    2.671751e+00
  1.208547e+01    2.721591e+00
  1.211722e+01    2.669850e+00
  1.214897e+01    2.664526e+00
  1.218072e+01    2.739041e+00
  1.221247e+01    2.650988e+00
  1.224422e+01    2.679236e+00
  1.227597e+01    2.671341e+00
  1.230773e+01    2.650122e+00
  1.233948e+01    2.729531e+00
  1.237123e+01    2.673310e+00
  1.240298e+01    2.689057e+00
  1.243473e+01    2.703014e+00
  1.246648e+01    2.699470e+00
  1.249823e+01    2.706621e+00
  1.252998e+01    2.686970e+00
  1.256174e+01    2.694139e+00
  1.259349e+01    2.710196e+00
  1.262524e+01    2.774552e+00
  1.265699e+01    2.810793e+00
  1.268874e+01    2.772845e+00
  1.272049e+01    2.843041e+00
  1.275224e+01    2.920814e+00
  1.278399e+01    2.971764e+00
  1.281574e+01    3.088387e+00
  1.284750e+01    3.174245e+00
  1.287925e+01    3.356546e+00
  1.291100e+01    3.651144e+00
  1.294275e+01    4.102838e+00
  1.297450e+01    4.816198e+00
  1.300625e+01    5.931677e+00
  1.303800e+01    7.711566e+00
  1.306975e+01    1.029067e+01
  1.310150e+01    1.276126e+01
  1.313326e+01    1.473905e+01
  1.316501e+01    1.622158e+01
  1.319676e+01    1.552970e+01
  1.322851e+01    1.246831e+01
  1.326026e+01    9.038443e+00
  1.329201e+01    6.753706e+00
  1.332376e+01    5.328447e+00
  1.335551e+01    4.392523e+00
  1.338727e+01    3.861374e+00
  1.341902e+01    3.501009e+00
  1.345077e+01    3.246429e+00
  1.348252e+01    3.059847e+00
  1.351427e+01    2.896080e+00
  1.354602e+01    2.841083e+00
  1.357777e+01    2.704964e+00
  1.360952e+01    2.722278e+00
  1.364127e+01    2.647887e+00
  1.367303e+01    2.565728e+00
  1.370478e+01    2.575861e+00
  1.373653e+01    2.540774e+00
  1.376828e+01    2.468056e+00
  1.380003e+01    2.432706e+00
  1.383178e+01    2.461571e+00
  1.386353e+01    2.418630e+00
  1.389528e+01    2.432107e+00
  1.392703e+01    2.461541e+00
  1.395879e+01    2.380620e+00
  1.399054e+01    2.344362e+00
  1.402229e+01    2.349698e+00
  1.405404e+01    2.380664e+00
  1.408579e+01    2.283526e+00
  1.411754e+01    2.319595e+00
  1.414929e+01    2.352086e+00
  1.418104e+01    2.312438e+00
  1.421279e+01    2.297118e+00
  1.424455e+01    2.309075e+00
  1.427630e+01    2.294669e+00
  1.430805e+01    2.298182e+00
  1.433980e+01    2.250329e+00
  1.437155e+01    2.253501e+00
  1.440330e+01    2.257908e+00
  1.443505e+01    2.219330e+00
  1.446680e+01    2.213160e+00
  1.449856e+01    2.208589e+00
  1.453031e+01    2.201555e+00
  1.456206e+01    2.189628e+00
  1.459381e+01    2.189586e+00
  1.462556e+01    2.230870e+00
  1.465731e+01    2.217588e+00
  1.468906e+01    2.218659e+00
  1.472081e+01    2.220751e+00
  1.475256e+01    2.179582e+00
  1.478432e+01    2.158394e+00
  1.481607e+01    2.185501e+00
  1.484782e+01    2.210783e+00
  1.487957e+01    2.201629e+00
  1.491132e+01    2.255876e+00
  1.494307e+01    2.315160e+00
  1.497482e+01    2.312376e+00
  1.500657e+01    2.421137e+00
  1.503832e+01    2.560130e+00
  1.507008e+01    2.805335e+00
  1.510183e+01    3.228316e+00
  1.513358e+01    3.768499e+00
  1.516533e+01    4.559832e+00
  1.519708e+01    5.213285e+00
  1.522883e+01    5.619670e+00
  1.526058e+01    5.837194e+00
  1.529233e+01    5.402977e+00
  1.532409e+01    4.603178e+00
  1.535584e+01    3.760189e+00
  1.538759e+01    3.174673e+00
  1.541934e+01    2.776711e+00
  1.545109e+01    2.527868e+00
  1.548284e+01    2.382572e+00
  1.551459e+01    2.259862e+00
  1.554634e+01    2.206659e+00
  1.557809e+01    2.110342e+00
  1.560985e+01    2.083851e+00
  1.564160e+01    2.066705e+00
  1.567335e+01    2.016856e+00
  1.570510e+01    1.960997e+00
  1.573685e+01    1.990048e+00
  1.576860e+01    1.962713e+00
  1.580035e+01    1.941824e+00
  1.583210e+01    1.912157e+00
  1.586385e+01    1.920503e+00
  1.589561e+01    1.853267e+00
  1.592736e+01    1.870734e+00
  1.595911e+01    1.936135e+00
  1.599086e+01    1.864063e+00
  1.602261e+01    1.875406e+00
  1.605436e+01    1.880874e+00
  1.608611e+01    1.868635e+00
  1.611786e+01    1.824230e+00
  1.614961e+01    1.835080e+00
  1.618137e+01    1.800969e+00
  1.621312e+01    1.814068e+00
  1.624487e+01    1.832489e+00
  1.627662e+01    1.844360e+00
  1.630837e+01    1.799713e+00
  1.634012e+01    1.825197e+00
  1.637187e+01    1.784498e+00
  1.640362e+01    1.797363e+00
  1.643538e+01    1.779602e+00
  1.646713e+01    1.774888e+00
  1.649888e+01    1.773005e+00
  1.653063e+01    1.779788e+00
  1.656238e+01    1.729547e+00
  1.659413e+01    1.745336e+00
  1.662588e+01    1.744952e+00
  1.665763e+01    1.711797e+00
  1.668938e+01    1.710291e+00
  1.672114e+01    1.767990e+00
  1.675289e+01    1.714260e+00
  1.678464e+01    1.735580e+00
  1.681639e+01    1.701243e+00
  1.684814e+01    1.712870e+00
  1.687989e+01    1.709591e+00
  1.691164e+01    1.682849e+00
  1.694339e+01    1.698043e+00
  1.697514e+01    1.707499e+00
  1.700690e+01    1.666597e+00
  1.703865e+01    1.658603e+00
  1.707040e+01    1.646572e+00
  1.710215e+01    1.674439e+00
  1.713390e+01    1.661654e+00
  1.716565e+01    1.637421e+00
  1.719740e+01    1.662555e+00
  1.722915e+01    1.620489e+00
  1.726091e+01    1.606571e+00
  1.729266e+01    1.606095e+00
  1.732441e+01    1.581488e+00
  1.735616e+01    1.630343e+00
  1.738791e+01    1.610578e+00
  1.741966e+01    1.604862e+00
  1.745141e+01    1.603746e+00
  1.748316e+01    1.565779e+00
  1.751491e+01    1.568609e+00
  1.754667e+01    1.602211e+00
  1.757842e+01    1.582120e+00
  1.761017e+01    1.551965e+00
  1.764192e+01    1.589191e+00
  1.767367e+01    1.584532e+00
  1.770542e+01    1.520616e+00
  1.773717e+01    1.548612e+00
  1.776892e+01    1.561470e+00
  1.780067e+01    1.530211e+00
  1.783243e+01    1.539184e+00
  1.786418e+01    1.525984e+00
  1.789593e+01    1.532753e+00
  1.792768e+01    1.494791e+00
  1.795943e+01    1.523889e+00
  1.799118e+01    1.496115e+00
  1.802293e+01    1.491325e+00
  1.805468e+01    1.508395e+00
  1.808643e+01    1.522166e+00
  1.811819e+01    1.488142e+00
  1.814994e+01    1.481235e+00
  1.818169e+01    1.487794e+00
  1.821344e+01    1.472894e+00
  1.824519e+01    1.487950e+00
  1.827694e+01    1.446099e+00
  1.830869e+01    1.462528e+00
  1.834044e+01    1.437802e+00
  1.837220e+01    1.461773e+00
  1.840395e+01    1.487854e+00
  1.843570e+01    1.457941e+00
  1.846745e+01    1.452820e+00
  1.849920e+01    1.425891e+00
  1.853095e+01    1.415819e+00
  1.856270e+01    1.432570e+00
  1.859445e+01    1.445370e+00
  1.862620e+01    1.433362e+00
  1.865796e+01    1.428307e+00
  1.868971e+01    1.443240e+00
  1.872146e+01    1.405713e+00
  1.875321e+01    1.409401e+00
  1.878496e+01    1.411405e+00
  1.881671e+01    1.410590e+00
  1.884846e+01    1.405134e+00
  1.888021e+01    1.419696e+00
  1.891196e+01    1.388602e+00
  1.894372e+01    1.406057e+00
  1.897547e+01    1.378028e+00
  1.900722e+01    1.399834e+00
  1.903897e+01    1.367340e+00
  1.907072e+01    1.384697e+00
  1.910247e+01    1.380289e+00
  1.913422e+01    1.393868e+00
  1.916597e+01    1.367896e+00
  1.919773e+01    1.387718e+00
  1.922948e+01    1.367988e+00
  1.926123e+01    1.352569e+00
  1.929298e+01    1.342698e+00
  1.932473e+01    1.354982e+00
  1.935648e+01    1.355013e+00
  1.938823e+01    1.347133e+00
  1.941998e+01    1.367208e+00
  1.945173e+01    1.343848e+00
  1.948349e+01    1.358706e+00
  1.951524e+01    1.341108e+00
  1.954699e+01    1.348411e+00
  1.957874e+01    1.337357e+00
  1.961049e+01    1.343532e+00
  1.964224e+01    1.330132e+00
  1.967399e+01    1.322644e+00
  1.970574e+01    1.322970e+00
  1.973749e+01    1.285986e+00
  1.976925e+01    1.319334e+00
  1.980100e+01    1.262597e+00
  1.983275e+01    1.281456e+00
  1.986450e+01    1.300576e+00
  1.989625e+01    1.285596e+00
  1.992800e+01    1.265154e+00
  1.995975e+01    1.266752e+00
  1.999150e+01    1.285192e+00
  2.002325e+01    1.255653e+00
  2.005501e+01    1.251435e+00
  2.008676e+01    1.273824e+00
  2.011851e+01    1.271112e+00
  2.015026e+01    1.281797e+00
  2.018201e+01    1.253241e+00
  2.021376e+01    1.253375e+00
  2.024551e+01    1.274169e+00
  2.027726e+01    1.247483e+00
  2.030902e+01    1.248443e+00
  2.034077e+01    1.240165e+00
  2.037252e+01    1.265245e+00
  2.040427e+01    1.268349e+00
  2.043602e+01    1.248960e+00
  2.046777e+01    1.248496e+00
  2.049952e+01    1.243356e+00
  2.053127e+01    1.249792e+00
  2.056302e+01    1.213891e+00
  2.059478e+01    1.248643e+00
  2.062653e+01    1.228947e+00
  2.065828e+01    1.227065e+00
  2.069003e+01    1.240282e+00
  2.072178e+01    1.244905e+00
  2.075353e+01    1.235431e+00
  2.078528e+01    1.229839e+00
  2.081703e+01    1.204586e+00
  2.084878e+01    1.228683e+00
  2.088054e+01    1.251390e+00
  2.091229e+01    1.216394e+00
  2.094404e+01    1.233946e+00
  2.097579e+01    1.226638e+00
  2.100754e+01    1.231696e+00
  2.103929e+01    1.258878e+00
  2.107104e+01    1.239436e+00
  2.110279e+01    1.218679e+00
  2.113455e+01    1.246112e+00
  2.116630e+01    1.254355e+00
  2.119805e+01    1.270681e+00
  2.122980e+01    1.260409e+00
  2.126155e+01    1.237285e+00
  2.129330e+01    1.245825e+00
  2.132505e+01    1.283300e+00
  2.135680e+01    1.291198e+00
  2.138855e+01    1.305853e+00
  2.142031e+01    1.326941e+00
  2.145206e+01    1.339086e+00
  2.148381e+01    1.408364e+00
  2.151556e+01    1.431702e+00
  2.154731e+01    1.488881e+00
  2.157906e+01    1.618660e+00
  2.161081e+01    1.745530e+00
  2.164256e+01    1.995359e+00
  2.167431e+01    2.294759e+00
  2.170607e+01    2.763424e+00
  2.173782e+01    3.534677e+00
  2.176957e+01    4.657588e+00
  2.180132e+01    5.785217e+00
  2.183307e+01    7.246165e+00
  2.186482e+01    8.359103e+00
  2.189657e+01    8.920308e+00
  2.192832e+01    8.237152e+00
  2.196007e+01    6.577550e+00
  2.199183e+01    4.801119e+00
  2.202358e+01    3.567504e+00
  2.205533e+01    2.836050e+00
  2.208708e+01    2.364161e+00
  2.211883e+01    2.004564e+00
  2.215058e+01    1.773960e+00
  2.218233e+01    1.592261e+00
  2.221408e+01    1.489259e+00
  2.224584e+01    1.402854e+00
  2.227759e+01    1.321517e+00
  2.230934e+01    1.301599e+00
  2.234109e+01    1.278943e+00
  2.237284e+01    1.234010e+00
  2.240459e+01    1.207288e+00
  2.243634e+01    1.205909e+00
  2.246809e+01    1.161263e+00
  2.249984e+01    1.141342e+00
  2.253160e+01    1.128411e+00
  2.256335e+01    1.131466e+00
  2.259510e+01    1.092129e+00
  2.262685e+01    1.090575e+00
  2.265860e+01    1.083113e+00
  2.269035e+01    1.081330e+00
  2.272210e+01    1.087372e+00
  2.275385e+01    1.064952e+00
  2.278560e+01    1.059796e+00
  2.281736e+01    1.066406e+00
  2.284911e+01    1.043163e+00
  2.288086e+01    1.046088e+00
  2.291261e+01    1.018625e+00
  2.294436e+01    1.029873e+00
  2.297611e+01    1.026615e+00
  2.300786e+01    1.053342e+00
  2.303961e+01    1.019782e+00
  2.307137e+01    1.011317e+00
  2.310312e+01    1.020656e+00
  2.313487e+01    9.941032e-01
  2.316662e+01    9.978694e-01
  2.319837e+01    9.871550e-01
  2.323012e+01    9.920096e-01
  2.326187e+01    9.844525e-01
  2.329362e+01    9.981411e-01
  2.332537e+01    9.807179e-01
  2.335713e+01    9.823997e-01
  2.338888e+01    9.614235e-01
  2.342063e+01    9.649343e-01
  2.345238e+01    9.724830e-01
  2.348413e+01    9.708058e-01
  2.351588e+01    9.666454e-01
  2.354763e+01    9.743611e-01
  2.357938e+01    9.446258e-01
  2.361113e+01    9.592043e-01
  2.364289e+01    9.477277e-01
  2.367464e+01    9.497695e-01
  2.370639e+01    9.364742e-01
  2.373814e+01    9.265198e-01
  2.376989e+01    9.382526e-01
  2.380164e+01    9.206543e-01
  2.383339e+01    9.149667e-01
  2.386514e+01    9.142870e-01
  2.389689e+01    9.142097e-01
  2.392865e+01    9.238425e-01
  2.396040e+01    9.063264e-01
  2.399215e+01    9.169762e-01
  2.402390e+01    9.044148e-01
  2.405565e+01    8.979507e-01
  2.408740e+01    8.960265e-01
  2.411915e+01    8.942370e-01
  2.415090e+01    8.722908e-01
  2.418266e+01    9.059647e-01
  2.421441e+01    8.801062e-01
  2.424616e+01    8.990737e-01
  2.427791e+01    8.698168e-01
  2.430966e+01    8.906417e-01
  2.434141e+01    9.053360e-01
  2.437316e+01    9.120990e-01
  2.440491e+01    8.835518e-01
  2.443666e+01    8.848908e-01
  2.446842e+01    8.874331e-01
  2.450017e+01    8.894175e-01
  2.453192e+01    8.918105e-01
  2.456367e+01    8.780454e-01
  2.459542e+01    8.959304e-01
  2.462717e+01    8.638693e-01
  2.465892e+01    9.022811e-01
  2.469067e+01    9.059632e-01
  2.472242e+01    9.172236e-01
  2.475418e+01    8.576267e-01
  2.478593e+01    8.720993e-01
  2.481768e+01    8.892487e-01
  2.484943e+01    8.568127e-01
  2.488118e+01    8.888091e-01
  2.491293e+01    9.027402e-01
  2.494468e+01    9.214666e-01
  2.497643e+01    8.981459e-01
  2.500819e+01    8.936955e-01
  2.503994e+01    8.954151e-01
  2.507169e+01    9.014350e-01
  2.510344e+01    8.938320e-01
  2.513519e+01    9.106205e-01
  2.516694e+01    9.261569e-01
  2.519869e+01    9.126951e-01
  2.523044e+01    9.467883e-01
  2.526219e+01    9.526999e-01
  2.529395e+01    9.581407e-01
  2.532570e+01    9.664229e-01
  2.535745e+01    9.900405e-01
  2.538920e+01    9.763875e-01
  2.542095e+01    9.843511e-01
  2.545270e+01    1.006821e+00
  2.548445e+01    1.036145e+00
  2.551620e+01    1.088184e+00
  2.554795e+01    1.113182e+00
  2.557971e+01    1.142591e+00
  2.561146e+01    1.233914e+00
  2.564321e+01    1.315212e+00
  2.567496e+01    1.423121e+00
  2.570671e+01    1.555900e+00
  2.573846e+01    1.831368e+00
  2.577021e+01    2.248628e+00
  2.580196e+01    2.840973e+00
  2.583371e+01    3.690126e+00
  2.586547e+01    4.694427e+00
  2.589722e+01    5.899191e+00
  2.592897e+01    6.760616e+00
  2.596072e+01    7.038488e+00
  2.599247e+01    6.510853e+00
  2.602422e+01    5.234231e+00
  2.605597e+01    3.970277e+00
  2.608772e+01    2.977059e+00
  2.611948e+01    2.368137e+00
  2.615123e+01    1.914358e+00
  2.618298e+01    1.661495e+00
  2.621473e+01    1.480986e+00
  2.624648e+01    1.333626e+00
  2.627823e+01    1.241483e+00
  2.630998e+01    1.188990e+00
  2.634173e+01    1.109776e+00
  2.637348e+01    1.062501e+00
  2.640524e+01    1.052243e+00
  2.643699e+01    1.036018e+00
  2.646874e+01    1.030999e+00
  2.650049e+01    1.025568e+00
  2.653224e+01    9.752231e-01
  2.656399e+01    9.864472e-01
  2.659574e+01    9.545733e-01
  2.662749e+01    9.727760e-01
  2.665924e+01    9.921650e-01
  2.669100e+01    9.756605e-01
  2.672275e+01    9.613358e-01
  2.675450e+01    9.754041e-01
  2.678625e+01    9.764446e-01
  2.681800e+01    9.511851e-01
  2.684975e+01    9.778147e-01
  2.688150e+01    9.822592e-01
  2.691325e+01    1.027730e+00
  2.694501e+01    1.029472e+00
  2.697676e+01    1.046417e+00
  2.700851e+01    1.118325e+00
  2.704026e+01    1.157079e+00
  2.707201e+01    1.324466e+00
  2.710376e+01    1.472826e+00
  2.713551e+01    1.736290e+00
  2.716726e+01    1.992578e+00
  2.719901e+01    2.114532e+00
  2.723077e+01    2.139021e+00
  2.726252e+01    1.936676e+00
  2.729427e+01    1.704502e+00
  2.732602e+01    1.440168e+00
  2.735777e+01    1.281954e+00
  2.738952e+01    1.177543e+00
  2.742127e+01    1.113774e+00
  2.745302e+01    1.030732e+00
  2.748477e+01    9.859084e-01
  2.751653e+01    9.594303e-01
  2.754828e+01    9.649666e-01
  2.758003e+01    9.306058e-01
  2.761178e+01    9.106497e-01
  2.764353e+01    9.163498e-01
  2.767528e+01    9.041712e-01
  2.770703e+01    9.113961e-01
  2.773878e+01    9.285827e-01
  2.777054e+01    9.117366e-01
  2.780229e+01    8.890356e-01
  2.783404e+01    8.737438e-01
  2.786579e+01    8.705274e-01
  2.789754e+01    8.824987e-01
  2.792929e+01    8.626255e-01
  2.796104e+01    8.606856e-01
  2.799279e+01    8.581738e-01
  2.802454e+01    8.734224e-01
  2.805630e+01    8.648568e-01
  2.808805e+01    8.492408e-01
  2.811980e+01    8.585799e-01
  2.815155e+01    8.483272e-01
  2.818330e+01    8.592500e-01
  2.821505e+01    8.614294e-01
  2.824680e+01    8.426676e-01
  2.827855e+01    8.576443e-01
  2.831030e+01    8.500938e-01
  2.834206e+01    8.538710e-01
  2.837381e+01    8.491084e-01
  2.840556e+01    8.508857e-01
  2.843731e+01    8.179792e-01
  2.846906e+01    8.159762e-01
  2.850081e+01    8.423375e-01
  2.853256e+01    8.318380e-01
  2.856431e+01    8.174713e-01
  2.859606e+01    8.555998e-01
  2.862782e+01    8.272602e-01
  2.865957e+01    8.603284e-01
  2.869132e+01    8.314213e-01
  2.872307e+01    8.236515e-01
  2.875482e+01    8.224056e-01
  2.878657e+01    8.098135e-01
  2.881832e+01    8.070585e-01
  2.885007e+01    8.551880e-01
  2.888183e+01    8.141791e-01
  2.891358e+01    8.218400e-01
  2.894533e+01    8.320483e-01
  2.897708e+01    8.261501e-01
  2.900883e+01    8.360515e-01
  2.904058e+01    7.995531e-01
  2.907233e+01    7.998919e-01
  2.910408e+01    8.104352e-01
  2.913583e+01    8.204817e-01
  2.916759e+01    8.170146e-01
  2.919934e+01    8.076004e-01
  2.923109e+01    7.962592e-01
  2.926284e+01    8.131896e-01
  2.929459e+01    8.365796e-01
  2.932634e+01    8.140177e-01
  2.935809e+01    8.100266e-01
  2.938984e+01    8.017944e-01
  2.942159e+01    8.101828e-01
  2.945335e+01    8.231741e-01
  2.948510e+01    7.837108e-01
  2.951685e+01    8.226951e-01
  2.954860e+01    7.953451e-01
  2.958035e+01    7.990911e-01
  2.961210e+01    8.012698e-01
  2.964385e+01    8.009616e-01
  2.967560e+01    8.045999e-01
  2.970736e+01    8.168677e-01
  2.973911e+01    7.959476e-01
  2.977086e+01    8.189838e-01
  2.980261e+01    8.125541e-01
  2.983436e+01    8.042567e-01
  2.986611e+01    8.045548e-01
  2.989786e+01    7.903807e-01
  2.992961e+01    7.884505e-01
  2.996136e+01    7.940219e-01
  2.999312e+01    8.163645e-01
  3.002487e+01    8.316545e-01
  3.005662e+01    8.070956e-01
  3.008837e+01    8.034058e-01
  3.012012e+01    8.270258e-01
  3.015187e+01    7.954717e-01
  3.018362e+01    7.897200e-01
  3.021537e+01    7.966669e-01
  3.024712e+01    7.840281e-01
  3.027888e+01    8.001879e-01
  3.031063e+01    7.727761e-01
  3.034238e+01    7.968140e-01
  3.037413e+01    8.028257e-01
  3.040588e+01    8.055258e-01
  3.043763e+01    7.787645e-01
  3.046938e+01    7.776293e-01
  3.050113e+01    7.687144e-01
  3.053288e+01    7.905719e-01
  3.056464e+01    7.637404e-01
  3.059639e+01    7.818406e-01
  3.062814e+01    8.072134e-01
  3.065989e+01    8.030294e-01
  3.069164e+01    7.948712e-01
  3.072339e+01    7.915466e-01
  3.075514e+01    7.769641e-01
  3.078689e+01    7.926796e-01
  3.081865e+01    8.096125e-01
  3.085040e+01    7.997573e-01
  3.088215e+01    7.651249e-01
  3.091390e+01    7.963765e-01
  3.094565e+01    7.892822e-01
  3.097740e+01    7.906075e-01
  3.100915e+01    7.934062e-01
  3.104090e+01    7.930269e-01
  3.107265e+01    7.882994e-01
  3.110441e+01    7.768585e-01
  3.113616e+01    7.968214e-01
  3.116791e+01    7.719857e-01
  3.119966e+01    7.927587e-01
  3.123141e+01    7.887592e-01
  3.126316e+01    8.009666e-01
  3.129491e+01    8.089165e-01
  3.132666e+01    7.934252e-01
  3.135841e+01    8.055495e-01
  3.139017e+01    8.100383e-01
  3.142192e+01    8.291058e-01
  3.145367e+01    8.227736e-01
  3.148542e+01    8.233300e-01
  3.151717e+01    8.317322e-01
  3.154892e+01    8.496000e-01
  3.158067e+01    8.577653e-01
  3.161242e+01    8.854867e-01
  3.164418e+01    9.210976e-01
  3.167593e+01    9.691917e-01
  3.170768e+01    1.025775e+00
  3.173943e+01    1.078667e+00
  3.177118e+01    1.252264e+00
  3.180293e+01    1.441859e+00
  3.183468e+01    1.717111e+00
  3.186643e+01    1.879943e+00
  3.189818e+01    2.142410e+00
  3.192994e+01    2.039694e+00
  3.196169e+01    1.829548e+00
  3.199344e+01    1.536893e+00
  3.202519e+01    1.322637e+00
  3.205694e+01    1.144457e+00
  3.208869e+01    1.032990e+00
  3.212044e+01    9.794624e-01
  3.215219e+01    9.224747e-01
  3.218394e+01    8.585751e-01
  3.221570e+01    8.650306e-01
  3.224745e+01    8.280579e-01
  3.227920e+01    8.128453e-01
  3.231095e+01    8.202030e-01
  3.234270e+01    8.008459e-01
  3.237445e+01    8.015481e-01
  3.240620e+01    8.026076e-01
  3.243795e+01    7.952828e-01
  3.246970e+01    7.898795e-01
  3.250146e+01    7.635844e-01
  3.253321e+01    7.804727e-01
  3.254908e+01    8.026791e-01