File: XRD/Reaction conditions/2024-07-27_003_Ru-CGO-ex_Reaction_dwell_000023_data_000135.dat
# == pyFAI calibration ==
# Distance Sample to Detector: 0.4 m
# PONI: 9.750e-02, 1.135e-01 m
# Rotations: -0.000175 0.000000 -0.000000 rad
#
# == Fit2d calibration ==
# Distance Sample-beamCenter: 400.000 mm
# Center: x=1514.000, y=1300.000 pix
# Tilt: 0.010 deg  TiltPlanRot: 0.010 deg
#
# Detector Detector	 Spline= None	 PixelSize= 7.500e-05, 7.500e-05 m
#    Detector has a mask: False
#    Detector has a dark current: False
#    detector has a flat field: False
#
# Wavelength: 6.888e-11 m
# Mask applied: user provided
# Dark current applied: False
# Flat field applied: False
# Polarization factor: 0.99
# Normalization factor: 1.0
# --> /home/myspot/data/2024_07_Rosario/Ru-CGO-ex/2024-07-27_003_Ru-CGO-ex_Reaction_dwell_000023_data_000135.dat
#       q_nm^-1             I
  2.003187e-02    2.195781e-01
  5.178302e-02    2.133850e-01
  8.353417e-02    8.640600e-02
  1.152853e-01    2.237655e-02
  1.470365e-01    5.090712e-02
  1.787876e-01    3.526323e-02
  2.105388e-01    4.013780e-02
  2.422899e-01    3.631307e-02
  2.740411e-01    9.177557e-02
  3.057922e-01    3.870137e-02
  3.375433e-01    3.361724e-02
  3.692945e-01    6.335308e-02
  4.010456e-01    1.523804e-02
  4.327968e-01    4.864115e-02
  4.645479e-01    4.265780e-02
  4.962991e-01    6.757155e-02
  5.280502e-01    4.902071e-02
  5.598014e-01    5.074110e-02
  5.915525e-01    4.990542e-02
  6.233037e-01    4.785002e-02
  6.550548e-01    1.718900e-02
  6.868060e-01    3.705161e-02
  7.185571e-01    3.080082e-02
  7.503083e-01    2.919072e-02
  7.820594e-01    1.130099e-01
  8.138106e-01    1.794348e-01
  8.455617e-01    3.838033e-01
  8.773129e-01    5.032146e-01
  9.090640e-01    6.533587e-01
  9.408152e-01    8.164752e-01
  9.725663e-01    1.042658e+00
  1.004317e+00    1.277606e+00
  1.036069e+00    1.411969e+00
  1.067820e+00    1.453491e+00
  1.099571e+00    1.607510e+00
  1.131322e+00    1.704191e+00
  1.163073e+00    1.649018e+00
  1.194824e+00    1.887858e+00
  1.226575e+00    2.166846e+00
  1.258327e+00    2.532440e+00
  1.290078e+00    2.613015e+00
  1.321829e+00    2.717652e+00
  1.353580e+00    2.726205e+00
  1.385331e+00    2.759725e+00
  1.417082e+00    2.799089e+00
  1.448834e+00    3.029351e+00
  1.480585e+00    3.178316e+00
  1.512336e+00    3.129697e+00
  1.544087e+00    3.222666e+00
  1.575838e+00    3.245262e+00
  1.607589e+00    3.067508e+00
  1.639340e+00    3.205410e+00
  1.671092e+00    3.270594e+00
  1.702843e+00    3.184231e+00
  1.734594e+00    3.109556e+00
  1.766345e+00    3.191725e+00
  1.798096e+00    3.075364e+00
  1.829847e+00    3.047188e+00
  1.861598e+00    3.039947e+00
  1.893350e+00    3.069753e+00
  1.925101e+00    3.066515e+00
  1.956852e+00    3.198148e+00
  1.988603e+00    3.088813e+00
  2.020354e+00    3.059953e+00
  2.052105e+00    3.032116e+00
  2.083856e+00    3.024830e+00
  2.115608e+00    3.121892e+00
  2.147359e+00    3.239220e+00
  2.179110e+00    3.068961e+00
  2.210861e+00    3.133215e+00
  2.242612e+00    2.931581e+00
  2.274363e+00    3.064481e+00
  2.306115e+00    3.106437e+00
  2.337866e+00    3.137816e+00
  2.369617e+00    3.078051e+00
  2.401368e+00    3.215674e+00
  2.433119e+00    3.098819e+00
  2.464870e+00    3.198952e+00
  2.496621e+00    3.183455e+00
  2.528373e+00    3.239714e+00
  2.560124e+00    3.227301e+00
  2.591875e+00    3.146224e+00
  2.623626e+00    3.236781e+00
  2.655377e+00    3.159333e+00
  2.687128e+00    3.281262e+00
  2.718879e+00    3.310818e+00
  2.750631e+00    3.272475e+00
  2.782382e+00    3.285480e+00
  2.814133e+00    3.305629e+00
  2.845884e+00    3.259283e+00
  2.877635e+00    3.358051e+00
  2.909386e+00    3.359962e+00
  2.941137e+00    3.197328e+00
  2.972889e+00    3.316747e+00
  3.004640e+00    3.355864e+00
  3.036391e+00    3.350747e+00
  3.068142e+00    3.306178e+00
  3.099893e+00    3.422646e+00
  3.131644e+00    3.415134e+00
  3.163395e+00    3.334319e+00
  3.195147e+00    3.341177e+00
  3.226898e+00    3.353341e+00
  3.258649e+00    3.495394e+00
  3.290400e+00    3.532587e+00
  3.322151e+00    3.438129e+00
  3.353902e+00    3.403786e+00
  3.385654e+00    3.348206e+00
  3.417405e+00    3.456927e+00
  3.449156e+00    3.438657e+00
  3.480907e+00    3.409059e+00
  3.512658e+00    3.475917e+00
  3.544409e+00    3.451782e+00
  3.576160e+00    3.406001e+00
  3.607912e+00    3.435297e+00
  3.639663e+00    3.606167e+00
  3.671414e+00    3.438844e+00
  3.703165e+00    3.515838e+00
  3.734916e+00    3.455987e+00
  3.766667e+00    3.498532e+00
  3.798418e+00    3.397257e+00
  3.830170e+00    3.458857e+00
  3.861921e+00    3.451584e+00
  3.893672e+00    3.552466e+00
  3.925423e+00    3.503332e+00
  3.957174e+00    3.524249e+00
  3.988925e+00    3.553073e+00
  4.020676e+00    3.578139e+00
  4.052428e+00    3.509000e+00
  4.084179e+00    3.575043e+00
  4.115930e+00    3.595186e+00
  4.147681e+00    3.664090e+00
  4.179432e+00    3.525820e+00
  4.211183e+00    3.551243e+00
  4.242935e+00    3.593695e+00
  4.274686e+00    3.656226e+00
  4.306437e+00    3.538968e+00
  4.338188e+00    3.574798e+00
  4.369939e+00    3.539716e+00
  4.401690e+00    3.596328e+00
  4.433441e+00    3.693727e+00
  4.465193e+00    3.633332e+00
  4.496944e+00    3.559206e+00
  4.528695e+00    3.548438e+00
  4.560446e+00    3.616897e+00
  4.592197e+00    3.637896e+00
  4.623948e+00    3.653166e+00
  4.655699e+00    3.641658e+00
  4.687451e+00    3.689265e+00
  4.719202e+00    3.613443e+00
  4.750953e+00    3.675944e+00
  4.782704e+00    3.687235e+00
  4.814455e+00    3.697569e+00
  4.846206e+00    3.631583e+00
  4.877957e+00    3.616323e+00
  4.909709e+00    3.658110e+00
  4.941460e+00    3.654366e+00
  4.973211e+00    3.704948e+00
  5.004962e+00    3.605032e+00
  5.036713e+00    3.692101e+00
  5.068464e+00    3.707845e+00
  5.100216e+00    3.640831e+00
  5.131967e+00    3.616987e+00
  5.163718e+00    3.670828e+00
  5.195469e+00    3.585735e+00
  5.227220e+00    3.654065e+00
  5.258971e+00    3.660709e+00
  5.290722e+00    3.759867e+00
  5.322474e+00    3.679633e+00
  5.354225e+00    3.731793e+00
  5.385976e+00    3.628792e+00
  5.417727e+00    3.639875e+00
  5.449478e+00    3.596244e+00
  5.481229e+00    3.643989e+00
  5.512980e+00    3.557224e+00
  5.544732e+00    3.598338e+00
  5.576483e+00    3.590218e+00
  5.608234e+00    3.643033e+00
  5.639985e+00    3.634161e+00
  5.671736e+00    3.548472e+00
  5.703487e+00    3.618118e+00
  5.735238e+00    3.584145e+00
  5.766990e+00    3.545223e+00
  5.798741e+00    3.546270e+00
  5.830492e+00    3.578466e+00
  5.862243e+00    3.531358e+00
  5.893994e+00    3.659143e+00
  5.925745e+00    3.472951e+00
  5.957497e+00    3.545470e+00
  5.989248e+00    3.547736e+00
  6.020999e+00    3.595544e+00
  6.052750e+00    3.602092e+00
  6.084501e+00    3.656152e+00
  6.116252e+00    3.679925e+00
  6.148003e+00    3.563828e+00
  6.179755e+00    3.512686e+00
  6.211506e+00    3.561323e+00
  6.243257e+00    3.593502e+00
  6.275008e+00    3.578814e+00
  6.306759e+00    3.590389e+00
  6.338510e+00    3.585729e+00
  6.370261e+00    3.569803e+00
  6.402013e+00    3.470708e+00
  6.433764e+00    3.594479e+00
  6.465515e+00    3.529480e+00
  6.497266e+00    3.635828e+00
  6.529017e+00    3.562212e+00
  6.560768e+00    3.524274e+00
  6.592519e+00    3.503123e+00
  6.624271e+00    3.615062e+00
  6.656022e+00    3.630898e+00
  6.687773e+00    3.590091e+00
  6.719524e+00    3.501092e+00
  6.751275e+00    3.619259e+00
  6.783026e+00    3.458869e+00
  6.814777e+00    3.561880e+00
  6.846529e+00    3.585263e+00
  6.878280e+00    3.686159e+00
  6.910031e+00    3.567586e+00
  6.941782e+00    3.532412e+00
  6.973533e+00    3.529848e+00
  7.005284e+00    3.565528e+00
  7.037036e+00    3.582628e+00
  7.068787e+00    3.584907e+00
  7.100538e+00    3.483418e+00
  7.132289e+00    3.483282e+00
  7.164040e+00    3.466017e+00
  7.195791e+00    3.465250e+00
  7.227542e+00    3.524639e+00
  7.259294e+00    3.493735e+00
  7.291045e+00    3.558019e+00
  7.322796e+00    3.551969e+00
  7.354547e+00    3.485512e+00
  7.386298e+00    3.488039e+00
  7.418049e+00    3.448399e+00
  7.449800e+00    3.484855e+00
  7.481552e+00    3.482211e+00
  7.513303e+00    3.507556e+00
  7.545054e+00    3.458941e+00
  7.576805e+00    3.455497e+00
  7.608556e+00    3.567382e+00
  7.640307e+00    3.435985e+00
  7.672058e+00    3.473447e+00
  7.703810e+00    3.498249e+00
  7.735561e+00    3.459692e+00
  7.767312e+00    3.413099e+00
  7.799063e+00    3.467991e+00
  7.830814e+00    3.476205e+00
  7.862565e+00    3.441897e+00
  7.894317e+00    3.490071e+00
  7.926068e+00    3.368433e+00
  7.957819e+00    3.441456e+00
  7.989570e+00    3.451508e+00
  8.021321e+00    3.431664e+00
  8.053072e+00    3.433002e+00
  8.084823e+00    3.413914e+00
  8.116575e+00    3.501194e+00
  8.148326e+00    3.435675e+00
  8.180077e+00    3.428619e+00
  8.211828e+00    3.457392e+00
  8.243579e+00    3.517887e+00
  8.275330e+00    3.421820e+00
  8.307081e+00    3.418426e+00
  8.338833e+00    3.427994e+00
  8.370584e+00    3.427933e+00
  8.402335e+00    3.435569e+00
  8.434086e+00    3.394871e+00
  8.465837e+00    3.345762e+00
  8.497588e+00    3.394041e+00
  8.529339e+00    3.335104e+00
  8.561091e+00    3.395114e+00
  8.592842e+00    3.351485e+00
  8.624593e+00    3.347133e+00
  8.656344e+00    3.393325e+00
  8.688095e+00    3.398124e+00
  8.719846e+00    3.343388e+00
  8.751598e+00    3.311942e+00
  8.783349e+00    3.325213e+00
  8.815100e+00    3.357357e+00
  8.846851e+00    3.303924e+00
  8.878602e+00    3.317031e+00
  8.910353e+00    3.240312e+00
  8.942104e+00    3.366908e+00
  8.973856e+00    3.335465e+00
  9.005607e+00    3.289459e+00
  9.037358e+00    3.291002e+00
  9.069109e+00    3.291007e+00
  9.100860e+00    3.289560e+00
  9.132611e+00    3.262639e+00
  9.164362e+00    3.279938e+00
  9.196114e+00    3.296569e+00
  9.227865e+00    3.251519e+00
  9.259616e+00    3.295785e+00
  9.291367e+00    3.211225e+00
  9.323118e+00    3.201505e+00
  9.354869e+00    3.237123e+00
  9.386620e+00    3.235545e+00
  9.418372e+00    3.210866e+00
  9.450123e+00    3.191528e+00
  9.481874e+00    3.210972e+00
  9.513625e+00    3.252417e+00
  9.545376e+00    3.215961e+00
  9.577127e+00    3.245792e+00
  9.608878e+00    3.216260e+00
  9.640630e+00    3.256078e+00
  9.672381e+00    3.209551e+00
  9.704132e+00    3.185379e+00
  9.735883e+00    3.207727e+00
  9.767634e+00    3.128317e+00
  9.799385e+00    3.143258e+00
  9.831137e+00    3.145267e+00
  9.862888e+00    3.182594e+00
  9.894639e+00    3.152261e+00
  9.926390e+00    3.077164e+00
  9.958141e+00    3.114634e+00
  9.989892e+00    3.134946e+00
  1.002164e+01    3.109271e+00
  1.005339e+01    3.085975e+00
  1.008515e+01    3.126200e+00
  1.011690e+01    3.132906e+00
  1.014865e+01    3.083723e+00
  1.018040e+01    3.115823e+00
  1.021215e+01    3.051713e+00
  1.024390e+01    3.099005e+00
  1.027565e+01    3.049316e+00
  1.030740e+01    3.084029e+00
  1.033915e+01    3.070786e+00
  1.037091e+01    3.059054e+00
  1.040266e+01    3.063806e+00
  1.043441e+01    3.003392e+00
  1.046616e+01    3.029898e+00
  1.049791e+01    3.054663e+00
  1.052966e+01    3.015373e+00
  1.056141e+01    3.043102e+00
  1.059316e+01    2.953765e+00
  1.062492e+01    3.036796e+00
  1.065667e+01    3.041105e+00
  1.068842e+01    2.943010e+00
  1.072017e+01    3.049758e+00
  1.075192e+01    2.988462e+00
  1.078367e+01    2.956615e+00
  1.081542e+01    2.985390e+00
  1.084717e+01    2.998270e+00
  1.087892e+01    2.981241e+00
  1.091068e+01    2.963130e+00
  1.094243e+01    2.874671e+00
  1.097418e+01    2.930440e+00
  1.100593e+01    2.972481e+00
  1.103768e+01    2.910179e+00
  1.106943e+01    2.935660e+00
  1.110118e+01    2.923988e+00
  1.113293e+01    2.884295e+00
  1.116468e+01    2.923545e+00
  1.119644e+01    2.901174e+00
  1.122819e+01    2.834975e+00
  1.125994e+01    2.857397e+00
  1.129169e+01    2.841183e+00
  1.132344e+01    2.879999e+00
  1.135519e+01    2.870237e+00
  1.138694e+01    2.819171e+00
  1.141869e+01    2.808026e+00
  1.145045e+01    2.825378e+00
  1.148220e+01    2.817775e+00
  1.151395e+01    2.845591e+00
  1.154570e+01    2.823922e+00
  1.157745e+01    2.816676e+00
  1.160920e+01    2.800302e+00
  1.164095e+01    2.721264e+00
  1.167270e+01    2.748806e+00
  1.170445e+01    2.757619e+00
  1.173621e+01    2.790552e+00
  1.176796e+01    2.751577e+00
  1.179971e+01    2.722671e+00
  1.183146e+01    2.721155e+00
  1.186321e+01    2.734819e+00
  1.189496e+01    2.706273e+00
  1.192671e+01    2.730654e+00
  1.195846e+01    2.720988e+00
  1.199021e+01    2.715113e+00
  1.202197e+01    2.729824e+00
  1.205372e+01    2.768042e+00
  1.208547e+01    2.669801e+00
  1.211722e+01    2.700355e+00
  1.214897e+01    2.718923e+00
  1.218072e+01    2.707926e+00
  1.221247e+01    2.706807e+00
  1.224422e+01    2.724487e+00
  1.227597e+01    2.714643e+00
  1.230773e+01    2.722795e+00
  1.233948e+01    2.685810e+00
  1.237123e+01    2.717152e+00
  1.240298e+01    2.672940e+00
  1.243473e+01    2.678367e+00
  1.246648e+01    2.699237e+00
  1.249823e+01    2.676054e+00
  1.252998e+01    2.717017e+00
  1.256174e+01    2.741201e+00
  1.259349e+01    2.704591e+00
  1.262524e+01    2.777259e+00
  1.265699e+01    2.780473e+00
  1.268874e+01    2.860693e+00
  1.272049e+01    2.865106e+00
  1.275224e+01    2.909241e+00
  1.278399e+01    2.956237e+00
  1.281574e+01    3.007755e+00
  1.284750e+01    3.206728e+00
  1.287925e+01    3.441818e+00
  1.291100e+01    3.690499e+00
  1.294275e+01    4.131612e+00
  1.297450e+01    4.759737e+00
  1.300625e+01    5.922455e+00
  1.303800e+01    7.686356e+00
  1.306975e+01    1.010081e+01
  1.310150e+01    1.270542e+01
  1.313326e+01    1.477780e+01
  1.316501e+01    1.628195e+01
  1.319676e+01    1.572530e+01
  1.322851e+01    1.261272e+01
  1.326026e+01    9.041656e+00
  1.329201e+01    6.807391e+00
  1.332376e+01    5.301150e+00
  1.335551e+01    4.454325e+00
  1.338727e+01    3.857384e+00
  1.341902e+01    3.539351e+00
  1.345077e+01    3.228785e+00
  1.348252e+01    3.048762e+00
  1.351427e+01    2.964699e+00
  1.354602e+01    2.809794e+00
  1.357777e+01    2.792530e+00
  1.360952e+01    2.667277e+00
  1.364127e+01    2.673075e+00
  1.367303e+01    2.571259e+00
  1.370478e+01    2.545921e+00
  1.373653e+01    2.538982e+00
  1.376828e+01    2.483546e+00
  1.380003e+01    2.479331e+00
  1.383178e+01    2.455714e+00
  1.386353e+01    2.443391e+00
  1.389528e+01    2.444358e+00
  1.392703e+01    2.380894e+00
  1.395879e+01    2.409244e+00
  1.399054e+01    2.373292e+00
  1.402229e+01    2.382835e+00
  1.405404e+01    2.354127e+00
  1.408579e+01    2.370858e+00
  1.411754e+01    2.324111e+00
  1.414929e+01    2.321693e+00
  1.418104e+01    2.298506e+00
  1.421279e+01    2.253551e+00
  1.424455e+01    2.300879e+00
  1.427630e+01    2.289996e+00
  1.430805e+01    2.283534e+00
  1.433980e+01    2.288625e+00
  1.437155e+01    2.251374e+00
  1.440330e+01    2.231242e+00
  1.443505e+01    2.247945e+00
  1.446680e+01    2.254037e+00
  1.449856e+01    2.237166e+00
  1.453031e+01    2.206714e+00
  1.456206e+01    2.277561e+00
  1.459381e+01    2.253241e+00
  1.462556e+01    2.175980e+00
  1.465731e+01    2.266226e+00
  1.468906e+01    2.192993e+00
  1.472081e+01    2.239897e+00
  1.475256e+01    2.229046e+00
  1.478432e+01    2.201241e+00
  1.481607e+01    2.186307e+00
  1.484782e+01    2.226410e+00
  1.487957e+01    2.237182e+00
  1.491132e+01    2.272524e+00
  1.494307e+01    2.257996e+00
  1.497482e+01    2.338070e+00
  1.500657e+01    2.450302e+00
  1.503832e+01    2.628835e+00
  1.507008e+01    2.841752e+00
  1.510183e+01    3.171966e+00
  1.513358e+01    3.818954e+00
  1.516533e+01    4.511382e+00
  1.519708e+01    5.164608e+00
  1.522883e+01    5.490283e+00
  1.526058e+01    5.786685e+00
  1.529233e+01    5.440844e+00
  1.532409e+01    4.694671e+00
  1.535584e+01    3.758452e+00
  1.538759e+01    3.213943e+00
  1.541934e+01    2.738525e+00
  1.545109e+01    2.553053e+00
  1.548284e+01    2.359632e+00
  1.551459e+01    2.240365e+00
  1.554634e+01    2.189569e+00
  1.557809e+01    2.122010e+00
  1.560985e+01    2.098140e+00
  1.564160e+01    2.055549e+00
  1.567335e+01    2.055847e+00
  1.570510e+01    1.979114e+00
  1.573685e+01    1.978686e+00
  1.576860e+01    2.001273e+00
  1.580035e+01    1.917742e+00
  1.583210e+01    1.918334e+00
  1.586385e+01    1.883465e+00
  1.589561e+01    1.920296e+00
  1.592736e+01    1.895081e+00
  1.595911e+01    1.863688e+00
  1.599086e+01    1.856134e+00
  1.602261e+01    1.855119e+00
  1.605436e+01    1.859447e+00
  1.608611e+01    1.856339e+00
  1.611786e+01    1.854656e+00
  1.614961e+01    1.825048e+00
  1.618137e+01    1.867392e+00
  1.621312e+01    1.801857e+00
  1.624487e+01    1.823200e+00
  1.627662e+01    1.819383e+00
  1.630837e+01    1.814968e+00
  1.634012e+01    1.793787e+00
  1.637187e+01    1.796782e+00
  1.640362e+01    1.795067e+00
  1.643538e+01    1.764059e+00
  1.646713e+01    1.821092e+00
  1.649888e+01    1.742771e+00
  1.653063e+01    1.737807e+00
  1.656238e+01    1.763596e+00
  1.659413e+01    1.738586e+00
  1.662588e+01    1.700989e+00
  1.665763e+01    1.723335e+00
  1.668938e+01    1.764680e+00
  1.672114e+01    1.721892e+00
  1.675289e+01    1.704965e+00
  1.678464e+01    1.691568e+00
  1.681639e+01    1.682979e+00
  1.684814e+01    1.722262e+00
  1.687989e+01    1.717296e+00
  1.691164e+01    1.687582e+00
  1.694339e+01    1.715523e+00
  1.697514e+01    1.653561e+00
  1.700690e+01    1.680658e+00
  1.703865e+01    1.666167e+00
  1.707040e+01    1.679817e+00
  1.710215e+01    1.643060e+00
  1.713390e+01    1.661379e+00
  1.716565e+01    1.668842e+00
  1.719740e+01    1.671625e+00
  1.722915e+01    1.646354e+00
  1.726091e+01    1.623008e+00
  1.729266e+01    1.597889e+00
  1.732441e+01    1.579863e+00
  1.735616e+01    1.614549e+00
  1.738791e+01    1.611589e+00
  1.741966e+01    1.611761e+00
  1.745141e+01    1.607613e+00
  1.748316e+01    1.570668e+00
  1.751491e+01    1.589682e+00
  1.754667e+01    1.583307e+00
  1.757842e+01    1.591153e+00
  1.761017e+01    1.535954e+00
  1.764192e+01    1.604040e+00
  1.767367e+01    1.550440e+00
  1.770542e+01    1.547656e+00
  1.773717e+01    1.539001e+00
  1.776892e+01    1.547523e+00
  1.780067e+01    1.557375e+00
  1.783243e+01    1.549851e+00
  1.786418e+01    1.547494e+00
  1.789593e+01    1.561843e+00
  1.792768e+01    1.533766e+00
  1.795943e+01    1.507329e+00
  1.799118e+01    1.526711e+00
  1.802293e+01    1.531686e+00
  1.805468e+01    1.526281e+00
  1.808643e+01    1.516290e+00
  1.811819e+01    1.488121e+00
  1.814994e+01    1.500643e+00
  1.818169e+01    1.470903e+00
  1.821344e+01    1.535827e+00
  1.824519e+01    1.461932e+00
  1.827694e+01    1.455656e+00
  1.830869e+01    1.488035e+00
  1.834044e+01    1.467553e+00
  1.837220e+01    1.472596e+00
  1.840395e+01    1.473701e+00
  1.843570e+01    1.482457e+00
  1.846745e+01    1.457507e+00
  1.849920e+01    1.437885e+00
  1.853095e+01    1.454356e+00
  1.856270e+01    1.436910e+00
  1.859445e+01    1.454786e+00
  1.862620e+01    1.431455e+00
  1.865796e+01    1.428124e+00
  1.868971e+01    1.415949e+00
  1.872146e+01    1.410536e+00
  1.875321e+01    1.412144e+00
  1.878496e+01    1.431902e+00
  1.881671e+01    1.398880e+00
  1.884846e+01    1.411223e+00
  1.888021e+01    1.422941e+00
  1.891196e+01    1.384339e+00
  1.894372e+01    1.362386e+00
  1.897547e+01    1.389226e+00
  1.900722e+01    1.396976e+00
  1.903897e+01    1.402184e+00
  1.907072e+01    1.378548e+00
  1.910247e+01    1.363298e+00
  1.913422e+01    1.351152e+00
  1.916597e+01    1.379713e+00
  1.919773e+01    1.374815e+00
  1.922948e+01    1.339661e+00
  1.926123e+01    1.314257e+00
  1.929298e+01    1.361859e+00
  1.932473e+01    1.341913e+00
  1.935648e+01    1.372149e+00
  1.938823e+01    1.343374e+00
  1.941998e+01    1.328819e+00
  1.945173e+01    1.339611e+00
  1.948349e+01    1.332678e+00
  1.951524e+01    1.357290e+00
  1.954699e+01    1.345120e+00
  1.957874e+01    1.336096e+00
  1.961049e+01    1.345272e+00
  1.964224e+01    1.330793e+00
  1.967399e+01    1.337716e+00
  1.970574e+01    1.346316e+00
  1.973749e+01    1.322673e+00
  1.976925e+01    1.329289e+00
  1.980100e+01    1.282501e+00
  1.983275e+01    1.314381e+00
  1.986450e+01    1.314938e+00
  1.989625e+01    1.294063e+00
  1.992800e+01    1.304222e+00
  1.995975e+01    1.291538e+00
  1.999150e+01    1.284524e+00
  2.002325e+01    1.284247e+00
  2.005501e+01    1.276427e+00
  2.008676e+01    1.277148e+00
  2.011851e+01    1.281174e+00
  2.015026e+01    1.276715e+00
  2.018201e+01    1.266858e+00
  2.021376e+01    1.301332e+00
  2.024551e+01    1.263255e+00
  2.027726e+01    1.291532e+00
  2.030902e+01    1.247420e+00
  2.034077e+01    1.280434e+00
  2.037252e+01    1.241892e+00
  2.040427e+01    1.253573e+00
  2.043602e+01    1.227127e+00
  2.046777e+01    1.243389e+00
  2.049952e+01    1.234671e+00
  2.053127e+01    1.222541e+00
  2.056302e+01    1.233350e+00
  2.059478e+01    1.248409e+00
  2.062653e+01    1.245820e+00
  2.065828e+01    1.237046e+00
  2.069003e+01    1.239394e+00
  2.072178e+01    1.238798e+00
  2.075353e+01    1.233351e+00
  2.078528e+01    1.219842e+00
  2.081703e+01    1.205102e+00
  2.084878e+01    1.246134e+00
  2.088054e+01    1.234232e+00
  2.091229e+01    1.222627e+00
  2.094404e+01    1.240006e+00
  2.097579e+01    1.241052e+00
  2.100754e+01    1.223724e+00
  2.103929e+01    1.223559e+00
  2.107104e+01    1.238146e+00
  2.110279e+01    1.216318e+00
  2.113455e+01    1.233622e+00
  2.116630e+01    1.239205e+00
  2.119805e+01    1.228789e+00
  2.122980e+01    1.214752e+00
  2.126155e+01    1.246813e+00
  2.129330e+01    1.242113e+00
  2.132505e+01    1.267284e+00
  2.135680e+01    1.274177e+00
  2.138855e+01    1.294759e+00
  2.142031e+01    1.336875e+00
  2.145206e+01    1.375866e+00
  2.148381e+01    1.383272e+00
  2.151556e+01    1.447033e+00
  2.154731e+01    1.521920e+00
  2.157906e+01    1.611960e+00
  2.161081e+01    1.755289e+00
  2.164256e+01    1.977234e+00
  2.167431e+01    2.278386e+00
  2.170607e+01    2.777550e+00
  2.173782e+01    3.540989e+00
  2.176957e+01    4.536276e+00
  2.180132e+01    5.766497e+00
  2.183307e+01    7.170310e+00
  2.186482e+01    8.278769e+00
  2.189657e+01    8.901148e+00
  2.192832e+01    8.235369e+00
  2.196007e+01    6.618806e+00
  2.199183e+01    4.918973e+00
  2.202358e+01    3.654932e+00
  2.205533e+01    2.843257e+00
  2.208708e+01    2.323321e+00
  2.211883e+01    1.984797e+00
  2.215058e+01    1.761959e+00
  2.218233e+01    1.598197e+00
  2.221408e+01    1.494717e+00
  2.224584e+01    1.408173e+00
  2.227759e+01    1.380060e+00
  2.230934e+01    1.327271e+00
  2.234109e+01    1.259563e+00
  2.237284e+01    1.227832e+00
  2.240459e+01    1.223235e+00
  2.243634e+01    1.222706e+00
  2.246809e+01    1.134754e+00
  2.249984e+01    1.142705e+00
  2.253160e+01    1.159831e+00
  2.256335e+01    1.128679e+00
  2.259510e+01    1.119134e+00
  2.262685e+01    1.092675e+00
  2.265860e+01    1.078308e+00
  2.269035e+01    1.087453e+00
  2.272210e+01    1.072221e+00
  2.275385e+01    1.046388e+00
  2.278560e+01    1.052310e+00
  2.281736e+01    1.059831e+00
  2.284911e+01    1.043291e+00
  2.288086e+01    1.062966e+00
  2.291261e+01    1.018180e+00
  2.294436e+01    1.027360e+00
  2.297611e+01    1.016506e+00
  2.300786e+01    1.021051e+00
  2.303961e+01    1.023132e+00
  2.307137e+01    1.033701e+00
  2.310312e+01    9.881272e-01
  2.313487e+01    1.007271e+00
  2.316662e+01    1.008377e+00
  2.319837e+01    9.778388e-01
  2.323012e+01    1.012316e+00
  2.326187e+01    9.811857e-01
  2.329362e+01    9.899700e-01
  2.332537e+01    9.814320e-01
  2.335713e+01    9.727039e-01
  2.338888e+01    9.862660e-01
  2.342063e+01    9.789838e-01
  2.345238e+01    9.642540e-01
  2.348413e+01    9.766185e-01
  2.351588e+01    9.612855e-01
  2.354763e+01    9.689417e-01
  2.357938e+01    9.829637e-01
  2.361113e+01    9.539119e-01
  2.364289e+01    9.377112e-01
  2.367464e+01    9.476558e-01
  2.370639e+01    9.182538e-01
  2.373814e+01    9.514083e-01
  2.376989e+01    9.269742e-01
  2.380164e+01    9.418793e-01
  2.383339e+01    9.259870e-01
  2.386514e+01    9.216229e-01
  2.389689e+01    9.054343e-01
  2.392865e+01    9.169442e-01
  2.396040e+01    9.095623e-01
  2.399215e+01    8.913479e-01
  2.402390e+01    9.095341e-01
  2.405565e+01    8.834787e-01
  2.408740e+01    8.988498e-01
  2.411915e+01    8.929811e-01
  2.415090e+01    9.001359e-01
  2.418266e+01    8.833790e-01
  2.421441e+01    8.763074e-01
  2.424616e+01    8.716662e-01
  2.427791e+01    8.906200e-01
  2.430966e+01    8.811435e-01
  2.434141e+01    9.139515e-01
  2.437316e+01    8.901061e-01
  2.440491e+01    9.121471e-01
  2.443666e+01    8.702778e-01
  2.446842e+01    9.079809e-01
  2.450017e+01    9.031237e-01
  2.453192e+01    8.753130e-01
  2.456367e+01    9.014244e-01
  2.459542e+01    9.117304e-01
  2.462717e+01    8.892601e-01
  2.465892e+01    8.869945e-01
  2.469067e+01    8.840607e-01
  2.472242e+01    8.931735e-01
  2.475418e+01    9.016026e-01
  2.478593e+01    9.175412e-01
  2.481768e+01    8.985487e-01
  2.484943e+01    8.799390e-01
  2.488118e+01    9.010468e-01
  2.491293e+01    8.638501e-01
  2.494468e+01    8.862751e-01
  2.497643e+01    8.890303e-01
  2.500819e+01    8.838431e-01
  2.503994e+01    9.166298e-01
  2.507169e+01    9.079520e-01
  2.510344e+01    9.156890e-01
  2.513519e+01    9.157740e-01
  2.516694e+01    9.115880e-01
  2.519869e+01    9.227092e-01
  2.523044e+01    9.159761e-01
  2.526219e+01    9.472398e-01
  2.529395e+01    9.683651e-01
  2.532570e+01    9.554548e-01
  2.535745e+01    9.822964e-01
  2.538920e+01    9.698191e-01
  2.542095e+01    9.872253e-01
  2.545270e+01    1.015394e+00
  2.548445e+01    1.026818e+00
  2.551620e+01    1.091385e+00
  2.554795e+01    1.106177e+00
  2.557971e+01    1.144323e+00
  2.561146e+01    1.216319e+00
  2.564321e+01    1.286953e+00
  2.567496e+01    1.440485e+00
  2.570671e+01    1.598610e+00
  2.573846e+01    1.845340e+00
  2.577021e+01    2.226084e+00
  2.580196e+01    2.832439e+00
  2.583371e+01    3.573054e+00
  2.586547e+01    4.635416e+00
  2.589722e+01    5.789719e+00
  2.592897e+01    6.771279e+00
  2.596072e+01    7.175893e+00
  2.599247e+01    6.559286e+00
  2.602422e+01    5.291275e+00
  2.605597e+01    4.013255e+00
  2.608772e+01    3.029376e+00
  2.611948e+01    2.391201e+00
  2.615123e+01    1.944173e+00
  2.618298e+01    1.691019e+00
  2.621473e+01    1.470406e+00
  2.624648e+01    1.336743e+00
  2.627823e+01    1.232289e+00
  2.630998e+01    1.159792e+00
  2.634173e+01    1.119767e+00
  2.637348e+01    1.075993e+00
  2.640524e+01    1.059862e+00
  2.643699e+01    1.043814e+00
  2.646874e+01    1.027563e+00
  2.650049e+01    1.019417e+00
  2.653224e+01    9.942600e-01
  2.656399e+01    9.916365e-01
  2.659574e+01    9.864842e-01
  2.662749e+01    9.829017e-01
  2.665924e+01    9.710342e-01
  2.669100e+01    9.880744e-01
  2.672275e+01    9.696770e-01
  2.675450e+01    9.839147e-01
  2.678625e+01    9.845134e-01
  2.681800e+01    9.879931e-01
  2.684975e+01    1.007747e+00
  2.688150e+01    9.827755e-01
  2.691325e+01    1.019115e+00
  2.694501e+01    1.020504e+00
  2.697676e+01    1.060055e+00
  2.700851e+01    1.106795e+00
  2.704026e+01    1.184150e+00
  2.707201e+01    1.297468e+00
  2.710376e+01    1.492301e+00
  2.713551e+01    1.738746e+00
  2.716726e+01    1.948580e+00
  2.719901e+01    2.175102e+00
  2.723077e+01    2.157556e+00
  2.726252e+01    1.969272e+00
  2.729427e+01    1.719324e+00
  2.732602e+01    1.473682e+00
  2.735777e+01    1.258341e+00
  2.738952e+01    1.171854e+00
  2.742127e+01    1.094570e+00
  2.745302e+01    1.034911e+00
  2.748477e+01    9.951673e-01
  2.751653e+01    9.659730e-01
  2.754828e+01    9.414139e-01
  2.758003e+01    9.311090e-01
  2.761178e+01    9.339248e-01
  2.764353e+01    9.158427e-01
  2.767528e+01    9.194841e-01
  2.770703e+01    9.135398e-01
  2.773878e+01    9.174243e-01
  2.777054e+01    8.882414e-01
  2.780229e+01    9.066562e-01
  2.783404e+01    8.859745e-01
  2.786579e+01    8.975803e-01
  2.789754e+01    8.722013e-01
  2.792929e+01    8.925500e-01
  2.796104e+01    8.744493e-01
  2.799279e+01    8.638507e-01
  2.802454e+01    8.714804e-01
  2.805630e+01    8.498210e-01
  2.808805e+01    8.819216e-01
  2.811980e+01    8.457639e-01
  2.815155e+01    8.484505e-01
  2.818330e+01    8.463509e-01
  2.821505e+01    8.613729e-01
  2.824680e+01    8.522247e-01
  2.827855e+01    8.538632e-01
  2.831030e+01    8.418695e-01
  2.834206e+01    8.570968e-01
  2.837381e+01    8.356739e-01
  2.840556e+01    8.357622e-01
  2.843731e+01    8.488104e-01
  2.846906e+01    8.588489e-01
  2.850081e+01    8.529136e-01
  2.853256e+01    8.328114e-01
  2.856431e+01    8.292831e-01
  2.859606e+01    8.130182e-01
  2.862782e+01    8.645568e-01
  2.865957e+01    8.116429e-01
  2.869132e+01    8.250041e-01
  2.872307e+01    8.390126e-01
  2.875482e+01    8.046989e-01
  2.878657e+01    8.512753e-01
  2.881832e+01    8.146105e-01
  2.885007e+01    8.350363e-01
  2.888183e+01    8.094997e-01
  2.891358e+01    8.204989e-01
  2.894533e+01    8.073235e-01
  2.897708e+01    8.408569e-01
  2.900883e+01    8.039742e-01
  2.904058e+01    8.204547e-01
  2.907233e+01    8.109613e-01
  2.910408e+01    8.221277e-01
  2.913583e+01    8.116192e-01
  2.916759e+01    8.332447e-01
  2.919934e+01    8.065441e-01
  2.923109e+01    8.209446e-01
  2.926284e+01    7.997535e-01
  2.929459e+01    8.045392e-01
  2.932634e+01    8.112174e-01
  2.935809e+01    8.130670e-01
  2.938984e+01    8.108261e-01
  2.942159e+01    8.042051e-01
  2.945335e+01    8.221988e-01
  2.948510e+01    8.102409e-01
  2.951685e+01    8.167486e-01
  2.954860e+01    8.025442e-01
  2.958035e+01    8.136415e-01
  2.961210e+01    8.044459e-01
  2.964385e+01    8.204519e-01
  2.967560e+01    8.269734e-01
  2.970736e+01    8.114341e-01
  2.973911e+01    8.054073e-01
  2.977086e+01    7.953686e-01
  2.980261e+01    8.021628e-01
  2.983436e+01    8.074613e-01
  2.986611e+01    8.093944e-01
  2.989786e+01    7.926963e-01
  2.992961e+01    7.915384e-01
  2.996136e+01    8.079563e-01
  2.999312e+01    8.141514e-01
  3.002487e+01    8.318548e-01
  3.005662e+01    8.218561e-01
  3.008837e+01    8.101101e-01
  3.012012e+01    7.865288e-01
  3.015187e+01    7.890902e-01
  3.018362e+01    7.963226e-01
  3.021537e+01    7.893161e-01
  3.024712e+01    7.998461e-01
  3.027888e+01    7.972288e-01
  3.031063e+01    7.915852e-01
  3.034238e+01    8.053281e-01
  3.037413e+01    7.666594e-01
  3.040588e+01    7.956316e-01
  3.043763e+01    8.098711e-01
  3.046938e+01    7.944335e-01
  3.050113e+01    7.920221e-01
  3.053288e+01    8.103660e-01
  3.056464e+01    7.810097e-01
  3.059639e+01    7.824653e-01
  3.062814e+01    7.735259e-01
  3.065989e+01    7.682614e-01
  3.069164e+01    7.982531e-01
  3.072339e+01    8.016850e-01
  3.075514e+01    7.987427e-01
  3.078689e+01    7.823409e-01
  3.081865e+01    7.694925e-01
  3.085040e+01    7.843294e-01
  3.088215e+01    7.718480e-01
  3.091390e+01    7.690405e-01
  3.094565e+01    7.706696e-01
  3.097740e+01    7.797884e-01
  3.100915e+01    7.914211e-01
  3.104090e+01    7.731658e-01
  3.107265e+01    7.933983e-01
  3.110441e+01    7.641048e-01
  3.113616e+01    7.667506e-01
  3.116791e+01    8.121185e-01
  3.119966e+01    8.012820e-01
  3.123141e+01    7.818866e-01
  3.126316e+01    7.875007e-01
  3.129491e+01    8.040983e-01
  3.132666e+01    7.961997e-01
  3.135841e+01    8.215610e-01
  3.139017e+01    8.028216e-01
  3.142192e+01    8.047132e-01
  3.145367e+01    8.195996e-01
  3.148542e+01    8.267702e-01
  3.151717e+01    8.364031e-01
  3.154892e+01    8.349883e-01
  3.158067e+01    8.487737e-01
  3.161242e+01    8.976868e-01
  3.164418e+01    9.186528e-01
  3.167593e+01    9.274997e-01
  3.170768e+01    1.050699e+00
  3.173943e+01    1.105822e+00
  3.177118e+01    1.254938e+00
  3.180293e+01    1.421213e+00
  3.183468e+01    1.691230e+00
  3.186643e+01    1.980618e+00
  3.189818e+01    2.088258e+00
  3.192994e+01    2.082263e+00
  3.196169e+01    1.809493e+00
  3.199344e+01    1.586061e+00
  3.202519e+01    1.342272e+00
  3.205694e+01    1.173397e+00
  3.208869e+01    1.046047e+00
  3.212044e+01    9.910457e-01
  3.215219e+01    9.069183e-01
  3.218394e+01    8.867868e-01
  3.221570e+01    8.692907e-01
  3.224745e+01    8.311182e-01
  3.227920e+01    8.217402e-01
  3.231095e+01    8.051328e-01
  3.234270e+01    8.048539e-01
  3.237445e+01    8.000426e-01
  3.240620e+01    7.806756e-01
  3.243795e+01    8.044769e-01
  3.246970e+01    7.789701e-01
  3.250146e+01    7.792985e-01
  3.253321e+01    7.769138e-01
  3.254908e+01    7.939975e-01