File: XRD/Reaction conditions/2024-07-27_003_Ru-CGO-ex_Reaction_dwell_000023_data_000042.dat
# == pyFAI calibration ==
# Distance Sample to Detector: 0.4 m
# PONI: 9.750e-02, 1.135e-01 m
# Rotations: -0.000175 0.000000 -0.000000 rad
#
# == Fit2d calibration ==
# Distance Sample-beamCenter: 400.000 mm
# Center: x=1514.000, y=1300.000 pix
# Tilt: 0.010 deg  TiltPlanRot: 0.010 deg
#
# Detector Detector	 Spline= None	 PixelSize= 7.500e-05, 7.500e-05 m
#    Detector has a mask: False
#    Detector has a dark current: False
#    detector has a flat field: False
#
# Wavelength: 6.888e-11 m
# Mask applied: user provided
# Dark current applied: False
# Flat field applied: False
# Polarization factor: 0.99
# Normalization factor: 1.0
# --> /home/myspot/data/2024_07_Rosario/Ru-CGO-ex/2024-07-27_003_Ru-CGO-ex_Reaction_dwell_000023_data_000042.dat
#       q_nm^-1             I
  2.003187e-02    1.424646e-01
  5.178302e-02    2.176143e-01
  8.353417e-02    1.553111e-01
  1.152853e-01    5.069032e-02
  1.470365e-01    1.045082e-01
  1.787876e-01    2.470293e-04
  2.105388e-01    5.367864e-02
  2.422899e-01    4.441640e-02
  2.740411e-01    2.391337e-02
  3.057922e-01    2.813412e-02
  3.375433e-01    5.757168e-02
  3.692945e-01    1.467897e-02
  4.010456e-01    4.251790e-02
  4.327968e-01    4.113811e-02
  4.645479e-01    4.813151e-02
  4.962991e-01    4.122569e-02
  5.280502e-01    2.923621e-02
  5.598014e-01    1.496061e-02
  5.915525e-01    3.285399e-02
  6.233037e-01    3.876024e-02
  6.550548e-01    2.388374e-02
  6.868060e-01    5.868392e-02
  7.185571e-01    5.682091e-02
  7.503083e-01    4.640009e-02
  7.820594e-01    1.117945e-01
  8.138106e-01    1.934350e-01
  8.455617e-01    3.437500e-01
  8.773129e-01    4.894460e-01
  9.090640e-01    5.961905e-01
  9.408152e-01    8.913958e-01
  9.725663e-01    9.321639e-01
  1.004317e+00    1.194851e+00
  1.036069e+00    1.398491e+00
  1.067820e+00    1.480903e+00
  1.099571e+00    1.527415e+00
  1.131322e+00    1.755441e+00
  1.163073e+00    1.615614e+00
  1.194824e+00    1.844514e+00
  1.226575e+00    2.244265e+00
  1.258327e+00    2.373659e+00
  1.290078e+00    2.785669e+00
  1.321829e+00    2.853171e+00
  1.353580e+00    2.727205e+00
  1.385331e+00    2.739366e+00
  1.417082e+00    2.922223e+00
  1.448834e+00    2.990388e+00
  1.480585e+00    3.178424e+00
  1.512336e+00    3.197735e+00
  1.544087e+00    3.149803e+00
  1.575838e+00    3.129408e+00
  1.607589e+00    3.225562e+00
  1.639340e+00    3.021355e+00
  1.671092e+00    3.204317e+00
  1.702843e+00    2.995934e+00
  1.734594e+00    3.120157e+00
  1.766345e+00    3.250861e+00
  1.798096e+00    3.060568e+00
  1.829847e+00    3.045859e+00
  1.861598e+00    3.112731e+00
  1.893350e+00    3.022025e+00
  1.925101e+00    3.023283e+00
  1.956852e+00    3.090113e+00
  1.988603e+00    3.098308e+00
  2.020354e+00    3.102171e+00
  2.052105e+00    3.161703e+00
  2.083856e+00    3.064327e+00
  2.115608e+00    3.144344e+00
  2.147359e+00    3.152570e+00
  2.179110e+00    3.181387e+00
  2.210861e+00    2.952806e+00
  2.242612e+00    3.019169e+00
  2.274363e+00    3.116704e+00
  2.306115e+00    3.126193e+00
  2.337866e+00    3.091584e+00
  2.369617e+00    3.098406e+00
  2.401368e+00    3.191709e+00
  2.433119e+00    3.183880e+00
  2.464870e+00    3.265572e+00
  2.496621e+00    3.149115e+00
  2.528373e+00    3.375300e+00
  2.560124e+00    3.217915e+00
  2.591875e+00    3.263613e+00
  2.623626e+00    3.236731e+00
  2.655377e+00    3.328632e+00
  2.687128e+00    3.338272e+00
  2.718879e+00    3.273886e+00
  2.750631e+00    3.190725e+00
  2.782382e+00    3.291877e+00
  2.814133e+00    3.266097e+00
  2.845884e+00    3.312564e+00
  2.877635e+00    3.347331e+00
  2.909386e+00    3.310384e+00
  2.941137e+00    3.293022e+00
  2.972889e+00    3.344791e+00
  3.004640e+00    3.396726e+00
  3.036391e+00    3.410115e+00
  3.068142e+00    3.445347e+00
  3.099893e+00    3.270854e+00
  3.131644e+00    3.424565e+00
  3.163395e+00    3.396658e+00
  3.195147e+00    3.296467e+00
  3.226898e+00    3.277077e+00
  3.258649e+00    3.445024e+00
  3.290400e+00    3.388685e+00
  3.322151e+00    3.496154e+00
  3.353902e+00    3.527765e+00
  3.385654e+00    3.321494e+00
  3.417405e+00    3.436040e+00
  3.449156e+00    3.341070e+00
  3.480907e+00    3.488577e+00
  3.512658e+00    3.472626e+00
  3.544409e+00    3.541287e+00
  3.576160e+00    3.388999e+00
  3.607912e+00    3.541471e+00
  3.639663e+00    3.496592e+00
  3.671414e+00    3.539207e+00
  3.703165e+00    3.554915e+00
  3.734916e+00    3.400396e+00
  3.766667e+00    3.496513e+00
  3.798418e+00    3.441582e+00
  3.830170e+00    3.514237e+00
  3.861921e+00    3.522220e+00
  3.893672e+00    3.471848e+00
  3.925423e+00    3.561982e+00
  3.957174e+00    3.498687e+00
  3.988925e+00    3.578413e+00
  4.020676e+00    3.658926e+00
  4.052428e+00    3.520045e+00
  4.084179e+00    3.566426e+00
  4.115930e+00    3.603050e+00
  4.147681e+00    3.558718e+00
  4.179432e+00    3.490030e+00
  4.211183e+00    3.624565e+00
  4.242935e+00    3.611468e+00
  4.274686e+00    3.578915e+00
  4.306437e+00    3.611761e+00
  4.338188e+00    3.630988e+00
  4.369939e+00    3.533749e+00
  4.401690e+00    3.595341e+00
  4.433441e+00    3.556924e+00
  4.465193e+00    3.547013e+00
  4.496944e+00    3.658159e+00
  4.528695e+00    3.588381e+00
  4.560446e+00    3.634145e+00
  4.592197e+00    3.615355e+00
  4.623948e+00    3.685118e+00
  4.655699e+00    3.644408e+00
  4.687451e+00    3.679705e+00
  4.719202e+00    3.571833e+00
  4.750953e+00    3.696321e+00
  4.782704e+00    3.627333e+00
  4.814455e+00    3.566225e+00
  4.846206e+00    3.658683e+00
  4.877957e+00    3.624208e+00
  4.909709e+00    3.760032e+00
  4.941460e+00    3.696505e+00
  4.973211e+00    3.619738e+00
  5.004962e+00    3.593805e+00
  5.036713e+00    3.697034e+00
  5.068464e+00    3.651641e+00
  5.100216e+00    3.723401e+00
  5.131967e+00    3.709965e+00
  5.163718e+00    3.776531e+00
  5.195469e+00    3.621479e+00
  5.227220e+00    3.687203e+00
  5.258971e+00    3.641307e+00
  5.290722e+00    3.686724e+00
  5.322474e+00    3.640676e+00
  5.354225e+00    3.699527e+00
  5.385976e+00    3.747954e+00
  5.417727e+00    3.642790e+00
  5.449478e+00    3.664761e+00
  5.481229e+00    3.678192e+00
  5.512980e+00    3.588101e+00
  5.544732e+00    3.680816e+00
  5.576483e+00    3.666658e+00
  5.608234e+00    3.609598e+00
  5.639985e+00    3.611403e+00
  5.671736e+00    3.604815e+00
  5.703487e+00    3.605095e+00
  5.735238e+00    3.580456e+00
  5.766990e+00    3.594526e+00
  5.798741e+00    3.571148e+00
  5.830492e+00    3.627349e+00
  5.862243e+00    3.694904e+00
  5.893994e+00    3.514243e+00
  5.925745e+00    3.556476e+00
  5.957497e+00    3.595027e+00
  5.989248e+00    3.608025e+00
  6.020999e+00    3.515705e+00
  6.052750e+00    3.569144e+00
  6.084501e+00    3.597435e+00
  6.116252e+00    3.649119e+00
  6.148003e+00    3.578363e+00
  6.179755e+00    3.553576e+00
  6.211506e+00    3.644746e+00
  6.243257e+00    3.559290e+00
  6.275008e+00    3.582247e+00
  6.306759e+00    3.492834e+00
  6.338510e+00    3.595330e+00
  6.370261e+00    3.779452e+00
  6.402013e+00    3.699321e+00
  6.433764e+00    3.585971e+00
  6.465515e+00    3.566799e+00
  6.497266e+00    3.607924e+00
  6.529017e+00    3.565753e+00
  6.560768e+00    3.634949e+00
  6.592519e+00    3.590958e+00
  6.624271e+00    3.533501e+00
  6.656022e+00    3.523939e+00
  6.687773e+00    3.579563e+00
  6.719524e+00    3.605469e+00
  6.751275e+00    3.526996e+00
  6.783026e+00    3.603157e+00
  6.814777e+00    3.601585e+00
  6.846529e+00    3.610970e+00
  6.878280e+00    3.483463e+00
  6.910031e+00    3.533196e+00
  6.941782e+00    3.528956e+00
  6.973533e+00    3.592646e+00
  7.005284e+00    3.566987e+00
  7.037036e+00    3.582906e+00
  7.068787e+00    3.555748e+00
  7.100538e+00    3.643163e+00
  7.132289e+00    3.456056e+00
  7.164040e+00    3.509764e+00
  7.195791e+00    3.515873e+00
  7.227542e+00    3.545114e+00
  7.259294e+00    3.538275e+00
  7.291045e+00    3.512827e+00
  7.322796e+00    3.473670e+00
  7.354547e+00    3.490796e+00
  7.386298e+00    3.462356e+00
  7.418049e+00    3.534941e+00
  7.449800e+00    3.547043e+00
  7.481552e+00    3.546367e+00
  7.513303e+00    3.461365e+00
  7.545054e+00    3.490617e+00
  7.576805e+00    3.443710e+00
  7.608556e+00    3.482674e+00
  7.640307e+00    3.487177e+00
  7.672058e+00    3.520082e+00
  7.703810e+00    3.503121e+00
  7.735561e+00    3.426249e+00
  7.767312e+00    3.508043e+00
  7.799063e+00    3.437016e+00
  7.830814e+00    3.508938e+00
  7.862565e+00    3.471386e+00
  7.894317e+00    3.431474e+00
  7.926068e+00    3.425069e+00
  7.957819e+00    3.459448e+00
  7.989570e+00    3.514094e+00
  8.021321e+00    3.419657e+00
  8.053072e+00    3.484511e+00
  8.084823e+00    3.444207e+00
  8.116575e+00    3.463043e+00
  8.148326e+00    3.448550e+00
  8.180077e+00    3.481596e+00
  8.211828e+00    3.540795e+00
  8.243579e+00    3.493343e+00
  8.275330e+00    3.422246e+00
  8.307081e+00    3.420610e+00
  8.338833e+00    3.461543e+00
  8.370584e+00    3.408554e+00
  8.402335e+00    3.373100e+00
  8.434086e+00    3.412745e+00
  8.465837e+00    3.403649e+00
  8.497588e+00    3.368072e+00
  8.529339e+00    3.398497e+00
  8.561091e+00    3.349530e+00
  8.592842e+00    3.291820e+00
  8.624593e+00    3.274040e+00
  8.656344e+00    3.377000e+00
  8.688095e+00    3.332811e+00
  8.719846e+00    3.346716e+00
  8.751598e+00    3.337141e+00
  8.783349e+00    3.351272e+00
  8.815100e+00    3.392204e+00
  8.846851e+00    3.350474e+00
  8.878602e+00    3.341010e+00
  8.910353e+00    3.418749e+00
  8.942104e+00    3.344721e+00
  8.973856e+00    3.304668e+00
  9.005607e+00    3.259849e+00
  9.037358e+00    3.326618e+00
  9.069109e+00    3.325929e+00
  9.100860e+00    3.304848e+00
  9.132611e+00    3.279320e+00
  9.164362e+00    3.287902e+00
  9.196114e+00    3.306798e+00
  9.227865e+00    3.276061e+00
  9.259616e+00    3.314719e+00
  9.291367e+00    3.253026e+00
  9.323118e+00    3.273443e+00
  9.354869e+00    3.327855e+00
  9.386620e+00    3.208839e+00
  9.418372e+00    3.260592e+00
  9.450123e+00    3.286909e+00
  9.481874e+00    3.277179e+00
  9.513625e+00    3.194462e+00
  9.545376e+00    3.269795e+00
  9.577127e+00    3.273452e+00
  9.608878e+00    3.200046e+00
  9.640630e+00    3.217271e+00
  9.672381e+00    3.256533e+00
  9.704132e+00    3.189240e+00
  9.735883e+00    3.198220e+00
  9.767634e+00    3.161510e+00
  9.799385e+00    3.200963e+00
  9.831137e+00    3.267742e+00
  9.862888e+00    3.146024e+00
  9.894639e+00    3.205612e+00
  9.926390e+00    3.146175e+00
  9.958141e+00    3.148171e+00
  9.989892e+00    3.170939e+00
  1.002164e+01    3.075215e+00
  1.005339e+01    3.136854e+00
  1.008515e+01    3.138090e+00
  1.011690e+01    3.077034e+00
  1.014865e+01    3.075010e+00
  1.018040e+01    3.077636e+00
  1.021215e+01    3.107429e+00
  1.024390e+01    3.074147e+00
  1.027565e+01    3.117539e+00
  1.030740e+01    3.030145e+00
  1.033915e+01    3.038357e+00
  1.037091e+01    3.044254e+00
  1.040266e+01    3.037561e+00
  1.043441e+01    3.053239e+00
  1.046616e+01    2.994142e+00
  1.049791e+01    3.019644e+00
  1.052966e+01    3.042429e+00
  1.056141e+01    2.985098e+00
  1.059316e+01    3.024091e+00
  1.062492e+01    3.011452e+00
  1.065667e+01    3.003857e+00
  1.068842e+01    2.978587e+00
  1.072017e+01    2.991771e+00
  1.075192e+01    3.000106e+00
  1.078367e+01    2.931443e+00
  1.081542e+01    2.974547e+00
  1.084717e+01    2.989112e+00
  1.087892e+01    2.993116e+00
  1.091068e+01    2.947794e+00
  1.094243e+01    2.909627e+00
  1.097418e+01    2.937615e+00
  1.100593e+01    2.933318e+00
  1.103768e+01    2.875778e+00
  1.106943e+01    2.917085e+00
  1.110118e+01    2.944694e+00
  1.113293e+01    2.869567e+00
  1.116468e+01    2.879031e+00
  1.119644e+01    2.852057e+00
  1.122819e+01    2.902011e+00
  1.125994e+01    2.851440e+00
  1.129169e+01    2.867306e+00
  1.132344e+01    2.855822e+00
  1.135519e+01    2.833530e+00
  1.138694e+01    2.898263e+00
  1.141869e+01    2.864327e+00
  1.145045e+01    2.798114e+00
  1.148220e+01    2.856999e+00
  1.151395e+01    2.810325e+00
  1.154570e+01    2.836987e+00
  1.157745e+01    2.791524e+00
  1.160920e+01    2.814997e+00
  1.164095e+01    2.770759e+00
  1.167270e+01    2.770558e+00
  1.170445e+01    2.750364e+00
  1.173621e+01    2.778513e+00
  1.176796e+01    2.758395e+00
  1.179971e+01    2.699816e+00
  1.183146e+01    2.771371e+00
  1.186321e+01    2.754592e+00
  1.189496e+01    2.772690e+00
  1.192671e+01    2.817697e+00
  1.195846e+01    2.734674e+00
  1.199021e+01    2.730062e+00
  1.202197e+01    2.729671e+00
  1.205372e+01    2.723534e+00
  1.208547e+01    2.730239e+00
  1.211722e+01    2.718928e+00
  1.214897e+01    2.725746e+00
  1.218072e+01    2.703449e+00
  1.221247e+01    2.729899e+00
  1.224422e+01    2.717179e+00
  1.227597e+01    2.654206e+00
  1.230773e+01    2.735298e+00
  1.233948e+01    2.702413e+00
  1.237123e+01    2.683015e+00
  1.240298e+01    2.701616e+00
  1.243473e+01    2.694501e+00
  1.246648e+01    2.688687e+00
  1.249823e+01    2.709275e+00
  1.252998e+01    2.762720e+00
  1.256174e+01    2.730355e+00
  1.259349e+01    2.751061e+00
  1.262524e+01    2.794144e+00
  1.265699e+01    2.822797e+00
  1.268874e+01    2.855049e+00
  1.272049e+01    2.815277e+00
  1.275224e+01    2.922517e+00
  1.278399e+01    2.968444e+00
  1.281574e+01    3.056003e+00
  1.284750e+01    3.215820e+00
  1.287925e+01    3.408880e+00
  1.291100e+01    3.657577e+00
  1.294275e+01    4.095398e+00
  1.297450e+01    4.808749e+00
  1.300625e+01    6.000520e+00
  1.303800e+01    7.670279e+00
  1.306975e+01    1.015595e+01
  1.310150e+01    1.276804e+01
  1.313326e+01    1.489778e+01
  1.316501e+01    1.636928e+01
  1.319676e+01    1.569787e+01
  1.322851e+01    1.256074e+01
  1.326026e+01    9.112207e+00
  1.329201e+01    6.831006e+00
  1.332376e+01    5.410664e+00
  1.335551e+01    4.469075e+00
  1.338727e+01    3.873747e+00
  1.341902e+01    3.540450e+00
  1.345077e+01    3.284487e+00
  1.348252e+01    3.045072e+00
  1.351427e+01    2.952229e+00
  1.354602e+01    2.811277e+00
  1.357777e+01    2.775215e+00
  1.360952e+01    2.689770e+00
  1.364127e+01    2.625426e+00
  1.367303e+01    2.658947e+00
  1.370478e+01    2.569596e+00
  1.373653e+01    2.530617e+00
  1.376828e+01    2.482169e+00
  1.380003e+01    2.500833e+00
  1.383178e+01    2.452700e+00
  1.386353e+01    2.422852e+00
  1.389528e+01    2.430399e+00
  1.392703e+01    2.446450e+00
  1.395879e+01    2.431681e+00
  1.399054e+01    2.407315e+00
  1.402229e+01    2.394050e+00
  1.405404e+01    2.341959e+00
  1.408579e+01    2.316106e+00
  1.411754e+01    2.376031e+00
  1.414929e+01    2.328081e+00
  1.418104e+01    2.306944e+00
  1.421279e+01    2.315591e+00
  1.424455e+01    2.284070e+00
  1.427630e+01    2.317707e+00
  1.430805e+01    2.286712e+00
  1.433980e+01    2.259520e+00
  1.437155e+01    2.265342e+00
  1.440330e+01    2.243608e+00
  1.443505e+01    2.252882e+00
  1.446680e+01    2.214144e+00
  1.449856e+01    2.214688e+00
  1.453031e+01    2.229848e+00
  1.456206e+01    2.213475e+00
  1.459381e+01    2.248633e+00
  1.462556e+01    2.203032e+00
  1.465731e+01    2.247089e+00
  1.468906e+01    2.214879e+00
  1.472081e+01    2.197609e+00
  1.475256e+01    2.234484e+00
  1.478432e+01    2.202381e+00
  1.481607e+01    2.200608e+00
  1.484782e+01    2.229983e+00
  1.487957e+01    2.204586e+00
  1.491132e+01    2.261662e+00
  1.494307e+01    2.322698e+00
  1.497482e+01    2.311873e+00
  1.500657e+01    2.493054e+00
  1.503832e+01    2.595840e+00
  1.507008e+01    2.827456e+00
  1.510183e+01    3.212909e+00
  1.513358e+01    3.848511e+00
  1.516533e+01    4.581827e+00
  1.519708e+01    5.184888e+00
  1.522883e+01    5.642363e+00
  1.526058e+01    5.846008e+00
  1.529233e+01    5.498214e+00
  1.532409e+01    4.740091e+00
  1.535584e+01    3.794161e+00
  1.538759e+01    3.179311e+00
  1.541934e+01    2.751138e+00
  1.545109e+01    2.479133e+00
  1.548284e+01    2.369810e+00
  1.551459e+01    2.276851e+00
  1.554634e+01    2.195446e+00
  1.557809e+01    2.150286e+00
  1.560985e+01    2.103476e+00
  1.564160e+01    2.039593e+00
  1.567335e+01    2.038167e+00
  1.570510e+01    2.018718e+00
  1.573685e+01    1.991329e+00
  1.576860e+01    1.955124e+00
  1.580035e+01    1.942592e+00
  1.583210e+01    1.917699e+00
  1.586385e+01    1.923883e+00
  1.589561e+01    1.897299e+00
  1.592736e+01    1.889315e+00
  1.595911e+01    1.885239e+00
  1.599086e+01    1.862599e+00
  1.602261e+01    1.867619e+00
  1.605436e+01    1.887022e+00
  1.608611e+01    1.887648e+00
  1.611786e+01    1.879211e+00
  1.614961e+01    1.824005e+00
  1.618137e+01    1.874624e+00
  1.621312e+01    1.858924e+00
  1.624487e+01    1.831163e+00
  1.627662e+01    1.834131e+00
  1.630837e+01    1.831951e+00
  1.634012e+01    1.795401e+00
  1.637187e+01    1.746543e+00
  1.640362e+01    1.756144e+00
  1.643538e+01    1.801870e+00
  1.646713e+01    1.786672e+00
  1.649888e+01    1.742833e+00
  1.653063e+01    1.720541e+00
  1.656238e+01    1.742784e+00
  1.659413e+01    1.755445e+00
  1.662588e+01    1.758946e+00
  1.665763e+01    1.751061e+00
  1.668938e+01    1.702178e+00
  1.672114e+01    1.740346e+00
  1.675289e+01    1.692332e+00
  1.678464e+01    1.717131e+00
  1.681639e+01    1.743860e+00
  1.684814e+01    1.727680e+00
  1.687989e+01    1.712357e+00
  1.691164e+01    1.710973e+00
  1.694339e+01    1.683695e+00
  1.697514e+01    1.650733e+00
  1.700690e+01    1.668118e+00
  1.703865e+01    1.666019e+00
  1.707040e+01    1.640819e+00
  1.710215e+01    1.639260e+00
  1.713390e+01    1.629892e+00
  1.716565e+01    1.671292e+00
  1.719740e+01    1.634787e+00
  1.722915e+01    1.653981e+00
  1.726091e+01    1.629045e+00
  1.729266e+01    1.658614e+00
  1.732441e+01    1.628835e+00
  1.735616e+01    1.601922e+00
  1.738791e+01    1.611249e+00
  1.741966e+01    1.605709e+00
  1.745141e+01    1.585441e+00
  1.748316e+01    1.608052e+00
  1.751491e+01    1.588333e+00
  1.754667e+01    1.579996e+00
  1.757842e+01    1.622936e+00
  1.761017e+01    1.561108e+00
  1.764192e+01    1.571896e+00
  1.767367e+01    1.551810e+00
  1.770542e+01    1.566484e+00
  1.773717e+01    1.569567e+00
  1.776892e+01    1.577542e+00
  1.780067e+01    1.527055e+00
  1.783243e+01    1.553277e+00
  1.786418e+01    1.533677e+00
  1.789593e+01    1.532560e+00
  1.792768e+01    1.529679e+00
  1.795943e+01    1.502242e+00
  1.799118e+01    1.524033e+00
  1.802293e+01    1.529810e+00
  1.805468e+01    1.489056e+00
  1.808643e+01    1.485905e+00
  1.811819e+01    1.498633e+00
  1.814994e+01    1.478845e+00
  1.818169e+01    1.495560e+00
  1.821344e+01    1.489449e+00
  1.824519e+01    1.471002e+00
  1.827694e+01    1.505596e+00
  1.830869e+01    1.486126e+00
  1.834044e+01    1.457823e+00
  1.837220e+01    1.476710e+00
  1.840395e+01    1.469803e+00
  1.843570e+01    1.477351e+00
  1.846745e+01    1.448983e+00
  1.849920e+01    1.454784e+00
  1.853095e+01    1.441734e+00
  1.856270e+01    1.439816e+00
  1.859445e+01    1.461904e+00
  1.862620e+01    1.441974e+00
  1.865796e+01    1.415422e+00
  1.868971e+01    1.442446e+00
  1.872146e+01    1.405111e+00
  1.875321e+01    1.407014e+00
  1.878496e+01    1.421508e+00
  1.881671e+01    1.437810e+00
  1.884846e+01    1.425133e+00
  1.888021e+01    1.409955e+00
  1.891196e+01    1.419457e+00
  1.894372e+01    1.410569e+00
  1.897547e+01    1.419530e+00
  1.900722e+01    1.396856e+00
  1.903897e+01    1.400663e+00
  1.907072e+01    1.385669e+00
  1.910247e+01    1.366561e+00
  1.913422e+01    1.391891e+00
  1.916597e+01    1.371985e+00
  1.919773e+01    1.365116e+00
  1.922948e+01    1.355739e+00
  1.926123e+01    1.364677e+00
  1.929298e+01    1.366222e+00
  1.932473e+01    1.353511e+00
  1.935648e+01    1.359211e+00
  1.938823e+01    1.365482e+00
  1.941998e+01    1.370040e+00
  1.945173e+01    1.344889e+00
  1.948349e+01    1.341310e+00
  1.951524e+01    1.344670e+00
  1.954699e+01    1.336874e+00
  1.957874e+01    1.340623e+00
  1.961049e+01    1.320657e+00
  1.964224e+01    1.323027e+00
  1.967399e+01    1.294437e+00
  1.970574e+01    1.310678e+00
  1.973749e+01    1.317528e+00
  1.976925e+01    1.324819e+00
  1.980100e+01    1.321812e+00
  1.983275e+01    1.297908e+00
  1.986450e+01    1.313325e+00
  1.989625e+01    1.314066e+00
  1.992800e+01    1.304541e+00
  1.995975e+01    1.281505e+00
  1.999150e+01    1.287322e+00
  2.002325e+01    1.267643e+00
  2.005501e+01    1.292163e+00
  2.008676e+01    1.272077e+00
  2.011851e+01    1.255931e+00
  2.015026e+01    1.289221e+00
  2.018201e+01    1.265985e+00
  2.021376e+01    1.266471e+00
  2.024551e+01    1.253461e+00
  2.027726e+01    1.272597e+00
  2.030902e+01    1.261588e+00
  2.034077e+01    1.253414e+00
  2.037252e+01    1.239467e+00
  2.040427e+01    1.258829e+00
  2.043602e+01    1.265195e+00
  2.046777e+01    1.256796e+00
  2.049952e+01    1.220426e+00
  2.053127e+01    1.243848e+00
  2.056302e+01    1.266916e+00
  2.059478e+01    1.238125e+00
  2.062653e+01    1.264495e+00
  2.065828e+01    1.245774e+00
  2.069003e+01    1.237335e+00
  2.072178e+01    1.249817e+00
  2.075353e+01    1.218363e+00
  2.078528e+01    1.225233e+00
  2.081703e+01    1.229257e+00
  2.084878e+01    1.234182e+00
  2.088054e+01    1.239691e+00
  2.091229e+01    1.231772e+00
  2.094404e+01    1.244262e+00
  2.097579e+01    1.216079e+00
  2.100754e+01    1.224568e+00
  2.103929e+01    1.216806e+00
  2.107104e+01    1.216956e+00
  2.110279e+01    1.239892e+00
  2.113455e+01    1.238691e+00
  2.116630e+01    1.234263e+00
  2.119805e+01    1.241331e+00
  2.122980e+01    1.242852e+00
  2.126155e+01    1.245877e+00
  2.129330e+01    1.269191e+00
  2.132505e+01    1.295890e+00
  2.135680e+01    1.297656e+00
  2.138855e+01    1.327062e+00
  2.142031e+01    1.327397e+00
  2.145206e+01    1.376793e+00
  2.148381e+01    1.394303e+00
  2.151556e+01    1.456131e+00
  2.154731e+01    1.538648e+00
  2.157906e+01    1.596697e+00
  2.161081e+01    1.809609e+00
  2.164256e+01    1.973173e+00
  2.167431e+01    2.275573e+00
  2.170607e+01    2.805382e+00
  2.173782e+01    3.503177e+00
  2.176957e+01    4.628602e+00
  2.180132e+01    5.867975e+00
  2.183307e+01    7.174386e+00
  2.186482e+01    8.409342e+00
  2.189657e+01    8.958126e+00
  2.192832e+01    8.292205e+00
  2.196007e+01    6.651823e+00
  2.199183e+01    4.865695e+00
  2.202358e+01    3.653974e+00
  2.205533e+01    2.837848e+00
  2.208708e+01    2.351605e+00
  2.211883e+01    2.020730e+00
  2.215058e+01    1.800030e+00
  2.218233e+01    1.649940e+00
  2.221408e+01    1.509427e+00
  2.224584e+01    1.407217e+00
  2.227759e+01    1.389345e+00
  2.230934e+01    1.319197e+00
  2.234109e+01    1.257509e+00
  2.237284e+01    1.233539e+00
  2.240459e+01    1.202276e+00
  2.243634e+01    1.173993e+00
  2.246809e+01    1.183783e+00
  2.249984e+01    1.147820e+00
  2.253160e+01    1.127398e+00
  2.256335e+01    1.136902e+00
  2.259510e+01    1.097431e+00
  2.262685e+01    1.080216e+00
  2.265860e+01    1.120326e+00
  2.269035e+01    1.092109e+00
  2.272210e+01    1.083307e+00
  2.275385e+01    1.090499e+00
  2.278560e+01    1.089034e+00
  2.281736e+01    1.053501e+00
  2.284911e+01    1.077868e+00
  2.288086e+01    1.037622e+00
  2.291261e+01    1.031106e+00
  2.294436e+01    1.031039e+00
  2.297611e+01    1.034978e+00
  2.300786e+01    1.028112e+00
  2.303961e+01    1.002062e+00
  2.307137e+01    9.940326e-01
  2.310312e+01    9.897424e-01
  2.313487e+01    9.963129e-01
  2.316662e+01    1.015948e+00
  2.319837e+01    9.914370e-01
  2.323012e+01    1.017501e+00
  2.326187e+01    1.006802e+00
  2.329362e+01    9.842490e-01
  2.332537e+01    9.843149e-01
  2.335713e+01    9.664621e-01
  2.338888e+01    1.004309e+00
  2.342063e+01    9.662853e-01
  2.345238e+01    9.729612e-01
  2.348413e+01    9.677978e-01
  2.351588e+01    9.512239e-01
  2.354763e+01    9.640914e-01
  2.357938e+01    9.538966e-01
  2.361113e+01    9.727941e-01
  2.364289e+01    9.685898e-01
  2.367464e+01    9.507723e-01
  2.370639e+01    9.623854e-01
  2.373814e+01    9.158927e-01
  2.376989e+01    9.362639e-01
  2.380164e+01    9.231695e-01
  2.383339e+01    9.275286e-01
  2.386514e+01    9.185982e-01
  2.389689e+01    9.086960e-01
  2.392865e+01    9.064163e-01
  2.396040e+01    9.108709e-01
  2.399215e+01    9.087027e-01
  2.402390e+01    8.940316e-01
  2.405565e+01    9.173354e-01
  2.408740e+01    8.967826e-01
  2.411915e+01    8.889503e-01
  2.415090e+01    8.777378e-01
  2.418266e+01    8.771881e-01
  2.421441e+01    8.743926e-01
  2.424616e+01    9.067708e-01
  2.427791e+01    9.069989e-01
  2.430966e+01    8.891484e-01
  2.434141e+01    8.945104e-01
  2.437316e+01    8.888879e-01
  2.440491e+01    8.904220e-01
  2.443666e+01    8.980719e-01
  2.446842e+01    9.139601e-01
  2.450017e+01    9.212304e-01
  2.453192e+01    8.872882e-01
  2.456367e+01    9.038209e-01
  2.459542e+01    8.872826e-01
  2.462717e+01    8.937884e-01
  2.465892e+01    9.033851e-01
  2.469067e+01    8.919412e-01
  2.472242e+01    8.812305e-01
  2.475418e+01    9.105504e-01
  2.478593e+01    8.905923e-01
  2.481768e+01    8.734579e-01
  2.484943e+01    9.011524e-01
  2.488118e+01    8.988727e-01
  2.491293e+01    8.890487e-01
  2.494468e+01    8.955358e-01
  2.497643e+01    9.027777e-01
  2.500819e+01    9.121538e-01
  2.503994e+01    8.965629e-01
  2.507169e+01    8.992534e-01
  2.510344e+01    9.049822e-01
  2.513519e+01    9.123796e-01
  2.516694e+01    9.318184e-01
  2.519869e+01    9.355457e-01
  2.523044e+01    9.275650e-01
  2.526219e+01    9.474073e-01
  2.529395e+01    9.625502e-01
  2.532570e+01    9.572207e-01
  2.535745e+01    9.911443e-01
  2.538920e+01    1.000296e+00
  2.542095e+01    9.803932e-01
  2.545270e+01    1.043456e+00
  2.548445e+01    1.033575e+00
  2.551620e+01    1.072848e+00
  2.554795e+01    1.153113e+00
  2.557971e+01    1.172612e+00
  2.561146e+01    1.232133e+00
  2.564321e+01    1.302163e+00
  2.567496e+01    1.413135e+00
  2.570671e+01    1.590189e+00
  2.573846e+01    1.837167e+00
  2.577021e+01    2.221337e+00
  2.580196e+01    2.782686e+00
  2.583371e+01    3.665449e+00
  2.586547e+01    4.664554e+00
  2.589722e+01    5.882401e+00
  2.592897e+01    6.832796e+00
  2.596072e+01    7.138659e+00
  2.599247e+01    6.582506e+00
  2.602422e+01    5.331200e+00
  2.605597e+01    4.027009e+00
  2.608772e+01    3.012609e+00
  2.611948e+01    2.378522e+00
  2.615123e+01    1.987983e+00
  2.618298e+01    1.682891e+00
  2.621473e+01    1.484942e+00
  2.624648e+01    1.353504e+00
  2.627823e+01    1.236577e+00
  2.630998e+01    1.199915e+00
  2.634173e+01    1.136129e+00
  2.637348e+01    1.068117e+00
  2.640524e+01    1.074061e+00
  2.643699e+01    1.055336e+00
  2.646874e+01    1.044466e+00
  2.650049e+01    1.006904e+00
  2.653224e+01    9.947971e-01
  2.656399e+01    9.828912e-01
  2.659574e+01    9.906297e-01
  2.662749e+01    9.693589e-01
  2.665924e+01    9.613678e-01
  2.669100e+01    9.936229e-01
  2.672275e+01    9.570838e-01
  2.675450e+01    9.811999e-01
  2.678625e+01    9.812605e-01
  2.681800e+01    9.749776e-01
  2.684975e+01    9.945325e-01
  2.688150e+01    1.005835e+00
  2.691325e+01    1.034879e+00
  2.694501e+01    1.046039e+00
  2.697676e+01    1.065379e+00
  2.700851e+01    1.104304e+00
  2.704026e+01    1.215385e+00
  2.707201e+01    1.316217e+00
  2.710376e+01    1.476972e+00
  2.713551e+01    1.713201e+00
  2.716726e+01    1.972735e+00
  2.719901e+01    2.169568e+00
  2.723077e+01    2.142067e+00
  2.726252e+01    1.975572e+00
  2.729427e+01    1.705189e+00
  2.732602e+01    1.450851e+00
  2.735777e+01    1.282746e+00
  2.738952e+01    1.167735e+00
  2.742127e+01    1.109372e+00
  2.745302e+01    1.044685e+00
  2.748477e+01    1.008151e+00
  2.751653e+01    9.675099e-01
  2.754828e+01    9.795269e-01
  2.758003e+01    9.297981e-01
  2.761178e+01    9.222044e-01
  2.764353e+01    9.085071e-01
  2.767528e+01    9.063645e-01
  2.770703e+01    9.011598e-01
  2.773878e+01    9.071582e-01
  2.777054e+01    8.972846e-01
  2.780229e+01    8.973114e-01
  2.783404e+01    9.062731e-01
  2.786579e+01    8.553314e-01
  2.789754e+01    8.609490e-01
  2.792929e+01    9.023548e-01
  2.796104e+01    8.783560e-01
  2.799279e+01    8.769920e-01
  2.802454e+01    8.805459e-01
  2.805630e+01    8.883216e-01
  2.808805e+01    8.533627e-01
  2.811980e+01    8.631296e-01
  2.815155e+01    8.739343e-01
  2.818330e+01    8.563976e-01
  2.821505e+01    8.709653e-01
  2.824680e+01    8.312660e-01
  2.827855e+01    8.615225e-01
  2.831030e+01    8.526379e-01
  2.834206e+01    8.399127e-01
  2.837381e+01    8.601549e-01
  2.840556e+01    8.676350e-01
  2.843731e+01    8.471368e-01
  2.846906e+01    8.338394e-01
  2.850081e+01    8.443489e-01
  2.853256e+01    8.394683e-01
  2.856431e+01    8.321211e-01
  2.859606e+01    8.385866e-01
  2.862782e+01    8.579994e-01
  2.865957e+01    8.319012e-01
  2.869132e+01    8.324169e-01
  2.872307e+01    8.366601e-01
  2.875482e+01    8.086601e-01
  2.878657e+01    8.098022e-01
  2.881832e+01    8.503304e-01
  2.885007e+01    8.210240e-01
  2.888183e+01    8.092936e-01
  2.891358e+01    8.209726e-01
  2.894533e+01    8.336478e-01
  2.897708e+01    8.217452e-01
  2.900883e+01    8.271726e-01
  2.904058e+01    8.044394e-01
  2.907233e+01    8.143919e-01
  2.910408e+01    8.255504e-01
  2.913583e+01    8.250852e-01
  2.916759e+01    8.125034e-01
  2.919934e+01    8.102291e-01
  2.923109e+01    8.099419e-01
  2.926284e+01    8.211185e-01
  2.929459e+01    8.202234e-01
  2.932634e+01    8.387891e-01
  2.935809e+01    8.094292e-01
  2.938984e+01    8.066956e-01
  2.942159e+01    7.977105e-01
  2.945335e+01    8.075975e-01
  2.948510e+01    8.254712e-01
  2.951685e+01    7.864943e-01
  2.954860e+01    8.330979e-01
  2.958035e+01    8.303336e-01
  2.961210e+01    8.201374e-01
  2.964385e+01    8.108103e-01
  2.967560e+01    8.170834e-01
  2.970736e+01    7.938414e-01
  2.973911e+01    8.004819e-01
  2.977086e+01    8.010761e-01
  2.980261e+01    8.117646e-01
  2.983436e+01    7.922224e-01
  2.986611e+01    7.887684e-01
  2.989786e+01    7.972038e-01
  2.992961e+01    7.895492e-01
  2.996136e+01    7.845065e-01
  2.999312e+01    8.276199e-01
  3.002487e+01    8.140507e-01
  3.005662e+01    8.117326e-01
  3.008837e+01    7.982801e-01
  3.012012e+01    8.188072e-01
  3.015187e+01    8.028335e-01
  3.018362e+01    7.985867e-01
  3.021537e+01    7.858735e-01
  3.024712e+01    7.932689e-01
  3.027888e+01    7.958353e-01
  3.031063e+01    7.916496e-01
  3.034238e+01    8.042637e-01
  3.037413e+01    7.959890e-01
  3.040588e+01    7.774261e-01
  3.043763e+01    8.144368e-01
  3.046938e+01    7.860456e-01
  3.050113e+01    7.874587e-01
  3.053288e+01    7.749103e-01
  3.056464e+01    7.918614e-01
  3.059639e+01    8.194488e-01
  3.062814e+01    7.984520e-01
  3.065989e+01    7.722861e-01
  3.069164e+01    7.784891e-01
  3.072339e+01    7.900519e-01
  3.075514e+01    7.977891e-01
  3.078689e+01    7.692193e-01
  3.081865e+01    7.937379e-01
  3.085040e+01    7.731996e-01
  3.088215e+01    7.833115e-01
  3.091390e+01    8.089669e-01
  3.094565e+01    7.908078e-01
  3.097740e+01    7.906896e-01
  3.100915e+01    7.894291e-01
  3.104090e+01    7.969844e-01
  3.107265e+01    7.935979e-01
  3.110441e+01    7.663409e-01
  3.113616e+01    7.958500e-01
  3.116791e+01    7.995933e-01
  3.119966e+01    7.916125e-01
  3.123141e+01    7.936786e-01
  3.126316e+01    7.729293e-01
  3.129491e+01    7.765808e-01
  3.132666e+01    8.002212e-01
  3.135841e+01    8.088937e-01
  3.139017e+01    7.905065e-01
  3.142192e+01    7.960085e-01
  3.145367e+01    8.027974e-01
  3.148542e+01    8.281813e-01
  3.151717e+01    8.302243e-01
  3.154892e+01    8.583742e-01
  3.158067e+01    8.890683e-01
  3.161242e+01    8.881719e-01
  3.164418e+01    8.964728e-01
  3.167593e+01    9.996476e-01
  3.170768e+01    1.025461e+00
  3.173943e+01    1.128773e+00
  3.177118e+01    1.251762e+00
  3.180293e+01    1.457887e+00
  3.183468e+01    1.742106e+00
  3.186643e+01    1.995421e+00
  3.189818e+01    2.159136e+00
  3.192994e+01    2.037055e+00
  3.196169e+01    1.845215e+00
  3.199344e+01    1.543197e+00
  3.202519e+01    1.321424e+00
  3.205694e+01    1.182864e+00
  3.208869e+01    1.063911e+00
  3.212044e+01    9.749683e-01
  3.215219e+01    9.203532e-01
  3.218394e+01    8.774123e-01
  3.221570e+01    8.581021e-01
  3.224745e+01    8.275289e-01
  3.227920e+01    8.580844e-01
  3.231095e+01    8.282388e-01
  3.234270e+01    8.193627e-01
  3.237445e+01    8.275511e-01
  3.240620e+01    8.045237e-01
  3.243795e+01    7.854643e-01
  3.246970e+01    7.788791e-01
  3.250146e+01    7.901824e-01
  3.253321e+01    7.943431e-01
  3.254908e+01    7.635452e-01