File: XRD/Reaction conditions/2024-07-27_003_Ru-CGO-ex_Reaction_dwell_000023_data_000084.dat
# == pyFAI calibration ==
# Distance Sample to Detector: 0.4 m
# PONI: 9.750e-02, 1.135e-01 m
# Rotations: -0.000175 0.000000 -0.000000 rad
#
# == Fit2d calibration ==
# Distance Sample-beamCenter: 400.000 mm
# Center: x=1514.000, y=1300.000 pix
# Tilt: 0.010 deg  TiltPlanRot: 0.010 deg
#
# Detector Detector	 Spline= None	 PixelSize= 7.500e-05, 7.500e-05 m
#    Detector has a mask: False
#    Detector has a dark current: False
#    detector has a flat field: False
#
# Wavelength: 6.888e-11 m
# Mask applied: user provided
# Dark current applied: False
# Flat field applied: False
# Polarization factor: 0.99
# Normalization factor: 1.0
# --> /home/myspot/data/2024_07_Rosario/Ru-CGO-ex/2024-07-27_003_Ru-CGO-ex_Reaction_dwell_000023_data_000084.dat
#       q_nm^-1             I
  2.003187e-02    0.000000e+00
  5.178302e-02    9.562786e-02
  8.353417e-02    3.143234e-01
  1.152853e-01    1.305278e-01
  1.470365e-01    5.480796e-02
  1.787876e-01    2.731698e-02
  2.105388e-01    1.823419e-02
  2.422899e-01    2.922317e-02
  2.740411e-01    6.113479e-02
  3.057922e-01    6.200288e-02
  3.375433e-01    1.268148e-02
  3.692945e-01    3.598049e-02
  4.010456e-01    1.276657e-02
  4.327968e-01    4.394840e-02
  4.645479e-01    4.926337e-02
  4.962991e-01    2.677812e-02
  5.280502e-01    7.052012e-02
  5.598014e-01    2.677051e-02
  5.915525e-01    5.175512e-02
  6.233037e-01    4.854836e-02
  6.550548e-01    3.435524e-02
  6.868060e-01    5.617283e-02
  7.185571e-01    3.407409e-02
  7.503083e-01    4.064833e-02
  7.820594e-01    1.313978e-01
  8.138106e-01    1.946101e-01
  8.455617e-01    3.505141e-01
  8.773129e-01    5.236917e-01
  9.090640e-01    6.523784e-01
  9.408152e-01    8.181344e-01
  9.725663e-01    1.080776e+00
  1.004317e+00    1.197066e+00
  1.036069e+00    1.280499e+00
  1.067820e+00    1.409383e+00
  1.099571e+00    1.454069e+00
  1.131322e+00    1.611238e+00
  1.163073e+00    1.599806e+00
  1.194824e+00    1.863197e+00
  1.226575e+00    2.250025e+00
  1.258327e+00    2.523002e+00
  1.290078e+00    2.714469e+00
  1.321829e+00    2.690643e+00
  1.353580e+00    2.713161e+00
  1.385331e+00    2.795558e+00
  1.417082e+00    2.871521e+00
  1.448834e+00    3.062669e+00
  1.480585e+00    3.079102e+00
  1.512336e+00    3.329839e+00
  1.544087e+00    3.105640e+00
  1.575838e+00    3.410661e+00
  1.607589e+00    3.133196e+00
  1.639340e+00    3.134407e+00
  1.671092e+00    3.209758e+00
  1.702843e+00    3.127143e+00
  1.734594e+00    3.008869e+00
  1.766345e+00    3.099203e+00
  1.798096e+00    3.099560e+00
  1.829847e+00    2.987942e+00
  1.861598e+00    3.099637e+00
  1.893350e+00    3.125229e+00
  1.925101e+00    3.104574e+00
  1.956852e+00    3.074743e+00
  1.988603e+00    3.025504e+00
  2.020354e+00    3.185986e+00
  2.052105e+00    3.091668e+00
  2.083856e+00    3.003308e+00
  2.115608e+00    3.117395e+00
  2.147359e+00    3.083244e+00
  2.179110e+00    3.045393e+00
  2.210861e+00    3.019643e+00
  2.242612e+00    3.062850e+00
  2.274363e+00    3.119467e+00
  2.306115e+00    3.143512e+00
  2.337866e+00    3.257389e+00
  2.369617e+00    3.145291e+00
  2.401368e+00    3.102555e+00
  2.433119e+00    3.163008e+00
  2.464870e+00    3.192615e+00
  2.496621e+00    3.227246e+00
  2.528373e+00    3.282028e+00
  2.560124e+00    3.136187e+00
  2.591875e+00    3.224451e+00
  2.623626e+00    3.289117e+00
  2.655377e+00    3.316647e+00
  2.687128e+00    3.259340e+00
  2.718879e+00    3.170765e+00
  2.750631e+00    3.242853e+00
  2.782382e+00    3.253796e+00
  2.814133e+00    3.350214e+00
  2.845884e+00    3.289741e+00
  2.877635e+00    3.239958e+00
  2.909386e+00    3.375047e+00
  2.941137e+00    3.361622e+00
  2.972889e+00    3.367122e+00
  3.004640e+00    3.285318e+00
  3.036391e+00    3.356498e+00
  3.068142e+00    3.231273e+00
  3.099893e+00    3.323069e+00
  3.131644e+00    3.377634e+00
  3.163395e+00    3.456561e+00
  3.195147e+00    3.388749e+00
  3.226898e+00    3.341495e+00
  3.258649e+00    3.344970e+00
  3.290400e+00    3.401824e+00
  3.322151e+00    3.373195e+00
  3.353902e+00    3.364679e+00
  3.385654e+00    3.479271e+00
  3.417405e+00    3.512454e+00
  3.449156e+00    3.473517e+00
  3.480907e+00    3.428595e+00
  3.512658e+00    3.512078e+00
  3.544409e+00    3.500447e+00
  3.576160e+00    3.474858e+00
  3.607912e+00    3.517478e+00
  3.639663e+00    3.508028e+00
  3.671414e+00    3.436257e+00
  3.703165e+00    3.532704e+00
  3.734916e+00    3.586801e+00
  3.766667e+00    3.542831e+00
  3.798418e+00    3.558631e+00
  3.830170e+00    3.582631e+00
  3.861921e+00    3.460783e+00
  3.893672e+00    3.451848e+00
  3.925423e+00    3.547580e+00
  3.957174e+00    3.586067e+00
  3.988925e+00    3.508558e+00
  4.020676e+00    3.559666e+00
  4.052428e+00    3.476078e+00
  4.084179e+00    3.567611e+00
  4.115930e+00    3.470139e+00
  4.147681e+00    3.502725e+00
  4.179432e+00    3.564931e+00
  4.211183e+00    3.593787e+00
  4.242935e+00    3.578316e+00
  4.274686e+00    3.482900e+00
  4.306437e+00    3.593875e+00
  4.338188e+00    3.437531e+00
  4.369939e+00    3.586092e+00
  4.401690e+00    3.645010e+00
  4.433441e+00    3.491927e+00
  4.465193e+00    3.586920e+00
  4.496944e+00    3.626405e+00
  4.528695e+00    3.582613e+00
  4.560446e+00    3.519608e+00
  4.592197e+00    3.656175e+00
  4.623948e+00    3.662849e+00
  4.655699e+00    3.491877e+00
  4.687451e+00    3.641827e+00
  4.719202e+00    3.582858e+00
  4.750953e+00    3.609199e+00
  4.782704e+00    3.550148e+00
  4.814455e+00    3.625389e+00
  4.846206e+00    3.734054e+00
  4.877957e+00    3.651577e+00
  4.909709e+00    3.687369e+00
  4.941460e+00    3.698982e+00
  4.973211e+00    3.644776e+00
  5.004962e+00    3.702010e+00
  5.036713e+00    3.701441e+00
  5.068464e+00    3.571678e+00
  5.100216e+00    3.669115e+00
  5.131967e+00    3.652012e+00
  5.163718e+00    3.651076e+00
  5.195469e+00    3.684115e+00
  5.227220e+00    3.633730e+00
  5.258971e+00    3.702836e+00
  5.290722e+00    3.649582e+00
  5.322474e+00    3.581838e+00
  5.354225e+00    3.680643e+00
  5.385976e+00    3.657102e+00
  5.417727e+00    3.656184e+00
  5.449478e+00    3.574163e+00
  5.481229e+00    3.609403e+00
  5.512980e+00    3.658749e+00
  5.544732e+00    3.590283e+00
  5.576483e+00    3.608154e+00
  5.608234e+00    3.697684e+00
  5.639985e+00    3.558986e+00
  5.671736e+00    3.578603e+00
  5.703487e+00    3.579825e+00
  5.735238e+00    3.541874e+00
  5.766990e+00    3.565939e+00
  5.798741e+00    3.535304e+00
  5.830492e+00    3.542047e+00
  5.862243e+00    3.585775e+00
  5.893994e+00    3.506935e+00
  5.925745e+00    3.488633e+00
  5.957497e+00    3.585276e+00
  5.989248e+00    3.570516e+00
  6.020999e+00    3.624916e+00
  6.052750e+00    3.669450e+00
  6.084501e+00    3.596587e+00
  6.116252e+00    3.609979e+00
  6.148003e+00    3.637386e+00
  6.179755e+00    3.566064e+00
  6.211506e+00    3.627840e+00
  6.243257e+00    3.672018e+00
  6.275008e+00    3.600181e+00
  6.306759e+00    3.589420e+00
  6.338510e+00    3.489055e+00
  6.370261e+00    3.568016e+00
  6.402013e+00    3.489537e+00
  6.433764e+00    3.531906e+00
  6.465515e+00    3.557304e+00
  6.497266e+00    3.611530e+00
  6.529017e+00    3.555992e+00
  6.560768e+00    3.518594e+00
  6.592519e+00    3.631716e+00
  6.624271e+00    3.547411e+00
  6.656022e+00    3.584721e+00
  6.687773e+00    3.511870e+00
  6.719524e+00    3.560167e+00
  6.751275e+00    3.593543e+00
  6.783026e+00    3.539958e+00
  6.814777e+00    3.576407e+00
  6.846529e+00    3.618037e+00
  6.878280e+00    3.550261e+00
  6.910031e+00    3.597201e+00
  6.941782e+00    3.627371e+00
  6.973533e+00    3.518961e+00
  7.005284e+00    3.480363e+00
  7.037036e+00    3.569460e+00
  7.068787e+00    3.499272e+00
  7.100538e+00    3.565927e+00
  7.132289e+00    3.532879e+00
  7.164040e+00    3.499930e+00
  7.195791e+00    3.438174e+00
  7.227542e+00    3.421491e+00
  7.259294e+00    3.552215e+00
  7.291045e+00    3.450938e+00
  7.322796e+00    3.516171e+00
  7.354547e+00    3.554098e+00
  7.386298e+00    3.472937e+00
  7.418049e+00    3.454594e+00
  7.449800e+00    3.478286e+00
  7.481552e+00    3.527540e+00
  7.513303e+00    3.468487e+00
  7.545054e+00    3.458764e+00
  7.576805e+00    3.523076e+00
  7.608556e+00    3.519743e+00
  7.640307e+00    3.451827e+00
  7.672058e+00    3.491658e+00
  7.703810e+00    3.432974e+00
  7.735561e+00    3.468265e+00
  7.767312e+00    3.514759e+00
  7.799063e+00    3.453151e+00
  7.830814e+00    3.463754e+00
  7.862565e+00    3.410515e+00
  7.894317e+00    3.428930e+00
  7.926068e+00    3.455918e+00
  7.957819e+00    3.403077e+00
  7.989570e+00    3.496804e+00
  8.021321e+00    3.403148e+00
  8.053072e+00    3.413532e+00
  8.084823e+00    3.426321e+00
  8.116575e+00    3.395366e+00
  8.148326e+00    3.460809e+00
  8.180077e+00    3.447703e+00
  8.211828e+00    3.483119e+00
  8.243579e+00    3.495932e+00
  8.275330e+00    3.410891e+00
  8.307081e+00    3.391697e+00
  8.338833e+00    3.391718e+00
  8.370584e+00    3.420023e+00
  8.402335e+00    3.448779e+00
  8.434086e+00    3.356919e+00
  8.465837e+00    3.414036e+00
  8.497588e+00    3.288885e+00
  8.529339e+00    3.406806e+00
  8.561091e+00    3.335695e+00
  8.592842e+00    3.349895e+00
  8.624593e+00    3.313832e+00
  8.656344e+00    3.388475e+00
  8.688095e+00    3.335816e+00
  8.719846e+00    3.364680e+00
  8.751598e+00    3.338012e+00
  8.783349e+00    3.381510e+00
  8.815100e+00    3.295224e+00
  8.846851e+00    3.282230e+00
  8.878602e+00    3.365302e+00
  8.910353e+00    3.318054e+00
  8.942104e+00    3.276133e+00
  8.973856e+00    3.300572e+00
  9.005607e+00    3.314780e+00
  9.037358e+00    3.272815e+00
  9.069109e+00    3.270158e+00
  9.100860e+00    3.284199e+00
  9.132611e+00    3.253096e+00
  9.164362e+00    3.234730e+00
  9.196114e+00    3.270341e+00
  9.227865e+00    3.275117e+00
  9.259616e+00    3.276119e+00
  9.291367e+00    3.228038e+00
  9.323118e+00    3.191182e+00
  9.354869e+00    3.254905e+00
  9.386620e+00    3.258286e+00
  9.418372e+00    3.254257e+00
  9.450123e+00    3.248889e+00
  9.481874e+00    3.174767e+00
  9.513625e+00    3.201044e+00
  9.545376e+00    3.156177e+00
  9.577127e+00    3.236312e+00
  9.608878e+00    3.192033e+00
  9.640630e+00    3.166589e+00
  9.672381e+00    3.229769e+00
  9.704132e+00    3.262717e+00
  9.735883e+00    3.192494e+00
  9.767634e+00    3.159317e+00
  9.799385e+00    3.174128e+00
  9.831137e+00    3.129050e+00
  9.862888e+00    3.080225e+00
  9.894639e+00    3.140030e+00
  9.926390e+00    3.152122e+00
  9.958141e+00    3.082562e+00
  9.989892e+00    3.130332e+00
  1.002164e+01    3.138409e+00
  1.005339e+01    3.089473e+00
  1.008515e+01    3.075599e+00
  1.011690e+01    3.180928e+00
  1.014865e+01    3.100228e+00
  1.018040e+01    3.083174e+00
  1.021215e+01    3.093825e+00
  1.024390e+01    3.066077e+00
  1.027565e+01    2.986030e+00
  1.030740e+01    3.007098e+00
  1.033915e+01    3.018967e+00
  1.037091e+01    3.002973e+00
  1.040266e+01    3.019171e+00
  1.043441e+01    3.040321e+00
  1.046616e+01    3.000549e+00
  1.049791e+01    3.051287e+00
  1.052966e+01    3.048140e+00
  1.056141e+01    2.996501e+00
  1.059316e+01    2.966666e+00
  1.062492e+01    3.004933e+00
  1.065667e+01    2.955042e+00
  1.068842e+01    2.941804e+00
  1.072017e+01    2.992322e+00
  1.075192e+01    2.941218e+00
  1.078367e+01    2.915768e+00
  1.081542e+01    2.968151e+00
  1.084717e+01    2.954557e+00
  1.087892e+01    2.965534e+00
  1.091068e+01    2.932883e+00
  1.094243e+01    2.924406e+00
  1.097418e+01    2.896878e+00
  1.100593e+01    2.910972e+00
  1.103768e+01    2.938765e+00
  1.106943e+01    2.899060e+00
  1.110118e+01    2.883642e+00
  1.113293e+01    2.862458e+00
  1.116468e+01    2.850687e+00
  1.119644e+01    2.826725e+00
  1.122819e+01    2.853130e+00
  1.125994e+01    2.878964e+00
  1.129169e+01    2.867475e+00
  1.132344e+01    2.832048e+00
  1.135519e+01    2.844694e+00
  1.138694e+01    2.809064e+00
  1.141869e+01    2.781086e+00
  1.145045e+01    2.834878e+00
  1.148220e+01    2.761570e+00
  1.151395e+01    2.786834e+00
  1.154570e+01    2.785825e+00
  1.157745e+01    2.778007e+00
  1.160920e+01    2.717155e+00
  1.164095e+01    2.748863e+00
  1.167270e+01    2.788970e+00
  1.170445e+01    2.794819e+00
  1.173621e+01    2.768966e+00
  1.176796e+01    2.710974e+00
  1.179971e+01    2.717414e+00
  1.183146e+01    2.725529e+00
  1.186321e+01    2.738580e+00
  1.189496e+01    2.737053e+00
  1.192671e+01    2.691614e+00
  1.195846e+01    2.720324e+00
  1.199021e+01    2.756097e+00
  1.202197e+01    2.756959e+00
  1.205372e+01    2.696840e+00
  1.208547e+01    2.690864e+00
  1.211722e+01    2.721556e+00
  1.214897e+01    2.719808e+00
  1.218072e+01    2.713831e+00
  1.221247e+01    2.677110e+00
  1.224422e+01    2.658602e+00
  1.227597e+01    2.740134e+00
  1.230773e+01    2.708508e+00
  1.233948e+01    2.669480e+00
  1.237123e+01    2.642025e+00
  1.240298e+01    2.652212e+00
  1.243473e+01    2.674505e+00
  1.246648e+01    2.744386e+00
  1.249823e+01    2.756076e+00
  1.252998e+01    2.739151e+00
  1.256174e+01    2.704143e+00
  1.259349e+01    2.748015e+00
  1.262524e+01    2.736803e+00
  1.265699e+01    2.753879e+00
  1.268874e+01    2.758173e+00
  1.272049e+01    2.812085e+00
  1.275224e+01    2.875711e+00
  1.278399e+01    2.972582e+00
  1.281574e+01    3.058042e+00
  1.284750e+01    3.171615e+00
  1.287925e+01    3.355694e+00
  1.291100e+01    3.713459e+00
  1.294275e+01    4.152145e+00
  1.297450e+01    4.833436e+00
  1.300625e+01    6.035993e+00
  1.303800e+01    7.815175e+00
  1.306975e+01    1.031068e+01
  1.310150e+01    1.278772e+01
  1.313326e+01    1.493655e+01
  1.316501e+01    1.647464e+01
  1.319676e+01    1.578686e+01
  1.322851e+01    1.252998e+01
  1.326026e+01    9.093861e+00
  1.329201e+01    6.762639e+00
  1.332376e+01    5.309861e+00
  1.335551e+01    4.437227e+00
  1.338727e+01    3.819268e+00
  1.341902e+01    3.485088e+00
  1.345077e+01    3.281262e+00
  1.348252e+01    3.041105e+00
  1.351427e+01    2.915595e+00
  1.354602e+01    2.846692e+00
  1.357777e+01    2.744486e+00
  1.360952e+01    2.686056e+00
  1.364127e+01    2.601357e+00
  1.367303e+01    2.556865e+00
  1.370478e+01    2.557656e+00
  1.373653e+01    2.563338e+00
  1.376828e+01    2.453703e+00
  1.380003e+01    2.466349e+00
  1.383178e+01    2.448316e+00
  1.386353e+01    2.427091e+00
  1.389528e+01    2.453460e+00
  1.392703e+01    2.432161e+00
  1.395879e+01    2.413230e+00
  1.399054e+01    2.430067e+00
  1.402229e+01    2.377490e+00
  1.405404e+01    2.365993e+00
  1.408579e+01    2.322978e+00
  1.411754e+01    2.343481e+00
  1.414929e+01    2.336721e+00
  1.418104e+01    2.282508e+00
  1.421279e+01    2.244829e+00
  1.424455e+01    2.256161e+00
  1.427630e+01    2.294860e+00
  1.430805e+01    2.271161e+00
  1.433980e+01    2.239311e+00
  1.437155e+01    2.252076e+00
  1.440330e+01    2.204481e+00
  1.443505e+01    2.240277e+00
  1.446680e+01    2.257546e+00
  1.449856e+01    2.230317e+00
  1.453031e+01    2.222193e+00
  1.456206e+01    2.206298e+00
  1.459381e+01    2.208652e+00
  1.462556e+01    2.234313e+00
  1.465731e+01    2.198765e+00
  1.468906e+01    2.202603e+00
  1.472081e+01    2.221189e+00
  1.475256e+01    2.192453e+00
  1.478432e+01    2.237789e+00
  1.481607e+01    2.212178e+00
  1.484782e+01    2.170986e+00
  1.487957e+01    2.228212e+00
  1.491132e+01    2.244408e+00
  1.494307e+01    2.273531e+00
  1.497482e+01    2.347391e+00
  1.500657e+01    2.429188e+00
  1.503832e+01    2.588283e+00
  1.507008e+01    2.831255e+00
  1.510183e+01    3.200894e+00
  1.513358e+01    3.889524e+00
  1.516533e+01    4.613475e+00
  1.519708e+01    5.155867e+00
  1.522883e+01    5.656733e+00
  1.526058e+01    5.941035e+00
  1.529233e+01    5.482591e+00
  1.532409e+01    4.746933e+00
  1.535584e+01    3.750084e+00
  1.538759e+01    3.132409e+00
  1.541934e+01    2.790990e+00
  1.545109e+01    2.494515e+00
  1.548284e+01    2.313342e+00
  1.551459e+01    2.283258e+00
  1.554634e+01    2.181683e+00
  1.557809e+01    2.107583e+00
  1.560985e+01    2.096975e+00
  1.564160e+01    2.026036e+00
  1.567335e+01    2.044528e+00
  1.570510e+01    2.041122e+00
  1.573685e+01    1.995414e+00
  1.576860e+01    1.933534e+00
  1.580035e+01    1.951230e+00
  1.583210e+01    1.924832e+00
  1.586385e+01    1.938345e+00
  1.589561e+01    1.928877e+00
  1.592736e+01    1.952010e+00
  1.595911e+01    1.898817e+00
  1.599086e+01    1.902591e+00
  1.602261e+01    1.827531e+00
  1.605436e+01    1.830406e+00
  1.608611e+01    1.864487e+00
  1.611786e+01    1.847137e+00
  1.614961e+01    1.834747e+00
  1.618137e+01    1.833042e+00
  1.621312e+01    1.812797e+00
  1.624487e+01    1.815596e+00
  1.627662e+01    1.777906e+00
  1.630837e+01    1.819284e+00
  1.634012e+01    1.804489e+00
  1.637187e+01    1.793470e+00
  1.640362e+01    1.775163e+00
  1.643538e+01    1.790246e+00
  1.646713e+01    1.776129e+00
  1.649888e+01    1.767814e+00
  1.653063e+01    1.751925e+00
  1.656238e+01    1.744511e+00
  1.659413e+01    1.745051e+00
  1.662588e+01    1.716985e+00
  1.665763e+01    1.715915e+00
  1.668938e+01    1.717011e+00
  1.672114e+01    1.693510e+00
  1.675289e+01    1.706940e+00
  1.678464e+01    1.684281e+00
  1.681639e+01    1.685055e+00
  1.684814e+01    1.687954e+00
  1.687989e+01    1.717017e+00
  1.691164e+01    1.710278e+00
  1.694339e+01    1.674318e+00
  1.697514e+01    1.702310e+00
  1.700690e+01    1.672671e+00
  1.703865e+01    1.674342e+00
  1.707040e+01    1.670882e+00
  1.710215e+01    1.663280e+00
  1.713390e+01    1.674251e+00
  1.716565e+01    1.606400e+00
  1.719740e+01    1.615017e+00
  1.722915e+01    1.620738e+00
  1.726091e+01    1.607664e+00
  1.729266e+01    1.613086e+00
  1.732441e+01    1.599630e+00
  1.735616e+01    1.620713e+00
  1.738791e+01    1.566946e+00
  1.741966e+01    1.591076e+00
  1.745141e+01    1.604105e+00
  1.748316e+01    1.585765e+00
  1.751491e+01    1.599459e+00
  1.754667e+01    1.601272e+00
  1.757842e+01    1.575946e+00
  1.761017e+01    1.573362e+00
  1.764192e+01    1.568775e+00
  1.767367e+01    1.565647e+00
  1.770542e+01    1.520041e+00
  1.773717e+01    1.610654e+00
  1.776892e+01    1.558262e+00
  1.780067e+01    1.533229e+00
  1.783243e+01    1.567050e+00
  1.786418e+01    1.548819e+00
  1.789593e+01    1.553087e+00
  1.792768e+01    1.522478e+00
  1.795943e+01    1.485157e+00
  1.799118e+01    1.508458e+00
  1.802293e+01    1.510207e+00
  1.805468e+01    1.500083e+00
  1.808643e+01    1.517493e+00
  1.811819e+01    1.516288e+00
  1.814994e+01    1.486990e+00
  1.818169e+01    1.467569e+00
  1.821344e+01    1.463684e+00
  1.824519e+01    1.488001e+00
  1.827694e+01    1.500482e+00
  1.830869e+01    1.443838e+00
  1.834044e+01    1.482171e+00
  1.837220e+01    1.470439e+00
  1.840395e+01    1.490186e+00
  1.843570e+01    1.440160e+00
  1.846745e+01    1.438360e+00
  1.849920e+01    1.446912e+00
  1.853095e+01    1.450220e+00
  1.856270e+01    1.461431e+00
  1.859445e+01    1.406711e+00
  1.862620e+01    1.427732e+00
  1.865796e+01    1.449139e+00
  1.868971e+01    1.395404e+00
  1.872146e+01    1.435880e+00
  1.875321e+01    1.415857e+00
  1.878496e+01    1.399274e+00
  1.881671e+01    1.416067e+00
  1.884846e+01    1.434337e+00
  1.888021e+01    1.415116e+00
  1.891196e+01    1.385061e+00
  1.894372e+01    1.363243e+00
  1.897547e+01    1.384788e+00
  1.900722e+01    1.381041e+00
  1.903897e+01    1.356759e+00
  1.907072e+01    1.406379e+00
  1.910247e+01    1.362661e+00
  1.913422e+01    1.364259e+00
  1.916597e+01    1.420881e+00
  1.919773e+01    1.385482e+00
  1.922948e+01    1.366755e+00
  1.926123e+01    1.350669e+00
  1.929298e+01    1.355653e+00
  1.932473e+01    1.346785e+00
  1.935648e+01    1.374725e+00
  1.938823e+01    1.340375e+00
  1.941998e+01    1.340663e+00
  1.945173e+01    1.332980e+00
  1.948349e+01    1.307215e+00
  1.951524e+01    1.354722e+00
  1.954699e+01    1.329744e+00
  1.957874e+01    1.342514e+00
  1.961049e+01    1.324262e+00
  1.964224e+01    1.334796e+00
  1.967399e+01    1.303417e+00
  1.970574e+01    1.338077e+00
  1.973749e+01    1.305340e+00
  1.976925e+01    1.307106e+00
  1.980100e+01    1.310351e+00
  1.983275e+01    1.309656e+00
  1.986450e+01    1.295321e+00
  1.989625e+01    1.258003e+00
  1.992800e+01    1.286488e+00
  1.995975e+01    1.303666e+00
  1.999150e+01    1.269416e+00
  2.002325e+01    1.269175e+00
  2.005501e+01    1.266350e+00
  2.008676e+01    1.259115e+00
  2.011851e+01    1.258302e+00
  2.015026e+01    1.280544e+00
  2.018201e+01    1.270670e+00
  2.021376e+01    1.268888e+00
  2.024551e+01    1.252635e+00
  2.027726e+01    1.259485e+00
  2.030902e+01    1.259737e+00
  2.034077e+01    1.253639e+00
  2.037252e+01    1.288742e+00
  2.040427e+01    1.226912e+00
  2.043602e+01    1.255775e+00
  2.046777e+01    1.229897e+00
  2.049952e+01    1.238022e+00
  2.053127e+01    1.220674e+00
  2.056302e+01    1.252516e+00
  2.059478e+01    1.233578e+00
  2.062653e+01    1.250058e+00
  2.065828e+01    1.251893e+00
  2.069003e+01    1.235657e+00
  2.072178e+01    1.243336e+00
  2.075353e+01    1.230407e+00
  2.078528e+01    1.242467e+00
  2.081703e+01    1.234564e+00
  2.084878e+01    1.247503e+00
  2.088054e+01    1.214373e+00
  2.091229e+01    1.242103e+00
  2.094404e+01    1.206048e+00
  2.097579e+01    1.242119e+00
  2.100754e+01    1.230301e+00
  2.103929e+01    1.243569e+00
  2.107104e+01    1.219084e+00
  2.110279e+01    1.233849e+00
  2.113455e+01    1.220482e+00
  2.116630e+01    1.261210e+00
  2.119805e+01    1.247753e+00
  2.122980e+01    1.235953e+00
  2.126155e+01    1.266417e+00
  2.129330e+01    1.277453e+00
  2.132505e+01    1.265699e+00
  2.135680e+01    1.277738e+00
  2.138855e+01    1.314310e+00
  2.142031e+01    1.337668e+00
  2.145206e+01    1.366233e+00
  2.148381e+01    1.403668e+00
  2.151556e+01    1.477776e+00
  2.154731e+01    1.523791e+00
  2.157906e+01    1.607393e+00
  2.161081e+01    1.748210e+00
  2.164256e+01    2.007361e+00
  2.167431e+01    2.298326e+00
  2.170607e+01    2.859201e+00
  2.173782e+01    3.551303e+00
  2.176957e+01    4.688118e+00
  2.180132e+01    5.914487e+00
  2.183307e+01    7.224440e+00
  2.186482e+01    8.530549e+00
  2.189657e+01    9.000481e+00
  2.192832e+01    8.278680e+00
  2.196007e+01    6.528254e+00
  2.199183e+01    4.879915e+00
  2.202358e+01    3.626861e+00
  2.205533e+01    2.830590e+00
  2.208708e+01    2.344985e+00
  2.211883e+01    2.025335e+00
  2.215058e+01    1.734377e+00
  2.218233e+01    1.618973e+00
  2.221408e+01    1.516913e+00
  2.224584e+01    1.411408e+00
  2.227759e+01    1.355456e+00
  2.230934e+01    1.297369e+00
  2.234109e+01    1.292289e+00
  2.237284e+01    1.246245e+00
  2.240459e+01    1.187026e+00
  2.243634e+01    1.194873e+00
  2.246809e+01    1.158285e+00
  2.249984e+01    1.151201e+00
  2.253160e+01    1.143830e+00
  2.256335e+01    1.145903e+00
  2.259510e+01    1.116311e+00
  2.262685e+01    1.107913e+00
  2.265860e+01    1.090114e+00
  2.269035e+01    1.068441e+00
  2.272210e+01    1.081346e+00
  2.275385e+01    1.067634e+00
  2.278560e+01    1.057453e+00
  2.281736e+01    1.064005e+00
  2.284911e+01    1.060536e+00
  2.288086e+01    1.044068e+00
  2.291261e+01    1.064958e+00
  2.294436e+01    1.045488e+00
  2.297611e+01    1.040093e+00
  2.300786e+01    1.018748e+00
  2.303961e+01    1.018068e+00
  2.307137e+01    1.006882e+00
  2.310312e+01    1.024829e+00
  2.313487e+01    9.880709e-01
  2.316662e+01    1.008303e+00
  2.319837e+01    9.780632e-01
  2.323012e+01    1.009709e+00
  2.326187e+01    9.875621e-01
  2.329362e+01    9.695044e-01
  2.332537e+01    9.843175e-01
  2.335713e+01    9.882257e-01
  2.338888e+01    9.822038e-01
  2.342063e+01    9.726107e-01
  2.345238e+01    9.629558e-01
  2.348413e+01    9.613988e-01
  2.351588e+01    9.335911e-01
  2.354763e+01    9.651520e-01
  2.357938e+01    9.560301e-01
  2.361113e+01    9.500331e-01
  2.364289e+01    9.449008e-01
  2.367464e+01    9.499772e-01
  2.370639e+01    9.470191e-01
  2.373814e+01    9.334704e-01
  2.376989e+01    9.303837e-01
  2.380164e+01    9.312491e-01
  2.383339e+01    9.268733e-01
  2.386514e+01    9.146414e-01
  2.389689e+01    9.313338e-01
  2.392865e+01    9.272066e-01
  2.396040e+01    9.112176e-01
  2.399215e+01    8.979622e-01
  2.402390e+01    8.991744e-01
  2.405565e+01    8.855504e-01
  2.408740e+01    8.995343e-01
  2.411915e+01    8.951072e-01
  2.415090e+01    8.868127e-01
  2.418266e+01    8.967383e-01
  2.421441e+01    8.890691e-01
  2.424616e+01    8.713764e-01
  2.427791e+01    8.885059e-01
  2.430966e+01    8.702638e-01
  2.434141e+01    8.831209e-01
  2.437316e+01    8.912994e-01
  2.440491e+01    8.974962e-01
  2.443666e+01    9.066447e-01
  2.446842e+01    8.851720e-01
  2.450017e+01    8.960183e-01
  2.453192e+01    8.979318e-01
  2.456367e+01    8.809325e-01
  2.459542e+01    8.972170e-01
  2.462717e+01    8.852548e-01
  2.465892e+01    8.991666e-01
  2.469067e+01    8.939095e-01
  2.472242e+01    8.990631e-01
  2.475418e+01    8.954694e-01
  2.478593e+01    8.935342e-01
  2.481768e+01    8.891293e-01
  2.484943e+01    8.908091e-01
  2.488118e+01    8.969119e-01
  2.491293e+01    8.826563e-01
  2.494468e+01    8.914346e-01
  2.497643e+01    8.935714e-01
  2.500819e+01    9.155561e-01
  2.503994e+01    8.863390e-01
  2.507169e+01    8.965154e-01
  2.510344e+01    9.035893e-01
  2.513519e+01    9.090587e-01
  2.516694e+01    9.145148e-01
  2.519869e+01    9.189446e-01
  2.523044e+01    9.365682e-01
  2.526219e+01    9.414533e-01
  2.529395e+01    9.511513e-01
  2.532570e+01    9.526936e-01
  2.535745e+01    9.783996e-01
  2.538920e+01    9.929579e-01
  2.542095e+01    9.967301e-01
  2.545270e+01    1.022942e+00
  2.548445e+01    1.046094e+00
  2.551620e+01    1.096685e+00
  2.554795e+01    1.115402e+00
  2.557971e+01    1.178730e+00
  2.561146e+01    1.222029e+00
  2.564321e+01    1.320916e+00
  2.567496e+01    1.428870e+00
  2.570671e+01    1.617851e+00
  2.573846e+01    1.876514e+00
  2.577021e+01    2.281235e+00
  2.580196e+01    2.891260e+00
  2.583371e+01    3.673243e+00
  2.586547e+01    4.804847e+00
  2.589722e+01    5.884279e+00
  2.592897e+01    6.873044e+00
  2.596072e+01    7.221138e+00
  2.599247e+01    6.555724e+00
  2.602422e+01    5.269496e+00
  2.605597e+01    3.940544e+00
  2.608772e+01    2.953408e+00
  2.611948e+01    2.354302e+00
  2.615123e+01    1.960096e+00
  2.618298e+01    1.655979e+00
  2.621473e+01    1.479763e+00
  2.624648e+01    1.341695e+00
  2.627823e+01    1.245419e+00
  2.630998e+01    1.198590e+00
  2.634173e+01    1.122709e+00
  2.637348e+01    1.075742e+00
  2.640524e+01    1.056793e+00
  2.643699e+01    1.037868e+00
  2.646874e+01    1.009948e+00
  2.650049e+01    1.000105e+00
  2.653224e+01    9.900185e-01
  2.656399e+01    9.840713e-01
  2.659574e+01    9.845523e-01
  2.662749e+01    9.675823e-01
  2.665924e+01    9.702461e-01
  2.669100e+01    9.685377e-01
  2.672275e+01    9.820228e-01
  2.675450e+01    9.661949e-01
  2.678625e+01    9.708098e-01
  2.681800e+01    9.874040e-01
  2.684975e+01    9.926888e-01
  2.688150e+01    9.931047e-01
  2.691325e+01    1.035633e+00
  2.694501e+01    1.042383e+00
  2.697676e+01    1.059957e+00
  2.700851e+01    1.123875e+00
  2.704026e+01    1.190347e+00
  2.707201e+01    1.354192e+00
  2.710376e+01    1.479382e+00
  2.713551e+01    1.728267e+00
  2.716726e+01    2.015417e+00
  2.719901e+01    2.156009e+00
  2.723077e+01    2.170935e+00
  2.726252e+01    1.986089e+00
  2.729427e+01    1.684782e+00
  2.732602e+01    1.416134e+00
  2.735777e+01    1.266246e+00
  2.738952e+01    1.176328e+00
  2.742127e+01    1.119167e+00
  2.745302e+01    1.033425e+00
  2.748477e+01    9.819847e-01
  2.751653e+01    1.004338e+00
  2.754828e+01    9.770705e-01
  2.758003e+01    9.355705e-01
  2.761178e+01    9.216697e-01
  2.764353e+01    9.066116e-01
  2.767528e+01    9.182775e-01
  2.770703e+01    8.956448e-01
  2.773878e+01    9.119507e-01
  2.777054e+01    9.023170e-01
  2.780229e+01    9.032169e-01
  2.783404e+01    9.151825e-01
  2.786579e+01    8.903643e-01
  2.789754e+01    8.810157e-01
  2.792929e+01    8.794657e-01
  2.796104e+01    8.749673e-01
  2.799279e+01    8.697394e-01
  2.802454e+01    8.608758e-01
  2.805630e+01    8.599517e-01
  2.808805e+01    8.628101e-01
  2.811980e+01    8.549344e-01
  2.815155e+01    8.587581e-01
  2.818330e+01    8.753064e-01
  2.821505e+01    8.640032e-01
  2.824680e+01    8.599996e-01
  2.827855e+01    8.578361e-01
  2.831030e+01    8.376914e-01
  2.834206e+01    8.445215e-01
  2.837381e+01    8.324615e-01
  2.840556e+01    8.335507e-01
  2.843731e+01    8.209293e-01
  2.846906e+01    8.372526e-01
  2.850081e+01    8.394709e-01
  2.853256e+01    8.421589e-01
  2.856431e+01    8.324666e-01
  2.859606e+01    8.400983e-01
  2.862782e+01    8.353190e-01
  2.865957e+01    8.419837e-01
  2.869132e+01    8.664004e-01
  2.872307e+01    8.448722e-01
  2.875482e+01    8.269038e-01
  2.878657e+01    8.083723e-01
  2.881832e+01    8.408624e-01
  2.885007e+01    8.323391e-01
  2.888183e+01    8.049150e-01
  2.891358e+01    8.385676e-01
  2.894533e+01    8.328044e-01
  2.897708e+01    8.388841e-01
  2.900883e+01    8.173336e-01
  2.904058e+01    7.973098e-01
  2.907233e+01    8.239528e-01
  2.910408e+01    8.175121e-01
  2.913583e+01    8.441029e-01
  2.916759e+01    8.233992e-01
  2.919934e+01    8.221380e-01
  2.923109e+01    7.972192e-01
  2.926284e+01    8.115168e-01
  2.929459e+01    8.209785e-01
  2.932634e+01    8.108539e-01
  2.935809e+01    8.182733e-01
  2.938984e+01    7.946281e-01
  2.942159e+01    7.991893e-01
  2.945335e+01    7.922602e-01
  2.948510e+01    8.036371e-01
  2.951685e+01    7.990242e-01
  2.954860e+01    8.131558e-01
  2.958035e+01    8.315715e-01
  2.961210e+01    7.954855e-01
  2.964385e+01    7.799886e-01
  2.967560e+01    7.886541e-01
  2.970736e+01    8.076310e-01
  2.973911e+01    7.910626e-01
  2.977086e+01    7.968624e-01
  2.980261e+01    7.893549e-01
  2.983436e+01    8.116657e-01
  2.986611e+01    7.941687e-01
  2.989786e+01    8.235062e-01
  2.992961e+01    7.996203e-01
  2.996136e+01    8.055672e-01
  2.999312e+01    7.960097e-01
  3.002487e+01    8.012953e-01
  3.005662e+01    8.175999e-01
  3.008837e+01    8.208401e-01
  3.012012e+01    8.135808e-01
  3.015187e+01    7.959722e-01
  3.018362e+01    8.032781e-01
  3.021537e+01    7.918611e-01
  3.024712e+01    7.720364e-01
  3.027888e+01    7.780282e-01
  3.031063e+01    7.856982e-01
  3.034238e+01    7.911232e-01
  3.037413e+01    8.098817e-01
  3.040588e+01    7.809092e-01
  3.043763e+01    7.815546e-01
  3.046938e+01    7.886984e-01
  3.050113e+01    8.172787e-01
  3.053288e+01    7.762949e-01
  3.056464e+01    8.027268e-01
  3.059639e+01    8.064753e-01
  3.062814e+01    7.630942e-01
  3.065989e+01    7.788938e-01
  3.069164e+01    7.818533e-01
  3.072339e+01    7.862765e-01
  3.075514e+01    7.766616e-01
  3.078689e+01    7.811200e-01
  3.081865e+01    7.724218e-01
  3.085040e+01    8.043596e-01
  3.088215e+01    7.993880e-01
  3.091390e+01    8.156715e-01
  3.094565e+01    7.839497e-01
  3.097740e+01    7.711132e-01
  3.100915e+01    7.908565e-01
  3.104090e+01    7.792618e-01
  3.107265e+01    7.904806e-01
  3.110441e+01    8.018337e-01
  3.113616e+01    7.885295e-01
  3.116791e+01    8.110360e-01
  3.119966e+01    7.951014e-01
  3.123141e+01    8.000957e-01
  3.126316e+01    7.689583e-01
  3.129491e+01    7.854456e-01
  3.132666e+01    7.933720e-01
  3.135841e+01    7.924320e-01
  3.139017e+01    8.115411e-01
  3.142192e+01    7.977948e-01
  3.145367e+01    8.400165e-01
  3.148542e+01    8.257699e-01
  3.151717e+01    8.750991e-01
  3.154892e+01    8.402297e-01
  3.158067e+01    8.440735e-01
  3.161242e+01    9.036947e-01
  3.164418e+01    9.303356e-01
  3.167593e+01    9.711460e-01
  3.170768e+01    1.036695e+00
  3.173943e+01    1.160290e+00
  3.177118e+01    1.262942e+00
  3.180293e+01    1.478468e+00
  3.183468e+01    1.727351e+00
  3.186643e+01    1.953953e+00
  3.189818e+01    2.096831e+00
  3.192994e+01    2.035033e+00
  3.196169e+01    1.833133e+00
  3.199344e+01    1.552387e+00
  3.202519e+01    1.343072e+00
  3.205694e+01    1.175687e+00
  3.208869e+01    1.030260e+00
  3.212044e+01    9.771505e-01
  3.215219e+01    9.041855e-01
  3.218394e+01    8.968237e-01
  3.221570e+01    8.621427e-01
  3.224745e+01    8.203770e-01
  3.227920e+01    8.366114e-01
  3.231095e+01    8.276425e-01
  3.234270e+01    8.129554e-01
  3.237445e+01    7.834418e-01
  3.240620e+01    7.934849e-01
  3.243795e+01    7.867860e-01
  3.246970e+01    8.043922e-01
  3.250146e+01    7.884787e-01
  3.253321e+01    7.882501e-01
  3.254908e+01    7.827884e-01