File: XRD/Reaction conditions/2024-07-27_003_Ru-CGO-ex_Reaction_dwell_000023_data_000153.dat
# == pyFAI calibration ==
# Distance Sample to Detector: 0.4 m
# PONI: 9.750e-02, 1.135e-01 m
# Rotations: -0.000175 0.000000 -0.000000 rad
#
# == Fit2d calibration ==
# Distance Sample-beamCenter: 400.000 mm
# Center: x=1514.000, y=1300.000 pix
# Tilt: 0.010 deg  TiltPlanRot: 0.010 deg
#
# Detector Detector	 Spline= None	 PixelSize= 7.500e-05, 7.500e-05 m
#    Detector has a mask: False
#    Detector has a dark current: False
#    detector has a flat field: False
#
# Wavelength: 6.888e-11 m
# Mask applied: user provided
# Dark current applied: False
# Flat field applied: False
# Polarization factor: 0.99
# Normalization factor: 1.0
# --> /home/myspot/data/2024_07_Rosario/Ru-CGO-ex/2024-07-27_003_Ru-CGO-ex_Reaction_dwell_000023_data_000153.dat
#       q_nm^-1             I
  2.003187e-02    0.000000e+00
  5.178302e-02    1.504137e-01
  8.353417e-02    4.781976e-02
  1.152853e-01    5.304937e-02
  1.470365e-01    1.243712e-02
  1.787876e-01    4.506774e-02
  2.105388e-01    1.404426e-02
  2.422899e-01    3.100658e-02
  2.740411e-01    4.468068e-02
  3.057922e-01    4.403802e-02
  3.375433e-01    7.061920e-02
  3.692945e-01    4.552545e-02
  4.010456e-01    4.317430e-02
  4.327968e-01    2.642566e-02
  4.645479e-01    4.226954e-02
  4.962991e-01    3.689857e-02
  5.280502e-01    6.090415e-02
  5.598014e-01    3.702336e-02
  5.915525e-01    4.189712e-02
  6.233037e-01    3.829604e-02
  6.550548e-01    4.286658e-02
  6.868060e-01    4.829598e-02
  7.185571e-01    4.806090e-02
  7.503083e-01    6.840586e-02
  7.820594e-01    8.981752e-02
  8.138106e-01    1.754911e-01
  8.455617e-01    3.556131e-01
  8.773129e-01    5.154360e-01
  9.090640e-01    6.818961e-01
  9.408152e-01    7.219810e-01
  9.725663e-01    9.019535e-01
  1.004317e+00    1.179015e+00
  1.036069e+00    1.404519e+00
  1.067820e+00    1.447195e+00
  1.099571e+00    1.543769e+00
  1.131322e+00    1.568170e+00
  1.163073e+00    1.613922e+00
  1.194824e+00    1.909902e+00
  1.226575e+00    2.131065e+00
  1.258327e+00    2.374802e+00
  1.290078e+00    2.530131e+00
  1.321829e+00    2.795951e+00
  1.353580e+00    2.688373e+00
  1.385331e+00    2.848632e+00
  1.417082e+00    2.933089e+00
  1.448834e+00    2.958239e+00
  1.480585e+00    2.909697e+00
  1.512336e+00    3.329265e+00
  1.544087e+00    3.210032e+00
  1.575838e+00    3.241358e+00
  1.607589e+00    3.066464e+00
  1.639340e+00    3.178254e+00
  1.671092e+00    3.325669e+00
  1.702843e+00    3.002159e+00
  1.734594e+00    3.167799e+00
  1.766345e+00    3.068988e+00
  1.798096e+00    3.065461e+00
  1.829847e+00    3.034793e+00
  1.861598e+00    3.007607e+00
  1.893350e+00    3.099357e+00
  1.925101e+00    2.937173e+00
  1.956852e+00    2.928622e+00
  1.988603e+00    3.029924e+00
  2.020354e+00    3.106491e+00
  2.052105e+00    3.018254e+00
  2.083856e+00    3.100385e+00
  2.115608e+00    3.066850e+00
  2.147359e+00    3.126820e+00
  2.179110e+00    3.027263e+00
  2.210861e+00    3.215785e+00
  2.242612e+00    3.197355e+00
  2.274363e+00    3.133666e+00
  2.306115e+00    3.191863e+00
  2.337866e+00    3.229167e+00
  2.369617e+00    3.022283e+00
  2.401368e+00    3.095073e+00
  2.433119e+00    3.194999e+00
  2.464870e+00    3.139904e+00
  2.496621e+00    3.250700e+00
  2.528373e+00    3.171607e+00
  2.560124e+00    3.246646e+00
  2.591875e+00    3.200459e+00
  2.623626e+00    3.135614e+00
  2.655377e+00    3.196299e+00
  2.687128e+00    3.077762e+00
  2.718879e+00    3.155494e+00
  2.750631e+00    3.261842e+00
  2.782382e+00    3.216555e+00
  2.814133e+00    3.205434e+00
  2.845884e+00    3.291648e+00
  2.877635e+00    3.258514e+00
  2.909386e+00    3.309820e+00
  2.941137e+00    3.392682e+00
  2.972889e+00    3.366616e+00
  3.004640e+00    3.334948e+00
  3.036391e+00    3.298575e+00
  3.068142e+00    3.287340e+00
  3.099893e+00    3.309786e+00
  3.131644e+00    3.422524e+00
  3.163395e+00    3.396994e+00
  3.195147e+00    3.340788e+00
  3.226898e+00    3.453666e+00
  3.258649e+00    3.370797e+00
  3.290400e+00    3.438144e+00
  3.322151e+00    3.401616e+00
  3.353902e+00    3.427731e+00
  3.385654e+00    3.462486e+00
  3.417405e+00    3.422784e+00
  3.449156e+00    3.447709e+00
  3.480907e+00    3.512079e+00
  3.512658e+00    3.433664e+00
  3.544409e+00    3.518092e+00
  3.576160e+00    3.437072e+00
  3.607912e+00    3.418088e+00
  3.639663e+00    3.563755e+00
  3.671414e+00    3.462139e+00
  3.703165e+00    3.512771e+00
  3.734916e+00    3.303254e+00
  3.766667e+00    3.450516e+00
  3.798418e+00    3.502699e+00
  3.830170e+00    3.464812e+00
  3.861921e+00    3.523785e+00
  3.893672e+00    3.341522e+00
  3.925423e+00    3.422954e+00
  3.957174e+00    3.598994e+00
  3.988925e+00    3.552071e+00
  4.020676e+00    3.532593e+00
  4.052428e+00    3.576691e+00
  4.084179e+00    3.601102e+00
  4.115930e+00    3.536796e+00
  4.147681e+00    3.487470e+00
  4.179432e+00    3.503932e+00
  4.211183e+00    3.587175e+00
  4.242935e+00    3.543335e+00
  4.274686e+00    3.572091e+00
  4.306437e+00    3.591260e+00
  4.338188e+00    3.616338e+00
  4.369939e+00    3.575955e+00
  4.401690e+00    3.597567e+00
  4.433441e+00    3.609106e+00
  4.465193e+00    3.625570e+00
  4.496944e+00    3.505276e+00
  4.528695e+00    3.626436e+00
  4.560446e+00    3.550521e+00
  4.592197e+00    3.598154e+00
  4.623948e+00    3.624185e+00
  4.655699e+00    3.594756e+00
  4.687451e+00    3.640203e+00
  4.719202e+00    3.597964e+00
  4.750953e+00    3.607317e+00
  4.782704e+00    3.661064e+00
  4.814455e+00    3.611513e+00
  4.846206e+00    3.658865e+00
  4.877957e+00    3.643202e+00
  4.909709e+00    3.641113e+00
  4.941460e+00    3.667120e+00
  4.973211e+00    3.587730e+00
  5.004962e+00    3.678850e+00
  5.036713e+00    3.604381e+00
  5.068464e+00    3.619190e+00
  5.100216e+00    3.678397e+00
  5.131967e+00    3.607346e+00
  5.163718e+00    3.635568e+00
  5.195469e+00    3.500157e+00
  5.227220e+00    3.701982e+00
  5.258971e+00    3.620508e+00
  5.290722e+00    3.595095e+00
  5.322474e+00    3.667286e+00
  5.354225e+00    3.564202e+00
  5.385976e+00    3.618585e+00
  5.417727e+00    3.613045e+00
  5.449478e+00    3.603633e+00
  5.481229e+00    3.635692e+00
  5.512980e+00    3.548499e+00
  5.544732e+00    3.606659e+00
  5.576483e+00    3.587467e+00
  5.608234e+00    3.609408e+00
  5.639985e+00    3.615472e+00
  5.671736e+00    3.684926e+00
  5.703487e+00    3.529346e+00
  5.735238e+00    3.574192e+00
  5.766990e+00    3.591492e+00
  5.798741e+00    3.556206e+00
  5.830492e+00    3.581525e+00
  5.862243e+00    3.487180e+00
  5.893994e+00    3.513112e+00
  5.925745e+00    3.421422e+00
  5.957497e+00    3.549142e+00
  5.989248e+00    3.627925e+00
  6.020999e+00    3.486799e+00
  6.052750e+00    3.530303e+00
  6.084501e+00    3.502571e+00
  6.116252e+00    3.618627e+00
  6.148003e+00    3.536992e+00
  6.179755e+00    3.612777e+00
  6.211506e+00    3.535724e+00
  6.243257e+00    3.513490e+00
  6.275008e+00    3.581031e+00
  6.306759e+00    3.490935e+00
  6.338510e+00    3.468266e+00
  6.370261e+00    3.592504e+00
  6.402013e+00    3.502317e+00
  6.433764e+00    3.581285e+00
  6.465515e+00    3.530719e+00
  6.497266e+00    3.545256e+00
  6.529017e+00    3.523334e+00
  6.560768e+00    3.571352e+00
  6.592519e+00    3.577066e+00
  6.624271e+00    3.507183e+00
  6.656022e+00    3.506263e+00
  6.687773e+00    3.507540e+00
  6.719524e+00    3.557821e+00
  6.751275e+00    3.564526e+00
  6.783026e+00    3.554428e+00
  6.814777e+00    3.536901e+00
  6.846529e+00    3.452268e+00
  6.878280e+00    3.576936e+00
  6.910031e+00    3.454138e+00
  6.941782e+00    3.471681e+00
  6.973533e+00    3.563331e+00
  7.005284e+00    3.442052e+00
  7.037036e+00    3.561733e+00
  7.068787e+00    3.527550e+00
  7.100538e+00    3.543600e+00
  7.132289e+00    3.503592e+00
  7.164040e+00    3.411743e+00
  7.195791e+00    3.459912e+00
  7.227542e+00    3.466624e+00
  7.259294e+00    3.494172e+00
  7.291045e+00    3.517536e+00
  7.322796e+00    3.555523e+00
  7.354547e+00    3.476589e+00
  7.386298e+00    3.396732e+00
  7.418049e+00    3.465472e+00
  7.449800e+00    3.548943e+00
  7.481552e+00    3.552007e+00
  7.513303e+00    3.473478e+00
  7.545054e+00    3.475054e+00
  7.576805e+00    3.508605e+00
  7.608556e+00    3.462302e+00
  7.640307e+00    3.436388e+00
  7.672058e+00    3.402553e+00
  7.703810e+00    3.403421e+00
  7.735561e+00    3.335881e+00
  7.767312e+00    3.436888e+00
  7.799063e+00    3.470125e+00
  7.830814e+00    3.409281e+00
  7.862565e+00    3.417779e+00
  7.894317e+00    3.419627e+00
  7.926068e+00    3.337557e+00
  7.957819e+00    3.379632e+00
  7.989570e+00    3.369756e+00
  8.021321e+00    3.412270e+00
  8.053072e+00    3.426957e+00
  8.084823e+00    3.481484e+00
  8.116575e+00    3.415521e+00
  8.148326e+00    3.458875e+00
  8.180077e+00    3.440901e+00
  8.211828e+00    3.446562e+00
  8.243579e+00    3.427991e+00
  8.275330e+00    3.361069e+00
  8.307081e+00    3.347447e+00
  8.338833e+00    3.292405e+00
  8.370584e+00    3.368619e+00
  8.402335e+00    3.408486e+00
  8.434086e+00    3.325255e+00
  8.465837e+00    3.380693e+00
  8.497588e+00    3.397379e+00
  8.529339e+00    3.347719e+00
  8.561091e+00    3.330960e+00
  8.592842e+00    3.334655e+00
  8.624593e+00    3.288097e+00
  8.656344e+00    3.377854e+00
  8.688095e+00    3.318460e+00
  8.719846e+00    3.354940e+00
  8.751598e+00    3.282299e+00
  8.783349e+00    3.323483e+00
  8.815100e+00    3.300268e+00
  8.846851e+00    3.257668e+00
  8.878602e+00    3.265157e+00
  8.910353e+00    3.318769e+00
  8.942104e+00    3.315334e+00
  8.973856e+00    3.310539e+00
  9.005607e+00    3.262441e+00
  9.037358e+00    3.239193e+00
  9.069109e+00    3.271269e+00
  9.100860e+00    3.303436e+00
  9.132611e+00    3.313921e+00
  9.164362e+00    3.218738e+00
  9.196114e+00    3.204962e+00
  9.227865e+00    3.294677e+00
  9.259616e+00    3.208793e+00
  9.291367e+00    3.175557e+00
  9.323118e+00    3.221266e+00
  9.354869e+00    3.245411e+00
  9.386620e+00    3.174023e+00
  9.418372e+00    3.147706e+00
  9.450123e+00    3.169495e+00
  9.481874e+00    3.248034e+00
  9.513625e+00    3.237324e+00
  9.545376e+00    3.194144e+00
  9.577127e+00    3.169527e+00
  9.608878e+00    3.232888e+00
  9.640630e+00    3.209633e+00
  9.672381e+00    3.217238e+00
  9.704132e+00    3.198741e+00
  9.735883e+00    3.237566e+00
  9.767634e+00    3.108114e+00
  9.799385e+00    3.215042e+00
  9.831137e+00    3.120367e+00
  9.862888e+00    3.176668e+00
  9.894639e+00    3.166890e+00
  9.926390e+00    3.119222e+00
  9.958141e+00    3.093149e+00
  9.989892e+00    3.124164e+00
  1.002164e+01    3.092755e+00
  1.005339e+01    3.075146e+00
  1.008515e+01    3.136086e+00
  1.011690e+01    3.063366e+00
  1.014865e+01    3.077191e+00
  1.018040e+01    3.075947e+00
  1.021215e+01    3.072254e+00
  1.024390e+01    3.008840e+00
  1.027565e+01    3.052288e+00
  1.030740e+01    3.082002e+00
  1.033915e+01    3.090497e+00
  1.037091e+01    3.055763e+00
  1.040266e+01    3.069419e+00
  1.043441e+01    2.998041e+00
  1.046616e+01    2.959238e+00
  1.049791e+01    3.006115e+00
  1.052966e+01    3.030553e+00
  1.056141e+01    3.019362e+00
  1.059316e+01    2.988876e+00
  1.062492e+01    2.983414e+00
  1.065667e+01    2.962970e+00
  1.068842e+01    2.983254e+00
  1.072017e+01    2.999064e+00
  1.075192e+01    2.965852e+00
  1.078367e+01    2.892667e+00
  1.081542e+01    2.948568e+00
  1.084717e+01    2.971867e+00
  1.087892e+01    2.912922e+00
  1.091068e+01    2.991040e+00
  1.094243e+01    2.910811e+00
  1.097418e+01    2.909452e+00
  1.100593e+01    2.871953e+00
  1.103768e+01    2.886324e+00
  1.106943e+01    2.918763e+00
  1.110118e+01    2.911845e+00
  1.113293e+01    2.826294e+00
  1.116468e+01    2.847305e+00
  1.119644e+01    2.840703e+00
  1.122819e+01    2.880823e+00
  1.125994e+01    2.827063e+00
  1.129169e+01    2.804827e+00
  1.132344e+01    2.807376e+00
  1.135519e+01    2.840149e+00
  1.138694e+01    2.883138e+00
  1.141869e+01    2.792489e+00
  1.145045e+01    2.809115e+00
  1.148220e+01    2.783799e+00
  1.151395e+01    2.725260e+00
  1.154570e+01    2.794449e+00
  1.157745e+01    2.762490e+00
  1.160920e+01    2.754195e+00
  1.164095e+01    2.785735e+00
  1.167270e+01    2.718005e+00
  1.170445e+01    2.730324e+00
  1.173621e+01    2.739599e+00
  1.176796e+01    2.776494e+00
  1.179971e+01    2.740094e+00
  1.183146e+01    2.733153e+00
  1.186321e+01    2.760883e+00
  1.189496e+01    2.721634e+00
  1.192671e+01    2.657479e+00
  1.195846e+01    2.767457e+00
  1.199021e+01    2.694738e+00
  1.202197e+01    2.657387e+00
  1.205372e+01    2.720740e+00
  1.208547e+01    2.735880e+00
  1.211722e+01    2.660020e+00
  1.214897e+01    2.668879e+00
  1.218072e+01    2.719444e+00
  1.221247e+01    2.647686e+00
  1.224422e+01    2.672262e+00
  1.227597e+01    2.666260e+00
  1.230773e+01    2.673189e+00
  1.233948e+01    2.697141e+00
  1.237123e+01    2.652799e+00
  1.240298e+01    2.697696e+00
  1.243473e+01    2.696506e+00
  1.246648e+01    2.653303e+00
  1.249823e+01    2.724787e+00
  1.252998e+01    2.677861e+00
  1.256174e+01    2.698994e+00
  1.259349e+01    2.710145e+00
  1.262524e+01    2.747696e+00
  1.265699e+01    2.787589e+00
  1.268874e+01    2.809835e+00
  1.272049e+01    2.830793e+00
  1.275224e+01    2.895580e+00
  1.278399e+01    2.966563e+00
  1.281574e+01    3.030204e+00
  1.284750e+01    3.193601e+00
  1.287925e+01    3.327473e+00
  1.291100e+01    3.665174e+00
  1.294275e+01    4.082189e+00
  1.297450e+01    4.720026e+00
  1.300625e+01    5.914451e+00
  1.303800e+01    7.712123e+00
  1.306975e+01    1.007204e+01
  1.310150e+01    1.266164e+01
  1.313326e+01    1.468436e+01
  1.316501e+01    1.622162e+01
  1.319676e+01    1.544602e+01
  1.322851e+01    1.237496e+01
  1.326026e+01    9.042892e+00
  1.329201e+01    6.686249e+00
  1.332376e+01    5.365530e+00
  1.335551e+01    4.433548e+00
  1.338727e+01    3.808090e+00
  1.341902e+01    3.472337e+00
  1.345077e+01    3.213380e+00
  1.348252e+01    3.069459e+00
  1.351427e+01    2.932607e+00
  1.354602e+01    2.835075e+00
  1.357777e+01    2.722624e+00
  1.360952e+01    2.669743e+00
  1.364127e+01    2.589088e+00
  1.367303e+01    2.590706e+00
  1.370478e+01    2.523444e+00
  1.373653e+01    2.524052e+00
  1.376828e+01    2.496740e+00
  1.380003e+01    2.475585e+00
  1.383178e+01    2.435617e+00
  1.386353e+01    2.458879e+00
  1.389528e+01    2.397981e+00
  1.392703e+01    2.371133e+00
  1.395879e+01    2.405750e+00
  1.399054e+01    2.429213e+00
  1.402229e+01    2.348057e+00
  1.405404e+01    2.339620e+00
  1.408579e+01    2.353120e+00
  1.411754e+01    2.296960e+00
  1.414929e+01    2.345062e+00
  1.418104e+01    2.320152e+00
  1.421279e+01    2.288347e+00
  1.424455e+01    2.282856e+00
  1.427630e+01    2.257231e+00
  1.430805e+01    2.289328e+00
  1.433980e+01    2.255194e+00
  1.437155e+01    2.258482e+00
  1.440330e+01    2.224839e+00
  1.443505e+01    2.239640e+00
  1.446680e+01    2.220837e+00
  1.449856e+01    2.212240e+00
  1.453031e+01    2.187215e+00
  1.456206e+01    2.213513e+00
  1.459381e+01    2.175719e+00
  1.462556e+01    2.255705e+00
  1.465731e+01    2.167326e+00
  1.468906e+01    2.197324e+00
  1.472081e+01    2.211649e+00
  1.475256e+01    2.230953e+00
  1.478432e+01    2.202964e+00
  1.481607e+01    2.197334e+00
  1.484782e+01    2.160834e+00
  1.487957e+01    2.190114e+00
  1.491132e+01    2.202203e+00
  1.494307e+01    2.254253e+00
  1.497482e+01    2.324482e+00
  1.500657e+01    2.414408e+00
  1.503832e+01    2.586898e+00
  1.507008e+01    2.824456e+00
  1.510183e+01    3.184479e+00
  1.513358e+01    3.788116e+00
  1.516533e+01    4.590351e+00
  1.519708e+01    5.178751e+00
  1.522883e+01    5.559505e+00
  1.526058e+01    5.768481e+00
  1.529233e+01    5.464620e+00
  1.532409e+01    4.705633e+00
  1.535584e+01    3.727899e+00
  1.538759e+01    3.133749e+00
  1.541934e+01    2.783046e+00
  1.545109e+01    2.494864e+00
  1.548284e+01    2.349209e+00
  1.551459e+01    2.254956e+00
  1.554634e+01    2.162474e+00
  1.557809e+01    2.084846e+00
  1.560985e+01    2.077304e+00
  1.564160e+01    2.059407e+00
  1.567335e+01    2.040722e+00
  1.570510e+01    1.982999e+00
  1.573685e+01    1.963234e+00
  1.576860e+01    1.952591e+00
  1.580035e+01    1.968222e+00
  1.583210e+01    1.931370e+00
  1.586385e+01    1.942633e+00
  1.589561e+01    1.922360e+00
  1.592736e+01    1.872280e+00
  1.595911e+01    1.878194e+00
  1.599086e+01    1.856923e+00
  1.602261e+01    1.860675e+00
  1.605436e+01    1.853206e+00
  1.608611e+01    1.866433e+00
  1.611786e+01    1.844305e+00
  1.614961e+01    1.850569e+00
  1.618137e+01    1.798922e+00
  1.621312e+01    1.836959e+00
  1.624487e+01    1.766981e+00
  1.627662e+01    1.775041e+00
  1.630837e+01    1.825332e+00
  1.634012e+01    1.787982e+00
  1.637187e+01    1.835234e+00
  1.640362e+01    1.794062e+00
  1.643538e+01    1.738537e+00
  1.646713e+01    1.764666e+00
  1.649888e+01    1.765238e+00
  1.653063e+01    1.730083e+00
  1.656238e+01    1.740189e+00
  1.659413e+01    1.744039e+00
  1.662588e+01    1.726309e+00
  1.665763e+01    1.710382e+00
  1.668938e+01    1.691469e+00
  1.672114e+01    1.714886e+00
  1.675289e+01    1.716719e+00
  1.678464e+01    1.685015e+00
  1.681639e+01    1.666934e+00
  1.684814e+01    1.706780e+00
  1.687989e+01    1.681571e+00
  1.691164e+01    1.680197e+00
  1.694339e+01    1.689064e+00
  1.697514e+01    1.644404e+00
  1.700690e+01    1.674029e+00
  1.703865e+01    1.663651e+00
  1.707040e+01    1.690012e+00
  1.710215e+01    1.648669e+00
  1.713390e+01    1.668131e+00
  1.716565e+01    1.672018e+00
  1.719740e+01    1.640726e+00
  1.722915e+01    1.629320e+00
  1.726091e+01    1.588698e+00
  1.729266e+01    1.588961e+00
  1.732441e+01    1.616038e+00
  1.735616e+01    1.573925e+00
  1.738791e+01    1.576037e+00
  1.741966e+01    1.569556e+00
  1.745141e+01    1.594399e+00
  1.748316e+01    1.596874e+00
  1.751491e+01    1.583391e+00
  1.754667e+01    1.574446e+00
  1.757842e+01    1.587942e+00
  1.761017e+01    1.549371e+00
  1.764192e+01    1.561081e+00
  1.767367e+01    1.554576e+00
  1.770542e+01    1.560212e+00
  1.773717e+01    1.562223e+00
  1.776892e+01    1.524917e+00
  1.780067e+01    1.547246e+00
  1.783243e+01    1.540213e+00
  1.786418e+01    1.526493e+00
  1.789593e+01    1.488665e+00
  1.792768e+01    1.520416e+00
  1.795943e+01    1.501079e+00
  1.799118e+01    1.479403e+00
  1.802293e+01    1.508579e+00
  1.805468e+01    1.498898e+00
  1.808643e+01    1.512692e+00
  1.811819e+01    1.490720e+00
  1.814994e+01    1.470142e+00
  1.818169e+01    1.485551e+00
  1.821344e+01    1.451858e+00
  1.824519e+01    1.488820e+00
  1.827694e+01    1.472021e+00
  1.830869e+01    1.477449e+00
  1.834044e+01    1.484090e+00
  1.837220e+01    1.463382e+00
  1.840395e+01    1.460720e+00
  1.843570e+01    1.434734e+00
  1.846745e+01    1.453090e+00
  1.849920e+01    1.471454e+00
  1.853095e+01    1.431057e+00
  1.856270e+01    1.437430e+00
  1.859445e+01    1.422343e+00
  1.862620e+01    1.416260e+00
  1.865796e+01    1.411107e+00
  1.868971e+01    1.431059e+00
  1.872146e+01    1.443253e+00
  1.875321e+01    1.397671e+00
  1.878496e+01    1.413771e+00
  1.881671e+01    1.380586e+00
  1.884846e+01    1.397781e+00
  1.888021e+01    1.401338e+00
  1.891196e+01    1.395334e+00
  1.894372e+01    1.393471e+00
  1.897547e+01    1.388251e+00
  1.900722e+01    1.368567e+00
  1.903897e+01    1.369740e+00
  1.907072e+01    1.368578e+00
  1.910247e+01    1.344765e+00
  1.913422e+01    1.397234e+00
  1.916597e+01    1.394960e+00
  1.919773e+01    1.346212e+00
  1.922948e+01    1.365488e+00
  1.926123e+01    1.351652e+00
  1.929298e+01    1.339507e+00
  1.932473e+01    1.344989e+00
  1.935648e+01    1.360638e+00
  1.938823e+01    1.359871e+00
  1.941998e+01    1.331191e+00
  1.945173e+01    1.322616e+00
  1.948349e+01    1.332776e+00
  1.951524e+01    1.312513e+00
  1.954699e+01    1.322201e+00
  1.957874e+01    1.326410e+00
  1.961049e+01    1.303439e+00
  1.964224e+01    1.325310e+00
  1.967399e+01    1.287375e+00
  1.970574e+01    1.302697e+00
  1.973749e+01    1.319885e+00
  1.976925e+01    1.300043e+00
  1.980100e+01    1.280294e+00
  1.983275e+01    1.278272e+00
  1.986450e+01    1.301490e+00
  1.989625e+01    1.297764e+00
  1.992800e+01    1.296978e+00
  1.995975e+01    1.288850e+00
  1.999150e+01    1.263010e+00
  2.002325e+01    1.271759e+00
  2.005501e+01    1.252117e+00
  2.008676e+01    1.301193e+00
  2.011851e+01    1.253070e+00
  2.015026e+01    1.221099e+00
  2.018201e+01    1.247827e+00
  2.021376e+01    1.231375e+00
  2.024551e+01    1.279610e+00
  2.027726e+01    1.230403e+00
  2.030902e+01    1.258435e+00
  2.034077e+01    1.260980e+00
  2.037252e+01    1.248520e+00
  2.040427e+01    1.257745e+00
  2.043602e+01    1.219185e+00
  2.046777e+01    1.257239e+00
  2.049952e+01    1.244753e+00
  2.053127e+01    1.225731e+00
  2.056302e+01    1.248346e+00
  2.059478e+01    1.241209e+00
  2.062653e+01    1.218984e+00
  2.065828e+01    1.239190e+00
  2.069003e+01    1.193629e+00
  2.072178e+01    1.246064e+00
  2.075353e+01    1.242467e+00
  2.078528e+01    1.208591e+00
  2.081703e+01    1.238107e+00
  2.084878e+01    1.229500e+00
  2.088054e+01    1.227780e+00
  2.091229e+01    1.228181e+00
  2.094404e+01    1.242074e+00
  2.097579e+01    1.208556e+00
  2.100754e+01    1.237397e+00
  2.103929e+01    1.210650e+00
  2.107104e+01    1.230105e+00
  2.110279e+01    1.208961e+00
  2.113455e+01    1.235789e+00
  2.116630e+01    1.208279e+00
  2.119805e+01    1.214951e+00
  2.122980e+01    1.202728e+00
  2.126155e+01    1.249298e+00
  2.129330e+01    1.262351e+00
  2.132505e+01    1.265900e+00
  2.135680e+01    1.280177e+00
  2.138855e+01    1.313196e+00
  2.142031e+01    1.294194e+00
  2.145206e+01    1.369822e+00
  2.148381e+01    1.424710e+00
  2.151556e+01    1.453512e+00
  2.154731e+01    1.502315e+00
  2.157906e+01    1.615786e+00
  2.161081e+01    1.723451e+00
  2.164256e+01    1.978488e+00
  2.167431e+01    2.276865e+00
  2.170607e+01    2.750797e+00
  2.173782e+01    3.555870e+00
  2.176957e+01    4.538422e+00
  2.180132e+01    5.845721e+00
  2.183307e+01    7.114325e+00
  2.186482e+01    8.382957e+00
  2.189657e+01    8.961206e+00
  2.192832e+01    8.252664e+00
  2.196007e+01    6.586795e+00
  2.199183e+01    4.866306e+00
  2.202358e+01    3.622038e+00
  2.205533e+01    2.794668e+00
  2.208708e+01    2.343906e+00
  2.211883e+01    1.995596e+00
  2.215058e+01    1.769574e+00
  2.218233e+01    1.622094e+00
  2.221408e+01    1.489298e+00
  2.224584e+01    1.409259e+00
  2.227759e+01    1.327144e+00
  2.230934e+01    1.308106e+00
  2.234109e+01    1.257969e+00
  2.237284e+01    1.205672e+00
  2.240459e+01    1.191676e+00
  2.243634e+01    1.167128e+00
  2.246809e+01    1.150452e+00
  2.249984e+01    1.147098e+00
  2.253160e+01    1.136814e+00
  2.256335e+01    1.123764e+00
  2.259510e+01    1.074340e+00
  2.262685e+01    1.086722e+00
  2.265860e+01    1.081487e+00
  2.269035e+01    1.070220e+00
  2.272210e+01    1.060339e+00
  2.275385e+01    1.051292e+00
  2.278560e+01    1.058197e+00
  2.281736e+01    1.061799e+00
  2.284911e+01    1.054976e+00
  2.288086e+01    1.035244e+00
  2.291261e+01    1.022744e+00
  2.294436e+01    1.021302e+00
  2.297611e+01    1.023709e+00
  2.300786e+01    9.981738e-01
  2.303961e+01    1.005951e+00
  2.307137e+01    1.024242e+00
  2.310312e+01    1.007645e+00
  2.313487e+01    1.000844e+00
  2.316662e+01    1.001572e+00
  2.319837e+01    9.815239e-01
  2.323012e+01    9.907714e-01
  2.326187e+01    9.757548e-01
  2.329362e+01    9.704741e-01
  2.332537e+01    9.916970e-01
  2.335713e+01    9.795242e-01
  2.338888e+01    9.628508e-01
  2.342063e+01    9.746466e-01
  2.345238e+01    9.565334e-01
  2.348413e+01    9.500868e-01
  2.351588e+01    9.463425e-01
  2.354763e+01    9.440153e-01
  2.357938e+01    9.467976e-01
  2.361113e+01    9.623619e-01
  2.364289e+01    9.713756e-01
  2.367464e+01    9.441715e-01
  2.370639e+01    9.370921e-01
  2.373814e+01    9.458240e-01
  2.376989e+01    9.433603e-01
  2.380164e+01    9.214279e-01
  2.383339e+01    9.172952e-01
  2.386514e+01    9.148856e-01
  2.389689e+01    9.004898e-01
  2.392865e+01    9.169895e-01
  2.396040e+01    8.792831e-01
  2.399215e+01    9.266484e-01
  2.402390e+01    8.968011e-01
  2.405565e+01    9.011414e-01
  2.408740e+01    8.843417e-01
  2.411915e+01    8.685992e-01
  2.415090e+01    8.877032e-01
  2.418266e+01    8.796515e-01
  2.421441e+01    8.631187e-01
  2.424616e+01    8.772900e-01
  2.427791e+01    8.822870e-01
  2.430966e+01    8.976985e-01
  2.434141e+01    9.121670e-01
  2.437316e+01    8.740221e-01
  2.440491e+01    8.692235e-01
  2.443666e+01    8.901964e-01
  2.446842e+01    8.873215e-01
  2.450017e+01    8.799421e-01
  2.453192e+01    8.930072e-01
  2.456367e+01    8.870953e-01
  2.459542e+01    8.931966e-01
  2.462717e+01    8.929498e-01
  2.465892e+01    8.844355e-01
  2.469067e+01    9.020826e-01
  2.472242e+01    8.967412e-01
  2.475418e+01    8.906848e-01
  2.478593e+01    8.909114e-01
  2.481768e+01    8.819833e-01
  2.484943e+01    8.738443e-01
  2.488118e+01    8.863720e-01
  2.491293e+01    9.289286e-01
  2.494468e+01    8.813314e-01
  2.497643e+01    8.755609e-01
  2.500819e+01    8.967448e-01
  2.503994e+01    8.977683e-01
  2.507169e+01    9.067690e-01
  2.510344e+01    9.047977e-01
  2.513519e+01    9.057515e-01
  2.516694e+01    9.300561e-01
  2.519869e+01    9.194073e-01
  2.523044e+01    9.132993e-01
  2.526219e+01    9.364633e-01
  2.529395e+01    9.481907e-01
  2.532570e+01    9.462581e-01
  2.535745e+01    9.545872e-01
  2.538920e+01    9.714254e-01
  2.542095e+01    9.971760e-01
  2.545270e+01    1.004064e+00
  2.548445e+01    1.042113e+00
  2.551620e+01    1.052418e+00
  2.554795e+01    1.096319e+00
  2.557971e+01    1.174170e+00
  2.561146e+01    1.209321e+00
  2.564321e+01    1.294068e+00
  2.567496e+01    1.418145e+00
  2.570671e+01    1.578245e+00
  2.573846e+01    1.847253e+00
  2.577021e+01    2.201566e+00
  2.580196e+01    2.804949e+00
  2.583371e+01    3.584198e+00
  2.586547e+01    4.668220e+00
  2.589722e+01    5.770081e+00
  2.592897e+01    6.698050e+00
  2.596072e+01    7.120215e+00
  2.599247e+01    6.515256e+00
  2.602422e+01    5.312028e+00
  2.605597e+01    3.966773e+00
  2.608772e+01    3.001057e+00
  2.611948e+01    2.350188e+00
  2.615123e+01    1.968317e+00
  2.618298e+01    1.687017e+00
  2.621473e+01    1.474751e+00
  2.624648e+01    1.349403e+00
  2.627823e+01    1.242454e+00
  2.630998e+01    1.187906e+00
  2.634173e+01    1.141429e+00
  2.637348e+01    1.073819e+00
  2.640524e+01    1.039254e+00
  2.643699e+01    1.050797e+00
  2.646874e+01    1.028912e+00
  2.650049e+01    9.881143e-01
  2.653224e+01    1.012490e+00
  2.656399e+01    9.974914e-01
  2.659574e+01    9.685654e-01
  2.662749e+01    9.541897e-01
  2.665924e+01    9.698094e-01
  2.669100e+01    9.618132e-01
  2.672275e+01    9.739783e-01
  2.675450e+01    9.548139e-01
  2.678625e+01    9.828944e-01
  2.681800e+01    9.690171e-01
  2.684975e+01    9.689121e-01
  2.688150e+01    9.781466e-01
  2.691325e+01    1.018675e+00
  2.694501e+01    1.025988e+00
  2.697676e+01    1.045660e+00
  2.700851e+01    1.118338e+00
  2.704026e+01    1.188367e+00
  2.707201e+01    1.323957e+00
  2.710376e+01    1.526024e+00
  2.713551e+01    1.726158e+00
  2.716726e+01    1.958544e+00
  2.719901e+01    2.142168e+00
  2.723077e+01    2.168094e+00
  2.726252e+01    1.954235e+00
  2.729427e+01    1.703022e+00
  2.732602e+01    1.473256e+00
  2.735777e+01    1.285902e+00
  2.738952e+01    1.169475e+00
  2.742127e+01    1.086544e+00
  2.745302e+01    1.040140e+00
  2.748477e+01    9.802749e-01
  2.751653e+01    9.728040e-01
  2.754828e+01    9.554308e-01
  2.758003e+01    9.320173e-01
  2.761178e+01    9.255909e-01
  2.764353e+01    9.134812e-01
  2.767528e+01    9.389058e-01
  2.770703e+01    9.111615e-01
  2.773878e+01    9.009070e-01
  2.777054e+01    9.017044e-01
  2.780229e+01    8.792373e-01
  2.783404e+01    8.568920e-01
  2.786579e+01    8.780310e-01
  2.789754e+01    8.659133e-01
  2.792929e+01    8.627268e-01
  2.796104e+01    8.793819e-01
  2.799279e+01    8.675341e-01
  2.802454e+01    8.484097e-01
  2.805630e+01    8.787612e-01
  2.808805e+01    8.447843e-01
  2.811980e+01    8.666067e-01
  2.815155e+01    8.472338e-01
  2.818330e+01    8.542848e-01
  2.821505e+01    8.545500e-01
  2.824680e+01    8.391533e-01
  2.827855e+01    8.462605e-01
  2.831030e+01    8.493112e-01
  2.834206e+01    8.402013e-01
  2.837381e+01    8.440244e-01
  2.840556e+01    8.447408e-01
  2.843731e+01    8.104967e-01
  2.846906e+01    8.564592e-01
  2.850081e+01    8.107778e-01
  2.853256e+01    8.531805e-01
  2.856431e+01    8.426337e-01
  2.859606e+01    8.264434e-01
  2.862782e+01    8.261485e-01
  2.865957e+01    8.444506e-01
  2.869132e+01    7.976145e-01
  2.872307e+01    8.265727e-01
  2.875482e+01    8.345340e-01
  2.878657e+01    8.073145e-01
  2.881832e+01    8.401968e-01
  2.885007e+01    8.185668e-01
  2.888183e+01    8.187314e-01
  2.891358e+01    8.140739e-01
  2.894533e+01    8.278173e-01
  2.897708e+01    7.943216e-01
  2.900883e+01    7.977605e-01
  2.904058e+01    8.296293e-01
  2.907233e+01    8.108788e-01
  2.910408e+01    8.334975e-01
  2.913583e+01    7.847095e-01
  2.916759e+01    8.074853e-01
  2.919934e+01    7.954938e-01
  2.923109e+01    8.149381e-01
  2.926284e+01    8.121135e-01
  2.929459e+01    8.106354e-01
  2.932634e+01    7.994350e-01
  2.935809e+01    8.108714e-01
  2.938984e+01    7.908476e-01
  2.942159e+01    8.001144e-01
  2.945335e+01    8.078451e-01
  2.948510e+01    8.230828e-01
  2.951685e+01    7.884793e-01
  2.954860e+01    8.104411e-01
  2.958035e+01    8.062283e-01
  2.961210e+01    8.018826e-01
  2.964385e+01    8.156410e-01
  2.967560e+01    8.028624e-01
  2.970736e+01    7.894681e-01
  2.973911e+01    7.959247e-01
  2.977086e+01    7.832198e-01
  2.980261e+01    7.920468e-01
  2.983436e+01    7.946281e-01
  2.986611e+01    7.875940e-01
  2.989786e+01    8.091936e-01
  2.992961e+01    8.048305e-01
  2.996136e+01    7.718268e-01
  2.999312e+01    8.007647e-01
  3.002487e+01    7.885759e-01
  3.005662e+01    8.008198e-01
  3.008837e+01    7.922800e-01
  3.012012e+01    7.877927e-01
  3.015187e+01    7.735940e-01
  3.018362e+01    8.161389e-01
  3.021537e+01    7.605231e-01
  3.024712e+01    7.820340e-01
  3.027888e+01    7.803344e-01
  3.031063e+01    7.539132e-01
  3.034238e+01    7.720420e-01
  3.037413e+01    7.834370e-01
  3.040588e+01    7.897474e-01
  3.043763e+01    7.753532e-01
  3.046938e+01    7.767162e-01
  3.050113e+01    7.930858e-01
  3.053288e+01    7.767972e-01
  3.056464e+01    7.902980e-01
  3.059639e+01    7.857081e-01
  3.062814e+01    7.817611e-01
  3.065989e+01    7.740453e-01
  3.069164e+01    7.793840e-01
  3.072339e+01    7.709186e-01
  3.075514e+01    7.750637e-01
  3.078689e+01    7.659020e-01
  3.081865e+01    7.845548e-01
  3.085040e+01    7.843038e-01
  3.088215e+01    7.878910e-01
  3.091390e+01    7.948168e-01
  3.094565e+01    7.908856e-01
  3.097740e+01    7.828032e-01
  3.100915e+01    7.807937e-01
  3.104090e+01    7.907608e-01
  3.107265e+01    7.973586e-01
  3.110441e+01    8.050138e-01
  3.113616e+01    7.747713e-01
  3.116791e+01    7.778871e-01
  3.119966e+01    7.908914e-01
  3.123141e+01    7.889512e-01
  3.126316e+01    8.083106e-01
  3.129491e+01    7.904437e-01
  3.132666e+01    7.839145e-01
  3.135841e+01    8.203212e-01
  3.139017e+01    8.017591e-01
  3.142192e+01    8.199665e-01
  3.145367e+01    8.119213e-01
  3.148542e+01    8.197176e-01
  3.151717e+01    8.484024e-01
  3.154892e+01    8.654004e-01
  3.158067e+01    8.665602e-01
  3.161242e+01    8.816296e-01
  3.164418e+01    9.029043e-01
  3.167593e+01    9.743984e-01
  3.170768e+01    9.978351e-01
  3.173943e+01    1.112331e+00
  3.177118e+01    1.222983e+00
  3.180293e+01    1.436883e+00
  3.183468e+01    1.706856e+00
  3.186643e+01    1.896253e+00
  3.189818e+01    2.095928e+00
  3.192994e+01    2.059727e+00
  3.196169e+01    1.831189e+00
  3.199344e+01    1.543721e+00
  3.202519e+01    1.340988e+00
  3.205694e+01    1.174790e+00
  3.208869e+01    1.025990e+00
  3.212044e+01    9.691095e-01
  3.215219e+01    9.030002e-01
  3.218394e+01    8.771383e-01
  3.221570e+01    8.655053e-01
  3.224745e+01    8.236106e-01
  3.227920e+01    8.021132e-01
  3.231095e+01    8.236137e-01
  3.234270e+01    8.039099e-01
  3.237445e+01    7.890804e-01
  3.240620e+01    7.783809e-01
  3.243795e+01    7.767382e-01
  3.246970e+01    7.910468e-01
  3.250146e+01    7.784436e-01
  3.253321e+01    7.503302e-01
  3.254908e+01    7.601428e-01