File: XRD/Reaction conditions/2024-07-27_003_Ru-CGO-ex_Reaction_dwell_000023_data_000018.dat
# == pyFAI calibration ==
# Distance Sample to Detector: 0.4 m
# PONI: 9.750e-02, 1.135e-01 m
# Rotations: -0.000175 0.000000 -0.000000 rad
#
# == Fit2d calibration ==
# Distance Sample-beamCenter: 400.000 mm
# Center: x=1514.000, y=1300.000 pix
# Tilt: 0.010 deg  TiltPlanRot: 0.010 deg
#
# Detector Detector	 Spline= None	 PixelSize= 7.500e-05, 7.500e-05 m
#    Detector has a mask: False
#    Detector has a dark current: False
#    detector has a flat field: False
#
# Wavelength: 6.888e-11 m
# Mask applied: user provided
# Dark current applied: False
# Flat field applied: False
# Polarization factor: 0.99
# Normalization factor: 1.0
# --> /home/myspot/data/2024_07_Rosario/Ru-CGO-ex/2024-07-27_003_Ru-CGO-ex_Reaction_dwell_000023_data_000018.dat
#       q_nm^-1             I
  2.003187e-02    2.195834e-01
  5.178302e-02    6.857958e-02
  8.353417e-02    3.131770e-01
  1.152853e-01    1.041835e-02
  1.470365e-01    3.350660e-02
  1.787876e-01    2.077045e-02
  2.105388e-01    1.907442e-02
  2.422899e-01    8.273365e-02
  2.740411e-01    4.384675e-02
  3.057922e-01    4.119734e-02
  3.375433e-01    5.121743e-02
  3.692945e-01    6.611077e-02
  4.010456e-01    2.532934e-02
  4.327968e-01    2.351303e-02
  4.645479e-01    2.707738e-02
  4.962991e-01    2.437758e-02
  5.280502e-01    1.882390e-02
  5.598014e-01    5.570687e-02
  5.915525e-01    2.116707e-02
  6.233037e-01    3.042589e-02
  6.550548e-01    6.257202e-02
  6.868060e-01    3.977485e-02
  7.185571e-01    5.252438e-02
  7.503083e-01    5.826452e-02
  7.820594e-01    1.088961e-01
  8.138106e-01    2.584255e-01
  8.455617e-01    3.512679e-01
  8.773129e-01    4.923572e-01
  9.090640e-01    6.626022e-01
  9.408152e-01    8.582883e-01
  9.725663e-01    1.104140e+00
  1.004317e+00    1.110475e+00
  1.036069e+00    1.345367e+00
  1.067820e+00    1.560748e+00
  1.099571e+00    1.480385e+00
  1.131322e+00    1.672851e+00
  1.163073e+00    1.684777e+00
  1.194824e+00    1.883278e+00
  1.226575e+00    2.375101e+00
  1.258327e+00    2.497431e+00
  1.290078e+00    2.655045e+00
  1.321829e+00    2.683371e+00
  1.353580e+00    2.837705e+00
  1.385331e+00    2.851037e+00
  1.417082e+00    2.858402e+00
  1.448834e+00    2.999132e+00
  1.480585e+00    3.086914e+00
  1.512336e+00    2.995681e+00
  1.544087e+00    3.115931e+00
  1.575838e+00    3.211132e+00
  1.607589e+00    3.154524e+00
  1.639340e+00    3.228438e+00
  1.671092e+00    3.094465e+00
  1.702843e+00    3.184996e+00
  1.734594e+00    3.080255e+00
  1.766345e+00    3.074920e+00
  1.798096e+00    2.981874e+00
  1.829847e+00    3.092921e+00
  1.861598e+00    3.260396e+00
  1.893350e+00    3.148401e+00
  1.925101e+00    3.074612e+00
  1.956852e+00    3.042957e+00
  1.988603e+00    3.100354e+00
  2.020354e+00    3.068254e+00
  2.052105e+00    3.023332e+00
  2.083856e+00    3.180079e+00
  2.115608e+00    3.061941e+00
  2.147359e+00    3.064503e+00
  2.179110e+00    3.195099e+00
  2.210861e+00    3.075831e+00
  2.242612e+00    3.153823e+00
  2.274363e+00    3.284113e+00
  2.306115e+00    3.161016e+00
  2.337866e+00    3.139411e+00
  2.369617e+00    3.169767e+00
  2.401368e+00    3.168133e+00
  2.433119e+00    3.177666e+00
  2.464870e+00    3.101596e+00
  2.496621e+00    3.170558e+00
  2.528373e+00    3.208553e+00
  2.560124e+00    3.184501e+00
  2.591875e+00    3.345335e+00
  2.623626e+00    3.339037e+00
  2.655377e+00    3.219599e+00
  2.687128e+00    3.232458e+00
  2.718879e+00    3.208963e+00
  2.750631e+00    3.387738e+00
  2.782382e+00    3.291657e+00
  2.814133e+00    3.187763e+00
  2.845884e+00    3.390735e+00
  2.877635e+00    3.372527e+00
  2.909386e+00    3.351390e+00
  2.941137e+00    3.264256e+00
  2.972889e+00    3.314397e+00
  3.004640e+00    3.281816e+00
  3.036391e+00    3.335781e+00
  3.068142e+00    3.302634e+00
  3.099893e+00    3.495136e+00
  3.131644e+00    3.346395e+00
  3.163395e+00    3.488863e+00
  3.195147e+00    3.496846e+00
  3.226898e+00    3.400758e+00
  3.258649e+00    3.486204e+00
  3.290400e+00    3.404236e+00
  3.322151e+00    3.518163e+00
  3.353902e+00    3.412542e+00
  3.385654e+00    3.391526e+00
  3.417405e+00    3.499804e+00
  3.449156e+00    3.417851e+00
  3.480907e+00    3.362957e+00
  3.512658e+00    3.448386e+00
  3.544409e+00    3.467612e+00
  3.576160e+00    3.496303e+00
  3.607912e+00    3.483684e+00
  3.639663e+00    3.377533e+00
  3.671414e+00    3.493840e+00
  3.703165e+00    3.518939e+00
  3.734916e+00    3.594481e+00
  3.766667e+00    3.469337e+00
  3.798418e+00    3.538941e+00
  3.830170e+00    3.486858e+00
  3.861921e+00    3.542578e+00
  3.893672e+00    3.500383e+00
  3.925423e+00    3.512066e+00
  3.957174e+00    3.580352e+00
  3.988925e+00    3.550601e+00
  4.020676e+00    3.613243e+00
  4.052428e+00    3.604656e+00
  4.084179e+00    3.584227e+00
  4.115930e+00    3.671943e+00
  4.147681e+00    3.565703e+00
  4.179432e+00    3.515206e+00
  4.211183e+00    3.626472e+00
  4.242935e+00    3.574029e+00
  4.274686e+00    3.612842e+00
  4.306437e+00    3.536191e+00
  4.338188e+00    3.488766e+00
  4.369939e+00    3.685072e+00
  4.401690e+00    3.552033e+00
  4.433441e+00    3.664994e+00
  4.465193e+00    3.618058e+00
  4.496944e+00    3.593824e+00
  4.528695e+00    3.657700e+00
  4.560446e+00    3.538882e+00
  4.592197e+00    3.594003e+00
  4.623948e+00    3.676600e+00
  4.655699e+00    3.661107e+00
  4.687451e+00    3.656359e+00
  4.719202e+00    3.578322e+00
  4.750953e+00    3.707778e+00
  4.782704e+00    3.664130e+00
  4.814455e+00    3.592878e+00
  4.846206e+00    3.703003e+00
  4.877957e+00    3.626738e+00
  4.909709e+00    3.725369e+00
  4.941460e+00    3.655391e+00
  4.973211e+00    3.759575e+00
  5.004962e+00    3.644943e+00
  5.036713e+00    3.698040e+00
  5.068464e+00    3.672700e+00
  5.100216e+00    3.677853e+00
  5.131967e+00    3.834759e+00
  5.163718e+00    3.703660e+00
  5.195469e+00    3.675449e+00
  5.227220e+00    3.614059e+00
  5.258971e+00    3.630594e+00
  5.290722e+00    3.734993e+00
  5.322474e+00    3.685185e+00
  5.354225e+00    3.649186e+00
  5.385976e+00    3.621437e+00
  5.417727e+00    3.685066e+00
  5.449478e+00    3.604403e+00
  5.481229e+00    3.580568e+00
  5.512980e+00    3.559181e+00
  5.544732e+00    3.515622e+00
  5.576483e+00    3.666893e+00
  5.608234e+00    3.525445e+00
  5.639985e+00    3.631507e+00
  5.671736e+00    3.568842e+00
  5.703487e+00    3.634097e+00
  5.735238e+00    3.573491e+00
  5.766990e+00    3.500215e+00
  5.798741e+00    3.694492e+00
  5.830492e+00    3.500058e+00
  5.862243e+00    3.591834e+00
  5.893994e+00    3.549973e+00
  5.925745e+00    3.506774e+00
  5.957497e+00    3.517631e+00
  5.989248e+00    3.539335e+00
  6.020999e+00    3.628479e+00
  6.052750e+00    3.519692e+00
  6.084501e+00    3.575448e+00
  6.116252e+00    3.651638e+00
  6.148003e+00    3.536860e+00
  6.179755e+00    3.574406e+00
  6.211506e+00    3.584424e+00
  6.243257e+00    3.568775e+00
  6.275008e+00    3.626853e+00
  6.306759e+00    3.633983e+00
  6.338510e+00    3.557149e+00
  6.370261e+00    3.602531e+00
  6.402013e+00    3.582494e+00
  6.433764e+00    3.594431e+00
  6.465515e+00    3.513640e+00
  6.497266e+00    3.598811e+00
  6.529017e+00    3.565408e+00
  6.560768e+00    3.562059e+00
  6.592519e+00    3.564745e+00
  6.624271e+00    3.637808e+00
  6.656022e+00    3.438391e+00
  6.687773e+00    3.518265e+00
  6.719524e+00    3.501855e+00
  6.751275e+00    3.554106e+00
  6.783026e+00    3.534612e+00
  6.814777e+00    3.551666e+00
  6.846529e+00    3.556740e+00
  6.878280e+00    3.569264e+00
  6.910031e+00    3.599738e+00
  6.941782e+00    3.587231e+00
  6.973533e+00    3.593522e+00
  7.005284e+00    3.552170e+00
  7.037036e+00    3.582437e+00
  7.068787e+00    3.505103e+00
  7.100538e+00    3.523339e+00
  7.132289e+00    3.501047e+00
  7.164040e+00    3.513552e+00
  7.195791e+00    3.466801e+00
  7.227542e+00    3.509836e+00
  7.259294e+00    3.500579e+00
  7.291045e+00    3.550880e+00
  7.322796e+00    3.525065e+00
  7.354547e+00    3.514124e+00
  7.386298e+00    3.540064e+00
  7.418049e+00    3.534206e+00
  7.449800e+00    3.524056e+00
  7.481552e+00    3.538043e+00
  7.513303e+00    3.508417e+00
  7.545054e+00    3.527362e+00
  7.576805e+00    3.531401e+00
  7.608556e+00    3.514811e+00
  7.640307e+00    3.546583e+00
  7.672058e+00    3.520805e+00
  7.703810e+00    3.392951e+00
  7.735561e+00    3.563323e+00
  7.767312e+00    3.506283e+00
  7.799063e+00    3.455224e+00
  7.830814e+00    3.392935e+00
  7.862565e+00    3.402312e+00
  7.894317e+00    3.457295e+00
  7.926068e+00    3.497231e+00
  7.957819e+00    3.455894e+00
  7.989570e+00    3.376386e+00
  8.021321e+00    3.414419e+00
  8.053072e+00    3.478691e+00
  8.084823e+00    3.469687e+00
  8.116575e+00    3.434476e+00
  8.148326e+00    3.481113e+00
  8.180077e+00    3.521950e+00
  8.211828e+00    3.483270e+00
  8.243579e+00    3.455637e+00
  8.275330e+00    3.409964e+00
  8.307081e+00    3.432057e+00
  8.338833e+00    3.425793e+00
  8.370584e+00    3.448628e+00
  8.402335e+00    3.375009e+00
  8.434086e+00    3.309512e+00
  8.465837e+00    3.365045e+00
  8.497588e+00    3.391644e+00
  8.529339e+00    3.361714e+00
  8.561091e+00    3.373762e+00
  8.592842e+00    3.390344e+00
  8.624593e+00    3.368405e+00
  8.656344e+00    3.401400e+00
  8.688095e+00    3.369475e+00
  8.719846e+00    3.347974e+00
  8.751598e+00    3.433536e+00
  8.783349e+00    3.268541e+00
  8.815100e+00    3.339833e+00
  8.846851e+00    3.333360e+00
  8.878602e+00    3.319612e+00
  8.910353e+00    3.358311e+00
  8.942104e+00    3.355431e+00
  8.973856e+00    3.278908e+00
  9.005607e+00    3.351842e+00
  9.037358e+00    3.310375e+00
  9.069109e+00    3.244036e+00
  9.100860e+00    3.271604e+00
  9.132611e+00    3.350169e+00
  9.164362e+00    3.243577e+00
  9.196114e+00    3.255783e+00
  9.227865e+00    3.260442e+00
  9.259616e+00    3.288383e+00
  9.291367e+00    3.225649e+00
  9.323118e+00    3.228150e+00
  9.354869e+00    3.203555e+00
  9.386620e+00    3.341418e+00
  9.418372e+00    3.246243e+00
  9.450123e+00    3.274899e+00
  9.481874e+00    3.215716e+00
  9.513625e+00    3.230030e+00
  9.545376e+00    3.208864e+00
  9.577127e+00    3.278725e+00
  9.608878e+00    3.239619e+00
  9.640630e+00    3.234667e+00
  9.672381e+00    3.191893e+00
  9.704132e+00    3.154200e+00
  9.735883e+00    3.234236e+00
  9.767634e+00    3.161237e+00
  9.799385e+00    3.219589e+00
  9.831137e+00    3.183643e+00
  9.862888e+00    3.162303e+00
  9.894639e+00    3.129624e+00
  9.926390e+00    3.194859e+00
  9.958141e+00    3.182514e+00
  9.989892e+00    3.143425e+00
  1.002164e+01    3.102363e+00
  1.005339e+01    3.124120e+00
  1.008515e+01    3.144342e+00
  1.011690e+01    3.126120e+00
  1.014865e+01    3.120597e+00
  1.018040e+01    3.075593e+00
  1.021215e+01    3.135918e+00
  1.024390e+01    3.002053e+00
  1.027565e+01    3.038105e+00
  1.030740e+01    3.070365e+00
  1.033915e+01    3.041417e+00
  1.037091e+01    3.021365e+00
  1.040266e+01    3.080559e+00
  1.043441e+01    3.022383e+00
  1.046616e+01    3.033378e+00
  1.049791e+01    3.027737e+00
  1.052966e+01    3.055042e+00
  1.056141e+01    2.959418e+00
  1.059316e+01    3.030474e+00
  1.062492e+01    3.035877e+00
  1.065667e+01    2.969670e+00
  1.068842e+01    2.974943e+00
  1.072017e+01    2.933596e+00
  1.075192e+01    2.988836e+00
  1.078367e+01    2.975478e+00
  1.081542e+01    2.952785e+00
  1.084717e+01    2.953908e+00
  1.087892e+01    2.922886e+00
  1.091068e+01    2.934670e+00
  1.094243e+01    2.973978e+00
  1.097418e+01    2.904057e+00
  1.100593e+01    2.912670e+00
  1.103768e+01    2.885643e+00
  1.106943e+01    2.927721e+00
  1.110118e+01    2.911413e+00
  1.113293e+01    2.862788e+00
  1.116468e+01    2.916642e+00
  1.119644e+01    2.849185e+00
  1.122819e+01    2.879857e+00
  1.125994e+01    2.881469e+00
  1.129169e+01    2.821822e+00
  1.132344e+01    2.841562e+00
  1.135519e+01    2.870568e+00
  1.138694e+01    2.839276e+00
  1.141869e+01    2.855088e+00
  1.145045e+01    2.828606e+00
  1.148220e+01    2.819854e+00
  1.151395e+01    2.784123e+00
  1.154570e+01    2.811164e+00
  1.157745e+01    2.763168e+00
  1.160920e+01    2.770294e+00
  1.164095e+01    2.792250e+00
  1.167270e+01    2.807542e+00
  1.170445e+01    2.848548e+00
  1.173621e+01    2.815122e+00
  1.176796e+01    2.766804e+00
  1.179971e+01    2.740975e+00
  1.183146e+01    2.748276e+00
  1.186321e+01    2.743955e+00
  1.189496e+01    2.731121e+00
  1.192671e+01    2.727818e+00
  1.195846e+01    2.723599e+00
  1.199021e+01    2.743898e+00
  1.202197e+01    2.721010e+00
  1.205372e+01    2.736125e+00
  1.208547e+01    2.709468e+00
  1.211722e+01    2.702139e+00
  1.214897e+01    2.674939e+00
  1.218072e+01    2.684725e+00
  1.221247e+01    2.690770e+00
  1.224422e+01    2.677308e+00
  1.227597e+01    2.759569e+00
  1.230773e+01    2.735193e+00
  1.233948e+01    2.728497e+00
  1.237123e+01    2.702867e+00
  1.240298e+01    2.706081e+00
  1.243473e+01    2.691295e+00
  1.246648e+01    2.709876e+00
  1.249823e+01    2.729137e+00
  1.252998e+01    2.705397e+00
  1.256174e+01    2.685467e+00
  1.259349e+01    2.760118e+00
  1.262524e+01    2.761901e+00
  1.265699e+01    2.789731e+00
  1.268874e+01    2.803472e+00
  1.272049e+01    2.874639e+00
  1.275224e+01    2.928379e+00
  1.278399e+01    2.984009e+00
  1.281574e+01    3.146384e+00
  1.284750e+01    3.217166e+00
  1.287925e+01    3.385369e+00
  1.291100e+01    3.642097e+00
  1.294275e+01    4.148650e+00
  1.297450e+01    4.830976e+00
  1.300625e+01    5.928240e+00
  1.303800e+01    7.769638e+00
  1.306975e+01    1.032021e+01
  1.310150e+01    1.272318e+01
  1.313326e+01    1.497337e+01
  1.316501e+01    1.642607e+01
  1.319676e+01    1.581964e+01
  1.322851e+01    1.261246e+01
  1.326026e+01    9.228529e+00
  1.329201e+01    6.816816e+00
  1.332376e+01    5.357137e+00
  1.335551e+01    4.416351e+00
  1.338727e+01    3.930691e+00
  1.341902e+01    3.509562e+00
  1.345077e+01    3.174309e+00
  1.348252e+01    3.059386e+00
  1.351427e+01    2.959218e+00
  1.354602e+01    2.851609e+00
  1.357777e+01    2.768320e+00
  1.360952e+01    2.689383e+00
  1.364127e+01    2.671790e+00
  1.367303e+01    2.608363e+00
  1.370478e+01    2.523885e+00
  1.373653e+01    2.597428e+00
  1.376828e+01    2.536244e+00
  1.380003e+01    2.492692e+00
  1.383178e+01    2.468989e+00
  1.386353e+01    2.439333e+00
  1.389528e+01    2.430222e+00
  1.392703e+01    2.444150e+00
  1.395879e+01    2.390614e+00
  1.399054e+01    2.374568e+00
  1.402229e+01    2.412118e+00
  1.405404e+01    2.374928e+00
  1.408579e+01    2.362396e+00
  1.411754e+01    2.336315e+00
  1.414929e+01    2.294216e+00
  1.418104e+01    2.305596e+00
  1.421279e+01    2.333360e+00
  1.424455e+01    2.302387e+00
  1.427630e+01    2.272573e+00
  1.430805e+01    2.275217e+00
  1.433980e+01    2.267485e+00
  1.437155e+01    2.260839e+00
  1.440330e+01    2.253353e+00
  1.443505e+01    2.213126e+00
  1.446680e+01    2.234826e+00
  1.449856e+01    2.254761e+00
  1.453031e+01    2.242213e+00
  1.456206e+01    2.238252e+00
  1.459381e+01    2.226800e+00
  1.462556e+01    2.240397e+00
  1.465731e+01    2.229907e+00
  1.468906e+01    2.213414e+00
  1.472081e+01    2.158902e+00
  1.475256e+01    2.216747e+00
  1.478432e+01    2.198921e+00
  1.481607e+01    2.238543e+00
  1.484782e+01    2.212523e+00
  1.487957e+01    2.239882e+00
  1.491132e+01    2.226083e+00
  1.494307e+01    2.298558e+00
  1.497482e+01    2.389976e+00
  1.500657e+01    2.432095e+00
  1.503832e+01    2.603848e+00
  1.507008e+01    2.815762e+00
  1.510183e+01    3.208435e+00
  1.513358e+01    3.784983e+00
  1.516533e+01    4.599640e+00
  1.519708e+01    5.261648e+00
  1.522883e+01    5.585931e+00
  1.526058e+01    5.904596e+00
  1.529233e+01    5.592432e+00
  1.532409e+01    4.709095e+00
  1.535584e+01    3.768977e+00
  1.538759e+01    3.159898e+00
  1.541934e+01    2.758212e+00
  1.545109e+01    2.551672e+00
  1.548284e+01    2.310664e+00
  1.551459e+01    2.258357e+00
  1.554634e+01    2.200426e+00
  1.557809e+01    2.141067e+00
  1.560985e+01    2.066138e+00
  1.564160e+01    2.029149e+00
  1.567335e+01    2.046789e+00
  1.570510e+01    2.027276e+00
  1.573685e+01    2.021775e+00
  1.576860e+01    1.990631e+00
  1.580035e+01    1.946129e+00
  1.583210e+01    1.984654e+00
  1.586385e+01    1.915810e+00
  1.589561e+01    1.953938e+00
  1.592736e+01    1.905826e+00
  1.595911e+01    1.891248e+00
  1.599086e+01    1.889700e+00
  1.602261e+01    1.886784e+00
  1.605436e+01    1.878569e+00
  1.608611e+01    1.858863e+00
  1.611786e+01    1.861976e+00
  1.614961e+01    1.861052e+00
  1.618137e+01    1.865206e+00
  1.621312e+01    1.844138e+00
  1.624487e+01    1.821312e+00
  1.627662e+01    1.808578e+00
  1.630837e+01    1.792953e+00
  1.634012e+01    1.779409e+00
  1.637187e+01    1.800651e+00
  1.640362e+01    1.814106e+00
  1.643538e+01    1.807184e+00
  1.646713e+01    1.803254e+00
  1.649888e+01    1.781599e+00
  1.653063e+01    1.762857e+00
  1.656238e+01    1.769012e+00
  1.659413e+01    1.739592e+00
  1.662588e+01    1.778298e+00
  1.665763e+01    1.770768e+00
  1.668938e+01    1.727333e+00
  1.672114e+01    1.722364e+00
  1.675289e+01    1.682689e+00
  1.678464e+01    1.732896e+00
  1.681639e+01    1.721848e+00
  1.684814e+01    1.731848e+00
  1.687989e+01    1.708055e+00
  1.691164e+01    1.680120e+00
  1.694339e+01    1.677788e+00
  1.697514e+01    1.640955e+00
  1.700690e+01    1.656368e+00
  1.703865e+01    1.702575e+00
  1.707040e+01    1.626244e+00
  1.710215e+01    1.658137e+00
  1.713390e+01    1.654994e+00
  1.716565e+01    1.646873e+00
  1.719740e+01    1.622340e+00
  1.722915e+01    1.657741e+00
  1.726091e+01    1.645463e+00
  1.729266e+01    1.629171e+00
  1.732441e+01    1.617888e+00
  1.735616e+01    1.621806e+00
  1.738791e+01    1.620462e+00
  1.741966e+01    1.602469e+00
  1.745141e+01    1.599147e+00
  1.748316e+01    1.606222e+00
  1.751491e+01    1.597506e+00
  1.754667e+01    1.588125e+00
  1.757842e+01    1.599643e+00
  1.761017e+01    1.542696e+00
  1.764192e+01    1.576457e+00
  1.767367e+01    1.592398e+00
  1.770542e+01    1.556635e+00
  1.773717e+01    1.574345e+00
  1.776892e+01    1.575254e+00
  1.780067e+01    1.560473e+00
  1.783243e+01    1.540017e+00
  1.786418e+01    1.522449e+00
  1.789593e+01    1.536122e+00
  1.792768e+01    1.529474e+00
  1.795943e+01    1.549688e+00
  1.799118e+01    1.536311e+00
  1.802293e+01    1.501257e+00
  1.805468e+01    1.486852e+00
  1.808643e+01    1.509864e+00
  1.811819e+01    1.500001e+00
  1.814994e+01    1.497969e+00
  1.818169e+01    1.498159e+00
  1.821344e+01    1.460012e+00
  1.824519e+01    1.482631e+00
  1.827694e+01    1.467157e+00
  1.830869e+01    1.472687e+00
  1.834044e+01    1.492617e+00
  1.837220e+01    1.458723e+00
  1.840395e+01    1.436703e+00
  1.843570e+01    1.475656e+00
  1.846745e+01    1.451514e+00
  1.849920e+01    1.455446e+00
  1.853095e+01    1.456067e+00
  1.856270e+01    1.455621e+00
  1.859445e+01    1.435547e+00
  1.862620e+01    1.444956e+00
  1.865796e+01    1.452837e+00
  1.868971e+01    1.442415e+00
  1.872146e+01    1.435089e+00
  1.875321e+01    1.409223e+00
  1.878496e+01    1.393816e+00
  1.881671e+01    1.392832e+00
  1.884846e+01    1.431018e+00
  1.888021e+01    1.404667e+00
  1.891196e+01    1.388773e+00
  1.894372e+01    1.402769e+00
  1.897547e+01    1.440070e+00
  1.900722e+01    1.347712e+00
  1.903897e+01    1.395129e+00
  1.907072e+01    1.392082e+00
  1.910247e+01    1.392115e+00
  1.913422e+01    1.374462e+00
  1.916597e+01    1.400150e+00
  1.919773e+01    1.364101e+00
  1.922948e+01    1.381293e+00
  1.926123e+01    1.407910e+00
  1.929298e+01    1.381157e+00
  1.932473e+01    1.361688e+00
  1.935648e+01    1.382292e+00
  1.938823e+01    1.366657e+00
  1.941998e+01    1.349269e+00
  1.945173e+01    1.361002e+00
  1.948349e+01    1.320348e+00
  1.951524e+01    1.327927e+00
  1.954699e+01    1.337402e+00
  1.957874e+01    1.319464e+00
  1.961049e+01    1.316224e+00
  1.964224e+01    1.321558e+00
  1.967399e+01    1.312625e+00
  1.970574e+01    1.324930e+00
  1.973749e+01    1.318540e+00
  1.976925e+01    1.307927e+00
  1.980100e+01    1.306115e+00
  1.983275e+01    1.314075e+00
  1.986450e+01    1.310053e+00
  1.989625e+01    1.326330e+00
  1.992800e+01    1.300819e+00
  1.995975e+01    1.309916e+00
  1.999150e+01    1.278764e+00
  2.002325e+01    1.299801e+00
  2.005501e+01    1.301781e+00
  2.008676e+01    1.276910e+00
  2.011851e+01    1.290060e+00
  2.015026e+01    1.280831e+00
  2.018201e+01    1.302980e+00
  2.021376e+01    1.242937e+00
  2.024551e+01    1.253029e+00
  2.027726e+01    1.264274e+00
  2.030902e+01    1.252444e+00
  2.034077e+01    1.274284e+00
  2.037252e+01    1.260588e+00
  2.040427e+01    1.260179e+00
  2.043602e+01    1.242520e+00
  2.046777e+01    1.249392e+00
  2.049952e+01    1.238033e+00
  2.053127e+01    1.253198e+00
  2.056302e+01    1.252552e+00
  2.059478e+01    1.237849e+00
  2.062653e+01    1.215418e+00
  2.065828e+01    1.214193e+00
  2.069003e+01    1.252309e+00
  2.072178e+01    1.232162e+00
  2.075353e+01    1.255848e+00
  2.078528e+01    1.247348e+00
  2.081703e+01    1.235577e+00
  2.084878e+01    1.246450e+00
  2.088054e+01    1.224066e+00
  2.091229e+01    1.226193e+00
  2.094404e+01    1.233502e+00
  2.097579e+01    1.207953e+00
  2.100754e+01    1.218887e+00
  2.103929e+01    1.242085e+00
  2.107104e+01    1.208998e+00
  2.110279e+01    1.243403e+00
  2.113455e+01    1.225837e+00
  2.116630e+01    1.247879e+00
  2.119805e+01    1.239788e+00
  2.122980e+01    1.239020e+00
  2.126155e+01    1.248137e+00
  2.129330e+01    1.275358e+00
  2.132505e+01    1.278226e+00
  2.135680e+01    1.298185e+00
  2.138855e+01    1.302754e+00
  2.142031e+01    1.334357e+00
  2.145206e+01    1.359979e+00
  2.148381e+01    1.402272e+00
  2.151556e+01    1.485215e+00
  2.154731e+01    1.524308e+00
  2.157906e+01    1.626892e+00
  2.161081e+01    1.770442e+00
  2.164256e+01    1.979605e+00
  2.167431e+01    2.322775e+00
  2.170607e+01    2.801061e+00
  2.173782e+01    3.551366e+00
  2.176957e+01    4.619475e+00
  2.180132e+01    5.895144e+00
  2.183307e+01    7.252803e+00
  2.186482e+01    8.411467e+00
  2.189657e+01    9.043579e+00
  2.192832e+01    8.344696e+00
  2.196007e+01    6.633995e+00
  2.199183e+01    4.891274e+00
  2.202358e+01    3.630485e+00
  2.205533e+01    2.850078e+00
  2.208708e+01    2.284583e+00
  2.211883e+01    2.013405e+00
  2.215058e+01    1.789055e+00
  2.218233e+01    1.607157e+00
  2.221408e+01    1.500821e+00
  2.224584e+01    1.423654e+00
  2.227759e+01    1.363112e+00
  2.230934e+01    1.321539e+00
  2.234109e+01    1.277391e+00
  2.237284e+01    1.234177e+00
  2.240459e+01    1.201808e+00
  2.243634e+01    1.195981e+00
  2.246809e+01    1.153884e+00
  2.249984e+01    1.140149e+00
  2.253160e+01    1.134267e+00
  2.256335e+01    1.148479e+00
  2.259510e+01    1.118101e+00
  2.262685e+01    1.097903e+00
  2.265860e+01    1.099844e+00
  2.269035e+01    1.084259e+00
  2.272210e+01    1.059371e+00
  2.275385e+01    1.063295e+00
  2.278560e+01    1.072872e+00
  2.281736e+01    1.062545e+00
  2.284911e+01    1.018985e+00
  2.288086e+01    1.027311e+00
  2.291261e+01    1.010903e+00
  2.294436e+01    1.046365e+00
  2.297611e+01    1.024274e+00
  2.300786e+01    1.045576e+00
  2.303961e+01    1.022193e+00
  2.307137e+01    1.018531e+00
  2.310312e+01    9.868337e-01
  2.313487e+01    1.023126e+00
  2.316662e+01    1.012103e+00
  2.319837e+01    9.982120e-01
  2.323012e+01    1.008393e+00
  2.326187e+01    9.871112e-01
  2.329362e+01    9.953890e-01
  2.332537e+01    9.976053e-01
  2.335713e+01    9.666276e-01
  2.338888e+01    9.730015e-01
  2.342063e+01    9.815017e-01
  2.345238e+01    9.577702e-01
  2.348413e+01    9.761439e-01
  2.351588e+01    9.678779e-01
  2.354763e+01    9.492970e-01
  2.357938e+01    9.628847e-01
  2.361113e+01    9.653889e-01
  2.364289e+01    9.537622e-01
  2.367464e+01    9.425184e-01
  2.370639e+01    9.618676e-01
  2.373814e+01    9.591532e-01
  2.376989e+01    9.266161e-01
  2.380164e+01    9.550600e-01
  2.383339e+01    9.213017e-01
  2.386514e+01    9.188366e-01
  2.389689e+01    9.114414e-01
  2.392865e+01    9.037179e-01
  2.396040e+01    8.972057e-01
  2.399215e+01    9.225795e-01
  2.402390e+01    8.911566e-01
  2.405565e+01    8.919880e-01
  2.408740e+01    8.891547e-01
  2.411915e+01    9.064689e-01
  2.415090e+01    8.608958e-01
  2.418266e+01    8.835062e-01
  2.421441e+01    8.906354e-01
  2.424616e+01    8.975623e-01
  2.427791e+01    9.049078e-01
  2.430966e+01    9.006516e-01
  2.434141e+01    8.892166e-01
  2.437316e+01    8.961425e-01
  2.440491e+01    9.174944e-01
  2.443666e+01    8.971861e-01
  2.446842e+01    8.980062e-01
  2.450017e+01    8.861710e-01
  2.453192e+01    8.814290e-01
  2.456367e+01    9.018363e-01
  2.459542e+01    8.900391e-01
  2.462717e+01    8.832346e-01
  2.465892e+01    8.785954e-01
  2.469067e+01    8.877156e-01
  2.472242e+01    9.171410e-01
  2.475418e+01    8.933071e-01
  2.478593e+01    8.991805e-01
  2.481768e+01    8.968861e-01
  2.484943e+01    9.115352e-01
  2.488118e+01    8.961649e-01
  2.491293e+01    8.980487e-01
  2.494468e+01    9.033567e-01
  2.497643e+01    8.937524e-01
  2.500819e+01    9.029517e-01
  2.503994e+01    8.812328e-01
  2.507169e+01    9.106458e-01
  2.510344e+01    9.078428e-01
  2.513519e+01    9.172596e-01
  2.516694e+01    9.437301e-01
  2.519869e+01    9.390923e-01
  2.523044e+01    9.382452e-01
  2.526219e+01    9.440405e-01
  2.529395e+01    9.636037e-01
  2.532570e+01    9.607235e-01
  2.535745e+01    9.806793e-01
  2.538920e+01    1.007984e+00
  2.542095e+01    1.011768e+00
  2.545270e+01    1.021420e+00
  2.548445e+01    1.057508e+00
  2.551620e+01    1.078831e+00
  2.554795e+01    1.142927e+00
  2.557971e+01    1.168131e+00
  2.561146e+01    1.241413e+00
  2.564321e+01    1.276457e+00
  2.567496e+01    1.412230e+00
  2.570671e+01    1.622151e+00
  2.573846e+01    1.833311e+00
  2.577021e+01    2.265277e+00
  2.580196e+01    2.814409e+00
  2.583371e+01    3.686603e+00
  2.586547e+01    4.730178e+00
  2.589722e+01    5.890642e+00
  2.592897e+01    6.852003e+00
  2.596072e+01    7.208459e+00
  2.599247e+01    6.652277e+00
  2.602422e+01    5.351231e+00
  2.605597e+01    4.008704e+00
  2.608772e+01    3.021620e+00
  2.611948e+01    2.373717e+00
  2.615123e+01    1.972781e+00
  2.618298e+01    1.712155e+00
  2.621473e+01    1.497973e+00
  2.624648e+01    1.335241e+00
  2.627823e+01    1.257471e+00
  2.630998e+01    1.191662e+00
  2.634173e+01    1.120526e+00
  2.637348e+01    1.090549e+00
  2.640524e+01    1.045435e+00
  2.643699e+01    1.036171e+00
  2.646874e+01    1.009778e+00
  2.650049e+01    1.001741e+00
  2.653224e+01    1.011010e+00
  2.656399e+01    1.018690e+00
  2.659574e+01    9.847871e-01
  2.662749e+01    9.614136e-01
  2.665924e+01    9.897867e-01
  2.669100e+01    9.805644e-01
  2.672275e+01    9.845247e-01
  2.675450e+01    9.781067e-01
  2.678625e+01    9.975970e-01
  2.681800e+01    9.954352e-01
  2.684975e+01    9.850681e-01
  2.688150e+01    9.672439e-01
  2.691325e+01    1.012176e+00
  2.694501e+01    1.009525e+00
  2.697676e+01    1.094189e+00
  2.700851e+01    1.117343e+00
  2.704026e+01    1.204018e+00
  2.707201e+01    1.323483e+00
  2.710376e+01    1.505752e+00
  2.713551e+01    1.748284e+00
  2.716726e+01    1.985429e+00
  2.719901e+01    2.191429e+00
  2.723077e+01    2.178248e+00
  2.726252e+01    2.010182e+00
  2.729427e+01    1.711362e+00
  2.732602e+01    1.458732e+00
  2.735777e+01    1.289757e+00
  2.738952e+01    1.166077e+00
  2.742127e+01    1.093723e+00
  2.745302e+01    1.038673e+00
  2.748477e+01    1.020550e+00
  2.751653e+01    9.654072e-01
  2.754828e+01    9.491894e-01
  2.758003e+01    9.327753e-01
  2.761178e+01    9.463909e-01
  2.764353e+01    9.061493e-01
  2.767528e+01    9.048775e-01
  2.770703e+01    9.214545e-01
  2.773878e+01    9.027575e-01
  2.777054e+01    9.060655e-01
  2.780229e+01    9.152632e-01
  2.783404e+01    8.807988e-01
  2.786579e+01    8.814598e-01
  2.789754e+01    8.742095e-01
  2.792929e+01    8.809080e-01
  2.796104e+01    8.562951e-01
  2.799279e+01    8.730486e-01
  2.802454e+01    8.762727e-01
  2.805630e+01    8.719801e-01
  2.808805e+01    8.772924e-01
  2.811980e+01    8.789494e-01
  2.815155e+01    8.730352e-01
  2.818330e+01    8.581991e-01
  2.821505e+01    8.647131e-01
  2.824680e+01    8.845499e-01
  2.827855e+01    8.570709e-01
  2.831030e+01    8.557353e-01
  2.834206e+01    8.555519e-01
  2.837381e+01    8.677992e-01
  2.840556e+01    8.557668e-01
  2.843731e+01    8.390123e-01
  2.846906e+01    8.426988e-01
  2.850081e+01    8.453662e-01
  2.853256e+01    8.445622e-01
  2.856431e+01    8.230458e-01
  2.859606e+01    8.365698e-01
  2.862782e+01    8.428669e-01
  2.865957e+01    8.423970e-01
  2.869132e+01    8.455199e-01
  2.872307e+01    8.455910e-01
  2.875482e+01    8.264214e-01
  2.878657e+01    8.250225e-01
  2.881832e+01    8.304476e-01
  2.885007e+01    8.770850e-01
  2.888183e+01    8.555537e-01
  2.891358e+01    8.160185e-01
  2.894533e+01    8.005511e-01
  2.897708e+01    8.473030e-01
  2.900883e+01    8.297088e-01
  2.904058e+01    8.129698e-01
  2.907233e+01    8.396596e-01
  2.910408e+01    8.179590e-01
  2.913583e+01    8.225878e-01
  2.916759e+01    8.150929e-01
  2.919934e+01    8.296396e-01
  2.923109e+01    8.266543e-01
  2.926284e+01    8.297841e-01
  2.929459e+01    8.042382e-01
  2.932634e+01    8.220055e-01
  2.935809e+01    8.210024e-01
  2.938984e+01    8.162025e-01
  2.942159e+01    8.196803e-01
  2.945335e+01    7.952537e-01
  2.948510e+01    8.155348e-01
  2.951685e+01    8.047559e-01
  2.954860e+01    7.995035e-01
  2.958035e+01    8.027924e-01
  2.961210e+01    8.127848e-01
  2.964385e+01    8.198482e-01
  2.967560e+01    7.976471e-01
  2.970736e+01    8.171350e-01
  2.973911e+01    7.885154e-01
  2.977086e+01    7.674540e-01
  2.980261e+01    8.057545e-01
  2.983436e+01    8.084069e-01
  2.986611e+01    7.937949e-01
  2.989786e+01    7.979713e-01
  2.992961e+01    8.232504e-01
  2.996136e+01    7.994854e-01
  2.999312e+01    8.158862e-01
  3.002487e+01    8.173615e-01
  3.005662e+01    8.113297e-01
  3.008837e+01    8.259173e-01
  3.012012e+01    8.053938e-01
  3.015187e+01    7.816318e-01
  3.018362e+01    7.950193e-01
  3.021537e+01    7.765385e-01
  3.024712e+01    7.971867e-01
  3.027888e+01    8.024481e-01
  3.031063e+01    7.803665e-01
  3.034238e+01    7.888633e-01
  3.037413e+01    8.055118e-01
  3.040588e+01    7.731664e-01
  3.043763e+01    7.995691e-01
  3.046938e+01    7.882279e-01
  3.050113e+01    7.831026e-01
  3.053288e+01    8.032076e-01
  3.056464e+01    8.032280e-01
  3.059639e+01    8.011981e-01
  3.062814e+01    7.899876e-01
  3.065989e+01    7.661166e-01
  3.069164e+01    7.920060e-01
  3.072339e+01    7.923297e-01
  3.075514e+01    7.876109e-01
  3.078689e+01    7.552381e-01
  3.081865e+01    7.792913e-01
  3.085040e+01    7.807446e-01
  3.088215e+01    7.965794e-01
  3.091390e+01    7.748526e-01
  3.094565e+01    7.950987e-01
  3.097740e+01    7.933133e-01
  3.100915e+01    8.213290e-01
  3.104090e+01    8.142880e-01
  3.107265e+01    7.945327e-01
  3.110441e+01    7.884357e-01
  3.113616e+01    8.036772e-01
  3.116791e+01    8.062756e-01
  3.119966e+01    8.069676e-01
  3.123141e+01    8.030391e-01
  3.126316e+01    7.801470e-01
  3.129491e+01    7.733513e-01
  3.132666e+01    7.959672e-01
  3.135841e+01    8.024783e-01
  3.139017e+01    8.294106e-01
  3.142192e+01    8.292733e-01
  3.145367e+01    8.230888e-01
  3.148542e+01    8.394654e-01
  3.151717e+01    8.218344e-01
  3.154892e+01    8.581687e-01
  3.158067e+01    8.698339e-01
  3.161242e+01    8.886191e-01
  3.164418e+01    9.157415e-01
  3.167593e+01    9.570116e-01
  3.170768e+01    1.018675e+00
  3.173943e+01    1.128272e+00
  3.177118e+01    1.281623e+00
  3.180293e+01    1.451727e+00
  3.183468e+01    1.722608e+00
  3.186643e+01    1.992116e+00
  3.189818e+01    2.107766e+00
  3.192994e+01    2.046791e+00
  3.196169e+01    1.876287e+00
  3.199344e+01    1.569466e+00
  3.202519e+01    1.350587e+00
  3.205694e+01    1.165931e+00
  3.208869e+01    1.053568e+00
  3.212044e+01    9.920012e-01
  3.215219e+01    9.238081e-01
  3.218394e+01    8.938443e-01
  3.221570e+01    8.639120e-01
  3.224745e+01    8.216827e-01
  3.227920e+01    8.075760e-01
  3.231095e+01    8.097182e-01
  3.234270e+01    7.939310e-01
  3.237445e+01    8.019658e-01
  3.240620e+01    7.752441e-01
  3.243795e+01    8.030328e-01
  3.246970e+01    8.113016e-01
  3.250146e+01    7.685820e-01
  3.253321e+01    7.708186e-01
  3.254908e+01    7.541080e-01