File: XRD/Reaction conditions/2024-07-27_003_Ru-CGO-ex_Reaction_dwell_000023_data_000083.dat
# == pyFAI calibration ==
# Distance Sample to Detector: 0.4 m
# PONI: 9.750e-02, 1.135e-01 m
# Rotations: -0.000175 0.000000 -0.000000 rad
#
# == Fit2d calibration ==
# Distance Sample-beamCenter: 400.000 mm
# Center: x=1514.000, y=1300.000 pix
# Tilt: 0.010 deg  TiltPlanRot: 0.010 deg
#
# Detector Detector	 Spline= None	 PixelSize= 7.500e-05, 7.500e-05 m
#    Detector has a mask: False
#    Detector has a dark current: False
#    detector has a flat field: False
#
# Wavelength: 6.888e-11 m
# Mask applied: user provided
# Dark current applied: False
# Flat field applied: False
# Polarization factor: 0.99
# Normalization factor: 1.0
# --> /home/myspot/data/2024_07_Rosario/Ru-CGO-ex/2024-07-27_003_Ru-CGO-ex_Reaction_dwell_000023_data_000083.dat
#       q_nm^-1             I
  2.003187e-02    0.000000e+00
  5.178302e-02    1.655841e-01
  8.353417e-02    1.310573e-01
  1.152853e-01    3.114274e-02
  1.470365e-01    1.147584e-01
  1.787876e-01    2.078226e-02
  2.105388e-01    7.711641e-02
  2.422899e-01    2.015365e-02
  2.740411e-01    2.909295e-02
  3.057922e-01    1.809576e-02
  3.375433e-01    4.699491e-02
  3.692945e-01    5.290456e-02
  4.010456e-01    5.717195e-02
  4.327968e-01    4.416171e-02
  4.645479e-01    2.082535e-02
  4.962991e-01    2.702410e-02
  5.280502e-01    4.295612e-02
  5.598014e-01    6.743398e-02
  5.915525e-01    4.731424e-02
  6.233037e-01    5.588544e-02
  6.550548e-01    5.877005e-02
  6.868060e-01    2.744622e-02
  7.185571e-01    3.253571e-02
  7.503083e-01    6.027026e-02
  7.820594e-01    1.281303e-01
  8.138106e-01    2.209557e-01
  8.455617e-01    3.004680e-01
  8.773129e-01    4.519639e-01
  9.090640e-01    6.455531e-01
  9.408152e-01    9.014691e-01
  9.725663e-01    9.405761e-01
  1.004317e+00    1.213296e+00
  1.036069e+00    1.396968e+00
  1.067820e+00    1.558752e+00
  1.099571e+00    1.512591e+00
  1.131322e+00    1.738592e+00
  1.163073e+00    1.728942e+00
  1.194824e+00    1.747499e+00
  1.226575e+00    2.357912e+00
  1.258327e+00    2.491103e+00
  1.290078e+00    2.611321e+00
  1.321829e+00    2.710842e+00
  1.353580e+00    2.772239e+00
  1.385331e+00    2.860181e+00
  1.417082e+00    2.817892e+00
  1.448834e+00    2.807512e+00
  1.480585e+00    3.175288e+00
  1.512336e+00    3.126554e+00
  1.544087e+00    3.358256e+00
  1.575838e+00    3.061719e+00
  1.607589e+00    3.130515e+00
  1.639340e+00    3.220364e+00
  1.671092e+00    3.117299e+00
  1.702843e+00    3.064471e+00
  1.734594e+00    3.266608e+00
  1.766345e+00    3.170336e+00
  1.798096e+00    3.029123e+00
  1.829847e+00    2.975967e+00
  1.861598e+00    3.017390e+00
  1.893350e+00    3.101959e+00
  1.925101e+00    3.004047e+00
  1.956852e+00    3.028793e+00
  1.988603e+00    3.117088e+00
  2.020354e+00    3.040004e+00
  2.052105e+00    3.175632e+00
  2.083856e+00    3.044950e+00
  2.115608e+00    3.013379e+00
  2.147359e+00    3.019483e+00
  2.179110e+00    3.043414e+00
  2.210861e+00    3.111372e+00
  2.242612e+00    3.138042e+00
  2.274363e+00    3.075296e+00
  2.306115e+00    3.101847e+00
  2.337866e+00    3.104872e+00
  2.369617e+00    3.183064e+00
  2.401368e+00    3.207270e+00
  2.433119e+00    3.233689e+00
  2.464870e+00    3.254501e+00
  2.496621e+00    3.167431e+00
  2.528373e+00    3.312701e+00
  2.560124e+00    3.191551e+00
  2.591875e+00    3.237586e+00
  2.623626e+00    3.150452e+00
  2.655377e+00    3.188294e+00
  2.687128e+00    3.246170e+00
  2.718879e+00    3.324062e+00
  2.750631e+00    3.291545e+00
  2.782382e+00    3.312304e+00
  2.814133e+00    3.213712e+00
  2.845884e+00    3.266602e+00
  2.877635e+00    3.317634e+00
  2.909386e+00    3.297332e+00
  2.941137e+00    3.362926e+00
  2.972889e+00    3.392782e+00
  3.004640e+00    3.387851e+00
  3.036391e+00    3.328446e+00
  3.068142e+00    3.440331e+00
  3.099893e+00    3.341693e+00
  3.131644e+00    3.301244e+00
  3.163395e+00    3.385327e+00
  3.195147e+00    3.381368e+00
  3.226898e+00    3.422272e+00
  3.258649e+00    3.350518e+00
  3.290400e+00    3.407244e+00
  3.322151e+00    3.382373e+00
  3.353902e+00    3.414155e+00
  3.385654e+00    3.491322e+00
  3.417405e+00    3.446208e+00
  3.449156e+00    3.450256e+00
  3.480907e+00    3.309967e+00
  3.512658e+00    3.464021e+00
  3.544409e+00    3.438374e+00
  3.576160e+00    3.415591e+00
  3.607912e+00    3.412941e+00
  3.639663e+00    3.491477e+00
  3.671414e+00    3.507679e+00
  3.703165e+00    3.509126e+00
  3.734916e+00    3.469718e+00
  3.766667e+00    3.502007e+00
  3.798418e+00    3.535393e+00
  3.830170e+00    3.496590e+00
  3.861921e+00    3.579560e+00
  3.893672e+00    3.466466e+00
  3.925423e+00    3.518898e+00
  3.957174e+00    3.552625e+00
  3.988925e+00    3.543881e+00
  4.020676e+00    3.557263e+00
  4.052428e+00    3.513579e+00
  4.084179e+00    3.523559e+00
  4.115930e+00    3.559830e+00
  4.147681e+00    3.504260e+00
  4.179432e+00    3.502343e+00
  4.211183e+00    3.476576e+00
  4.242935e+00    3.538873e+00
  4.274686e+00    3.627789e+00
  4.306437e+00    3.568365e+00
  4.338188e+00    3.618767e+00
  4.369939e+00    3.589035e+00
  4.401690e+00    3.555814e+00
  4.433441e+00    3.588126e+00
  4.465193e+00    3.527398e+00
  4.496944e+00    3.621222e+00
  4.528695e+00    3.629290e+00
  4.560446e+00    3.596573e+00
  4.592197e+00    3.626420e+00
  4.623948e+00    3.720401e+00
  4.655699e+00    3.666244e+00
  4.687451e+00    3.590120e+00
  4.719202e+00    3.615435e+00
  4.750953e+00    3.627534e+00
  4.782704e+00    3.587994e+00
  4.814455e+00    3.670088e+00
  4.846206e+00    3.622700e+00
  4.877957e+00    3.688004e+00
  4.909709e+00    3.718589e+00
  4.941460e+00    3.598316e+00
  4.973211e+00    3.659374e+00
  5.004962e+00    3.692116e+00
  5.036713e+00    3.664458e+00
  5.068464e+00    3.627491e+00
  5.100216e+00    3.631524e+00
  5.131967e+00    3.705337e+00
  5.163718e+00    3.674075e+00
  5.195469e+00    3.682924e+00
  5.227220e+00    3.683311e+00
  5.258971e+00    3.632653e+00
  5.290722e+00    3.680356e+00
  5.322474e+00    3.679200e+00
  5.354225e+00    3.655215e+00
  5.385976e+00    3.727162e+00
  5.417727e+00    3.698540e+00
  5.449478e+00    3.639672e+00
  5.481229e+00    3.617526e+00
  5.512980e+00    3.553110e+00
  5.544732e+00    3.637966e+00
  5.576483e+00    3.607392e+00
  5.608234e+00    3.654157e+00
  5.639985e+00    3.697217e+00
  5.671736e+00    3.500709e+00
  5.703487e+00    3.589169e+00
  5.735238e+00    3.600425e+00
  5.766990e+00    3.606483e+00
  5.798741e+00    3.587742e+00
  5.830492e+00    3.646770e+00
  5.862243e+00    3.625877e+00
  5.893994e+00    3.590192e+00
  5.925745e+00    3.540489e+00
  5.957497e+00    3.573290e+00
  5.989248e+00    3.680218e+00
  6.020999e+00    3.569400e+00
  6.052750e+00    3.505817e+00
  6.084501e+00    3.551297e+00
  6.116252e+00    3.637064e+00
  6.148003e+00    3.633724e+00
  6.179755e+00    3.547325e+00
  6.211506e+00    3.609582e+00
  6.243257e+00    3.671172e+00
  6.275008e+00    3.572927e+00
  6.306759e+00    3.498563e+00
  6.338510e+00    3.601220e+00
  6.370261e+00    3.546342e+00
  6.402013e+00    3.569168e+00
  6.433764e+00    3.587119e+00
  6.465515e+00    3.620265e+00
  6.497266e+00    3.521877e+00
  6.529017e+00    3.601377e+00
  6.560768e+00    3.628350e+00
  6.592519e+00    3.528342e+00
  6.624271e+00    3.577012e+00
  6.656022e+00    3.548857e+00
  6.687773e+00    3.551314e+00
  6.719524e+00    3.612344e+00
  6.751275e+00    3.568535e+00
  6.783026e+00    3.554993e+00
  6.814777e+00    3.599441e+00
  6.846529e+00    3.572283e+00
  6.878280e+00    3.530394e+00
  6.910031e+00    3.584310e+00
  6.941782e+00    3.602577e+00
  6.973533e+00    3.545508e+00
  7.005284e+00    3.548713e+00
  7.037036e+00    3.534015e+00
  7.068787e+00    3.512354e+00
  7.100538e+00    3.590786e+00
  7.132289e+00    3.542603e+00
  7.164040e+00    3.500996e+00
  7.195791e+00    3.516497e+00
  7.227542e+00    3.595882e+00
  7.259294e+00    3.598858e+00
  7.291045e+00    3.552383e+00
  7.322796e+00    3.476134e+00
  7.354547e+00    3.474474e+00
  7.386298e+00    3.560568e+00
  7.418049e+00    3.537590e+00
  7.449800e+00    3.567182e+00
  7.481552e+00    3.524157e+00
  7.513303e+00    3.511646e+00
  7.545054e+00    3.550101e+00
  7.576805e+00    3.490428e+00
  7.608556e+00    3.519045e+00
  7.640307e+00    3.404659e+00
  7.672058e+00    3.460669e+00
  7.703810e+00    3.450326e+00
  7.735561e+00    3.473173e+00
  7.767312e+00    3.450204e+00
  7.799063e+00    3.495997e+00
  7.830814e+00    3.467359e+00
  7.862565e+00    3.435727e+00
  7.894317e+00    3.411714e+00
  7.926068e+00    3.393764e+00
  7.957819e+00    3.499489e+00
  7.989570e+00    3.412048e+00
  8.021321e+00    3.420696e+00
  8.053072e+00    3.435945e+00
  8.084823e+00    3.483186e+00
  8.116575e+00    3.404306e+00
  8.148326e+00    3.476726e+00
  8.180077e+00    3.412652e+00
  8.211828e+00    3.512477e+00
  8.243579e+00    3.465851e+00
  8.275330e+00    3.428966e+00
  8.307081e+00    3.381570e+00
  8.338833e+00    3.391103e+00
  8.370584e+00    3.411295e+00
  8.402335e+00    3.333722e+00
  8.434086e+00    3.349130e+00
  8.465837e+00    3.335015e+00
  8.497588e+00    3.351496e+00
  8.529339e+00    3.413020e+00
  8.561091e+00    3.419796e+00
  8.592842e+00    3.365962e+00
  8.624593e+00    3.370741e+00
  8.656344e+00    3.368888e+00
  8.688095e+00    3.361885e+00
  8.719846e+00    3.340318e+00
  8.751598e+00    3.321693e+00
  8.783349e+00    3.276217e+00
  8.815100e+00    3.362837e+00
  8.846851e+00    3.318061e+00
  8.878602e+00    3.317735e+00
  8.910353e+00    3.365949e+00
  8.942104e+00    3.335852e+00
  8.973856e+00    3.278469e+00
  9.005607e+00    3.311255e+00
  9.037358e+00    3.340463e+00
  9.069109e+00    3.286200e+00
  9.100860e+00    3.259120e+00
  9.132611e+00    3.320384e+00
  9.164362e+00    3.290563e+00
  9.196114e+00    3.352744e+00
  9.227865e+00    3.294780e+00
  9.259616e+00    3.267250e+00
  9.291367e+00    3.282072e+00
  9.323118e+00    3.284745e+00
  9.354869e+00    3.211646e+00
  9.386620e+00    3.237279e+00
  9.418372e+00    3.200716e+00
  9.450123e+00    3.278829e+00
  9.481874e+00    3.199927e+00
  9.513625e+00    3.256495e+00
  9.545376e+00    3.175201e+00
  9.577127e+00    3.227611e+00
  9.608878e+00    3.257409e+00
  9.640630e+00    3.200308e+00
  9.672381e+00    3.232320e+00
  9.704132e+00    3.188411e+00
  9.735883e+00    3.122505e+00
  9.767634e+00    3.238323e+00
  9.799385e+00    3.186784e+00
  9.831137e+00    3.198780e+00
  9.862888e+00    3.130787e+00
  9.894639e+00    3.126747e+00
  9.926390e+00    3.126328e+00
  9.958141e+00    3.214188e+00
  9.989892e+00    3.117959e+00
  1.002164e+01    3.103558e+00
  1.005339e+01    3.098799e+00
  1.008515e+01    3.127209e+00
  1.011690e+01    3.131318e+00
  1.014865e+01    3.050289e+00
  1.018040e+01    3.131912e+00
  1.021215e+01    3.091009e+00
  1.024390e+01    3.089569e+00
  1.027565e+01    3.075777e+00
  1.030740e+01    3.056499e+00
  1.033915e+01    3.017107e+00
  1.037091e+01    3.038713e+00
  1.040266e+01    3.059775e+00
  1.043441e+01    3.100912e+00
  1.046616e+01    3.056818e+00
  1.049791e+01    2.995539e+00
  1.052966e+01    2.947871e+00
  1.056141e+01    3.067948e+00
  1.059316e+01    2.992032e+00
  1.062492e+01    2.982746e+00
  1.065667e+01    2.958640e+00
  1.068842e+01    3.034535e+00
  1.072017e+01    2.986472e+00
  1.075192e+01    2.947582e+00
  1.078367e+01    2.971611e+00
  1.081542e+01    2.948677e+00
  1.084717e+01    2.989855e+00
  1.087892e+01    2.994653e+00
  1.091068e+01    2.887425e+00
  1.094243e+01    2.931246e+00
  1.097418e+01    2.891060e+00
  1.100593e+01    2.926017e+00
  1.103768e+01    2.980340e+00
  1.106943e+01    2.926583e+00
  1.110118e+01    2.870894e+00
  1.113293e+01    2.901141e+00
  1.116468e+01    2.874458e+00
  1.119644e+01    2.818289e+00
  1.122819e+01    2.888123e+00
  1.125994e+01    2.839380e+00
  1.129169e+01    2.874191e+00
  1.132344e+01    2.850157e+00
  1.135519e+01    2.865484e+00
  1.138694e+01    2.816496e+00
  1.141869e+01    2.807812e+00
  1.145045e+01    2.823713e+00
  1.148220e+01    2.802931e+00
  1.151395e+01    2.761234e+00
  1.154570e+01    2.736753e+00
  1.157745e+01    2.814186e+00
  1.160920e+01    2.786683e+00
  1.164095e+01    2.768878e+00
  1.167270e+01    2.788771e+00
  1.170445e+01    2.796381e+00
  1.173621e+01    2.786160e+00
  1.176796e+01    2.774255e+00
  1.179971e+01    2.770720e+00
  1.183146e+01    2.713348e+00
  1.186321e+01    2.717113e+00
  1.189496e+01    2.709235e+00
  1.192671e+01    2.754772e+00
  1.195846e+01    2.703740e+00
  1.199021e+01    2.712502e+00
  1.202197e+01    2.719485e+00
  1.205372e+01    2.730688e+00
  1.208547e+01    2.718159e+00
  1.211722e+01    2.684754e+00
  1.214897e+01    2.723736e+00
  1.218072e+01    2.726144e+00
  1.221247e+01    2.702712e+00
  1.224422e+01    2.758016e+00
  1.227597e+01    2.694538e+00
  1.230773e+01    2.709582e+00
  1.233948e+01    2.741585e+00
  1.237123e+01    2.708849e+00
  1.240298e+01    2.691017e+00
  1.243473e+01    2.713798e+00
  1.246648e+01    2.728603e+00
  1.249823e+01    2.716923e+00
  1.252998e+01    2.713106e+00
  1.256174e+01    2.756741e+00
  1.259349e+01    2.720599e+00
  1.262524e+01    2.771341e+00
  1.265699e+01    2.778506e+00
  1.268874e+01    2.788477e+00
  1.272049e+01    2.878217e+00
  1.275224e+01    2.866145e+00
  1.278399e+01    2.941307e+00
  1.281574e+01    3.099011e+00
  1.284750e+01    3.175367e+00
  1.287925e+01    3.417481e+00
  1.291100e+01    3.674014e+00
  1.294275e+01    4.072592e+00
  1.297450e+01    4.829495e+00
  1.300625e+01    5.958942e+00
  1.303800e+01    7.765596e+00
  1.306975e+01    1.013982e+01
  1.310150e+01    1.288212e+01
  1.313326e+01    1.500507e+01
  1.316501e+01    1.642688e+01
  1.319676e+01    1.579114e+01
  1.322851e+01    1.263858e+01
  1.326026e+01    9.224103e+00
  1.329201e+01    6.877547e+00
  1.332376e+01    5.379373e+00
  1.335551e+01    4.475300e+00
  1.338727e+01    3.910288e+00
  1.341902e+01    3.541431e+00
  1.345077e+01    3.218614e+00
  1.348252e+01    3.125522e+00
  1.351427e+01    2.899441e+00
  1.354602e+01    2.872685e+00
  1.357777e+01    2.743576e+00
  1.360952e+01    2.708222e+00
  1.364127e+01    2.637527e+00
  1.367303e+01    2.594244e+00
  1.370478e+01    2.568780e+00
  1.373653e+01    2.569088e+00
  1.376828e+01    2.476781e+00
  1.380003e+01    2.447248e+00
  1.383178e+01    2.464260e+00
  1.386353e+01    2.453350e+00
  1.389528e+01    2.396736e+00
  1.392703e+01    2.466563e+00
  1.395879e+01    2.427229e+00
  1.399054e+01    2.411008e+00
  1.402229e+01    2.340924e+00
  1.405404e+01    2.354905e+00
  1.408579e+01    2.345450e+00
  1.411754e+01    2.330765e+00
  1.414929e+01    2.339885e+00
  1.418104e+01    2.342593e+00
  1.421279e+01    2.278010e+00
  1.424455e+01    2.313861e+00
  1.427630e+01    2.279016e+00
  1.430805e+01    2.284349e+00
  1.433980e+01    2.254019e+00
  1.437155e+01    2.296831e+00
  1.440330e+01    2.246151e+00
  1.443505e+01    2.282129e+00
  1.446680e+01    2.254961e+00
  1.449856e+01    2.253052e+00
  1.453031e+01    2.224217e+00
  1.456206e+01    2.226600e+00
  1.459381e+01    2.197015e+00
  1.462556e+01    2.262875e+00
  1.465731e+01    2.192474e+00
  1.468906e+01    2.207547e+00
  1.472081e+01    2.176738e+00
  1.475256e+01    2.218912e+00
  1.478432e+01    2.207690e+00
  1.481607e+01    2.193371e+00
  1.484782e+01    2.223188e+00
  1.487957e+01    2.234308e+00
  1.491132e+01    2.229787e+00
  1.494307e+01    2.297595e+00
  1.497482e+01    2.309408e+00
  1.500657e+01    2.435323e+00
  1.503832e+01    2.571114e+00
  1.507008e+01    2.857227e+00
  1.510183e+01    3.196381e+00
  1.513358e+01    3.820393e+00
  1.516533e+01    4.607374e+00
  1.519708e+01    5.142932e+00
  1.522883e+01    5.671988e+00
  1.526058e+01    5.812825e+00
  1.529233e+01    5.583255e+00
  1.532409e+01    4.759733e+00
  1.535584e+01    3.779729e+00
  1.538759e+01    3.209816e+00
  1.541934e+01    2.800080e+00
  1.545109e+01    2.528388e+00
  1.548284e+01    2.370817e+00
  1.551459e+01    2.264147e+00
  1.554634e+01    2.180147e+00
  1.557809e+01    2.151124e+00
  1.560985e+01    2.116828e+00
  1.564160e+01    2.081381e+00
  1.567335e+01    2.038905e+00
  1.570510e+01    2.009685e+00
  1.573685e+01    1.986536e+00
  1.576860e+01    2.001648e+00
  1.580035e+01    1.980492e+00
  1.583210e+01    1.923182e+00
  1.586385e+01    1.922918e+00
  1.589561e+01    1.910755e+00
  1.592736e+01    1.905756e+00
  1.595911e+01    1.910492e+00
  1.599086e+01    1.878439e+00
  1.602261e+01    1.850339e+00
  1.605436e+01    1.867599e+00
  1.608611e+01    1.872977e+00
  1.611786e+01    1.853911e+00
  1.614961e+01    1.863949e+00
  1.618137e+01    1.795708e+00
  1.621312e+01    1.857395e+00
  1.624487e+01    1.829750e+00
  1.627662e+01    1.829182e+00
  1.630837e+01    1.804533e+00
  1.634012e+01    1.819820e+00
  1.637187e+01    1.766914e+00
  1.640362e+01    1.767044e+00
  1.643538e+01    1.785278e+00
  1.646713e+01    1.772164e+00
  1.649888e+01    1.752329e+00
  1.653063e+01    1.757022e+00
  1.656238e+01    1.729461e+00
  1.659413e+01    1.750693e+00
  1.662588e+01    1.717810e+00
  1.665763e+01    1.736598e+00
  1.668938e+01    1.681377e+00
  1.672114e+01    1.735524e+00
  1.675289e+01    1.738857e+00
  1.678464e+01    1.716992e+00
  1.681639e+01    1.741156e+00
  1.684814e+01    1.721277e+00
  1.687989e+01    1.688007e+00
  1.691164e+01    1.680136e+00
  1.694339e+01    1.663803e+00
  1.697514e+01    1.656269e+00
  1.700690e+01    1.695588e+00
  1.703865e+01    1.682628e+00
  1.707040e+01    1.673061e+00
  1.710215e+01    1.671445e+00
  1.713390e+01    1.624459e+00
  1.716565e+01    1.613229e+00
  1.719740e+01    1.623491e+00
  1.722915e+01    1.629896e+00
  1.726091e+01    1.623055e+00
  1.729266e+01    1.616365e+00
  1.732441e+01    1.631400e+00
  1.735616e+01    1.597932e+00
  1.738791e+01    1.605093e+00
  1.741966e+01    1.587559e+00
  1.745141e+01    1.619619e+00
  1.748316e+01    1.603409e+00
  1.751491e+01    1.589992e+00
  1.754667e+01    1.576851e+00
  1.757842e+01    1.607603e+00
  1.761017e+01    1.558019e+00
  1.764192e+01    1.554613e+00
  1.767367e+01    1.535585e+00
  1.770542e+01    1.535132e+00
  1.773717e+01    1.561614e+00
  1.776892e+01    1.587774e+00
  1.780067e+01    1.518453e+00
  1.783243e+01    1.543349e+00
  1.786418e+01    1.543555e+00
  1.789593e+01    1.537773e+00
  1.792768e+01    1.525445e+00
  1.795943e+01    1.527773e+00
  1.799118e+01    1.484309e+00
  1.802293e+01    1.511450e+00
  1.805468e+01    1.484355e+00
  1.808643e+01    1.527076e+00
  1.811819e+01    1.493851e+00
  1.814994e+01    1.489999e+00
  1.818169e+01    1.476995e+00
  1.821344e+01    1.506254e+00
  1.824519e+01    1.477564e+00
  1.827694e+01    1.503801e+00
  1.830869e+01    1.476887e+00
  1.834044e+01    1.467287e+00
  1.837220e+01    1.457057e+00
  1.840395e+01    1.465555e+00
  1.843570e+01    1.448690e+00
  1.846745e+01    1.415895e+00
  1.849920e+01    1.439904e+00
  1.853095e+01    1.466253e+00
  1.856270e+01    1.453902e+00
  1.859445e+01    1.415712e+00
  1.862620e+01    1.451178e+00
  1.865796e+01    1.429624e+00
  1.868971e+01    1.451072e+00
  1.872146e+01    1.437624e+00
  1.875321e+01    1.437616e+00
  1.878496e+01    1.441643e+00
  1.881671e+01    1.453900e+00
  1.884846e+01    1.430303e+00
  1.888021e+01    1.396300e+00
  1.891196e+01    1.409580e+00
  1.894372e+01    1.381693e+00
  1.897547e+01    1.385912e+00
  1.900722e+01    1.405408e+00
  1.903897e+01    1.380848e+00
  1.907072e+01    1.374771e+00
  1.910247e+01    1.371928e+00
  1.913422e+01    1.376925e+00
  1.916597e+01    1.374796e+00
  1.919773e+01    1.372832e+00
  1.922948e+01    1.360436e+00
  1.926123e+01    1.343166e+00
  1.929298e+01    1.326645e+00
  1.932473e+01    1.358409e+00
  1.935648e+01    1.365249e+00
  1.938823e+01    1.343821e+00
  1.941998e+01    1.346395e+00
  1.945173e+01    1.341235e+00
  1.948349e+01    1.331813e+00
  1.951524e+01    1.330734e+00
  1.954699e+01    1.330078e+00
  1.957874e+01    1.333780e+00
  1.961049e+01    1.333905e+00
  1.964224e+01    1.342556e+00
  1.967399e+01    1.323580e+00
  1.970574e+01    1.337107e+00
  1.973749e+01    1.324643e+00
  1.976925e+01    1.296227e+00
  1.980100e+01    1.284059e+00
  1.983275e+01    1.283080e+00
  1.986450e+01    1.296926e+00
  1.989625e+01    1.261731e+00
  1.992800e+01    1.335124e+00
  1.995975e+01    1.313628e+00
  1.999150e+01    1.279597e+00
  2.002325e+01    1.271563e+00
  2.005501e+01    1.275948e+00
  2.008676e+01    1.263341e+00
  2.011851e+01    1.252748e+00
  2.015026e+01    1.269207e+00
  2.018201e+01    1.271562e+00
  2.021376e+01    1.258352e+00
  2.024551e+01    1.253062e+00
  2.027726e+01    1.273689e+00
  2.030902e+01    1.260041e+00
  2.034077e+01    1.254672e+00
  2.037252e+01    1.263028e+00
  2.040427e+01    1.250050e+00
  2.043602e+01    1.244904e+00
  2.046777e+01    1.241774e+00
  2.049952e+01    1.241107e+00
  2.053127e+01    1.246819e+00
  2.056302e+01    1.265176e+00
  2.059478e+01    1.249561e+00
  2.062653e+01    1.252752e+00
  2.065828e+01    1.267197e+00
  2.069003e+01    1.231418e+00
  2.072178e+01    1.242640e+00
  2.075353e+01    1.226086e+00
  2.078528e+01    1.219139e+00
  2.081703e+01    1.241815e+00
  2.084878e+01    1.221223e+00
  2.088054e+01    1.228789e+00
  2.091229e+01    1.225799e+00
  2.094404e+01    1.276093e+00
  2.097579e+01    1.246166e+00
  2.100754e+01    1.203056e+00
  2.103929e+01    1.220308e+00
  2.107104e+01    1.253889e+00
  2.110279e+01    1.251582e+00
  2.113455e+01    1.223429e+00
  2.116630e+01    1.234811e+00
  2.119805e+01    1.219437e+00
  2.122980e+01    1.253691e+00
  2.126155e+01    1.243272e+00
  2.129330e+01    1.277133e+00
  2.132505e+01    1.278392e+00
  2.135680e+01    1.296065e+00
  2.138855e+01    1.317464e+00
  2.142031e+01    1.321288e+00
  2.145206e+01    1.375521e+00
  2.148381e+01    1.391797e+00
  2.151556e+01    1.450549e+00
  2.154731e+01    1.537021e+00
  2.157906e+01    1.635713e+00
  2.161081e+01    1.748570e+00
  2.164256e+01    1.979510e+00
  2.167431e+01    2.286558e+00
  2.170607e+01    2.826511e+00
  2.173782e+01    3.548875e+00
  2.176957e+01    4.621810e+00
  2.180132e+01    5.849611e+00
  2.183307e+01    7.273746e+00
  2.186482e+01    8.425680e+00
  2.189657e+01    9.048026e+00
  2.192832e+01    8.392388e+00
  2.196007e+01    6.671491e+00
  2.199183e+01    4.930833e+00
  2.202358e+01    3.637134e+00
  2.205533e+01    2.858094e+00
  2.208708e+01    2.332198e+00
  2.211883e+01    2.039216e+00
  2.215058e+01    1.792171e+00
  2.218233e+01    1.600652e+00
  2.221408e+01    1.500885e+00
  2.224584e+01    1.426940e+00
  2.227759e+01    1.352335e+00
  2.230934e+01    1.269787e+00
  2.234109e+01    1.243867e+00
  2.237284e+01    1.228712e+00
  2.240459e+01    1.214939e+00
  2.243634e+01    1.199612e+00
  2.246809e+01    1.149424e+00
  2.249984e+01    1.144373e+00
  2.253160e+01    1.144350e+00
  2.256335e+01    1.128168e+00
  2.259510e+01    1.129722e+00
  2.262685e+01    1.119458e+00
  2.265860e+01    1.104802e+00
  2.269035e+01    1.069182e+00
  2.272210e+01    1.081624e+00
  2.275385e+01    1.087491e+00
  2.278560e+01    1.094140e+00
  2.281736e+01    1.085607e+00
  2.284911e+01    1.054330e+00
  2.288086e+01    1.044320e+00
  2.291261e+01    1.041645e+00
  2.294436e+01    1.030577e+00
  2.297611e+01    1.027659e+00
  2.300786e+01    1.010893e+00
  2.303961e+01    1.027058e+00
  2.307137e+01    1.008682e+00
  2.310312e+01    1.019111e+00
  2.313487e+01    1.017626e+00
  2.316662e+01    1.001950e+00
  2.319837e+01    1.014889e+00
  2.323012e+01    9.898696e-01
  2.326187e+01    9.966454e-01
  2.329362e+01    1.009490e+00
  2.332537e+01    9.777046e-01
  2.335713e+01    9.638502e-01
  2.338888e+01    9.794894e-01
  2.342063e+01    9.869093e-01
  2.345238e+01    9.672692e-01
  2.348413e+01    9.795683e-01
  2.351588e+01    9.462107e-01
  2.354763e+01    9.581286e-01
  2.357938e+01    9.582713e-01
  2.361113e+01    9.872766e-01
  2.364289e+01    9.631521e-01
  2.367464e+01    9.398366e-01
  2.370639e+01    9.107090e-01
  2.373814e+01    9.343672e-01
  2.376989e+01    9.422404e-01
  2.380164e+01    9.107888e-01
  2.383339e+01    8.919851e-01
  2.386514e+01    9.260950e-01
  2.389689e+01    9.376184e-01
  2.392865e+01    8.955109e-01
  2.396040e+01    9.153824e-01
  2.399215e+01    8.975422e-01
  2.402390e+01    9.069864e-01
  2.405565e+01    8.944907e-01
  2.408740e+01    9.060590e-01
  2.411915e+01    9.002959e-01
  2.415090e+01    8.996992e-01
  2.418266e+01    8.945678e-01
  2.421441e+01    9.167117e-01
  2.424616e+01    8.787133e-01
  2.427791e+01    9.061652e-01
  2.430966e+01    8.928007e-01
  2.434141e+01    8.987751e-01
  2.437316e+01    9.098194e-01
  2.440491e+01    8.835148e-01
  2.443666e+01    9.035473e-01
  2.446842e+01    8.930945e-01
  2.450017e+01    8.701157e-01
  2.453192e+01    8.942292e-01
  2.456367e+01    8.853685e-01
  2.459542e+01    9.123263e-01
  2.462717e+01    9.005462e-01
  2.465892e+01    8.847521e-01
  2.469067e+01    9.064966e-01
  2.472242e+01    8.955470e-01
  2.475418e+01    8.884687e-01
  2.478593e+01    8.964255e-01
  2.481768e+01    9.042386e-01
  2.484943e+01    9.068233e-01
  2.488118e+01    8.749239e-01
  2.491293e+01    9.072827e-01
  2.494468e+01    8.858851e-01
  2.497643e+01    8.735313e-01
  2.500819e+01    9.010406e-01
  2.503994e+01    9.127388e-01
  2.507169e+01    9.177059e-01
  2.510344e+01    8.966445e-01
  2.513519e+01    9.195058e-01
  2.516694e+01    9.213426e-01
  2.519869e+01    9.225795e-01
  2.523044e+01    9.216150e-01
  2.526219e+01    9.554653e-01
  2.529395e+01    9.603993e-01
  2.532570e+01    9.640526e-01
  2.535745e+01    9.869858e-01
  2.538920e+01    9.861240e-01
  2.542095e+01    1.007675e+00
  2.545270e+01    1.004293e+00
  2.548445e+01    1.040174e+00
  2.551620e+01    1.077945e+00
  2.554795e+01    1.115784e+00
  2.557971e+01    1.164714e+00
  2.561146e+01    1.221180e+00
  2.564321e+01    1.299442e+00
  2.567496e+01    1.422250e+00
  2.570671e+01    1.621327e+00
  2.573846e+01    1.872879e+00
  2.577021e+01    2.272238e+00
  2.580196e+01    2.836056e+00
  2.583371e+01    3.618045e+00
  2.586547e+01    4.700213e+00
  2.589722e+01    5.867805e+00
  2.592897e+01    6.829481e+00
  2.596072e+01    7.247582e+00
  2.599247e+01    6.639637e+00
  2.602422e+01    5.328846e+00
  2.605597e+01    4.081872e+00
  2.608772e+01    3.026177e+00
  2.611948e+01    2.382617e+00
  2.615123e+01    1.971521e+00
  2.618298e+01    1.675710e+00
  2.621473e+01    1.484278e+00
  2.624648e+01    1.358460e+00
  2.627823e+01    1.265747e+00
  2.630998e+01    1.174723e+00
  2.634173e+01    1.142623e+00
  2.637348e+01    1.075730e+00
  2.640524e+01    1.066151e+00
  2.643699e+01    1.043252e+00
  2.646874e+01    1.033127e+00
  2.650049e+01    1.023972e+00
  2.653224e+01    1.014320e+00
  2.656399e+01    9.960187e-01
  2.659574e+01    9.879544e-01
  2.662749e+01    9.808312e-01
  2.665924e+01    9.699603e-01
  2.669100e+01    9.706649e-01
  2.672275e+01    9.850262e-01
  2.675450e+01    9.727032e-01
  2.678625e+01    9.942784e-01
  2.681800e+01    9.728845e-01
  2.684975e+01    9.790534e-01
  2.688150e+01    9.835013e-01
  2.691325e+01    9.973105e-01
  2.694501e+01    1.042428e+00
  2.697676e+01    1.069885e+00
  2.700851e+01    1.102524e+00
  2.704026e+01    1.216974e+00
  2.707201e+01    1.318274e+00
  2.710376e+01    1.513947e+00
  2.713551e+01    1.729419e+00
  2.716726e+01    1.978229e+00
  2.719901e+01    2.164312e+00
  2.723077e+01    2.180286e+00
  2.726252e+01    2.022963e+00
  2.729427e+01    1.723117e+00
  2.732602e+01    1.446033e+00
  2.735777e+01    1.302297e+00
  2.738952e+01    1.191658e+00
  2.742127e+01    1.090805e+00
  2.745302e+01    1.031647e+00
  2.748477e+01    9.670623e-01
  2.751653e+01    9.743933e-01
  2.754828e+01    9.655386e-01
  2.758003e+01    9.228486e-01
  2.761178e+01    9.634103e-01
  2.764353e+01    9.050142e-01
  2.767528e+01    9.000580e-01
  2.770703e+01    8.869606e-01
  2.773878e+01    9.071450e-01
  2.777054e+01    9.119373e-01
  2.780229e+01    9.003675e-01
  2.783404e+01    8.805108e-01
  2.786579e+01    9.002319e-01
  2.789754e+01    8.906733e-01
  2.792929e+01    8.782961e-01
  2.796104e+01    8.707291e-01
  2.799279e+01    8.715652e-01
  2.802454e+01    8.820801e-01
  2.805630e+01    8.708043e-01
  2.808805e+01    8.589860e-01
  2.811980e+01    8.594249e-01
  2.815155e+01    8.389028e-01
  2.818330e+01    8.471774e-01
  2.821505e+01    8.596565e-01
  2.824680e+01    8.482081e-01
  2.827855e+01    8.607943e-01
  2.831030e+01    8.552260e-01
  2.834206e+01    8.420335e-01
  2.837381e+01    8.488842e-01
  2.840556e+01    8.449076e-01
  2.843731e+01    8.631390e-01
  2.846906e+01    8.343772e-01
  2.850081e+01    8.317385e-01
  2.853256e+01    8.423543e-01
  2.856431e+01    8.525711e-01
  2.859606e+01    8.499711e-01
  2.862782e+01    8.256149e-01
  2.865957e+01    8.393160e-01
  2.869132e+01    8.319439e-01
  2.872307e+01    8.350058e-01
  2.875482e+01    8.285502e-01
  2.878657e+01    8.176128e-01
  2.881832e+01    8.154888e-01
  2.885007e+01    8.324378e-01
  2.888183e+01    8.249533e-01
  2.891358e+01    8.336260e-01
  2.894533e+01    8.301441e-01
  2.897708e+01    8.243883e-01
  2.900883e+01    8.347867e-01
  2.904058e+01    8.328391e-01
  2.907233e+01    8.335550e-01
  2.910408e+01    8.132542e-01
  2.913583e+01    8.109041e-01
  2.916759e+01    8.276738e-01
  2.919934e+01    8.344653e-01
  2.923109e+01    8.223664e-01
  2.926284e+01    8.035756e-01
  2.929459e+01    8.144996e-01
  2.932634e+01    8.176100e-01
  2.935809e+01    8.153086e-01
  2.938984e+01    8.257885e-01
  2.942159e+01    7.755124e-01
  2.945335e+01    8.029194e-01
  2.948510e+01    8.093923e-01
  2.951685e+01    8.059078e-01
  2.954860e+01    8.223585e-01
  2.958035e+01    8.178595e-01
  2.961210e+01    7.843910e-01
  2.964385e+01    8.224670e-01
  2.967560e+01    7.990155e-01
  2.970736e+01    8.058920e-01
  2.973911e+01    8.089668e-01
  2.977086e+01    8.181744e-01
  2.980261e+01    8.062083e-01
  2.983436e+01    7.897433e-01
  2.986611e+01    8.010486e-01
  2.989786e+01    7.926593e-01
  2.992961e+01    8.060634e-01
  2.996136e+01    7.990578e-01
  2.999312e+01    8.085250e-01
  3.002487e+01    8.114092e-01
  3.005662e+01    8.124133e-01
  3.008837e+01    7.982002e-01
  3.012012e+01    8.088200e-01
  3.015187e+01    7.792059e-01
  3.018362e+01    7.886545e-01
  3.021537e+01    8.076316e-01
  3.024712e+01    7.973040e-01
  3.027888e+01    7.857252e-01
  3.031063e+01    8.056428e-01
  3.034238e+01    7.754562e-01
  3.037413e+01    8.072164e-01
  3.040588e+01    7.785922e-01
  3.043763e+01    7.768059e-01
  3.046938e+01    7.755699e-01
  3.050113e+01    7.846918e-01
  3.053288e+01    7.962582e-01
  3.056464e+01    7.819701e-01
  3.059639e+01    7.733579e-01
  3.062814e+01    8.094465e-01
  3.065989e+01    7.793449e-01
  3.069164e+01    7.952026e-01
  3.072339e+01    7.742009e-01
  3.075514e+01    7.800612e-01
  3.078689e+01    7.664291e-01
  3.081865e+01    7.793881e-01
  3.085040e+01    7.875459e-01
  3.088215e+01    7.866379e-01
  3.091390e+01    7.825818e-01
  3.094565e+01    7.890357e-01
  3.097740e+01    7.604899e-01
  3.100915e+01    7.689500e-01
  3.104090e+01    7.799306e-01
  3.107265e+01    7.724015e-01
  3.110441e+01    7.598181e-01
  3.113616e+01    8.002068e-01
  3.116791e+01    7.986547e-01
  3.119966e+01    7.804755e-01
  3.123141e+01    8.108616e-01
  3.126316e+01    7.931286e-01
  3.129491e+01    8.058894e-01
  3.132666e+01    8.006635e-01
  3.135841e+01    8.013759e-01
  3.139017e+01    8.079798e-01
  3.142192e+01    8.202856e-01
  3.145367e+01    8.424968e-01
  3.148542e+01    8.409845e-01
  3.151717e+01    8.363929e-01
  3.154892e+01    8.636658e-01
  3.158067e+01    8.431839e-01
  3.161242e+01    9.047009e-01
  3.164418e+01    9.280537e-01
  3.167593e+01    9.794754e-01
  3.170768e+01    1.011609e+00
  3.173943e+01    1.154339e+00
  3.177118e+01    1.252837e+00
  3.180293e+01    1.439076e+00
  3.183468e+01    1.731324e+00
  3.186643e+01    2.002716e+00
  3.189818e+01    2.104152e+00
  3.192994e+01    2.075834e+00
  3.196169e+01    1.843324e+00
  3.199344e+01    1.585064e+00
  3.202519e+01    1.354069e+00
  3.205694e+01    1.157443e+00
  3.208869e+01    1.074079e+00
  3.212044e+01    1.004478e+00
  3.215219e+01    9.180390e-01
  3.218394e+01    8.846594e-01
  3.221570e+01    8.819827e-01
  3.224745e+01    8.495761e-01
  3.227920e+01    8.174672e-01
  3.231095e+01    8.108100e-01
  3.234270e+01    8.118619e-01
  3.237445e+01    8.218052e-01
  3.240620e+01    7.846037e-01
  3.243795e+01    7.900898e-01
  3.246970e+01    8.094945e-01
  3.250146e+01    7.664499e-01
  3.253321e+01    7.693334e-01
  3.254908e+01    7.811696e-01