File: XRD/Reaction conditions/2024-07-27_003_Ru-CGO-ex_Reaction_dwell_000023_data_000141.dat
# == pyFAI calibration ==
# Distance Sample to Detector: 0.4 m
# PONI: 9.750e-02, 1.135e-01 m
# Rotations: -0.000175 0.000000 -0.000000 rad
#
# == Fit2d calibration ==
# Distance Sample-beamCenter: 400.000 mm
# Center: x=1514.000, y=1300.000 pix
# Tilt: 0.010 deg  TiltPlanRot: 0.010 deg
#
# Detector Detector	 Spline= None	 PixelSize= 7.500e-05, 7.500e-05 m
#    Detector has a mask: False
#    Detector has a dark current: False
#    detector has a flat field: False
#
# Wavelength: 6.888e-11 m
# Mask applied: user provided
# Dark current applied: False
# Flat field applied: False
# Polarization factor: 0.99
# Normalization factor: 1.0
# --> /home/myspot/data/2024_07_Rosario/Ru-CGO-ex/2024-07-27_003_Ru-CGO-ex_Reaction_dwell_000023_data_000141.dat
#       q_nm^-1             I
  2.003187e-02    1.647344e-01
  5.178302e-02    2.826205e-01
  8.353417e-02    1.503791e-01
  1.152853e-01    1.012952e-01
  1.470365e-01    3.034214e-03
  1.787876e-01    5.492707e-02
  2.105388e-01    1.501533e-02
  2.422899e-01    3.982959e-02
  2.740411e-01    3.747497e-02
  3.057922e-01    8.764774e-02
  3.375433e-01    1.259444e-02
  3.692945e-01    3.624133e-02
  4.010456e-01    4.968149e-02
  4.327968e-01    4.306528e-02
  4.645479e-01    5.014681e-02
  4.962991e-01    3.363420e-02
  5.280502e-01    8.568502e-02
  5.598014e-01    4.740614e-02
  5.915525e-01    4.405325e-02
  6.233037e-01    3.065535e-02
  6.550548e-01    5.355284e-02
  6.868060e-01    3.887012e-02
  7.185571e-01    4.222886e-02
  7.503083e-01    5.074051e-02
  7.820594e-01    1.516827e-01
  8.138106e-01    2.293901e-01
  8.455617e-01    3.253531e-01
  8.773129e-01    5.503868e-01
  9.090640e-01    6.361822e-01
  9.408152e-01    8.511933e-01
  9.725663e-01    9.991466e-01
  1.004317e+00    1.144541e+00
  1.036069e+00    1.338399e+00
  1.067820e+00    1.561828e+00
  1.099571e+00    1.523178e+00
  1.131322e+00    1.537904e+00
  1.163073e+00    1.578215e+00
  1.194824e+00    1.782083e+00
  1.226575e+00    2.287639e+00
  1.258327e+00    2.434630e+00
  1.290078e+00    2.646266e+00
  1.321829e+00    2.732109e+00
  1.353580e+00    2.780296e+00
  1.385331e+00    2.858974e+00
  1.417082e+00    2.858826e+00
  1.448834e+00    2.765738e+00
  1.480585e+00    2.948751e+00
  1.512336e+00    3.176957e+00
  1.544087e+00    3.205776e+00
  1.575838e+00    3.143886e+00
  1.607589e+00    3.056761e+00
  1.639340e+00    3.107440e+00
  1.671092e+00    3.192487e+00
  1.702843e+00    3.159111e+00
  1.734594e+00    3.089565e+00
  1.766345e+00    3.126449e+00
  1.798096e+00    3.070765e+00
  1.829847e+00    3.049036e+00
  1.861598e+00    2.989044e+00
  1.893350e+00    3.083448e+00
  1.925101e+00    2.957869e+00
  1.956852e+00    3.060220e+00
  1.988603e+00    3.119709e+00
  2.020354e+00    3.102168e+00
  2.052105e+00    3.033855e+00
  2.083856e+00    3.115708e+00
  2.115608e+00    2.941658e+00
  2.147359e+00    3.130163e+00
  2.179110e+00    3.145826e+00
  2.210861e+00    3.037646e+00
  2.242612e+00    3.269910e+00
  2.274363e+00    3.211611e+00
  2.306115e+00    3.200698e+00
  2.337866e+00    3.100540e+00
  2.369617e+00    3.135584e+00
  2.401368e+00    3.144436e+00
  2.433119e+00    3.178528e+00
  2.464870e+00    3.180350e+00
  2.496621e+00    3.123568e+00
  2.528373e+00    3.235165e+00
  2.560124e+00    3.226473e+00
  2.591875e+00    3.256225e+00
  2.623626e+00    3.222363e+00
  2.655377e+00    3.158270e+00
  2.687128e+00    3.196639e+00
  2.718879e+00    3.333742e+00
  2.750631e+00    3.212975e+00
  2.782382e+00    3.350342e+00
  2.814133e+00    3.353364e+00
  2.845884e+00    3.305707e+00
  2.877635e+00    3.248631e+00
  2.909386e+00    3.359032e+00
  2.941137e+00    3.246919e+00
  2.972889e+00    3.348540e+00
  3.004640e+00    3.264243e+00
  3.036391e+00    3.334812e+00
  3.068142e+00    3.408041e+00
  3.099893e+00    3.395468e+00
  3.131644e+00    3.432655e+00
  3.163395e+00    3.396414e+00
  3.195147e+00    3.434921e+00
  3.226898e+00    3.436261e+00
  3.258649e+00    3.421580e+00
  3.290400e+00    3.471384e+00
  3.322151e+00    3.376438e+00
  3.353902e+00    3.416125e+00
  3.385654e+00    3.400738e+00
  3.417405e+00    3.487529e+00
  3.449156e+00    3.520988e+00
  3.480907e+00    3.415656e+00
  3.512658e+00    3.508049e+00
  3.544409e+00    3.528828e+00
  3.576160e+00    3.400840e+00
  3.607912e+00    3.386549e+00
  3.639663e+00    3.416273e+00
  3.671414e+00    3.521699e+00
  3.703165e+00    3.496053e+00
  3.734916e+00    3.442067e+00
  3.766667e+00    3.469743e+00
  3.798418e+00    3.536266e+00
  3.830170e+00    3.534500e+00
  3.861921e+00    3.453280e+00
  3.893672e+00    3.508417e+00
  3.925423e+00    3.555933e+00
  3.957174e+00    3.515347e+00
  3.988925e+00    3.554597e+00
  4.020676e+00    3.517286e+00
  4.052428e+00    3.477676e+00
  4.084179e+00    3.572129e+00
  4.115930e+00    3.411805e+00
  4.147681e+00    3.562691e+00
  4.179432e+00    3.599650e+00
  4.211183e+00    3.660256e+00
  4.242935e+00    3.553275e+00
  4.274686e+00    3.594858e+00
  4.306437e+00    3.676673e+00
  4.338188e+00    3.521713e+00
  4.369939e+00    3.543064e+00
  4.401690e+00    3.566147e+00
  4.433441e+00    3.633657e+00
  4.465193e+00    3.611960e+00
  4.496944e+00    3.546917e+00
  4.528695e+00    3.626604e+00
  4.560446e+00    3.673222e+00
  4.592197e+00    3.631188e+00
  4.623948e+00    3.639176e+00
  4.655699e+00    3.561952e+00
  4.687451e+00    3.710880e+00
  4.719202e+00    3.518137e+00
  4.750953e+00    3.588854e+00
  4.782704e+00    3.632274e+00
  4.814455e+00    3.650311e+00
  4.846206e+00    3.533301e+00
  4.877957e+00    3.665832e+00
  4.909709e+00    3.528159e+00
  4.941460e+00    3.562745e+00
  4.973211e+00    3.612702e+00
  5.004962e+00    3.636557e+00
  5.036713e+00    3.614533e+00
  5.068464e+00    3.677558e+00
  5.100216e+00    3.680285e+00
  5.131967e+00    3.670876e+00
  5.163718e+00    3.703091e+00
  5.195469e+00    3.679787e+00
  5.227220e+00    3.649549e+00
  5.258971e+00    3.663281e+00
  5.290722e+00    3.704123e+00
  5.322474e+00    3.725791e+00
  5.354225e+00    3.708907e+00
  5.385976e+00    3.651525e+00
  5.417727e+00    3.594666e+00
  5.449478e+00    3.593260e+00
  5.481229e+00    3.597389e+00
  5.512980e+00    3.621675e+00
  5.544732e+00    3.549341e+00
  5.576483e+00    3.522165e+00
  5.608234e+00    3.607260e+00
  5.639985e+00    3.552444e+00
  5.671736e+00    3.534399e+00
  5.703487e+00    3.540920e+00
  5.735238e+00    3.526142e+00
  5.766990e+00    3.647339e+00
  5.798741e+00    3.636925e+00
  5.830492e+00    3.474956e+00
  5.862243e+00    3.632298e+00
  5.893994e+00    3.562771e+00
  5.925745e+00    3.510478e+00
  5.957497e+00    3.554360e+00
  5.989248e+00    3.521783e+00
  6.020999e+00    3.498539e+00
  6.052750e+00    3.566177e+00
  6.084501e+00    3.605499e+00
  6.116252e+00    3.557661e+00
  6.148003e+00    3.497724e+00
  6.179755e+00    3.650671e+00
  6.211506e+00    3.572676e+00
  6.243257e+00    3.551081e+00
  6.275008e+00    3.534053e+00
  6.306759e+00    3.558226e+00
  6.338510e+00    3.472788e+00
  6.370261e+00    3.559141e+00
  6.402013e+00    3.579579e+00
  6.433764e+00    3.572121e+00
  6.465515e+00    3.590016e+00
  6.497266e+00    3.530425e+00
  6.529017e+00    3.637844e+00
  6.560768e+00    3.609878e+00
  6.592519e+00    3.544152e+00
  6.624271e+00    3.547982e+00
  6.656022e+00    3.589014e+00
  6.687773e+00    3.615423e+00
  6.719524e+00    3.546496e+00
  6.751275e+00    3.554586e+00
  6.783026e+00    3.621737e+00
  6.814777e+00    3.572649e+00
  6.846529e+00    3.607669e+00
  6.878280e+00    3.544022e+00
  6.910031e+00    3.538859e+00
  6.941782e+00    3.500563e+00
  6.973533e+00    3.625340e+00
  7.005284e+00    3.560125e+00
  7.037036e+00    3.522163e+00
  7.068787e+00    3.492753e+00
  7.100538e+00    3.550085e+00
  7.132289e+00    3.628611e+00
  7.164040e+00    3.522049e+00
  7.195791e+00    3.539012e+00
  7.227542e+00    3.519629e+00
  7.259294e+00    3.500144e+00
  7.291045e+00    3.498183e+00
  7.322796e+00    3.489594e+00
  7.354547e+00    3.502958e+00
  7.386298e+00    3.499530e+00
  7.418049e+00    3.448389e+00
  7.449800e+00    3.477808e+00
  7.481552e+00    3.453929e+00
  7.513303e+00    3.555092e+00
  7.545054e+00    3.513756e+00
  7.576805e+00    3.488095e+00
  7.608556e+00    3.425399e+00
  7.640307e+00    3.468795e+00
  7.672058e+00    3.521864e+00
  7.703810e+00    3.448696e+00
  7.735561e+00    3.482520e+00
  7.767312e+00    3.437177e+00
  7.799063e+00    3.445299e+00
  7.830814e+00    3.461638e+00
  7.862565e+00    3.433027e+00
  7.894317e+00    3.420080e+00
  7.926068e+00    3.444206e+00
  7.957819e+00    3.384720e+00
  7.989570e+00    3.476888e+00
  8.021321e+00    3.415054e+00
  8.053072e+00    3.420471e+00
  8.084823e+00    3.373810e+00
  8.116575e+00    3.395847e+00
  8.148326e+00    3.436639e+00
  8.180077e+00    3.483385e+00
  8.211828e+00    3.520051e+00
  8.243579e+00    3.416037e+00
  8.275330e+00    3.433422e+00
  8.307081e+00    3.375175e+00
  8.338833e+00    3.341261e+00
  8.370584e+00    3.426119e+00
  8.402335e+00    3.394408e+00
  8.434086e+00    3.382158e+00
  8.465837e+00    3.305590e+00
  8.497588e+00    3.396144e+00
  8.529339e+00    3.378650e+00
  8.561091e+00    3.358986e+00
  8.592842e+00    3.252640e+00
  8.624593e+00    3.298090e+00
  8.656344e+00    3.315728e+00
  8.688095e+00    3.365595e+00
  8.719846e+00    3.422859e+00
  8.751598e+00    3.369524e+00
  8.783349e+00    3.276112e+00
  8.815100e+00    3.357588e+00
  8.846851e+00    3.400098e+00
  8.878602e+00    3.325139e+00
  8.910353e+00    3.303437e+00
  8.942104e+00    3.393405e+00
  8.973856e+00    3.305722e+00
  9.005607e+00    3.271874e+00
  9.037358e+00    3.301157e+00
  9.069109e+00    3.275817e+00
  9.100860e+00    3.274896e+00
  9.132611e+00    3.216618e+00
  9.164362e+00    3.211567e+00
  9.196114e+00    3.239064e+00
  9.227865e+00    3.267195e+00
  9.259616e+00    3.262829e+00
  9.291367e+00    3.311177e+00
  9.323118e+00    3.230728e+00
  9.354869e+00    3.282178e+00
  9.386620e+00    3.235305e+00
  9.418372e+00    3.206396e+00
  9.450123e+00    3.181415e+00
  9.481874e+00    3.305821e+00
  9.513625e+00    3.292975e+00
  9.545376e+00    3.251272e+00
  9.577127e+00    3.207086e+00
  9.608878e+00    3.196157e+00
  9.640630e+00    3.292640e+00
  9.672381e+00    3.235557e+00
  9.704132e+00    3.147644e+00
  9.735883e+00    3.212875e+00
  9.767634e+00    3.133441e+00
  9.799385e+00    3.166597e+00
  9.831137e+00    3.128177e+00
  9.862888e+00    3.151912e+00
  9.894639e+00    3.082124e+00
  9.926390e+00    3.148189e+00
  9.958141e+00    3.076279e+00
  9.989892e+00    3.054801e+00
  1.002164e+01    3.118126e+00
  1.005339e+01    3.036319e+00
  1.008515e+01    3.157136e+00
  1.011690e+01    3.047499e+00
  1.014865e+01    3.062622e+00
  1.018040e+01    3.082368e+00
  1.021215e+01    3.060382e+00
  1.024390e+01    3.073489e+00
  1.027565e+01    3.097150e+00
  1.030740e+01    3.094439e+00
  1.033915e+01    3.045165e+00
  1.037091e+01    3.048187e+00
  1.040266e+01    3.047172e+00
  1.043441e+01    3.023872e+00
  1.046616e+01    3.028033e+00
  1.049791e+01    3.032725e+00
  1.052966e+01    3.048247e+00
  1.056141e+01    3.013474e+00
  1.059316e+01    3.001056e+00
  1.062492e+01    2.970290e+00
  1.065667e+01    2.980986e+00
  1.068842e+01    3.009006e+00
  1.072017e+01    2.987793e+00
  1.075192e+01    2.954196e+00
  1.078367e+01    3.018193e+00
  1.081542e+01    2.973497e+00
  1.084717e+01    2.929364e+00
  1.087892e+01    2.892018e+00
  1.091068e+01    2.856283e+00
  1.094243e+01    2.892570e+00
  1.097418e+01    2.916545e+00
  1.100593e+01    2.911101e+00
  1.103768e+01    2.862876e+00
  1.106943e+01    2.940126e+00
  1.110118e+01    2.832434e+00
  1.113293e+01    2.865627e+00
  1.116468e+01    2.843693e+00
  1.119644e+01    2.816422e+00
  1.122819e+01    2.872657e+00
  1.125994e+01    2.905036e+00
  1.129169e+01    2.852618e+00
  1.132344e+01    2.854330e+00
  1.135519e+01    2.863462e+00
  1.138694e+01    2.841744e+00
  1.141869e+01    2.772997e+00
  1.145045e+01    2.841703e+00
  1.148220e+01    2.796851e+00
  1.151395e+01    2.794283e+00
  1.154570e+01    2.781241e+00
  1.157745e+01    2.821957e+00
  1.160920e+01    2.741409e+00
  1.164095e+01    2.781643e+00
  1.167270e+01    2.708918e+00
  1.170445e+01    2.783114e+00
  1.173621e+01    2.761636e+00
  1.176796e+01    2.730692e+00
  1.179971e+01    2.746317e+00
  1.183146e+01    2.742914e+00
  1.186321e+01    2.783494e+00
  1.189496e+01    2.785854e+00
  1.192671e+01    2.671565e+00
  1.195846e+01    2.696214e+00
  1.199021e+01    2.707561e+00
  1.202197e+01    2.694916e+00
  1.205372e+01    2.683927e+00
  1.208547e+01    2.718626e+00
  1.211722e+01    2.695599e+00
  1.214897e+01    2.700836e+00
  1.218072e+01    2.703685e+00
  1.221247e+01    2.661987e+00
  1.224422e+01    2.697367e+00
  1.227597e+01    2.599725e+00
  1.230773e+01    2.710120e+00
  1.233948e+01    2.721962e+00
  1.237123e+01    2.725894e+00
  1.240298e+01    2.707022e+00
  1.243473e+01    2.674537e+00
  1.246648e+01    2.714781e+00
  1.249823e+01    2.709157e+00
  1.252998e+01    2.689824e+00
  1.256174e+01    2.696519e+00
  1.259349e+01    2.695336e+00
  1.262524e+01    2.743560e+00
  1.265699e+01    2.757326e+00
  1.268874e+01    2.823607e+00
  1.272049e+01    2.841356e+00
  1.275224e+01    2.892722e+00
  1.278399e+01    2.929467e+00
  1.281574e+01    3.040387e+00
  1.284750e+01    3.165790e+00
  1.287925e+01    3.348031e+00
  1.291100e+01    3.638444e+00
  1.294275e+01    4.062774e+00
  1.297450e+01    4.797617e+00
  1.300625e+01    6.008492e+00
  1.303800e+01    7.719318e+00
  1.306975e+01    1.021491e+01
  1.310150e+01    1.276701e+01
  1.313326e+01    1.487197e+01
  1.316501e+01    1.619395e+01
  1.319676e+01    1.553705e+01
  1.322851e+01    1.247172e+01
  1.326026e+01    9.080175e+00
  1.329201e+01    6.680966e+00
  1.332376e+01    5.302085e+00
  1.335551e+01    4.437996e+00
  1.338727e+01    3.832443e+00
  1.341902e+01    3.459557e+00
  1.345077e+01    3.223391e+00
  1.348252e+01    3.039370e+00
  1.351427e+01    2.944082e+00
  1.354602e+01    2.837717e+00
  1.357777e+01    2.719873e+00
  1.360952e+01    2.684614e+00
  1.364127e+01    2.638858e+00
  1.367303e+01    2.565949e+00
  1.370478e+01    2.565859e+00
  1.373653e+01    2.505177e+00
  1.376828e+01    2.517957e+00
  1.380003e+01    2.468126e+00
  1.383178e+01    2.426045e+00
  1.386353e+01    2.434376e+00
  1.389528e+01    2.420852e+00
  1.392703e+01    2.415537e+00
  1.395879e+01    2.396940e+00
  1.399054e+01    2.377962e+00
  1.402229e+01    2.353942e+00
  1.405404e+01    2.353925e+00
  1.408579e+01    2.378042e+00
  1.411754e+01    2.311245e+00
  1.414929e+01    2.329372e+00
  1.418104e+01    2.292106e+00
  1.421279e+01    2.282682e+00
  1.424455e+01    2.307111e+00
  1.427630e+01    2.264789e+00
  1.430805e+01    2.257133e+00
  1.433980e+01    2.253783e+00
  1.437155e+01    2.216667e+00
  1.440330e+01    2.283716e+00
  1.443505e+01    2.257317e+00
  1.446680e+01    2.223114e+00
  1.449856e+01    2.254264e+00
  1.453031e+01    2.205127e+00
  1.456206e+01    2.245227e+00
  1.459381e+01    2.224891e+00
  1.462556e+01    2.251765e+00
  1.465731e+01    2.210291e+00
  1.468906e+01    2.185620e+00
  1.472081e+01    2.213139e+00
  1.475256e+01    2.174004e+00
  1.478432e+01    2.203962e+00
  1.481607e+01    2.227065e+00
  1.484782e+01    2.236423e+00
  1.487957e+01    2.211566e+00
  1.491132e+01    2.277840e+00
  1.494307e+01    2.329427e+00
  1.497482e+01    2.356375e+00
  1.500657e+01    2.409025e+00
  1.503832e+01    2.585008e+00
  1.507008e+01    2.805275e+00
  1.510183e+01    3.219121e+00
  1.513358e+01    3.803636e+00
  1.516533e+01    4.509329e+00
  1.519708e+01    5.176042e+00
  1.522883e+01    5.629086e+00
  1.526058e+01    5.770868e+00
  1.529233e+01    5.458808e+00
  1.532409e+01    4.721336e+00
  1.535584e+01    3.732614e+00
  1.538759e+01    3.129121e+00
  1.541934e+01    2.778709e+00
  1.545109e+01    2.530858e+00
  1.548284e+01    2.350259e+00
  1.551459e+01    2.221366e+00
  1.554634e+01    2.181967e+00
  1.557809e+01    2.123055e+00
  1.560985e+01    2.102952e+00
  1.564160e+01    2.081514e+00
  1.567335e+01    1.984223e+00
  1.570510e+01    2.003002e+00
  1.573685e+01    1.976401e+00
  1.576860e+01    1.969306e+00
  1.580035e+01    1.910490e+00
  1.583210e+01    1.928639e+00
  1.586385e+01    1.939778e+00
  1.589561e+01    1.878237e+00
  1.592736e+01    1.908711e+00
  1.595911e+01    1.910234e+00
  1.599086e+01    1.901778e+00
  1.602261e+01    1.878433e+00
  1.605436e+01    1.867555e+00
  1.608611e+01    1.841219e+00
  1.611786e+01    1.871983e+00
  1.614961e+01    1.817668e+00
  1.618137e+01    1.848658e+00
  1.621312e+01    1.847157e+00
  1.624487e+01    1.781674e+00
  1.627662e+01    1.832671e+00
  1.630837e+01    1.808924e+00
  1.634012e+01    1.835405e+00
  1.637187e+01    1.781588e+00
  1.640362e+01    1.776346e+00
  1.643538e+01    1.769138e+00
  1.646713e+01    1.767270e+00
  1.649888e+01    1.790870e+00
  1.653063e+01    1.765758e+00
  1.656238e+01    1.745883e+00
  1.659413e+01    1.732244e+00
  1.662588e+01    1.742271e+00
  1.665763e+01    1.728674e+00
  1.668938e+01    1.703010e+00
  1.672114e+01    1.688253e+00
  1.675289e+01    1.704454e+00
  1.678464e+01    1.711392e+00
  1.681639e+01    1.747586e+00
  1.684814e+01    1.674366e+00
  1.687989e+01    1.695827e+00
  1.691164e+01    1.666537e+00
  1.694339e+01    1.689683e+00
  1.697514e+01    1.654578e+00
  1.700690e+01    1.637970e+00
  1.703865e+01    1.666316e+00
  1.707040e+01    1.663150e+00
  1.710215e+01    1.675165e+00
  1.713390e+01    1.646061e+00
  1.716565e+01    1.646794e+00
  1.719740e+01    1.642476e+00
  1.722915e+01    1.635652e+00
  1.726091e+01    1.606051e+00
  1.729266e+01    1.595827e+00
  1.732441e+01    1.604185e+00
  1.735616e+01    1.608093e+00
  1.738791e+01    1.606110e+00
  1.741966e+01    1.611565e+00
  1.745141e+01    1.568839e+00
  1.748316e+01    1.599025e+00
  1.751491e+01    1.576020e+00
  1.754667e+01    1.565728e+00
  1.757842e+01    1.580252e+00
  1.761017e+01    1.575393e+00
  1.764192e+01    1.578230e+00
  1.767367e+01    1.567684e+00
  1.770542e+01    1.531540e+00
  1.773717e+01    1.552278e+00
  1.776892e+01    1.513101e+00
  1.780067e+01    1.542140e+00
  1.783243e+01    1.556302e+00
  1.786418e+01    1.504853e+00
  1.789593e+01    1.543672e+00
  1.792768e+01    1.543297e+00
  1.795943e+01    1.509439e+00
  1.799118e+01    1.501278e+00
  1.802293e+01    1.506232e+00
  1.805468e+01    1.503011e+00
  1.808643e+01    1.481836e+00
  1.811819e+01    1.518054e+00
  1.814994e+01    1.505432e+00
  1.818169e+01    1.506686e+00
  1.821344e+01    1.490238e+00
  1.824519e+01    1.493976e+00
  1.827694e+01    1.474959e+00
  1.830869e+01    1.451489e+00
  1.834044e+01    1.460614e+00
  1.837220e+01    1.465851e+00
  1.840395e+01    1.433031e+00
  1.843570e+01    1.472844e+00
  1.846745e+01    1.434324e+00
  1.849920e+01    1.429925e+00
  1.853095e+01    1.431385e+00
  1.856270e+01    1.423293e+00
  1.859445e+01    1.442720e+00
  1.862620e+01    1.411741e+00
  1.865796e+01    1.433795e+00
  1.868971e+01    1.436646e+00
  1.872146e+01    1.434311e+00
  1.875321e+01    1.396415e+00
  1.878496e+01    1.422840e+00
  1.881671e+01    1.431115e+00
  1.884846e+01    1.427971e+00
  1.888021e+01    1.407478e+00
  1.891196e+01    1.394844e+00
  1.894372e+01    1.361644e+00
  1.897547e+01    1.384316e+00
  1.900722e+01    1.416523e+00
  1.903897e+01    1.364303e+00
  1.907072e+01    1.355558e+00
  1.910247e+01    1.389843e+00
  1.913422e+01    1.378095e+00
  1.916597e+01    1.346200e+00
  1.919773e+01    1.355146e+00
  1.922948e+01    1.324836e+00
  1.926123e+01    1.368674e+00
  1.929298e+01    1.358022e+00
  1.932473e+01    1.362298e+00
  1.935648e+01    1.356878e+00
  1.938823e+01    1.323761e+00
  1.941998e+01    1.339125e+00
  1.945173e+01    1.350329e+00
  1.948349e+01    1.312785e+00
  1.951524e+01    1.324983e+00
  1.954699e+01    1.339706e+00
  1.957874e+01    1.307438e+00
  1.961049e+01    1.291218e+00
  1.964224e+01    1.296424e+00
  1.967399e+01    1.319467e+00
  1.970574e+01    1.299436e+00
  1.973749e+01    1.291164e+00
  1.976925e+01    1.310962e+00
  1.980100e+01    1.302404e+00
  1.983275e+01    1.303835e+00
  1.986450e+01    1.258214e+00
  1.989625e+01    1.314791e+00
  1.992800e+01    1.302395e+00
  1.995975e+01    1.285313e+00
  1.999150e+01    1.269787e+00
  2.002325e+01    1.313889e+00
  2.005501e+01    1.242263e+00
  2.008676e+01    1.268120e+00
  2.011851e+01    1.289806e+00
  2.015026e+01    1.275972e+00
  2.018201e+01    1.255230e+00
  2.021376e+01    1.271330e+00
  2.024551e+01    1.280737e+00
  2.027726e+01    1.281003e+00
  2.030902e+01    1.296857e+00
  2.034077e+01    1.232026e+00
  2.037252e+01    1.268937e+00
  2.040427e+01    1.246161e+00
  2.043602e+01    1.251535e+00
  2.046777e+01    1.265495e+00
  2.049952e+01    1.225098e+00
  2.053127e+01    1.219619e+00
  2.056302e+01    1.229373e+00
  2.059478e+01    1.210997e+00
  2.062653e+01    1.229229e+00
  2.065828e+01    1.237663e+00
  2.069003e+01    1.204481e+00
  2.072178e+01    1.246376e+00
  2.075353e+01    1.218874e+00
  2.078528e+01    1.212001e+00
  2.081703e+01    1.237273e+00
  2.084878e+01    1.226799e+00
  2.088054e+01    1.176980e+00
  2.091229e+01    1.207996e+00
  2.094404e+01    1.227175e+00
  2.097579e+01    1.207893e+00
  2.100754e+01    1.200701e+00
  2.103929e+01    1.189136e+00
  2.107104e+01    1.229410e+00
  2.110279e+01    1.216248e+00
  2.113455e+01    1.243928e+00
  2.116630e+01    1.214487e+00
  2.119805e+01    1.226752e+00
  2.122980e+01    1.206112e+00
  2.126155e+01    1.232301e+00
  2.129330e+01    1.262101e+00
  2.132505e+01    1.258086e+00
  2.135680e+01    1.274314e+00
  2.138855e+01    1.292286e+00
  2.142031e+01    1.333763e+00
  2.145206e+01    1.366761e+00
  2.148381e+01    1.393145e+00
  2.151556e+01    1.440804e+00
  2.154731e+01    1.489253e+00
  2.157906e+01    1.626497e+00
  2.161081e+01    1.760356e+00
  2.164256e+01    1.946351e+00
  2.167431e+01    2.291206e+00
  2.170607e+01    2.802612e+00
  2.173782e+01    3.522993e+00
  2.176957e+01    4.585670e+00
  2.180132e+01    5.864007e+00
  2.183307e+01    7.172912e+00
  2.186482e+01    8.348481e+00
  2.189657e+01    8.907457e+00
  2.192832e+01    8.273154e+00
  2.196007e+01    6.560628e+00
  2.199183e+01    4.841118e+00
  2.202358e+01    3.599603e+00
  2.205533e+01    2.806436e+00
  2.208708e+01    2.324506e+00
  2.211883e+01    1.971438e+00
  2.215058e+01    1.777233e+00
  2.218233e+01    1.618505e+00
  2.221408e+01    1.492791e+00
  2.224584e+01    1.392667e+00
  2.227759e+01    1.321004e+00
  2.230934e+01    1.300403e+00
  2.234109e+01    1.258497e+00
  2.237284e+01    1.202743e+00
  2.240459e+01    1.223607e+00
  2.243634e+01    1.171221e+00
  2.246809e+01    1.154679e+00
  2.249984e+01    1.151226e+00
  2.253160e+01    1.123373e+00
  2.256335e+01    1.116767e+00
  2.259510e+01    1.104668e+00
  2.262685e+01    1.102442e+00
  2.265860e+01    1.089482e+00
  2.269035e+01    1.096494e+00
  2.272210e+01    1.091424e+00
  2.275385e+01    1.070491e+00
  2.278560e+01    1.069610e+00
  2.281736e+01    1.050459e+00
  2.284911e+01    1.078463e+00
  2.288086e+01    1.015223e+00
  2.291261e+01    1.047484e+00
  2.294436e+01    1.014543e+00
  2.297611e+01    1.022945e+00
  2.300786e+01    1.019954e+00
  2.303961e+01    1.006465e+00
  2.307137e+01    1.021561e+00
  2.310312e+01    1.014560e+00
  2.313487e+01    9.841478e-01
  2.316662e+01    9.900876e-01
  2.319837e+01    1.006322e+00
  2.323012e+01    1.009931e+00
  2.326187e+01    9.661117e-01
  2.329362e+01    9.780592e-01
  2.332537e+01    9.734247e-01
  2.335713e+01    9.945909e-01
  2.338888e+01    9.719113e-01
  2.342063e+01    9.814390e-01
  2.345238e+01    9.872088e-01
  2.348413e+01    9.652939e-01
  2.351588e+01    9.721674e-01
  2.354763e+01    9.475794e-01
  2.357938e+01    9.596138e-01
  2.361113e+01    9.749671e-01
  2.364289e+01    9.438198e-01
  2.367464e+01    9.508553e-01
  2.370639e+01    9.191841e-01
  2.373814e+01    9.661188e-01
  2.376989e+01    9.156121e-01
  2.380164e+01    9.169264e-01
  2.383339e+01    8.972103e-01
  2.386514e+01    9.090879e-01
  2.389689e+01    9.097297e-01
  2.392865e+01    8.932468e-01
  2.396040e+01    8.834423e-01
  2.399215e+01    8.975989e-01
  2.402390e+01    9.176104e-01
  2.405565e+01    8.766837e-01
  2.408740e+01    9.013246e-01
  2.411915e+01    8.919058e-01
  2.415090e+01    8.911461e-01
  2.418266e+01    8.872745e-01
  2.421441e+01    8.990671e-01
  2.424616e+01    8.900677e-01
  2.427791e+01    9.097701e-01
  2.430966e+01    8.880414e-01
  2.434141e+01    9.044290e-01
  2.437316e+01    8.923863e-01
  2.440491e+01    9.039191e-01
  2.443666e+01    8.821741e-01
  2.446842e+01    8.799996e-01
  2.450017e+01    8.779010e-01
  2.453192e+01    9.008206e-01
  2.456367e+01    8.896209e-01
  2.459542e+01    8.920637e-01
  2.462717e+01    8.882588e-01
  2.465892e+01    8.805276e-01
  2.469067e+01    8.839383e-01
  2.472242e+01    8.975325e-01
  2.475418e+01    8.919209e-01
  2.478593e+01    8.891622e-01
  2.481768e+01    8.740305e-01
  2.484943e+01    8.790451e-01
  2.488118e+01    9.086058e-01
  2.491293e+01    9.013073e-01
  2.494468e+01    9.115496e-01
  2.497643e+01    8.909250e-01
  2.500819e+01    8.973747e-01
  2.503994e+01    8.902054e-01
  2.507169e+01    8.672641e-01
  2.510344e+01    8.945604e-01
  2.513519e+01    8.991948e-01
  2.516694e+01    9.047764e-01
  2.519869e+01    9.167734e-01
  2.523044e+01    9.326012e-01
  2.526219e+01    9.538534e-01
  2.529395e+01    9.591857e-01
  2.532570e+01    9.603525e-01
  2.535745e+01    9.755211e-01
  2.538920e+01    9.693373e-01
  2.542095e+01    1.017388e+00
  2.545270e+01    1.014570e+00
  2.548445e+01    1.036610e+00
  2.551620e+01    1.097183e+00
  2.554795e+01    1.129740e+00
  2.557971e+01    1.136522e+00
  2.561146e+01    1.226309e+00
  2.564321e+01    1.293349e+00
  2.567496e+01    1.417206e+00
  2.570671e+01    1.582143e+00
  2.573846e+01    1.845961e+00
  2.577021e+01    2.247304e+00
  2.580196e+01    2.834250e+00
  2.583371e+01    3.609858e+00
  2.586547e+01    4.627091e+00
  2.589722e+01    5.836607e+00
  2.592897e+01    6.719933e+00
  2.596072e+01    7.101964e+00
  2.599247e+01    6.532958e+00
  2.602422e+01    5.267554e+00
  2.605597e+01    3.934649e+00
  2.608772e+01    3.014863e+00
  2.611948e+01    2.350949e+00
  2.615123e+01    1.897334e+00
  2.618298e+01    1.629427e+00
  2.621473e+01    1.457266e+00
  2.624648e+01    1.338963e+00
  2.627823e+01    1.217920e+00
  2.630998e+01    1.172633e+00
  2.634173e+01    1.134222e+00
  2.637348e+01    1.078517e+00
  2.640524e+01    1.046298e+00
  2.643699e+01    1.016381e+00
  2.646874e+01    1.023558e+00
  2.650049e+01    9.868799e-01
  2.653224e+01    1.012727e+00
  2.656399e+01    1.001692e+00
  2.659574e+01    9.663153e-01
  2.662749e+01    9.693537e-01
  2.665924e+01    9.709293e-01
  2.669100e+01    9.521133e-01
  2.672275e+01    9.723955e-01
  2.675450e+01    9.594267e-01
  2.678625e+01    9.633474e-01
  2.681800e+01    9.830567e-01
  2.684975e+01    9.737851e-01
  2.688150e+01    9.933656e-01
  2.691325e+01    1.009918e+00
  2.694501e+01    1.025797e+00
  2.697676e+01    1.091008e+00
  2.700851e+01    1.114298e+00
  2.704026e+01    1.191019e+00
  2.707201e+01    1.307768e+00
  2.710376e+01    1.508476e+00
  2.713551e+01    1.718087e+00
  2.716726e+01    1.997714e+00
  2.719901e+01    2.142125e+00
  2.723077e+01    2.144880e+00
  2.726252e+01    1.954763e+00
  2.729427e+01    1.701108e+00
  2.732602e+01    1.454370e+00
  2.735777e+01    1.271958e+00
  2.738952e+01    1.143371e+00
  2.742127e+01    1.079711e+00
  2.745302e+01    1.040627e+00
  2.748477e+01    9.854862e-01
  2.751653e+01    9.725052e-01
  2.754828e+01    9.440032e-01
  2.758003e+01    9.453771e-01
  2.761178e+01    9.000036e-01
  2.764353e+01    9.202718e-01
  2.767528e+01    8.870336e-01
  2.770703e+01    9.211407e-01
  2.773878e+01    8.977202e-01
  2.777054e+01    8.840485e-01
  2.780229e+01    8.766635e-01
  2.783404e+01    8.797689e-01
  2.786579e+01    8.848941e-01
  2.789754e+01    8.957203e-01
  2.792929e+01    8.893046e-01
  2.796104e+01    8.879877e-01
  2.799279e+01    8.753987e-01
  2.802454e+01    8.512863e-01
  2.805630e+01    8.529723e-01
  2.808805e+01    8.747159e-01
  2.811980e+01    8.461190e-01
  2.815155e+01    8.715522e-01
  2.818330e+01    8.340909e-01
  2.821505e+01    8.503695e-01
  2.824680e+01    8.559449e-01
  2.827855e+01    8.544587e-01
  2.831030e+01    8.575401e-01
  2.834206e+01    8.536059e-01
  2.837381e+01    8.521153e-01
  2.840556e+01    8.562897e-01
  2.843731e+01    8.477937e-01
  2.846906e+01    8.586169e-01
  2.850081e+01    8.691637e-01
  2.853256e+01    8.275549e-01
  2.856431e+01    8.341909e-01
  2.859606e+01    8.585441e-01
  2.862782e+01    8.304760e-01
  2.865957e+01    8.052496e-01
  2.869132e+01    8.179708e-01
  2.872307e+01    8.270546e-01
  2.875482e+01    8.436602e-01
  2.878657e+01    8.097655e-01
  2.881832e+01    8.213113e-01
  2.885007e+01    8.132965e-01
  2.888183e+01    8.187116e-01
  2.891358e+01    8.405666e-01
  2.894533e+01    8.209615e-01
  2.897708e+01    8.087900e-01
  2.900883e+01    8.417512e-01
  2.904058e+01    8.247199e-01
  2.907233e+01    8.147581e-01
  2.910408e+01    8.491673e-01
  2.913583e+01    8.170934e-01
  2.916759e+01    7.899821e-01
  2.919934e+01    7.917721e-01
  2.923109e+01    7.941952e-01
  2.926284e+01    8.194060e-01
  2.929459e+01    8.234931e-01
  2.932634e+01    8.170586e-01
  2.935809e+01    7.932336e-01
  2.938984e+01    7.958679e-01
  2.942159e+01    8.158400e-01
  2.945335e+01    8.011701e-01
  2.948510e+01    8.161980e-01
  2.951685e+01    8.096616e-01
  2.954860e+01    8.130284e-01
  2.958035e+01    8.166155e-01
  2.961210e+01    8.182626e-01
  2.964385e+01    8.075882e-01
  2.967560e+01    7.757272e-01
  2.970736e+01    7.941580e-01
  2.973911e+01    8.140369e-01
  2.977086e+01    7.810339e-01
  2.980261e+01    7.776818e-01
  2.983436e+01    7.823679e-01
  2.986611e+01    8.009386e-01
  2.989786e+01    7.950183e-01
  2.992961e+01    8.176650e-01
  2.996136e+01    7.825530e-01
  2.999312e+01    7.990448e-01
  3.002487e+01    8.301305e-01
  3.005662e+01    8.104071e-01
  3.008837e+01    8.145193e-01
  3.012012e+01    8.001078e-01
  3.015187e+01    8.007202e-01
  3.018362e+01    7.744955e-01
  3.021537e+01    7.770215e-01
  3.024712e+01    8.016781e-01
  3.027888e+01    7.926049e-01
  3.031063e+01    7.966192e-01
  3.034238e+01    7.789968e-01
  3.037413e+01    7.754152e-01
  3.040588e+01    7.835556e-01
  3.043763e+01    7.798886e-01
  3.046938e+01    7.826517e-01
  3.050113e+01    7.737601e-01
  3.053288e+01    8.024216e-01
  3.056464e+01    7.798828e-01
  3.059639e+01    7.963206e-01
  3.062814e+01    7.901763e-01
  3.065989e+01    7.731103e-01
  3.069164e+01    7.669094e-01
  3.072339e+01    7.757345e-01
  3.075514e+01    7.813975e-01
  3.078689e+01    8.056211e-01
  3.081865e+01    7.768802e-01
  3.085040e+01    7.703500e-01
  3.088215e+01    8.041921e-01
  3.091390e+01    7.751588e-01
  3.094565e+01    7.869166e-01
  3.097740e+01    7.967881e-01
  3.100915e+01    8.055593e-01
  3.104090e+01    7.787905e-01
  3.107265e+01    7.851915e-01
  3.110441e+01    7.881486e-01
  3.113616e+01    7.767392e-01
  3.116791e+01    7.950234e-01
  3.119966e+01    7.936230e-01
  3.123141e+01    7.952307e-01
  3.126316e+01    7.979770e-01
  3.129491e+01    8.001379e-01
  3.132666e+01    7.873095e-01
  3.135841e+01    8.016569e-01
  3.139017e+01    8.018695e-01
  3.142192e+01    8.051404e-01
  3.145367e+01    8.130085e-01
  3.148542e+01    8.108745e-01
  3.151717e+01    8.322951e-01
  3.154892e+01    8.692230e-01
  3.158067e+01    8.982708e-01
  3.161242e+01    8.915294e-01
  3.164418e+01    9.221248e-01
  3.167593e+01    9.774016e-01
  3.170768e+01    1.011115e+00
  3.173943e+01    1.116880e+00
  3.177118e+01    1.253186e+00
  3.180293e+01    1.463964e+00
  3.183468e+01    1.727437e+00
  3.186643e+01    1.954601e+00
  3.189818e+01    2.061587e+00
  3.192994e+01    2.042029e+00
  3.196169e+01    1.860011e+00
  3.199344e+01    1.506542e+00
  3.202519e+01    1.297969e+00
  3.205694e+01    1.168562e+00
  3.208869e+01    1.025502e+00
  3.212044e+01    1.011056e+00
  3.215219e+01    9.198849e-01
  3.218394e+01    8.698284e-01
  3.221570e+01    8.419189e-01
  3.224745e+01    8.224053e-01
  3.227920e+01    8.285916e-01
  3.231095e+01    7.914266e-01
  3.234270e+01    8.052877e-01
  3.237445e+01    7.946452e-01
  3.240620e+01    8.022485e-01
  3.243795e+01    7.679220e-01
  3.246970e+01    7.734780e-01
  3.250146e+01    7.885740e-01
  3.253321e+01    7.737795e-01
  3.254908e+01    7.958387e-01