File: XRD/Reaction conditions/2024-07-27_003_Ru-CGO-ex_Reaction_dwell_000023_data_000178.dat
# == pyFAI calibration ==
# Distance Sample to Detector: 0.4 m
# PONI: 9.750e-02, 1.135e-01 m
# Rotations: -0.000175 0.000000 -0.000000 rad
#
# == Fit2d calibration ==
# Distance Sample-beamCenter: 400.000 mm
# Center: x=1514.000, y=1300.000 pix
# Tilt: 0.010 deg  TiltPlanRot: 0.010 deg
#
# Detector Detector	 Spline= None	 PixelSize= 7.500e-05, 7.500e-05 m
#    Detector has a mask: False
#    Detector has a dark current: False
#    detector has a flat field: False
#
# Wavelength: 6.888e-11 m
# Mask applied: user provided
# Dark current applied: False
# Flat field applied: False
# Polarization factor: 0.99
# Normalization factor: 1.0
# --> /home/myspot/data/2024_07_Rosario/Ru-CGO-ex/2024-07-27_003_Ru-CGO-ex_Reaction_dwell_000023_data_000178.dat
#       q_nm^-1             I
  2.003187e-02    1.542358e-01
  5.178302e-02    4.717292e-02
  8.353417e-02    8.924910e-02
  1.152853e-01    5.507320e-02
  1.470365e-01    0.000000e+00
  1.787876e-01    0.000000e+00
  2.105388e-01    3.192006e-02
  2.422899e-01    2.832684e-02
  2.740411e-01    3.690856e-02
  3.057922e-01    2.724084e-02
  3.375433e-01    2.340167e-02
  3.692945e-01    2.648287e-02
  4.010456e-01    2.873853e-02
  4.327968e-01    2.746241e-02
  4.645479e-01    2.942593e-02
  4.962991e-01    6.667860e-02
  5.280502e-01    2.185074e-02
  5.598014e-01    2.956581e-02
  5.915525e-01    6.925794e-02
  6.233037e-01    2.841591e-02
  6.550548e-01    3.682790e-02
  6.868060e-01    5.853356e-02
  7.185571e-01    3.517349e-02
  7.503083e-01    5.531588e-02
  7.820594e-01    1.404092e-01
  8.138106e-01    2.850612e-01
  8.455617e-01    3.441321e-01
  8.773129e-01    4.879133e-01
  9.090640e-01    6.116668e-01
  9.408152e-01    7.914852e-01
  9.725663e-01    1.039502e+00
  1.004317e+00    1.040876e+00
  1.036069e+00    1.406776e+00
  1.067820e+00    1.285533e+00
  1.099571e+00    1.389718e+00
  1.131322e+00    1.591567e+00
  1.163073e+00    1.645160e+00
  1.194824e+00    1.764809e+00
  1.226575e+00    2.203928e+00
  1.258327e+00    2.511354e+00
  1.290078e+00    2.529482e+00
  1.321829e+00    2.735792e+00
  1.353580e+00    2.775422e+00
  1.385331e+00    2.749620e+00
  1.417082e+00    2.795343e+00
  1.448834e+00    2.775261e+00
  1.480585e+00    3.015248e+00
  1.512336e+00    2.984870e+00
  1.544087e+00    3.056866e+00
  1.575838e+00    3.225212e+00
  1.607589e+00    3.027960e+00
  1.639340e+00    3.094048e+00
  1.671092e+00    2.974658e+00
  1.702843e+00    3.197604e+00
  1.734594e+00    3.115650e+00
  1.766345e+00    3.029868e+00
  1.798096e+00    2.888914e+00
  1.829847e+00    2.842634e+00
  1.861598e+00    3.064968e+00
  1.893350e+00    3.069060e+00
  1.925101e+00    3.099495e+00
  1.956852e+00    3.059379e+00
  1.988603e+00    3.158877e+00
  2.020354e+00    2.902091e+00
  2.052105e+00    2.935453e+00
  2.083856e+00    3.187568e+00
  2.115608e+00    3.009606e+00
  2.147359e+00    3.019789e+00
  2.179110e+00    3.099700e+00
  2.210861e+00    3.214361e+00
  2.242612e+00    3.079156e+00
  2.274363e+00    2.999653e+00
  2.306115e+00    3.133280e+00
  2.337866e+00    3.065517e+00
  2.369617e+00    3.141704e+00
  2.401368e+00    3.029715e+00
  2.433119e+00    3.123020e+00
  2.464870e+00    3.174031e+00
  2.496621e+00    3.212497e+00
  2.528373e+00    3.233669e+00
  2.560124e+00    3.173890e+00
  2.591875e+00    3.158832e+00
  2.623626e+00    3.128354e+00
  2.655377e+00    3.045159e+00
  2.687128e+00    3.303217e+00
  2.718879e+00    3.264765e+00
  2.750631e+00    3.219987e+00
  2.782382e+00    3.243681e+00
  2.814133e+00    3.197114e+00
  2.845884e+00    3.265667e+00
  2.877635e+00    3.161774e+00
  2.909386e+00    3.396664e+00
  2.941137e+00    3.230201e+00
  2.972889e+00    3.378690e+00
  3.004640e+00    3.268159e+00
  3.036391e+00    3.275280e+00
  3.068142e+00    3.267197e+00
  3.099893e+00    3.251038e+00
  3.131644e+00    3.367704e+00
  3.163395e+00    3.374366e+00
  3.195147e+00    3.366217e+00
  3.226898e+00    3.393827e+00
  3.258649e+00    3.288794e+00
  3.290400e+00    3.316812e+00
  3.322151e+00    3.342801e+00
  3.353902e+00    3.319173e+00
  3.385654e+00    3.329443e+00
  3.417405e+00    3.352016e+00
  3.449156e+00    3.413039e+00
  3.480907e+00    3.347738e+00
  3.512658e+00    3.430597e+00
  3.544409e+00    3.410105e+00
  3.576160e+00    3.367058e+00
  3.607912e+00    3.475141e+00
  3.639663e+00    3.487320e+00
  3.671414e+00    3.392305e+00
  3.703165e+00    3.486538e+00
  3.734916e+00    3.403004e+00
  3.766667e+00    3.449127e+00
  3.798418e+00    3.315689e+00
  3.830170e+00    3.487942e+00
  3.861921e+00    3.418177e+00
  3.893672e+00    3.477736e+00
  3.925423e+00    3.359925e+00
  3.957174e+00    3.532827e+00
  3.988925e+00    3.451987e+00
  4.020676e+00    3.519788e+00
  4.052428e+00    3.515762e+00
  4.084179e+00    3.345615e+00
  4.115930e+00    3.503868e+00
  4.147681e+00    3.445914e+00
  4.179432e+00    3.501961e+00
  4.211183e+00    3.488275e+00
  4.242935e+00    3.497503e+00
  4.274686e+00    3.480338e+00
  4.306437e+00    3.485059e+00
  4.338188e+00    3.524530e+00
  4.369939e+00    3.623306e+00
  4.401690e+00    3.531600e+00
  4.433441e+00    3.510369e+00
  4.465193e+00    3.470285e+00
  4.496944e+00    3.590811e+00
  4.528695e+00    3.498027e+00
  4.560446e+00    3.590615e+00
  4.592197e+00    3.545083e+00
  4.623948e+00    3.561148e+00
  4.655699e+00    3.511568e+00
  4.687451e+00    3.686415e+00
  4.719202e+00    3.439781e+00
  4.750953e+00    3.597516e+00
  4.782704e+00    3.567266e+00
  4.814455e+00    3.496319e+00
  4.846206e+00    3.603539e+00
  4.877957e+00    3.637360e+00
  4.909709e+00    3.610608e+00
  4.941460e+00    3.568417e+00
  4.973211e+00    3.538265e+00
  5.004962e+00    3.570951e+00
  5.036713e+00    3.712429e+00
  5.068464e+00    3.774575e+00
  5.100216e+00    3.660150e+00
  5.131967e+00    3.621894e+00
  5.163718e+00    3.638832e+00
  5.195469e+00    3.515633e+00
  5.227220e+00    3.530161e+00
  5.258971e+00    3.626214e+00
  5.290722e+00    3.702752e+00
  5.322474e+00    3.618067e+00
  5.354225e+00    3.584320e+00
  5.385976e+00    3.592985e+00
  5.417727e+00    3.529506e+00
  5.449478e+00    3.547202e+00
  5.481229e+00    3.546048e+00
  5.512980e+00    3.512477e+00
  5.544732e+00    3.555604e+00
  5.576483e+00    3.608285e+00
  5.608234e+00    3.551653e+00
  5.639985e+00    3.529133e+00
  5.671736e+00    3.516669e+00
  5.703487e+00    3.519150e+00
  5.735238e+00    3.570509e+00
  5.766990e+00    3.390394e+00
  5.798741e+00    3.527453e+00
  5.830492e+00    3.581416e+00
  5.862243e+00    3.491379e+00
  5.893994e+00    3.454600e+00
  5.925745e+00    3.497135e+00
  5.957497e+00    3.472578e+00
  5.989248e+00    3.451819e+00
  6.020999e+00    3.492281e+00
  6.052750e+00    3.485519e+00
  6.084501e+00    3.532974e+00
  6.116252e+00    3.567630e+00
  6.148003e+00    3.559090e+00
  6.179755e+00    3.481711e+00
  6.211506e+00    3.574986e+00
  6.243257e+00    3.575088e+00
  6.275008e+00    3.497195e+00
  6.306759e+00    3.496904e+00
  6.338510e+00    3.503632e+00
  6.370261e+00    3.473495e+00
  6.402013e+00    3.520139e+00
  6.433764e+00    3.461804e+00
  6.465515e+00    3.583107e+00
  6.497266e+00    3.482352e+00
  6.529017e+00    3.484721e+00
  6.560768e+00    3.432927e+00
  6.592519e+00    3.512637e+00
  6.624271e+00    3.580182e+00
  6.656022e+00    3.493704e+00
  6.687773e+00    3.530792e+00
  6.719524e+00    3.467689e+00
  6.751275e+00    3.477852e+00
  6.783026e+00    3.491535e+00
  6.814777e+00    3.485801e+00
  6.846529e+00    3.513775e+00
  6.878280e+00    3.454768e+00
  6.910031e+00    3.564234e+00
  6.941782e+00    3.437679e+00
  6.973533e+00    3.521204e+00
  7.005284e+00    3.477424e+00
  7.037036e+00    3.430859e+00
  7.068787e+00    3.471593e+00
  7.100538e+00    3.507601e+00
  7.132289e+00    3.497966e+00
  7.164040e+00    3.436764e+00
  7.195791e+00    3.489981e+00
  7.227542e+00    3.528177e+00
  7.259294e+00    3.390389e+00
  7.291045e+00    3.482067e+00
  7.322796e+00    3.443241e+00
  7.354547e+00    3.511748e+00
  7.386298e+00    3.397484e+00
  7.418049e+00    3.459206e+00
  7.449800e+00    3.500254e+00
  7.481552e+00    3.374600e+00
  7.513303e+00    3.442749e+00
  7.545054e+00    3.462722e+00
  7.576805e+00    3.459642e+00
  7.608556e+00    3.422425e+00
  7.640307e+00    3.442474e+00
  7.672058e+00    3.400536e+00
  7.703810e+00    3.427005e+00
  7.735561e+00    3.359030e+00
  7.767312e+00    3.368104e+00
  7.799063e+00    3.347391e+00
  7.830814e+00    3.386867e+00
  7.862565e+00    3.355073e+00
  7.894317e+00    3.422815e+00
  7.926068e+00    3.466712e+00
  7.957819e+00    3.307274e+00
  7.989570e+00    3.385815e+00
  8.021321e+00    3.420213e+00
  8.053072e+00    3.369185e+00
  8.084823e+00    3.328890e+00
  8.116575e+00    3.429433e+00
  8.148326e+00    3.426497e+00
  8.180077e+00    3.399523e+00
  8.211828e+00    3.502824e+00
  8.243579e+00    3.396776e+00
  8.275330e+00    3.389718e+00
  8.307081e+00    3.321503e+00
  8.338833e+00    3.348843e+00
  8.370584e+00    3.306843e+00
  8.402335e+00    3.312160e+00
  8.434086e+00    3.321424e+00
  8.465837e+00    3.337263e+00
  8.497588e+00    3.345004e+00
  8.529339e+00    3.353204e+00
  8.561091e+00    3.309113e+00
  8.592842e+00    3.276893e+00
  8.624593e+00    3.314371e+00
  8.656344e+00    3.274894e+00
  8.688095e+00    3.279685e+00
  8.719846e+00    3.301319e+00
  8.751598e+00    3.273153e+00
  8.783349e+00    3.255407e+00
  8.815100e+00    3.330063e+00
  8.846851e+00    3.270753e+00
  8.878602e+00    3.236684e+00
  8.910353e+00    3.263601e+00
  8.942104e+00    3.231918e+00
  8.973856e+00    3.249318e+00
  9.005607e+00    3.254578e+00
  9.037358e+00    3.238689e+00
  9.069109e+00    3.197304e+00
  9.100860e+00    3.207374e+00
  9.132611e+00    3.171183e+00
  9.164362e+00    3.140335e+00
  9.196114e+00    3.207717e+00
  9.227865e+00    3.203865e+00
  9.259616e+00    3.156115e+00
  9.291367e+00    3.167824e+00
  9.323118e+00    3.172577e+00
  9.354869e+00    3.192589e+00
  9.386620e+00    3.176348e+00
  9.418372e+00    3.189924e+00
  9.450123e+00    3.232148e+00
  9.481874e+00    3.169924e+00
  9.513625e+00    3.178861e+00
  9.545376e+00    3.147846e+00
  9.577127e+00    3.095171e+00
  9.608878e+00    3.219285e+00
  9.640630e+00    3.174546e+00
  9.672381e+00    3.133238e+00
  9.704132e+00    3.123237e+00
  9.735883e+00    3.161371e+00
  9.767634e+00    3.122365e+00
  9.799385e+00    3.167090e+00
  9.831137e+00    3.056404e+00
  9.862888e+00    3.153976e+00
  9.894639e+00    3.055989e+00
  9.926390e+00    3.113661e+00
  9.958141e+00    3.092861e+00
  9.989892e+00    3.112236e+00
  1.002164e+01    3.113048e+00
  1.005339e+01    3.115908e+00
  1.008515e+01    3.084710e+00
  1.011690e+01    3.000445e+00
  1.014865e+01    3.000220e+00
  1.018040e+01    3.048074e+00
  1.021215e+01    3.060629e+00
  1.024390e+01    3.043489e+00
  1.027565e+01    2.967724e+00
  1.030740e+01    3.011208e+00
  1.033915e+01    2.966574e+00
  1.037091e+01    3.011184e+00
  1.040266e+01    3.026887e+00
  1.043441e+01    2.981500e+00
  1.046616e+01    2.986239e+00
  1.049791e+01    3.030523e+00
  1.052966e+01    2.992862e+00
  1.056141e+01    2.968546e+00
  1.059316e+01    2.997168e+00
  1.062492e+01    3.003784e+00
  1.065667e+01    2.929331e+00
  1.068842e+01    2.932189e+00
  1.072017e+01    2.950440e+00
  1.075192e+01    2.920253e+00
  1.078367e+01    2.899105e+00
  1.081542e+01    2.902126e+00
  1.084717e+01    2.903277e+00
  1.087892e+01    2.899112e+00
  1.091068e+01    2.860403e+00
  1.094243e+01    2.874363e+00
  1.097418e+01    2.831755e+00
  1.100593e+01    2.850192e+00
  1.103768e+01    2.865680e+00
  1.106943e+01    2.867075e+00
  1.110118e+01    2.927270e+00
  1.113293e+01    2.798586e+00
  1.116468e+01    2.867511e+00
  1.119644e+01    2.797855e+00
  1.122819e+01    2.823282e+00
  1.125994e+01    2.760601e+00
  1.129169e+01    2.799288e+00
  1.132344e+01    2.801434e+00
  1.135519e+01    2.786027e+00
  1.138694e+01    2.798519e+00
  1.141869e+01    2.765097e+00
  1.145045e+01    2.759340e+00
  1.148220e+01    2.792616e+00
  1.151395e+01    2.775114e+00
  1.154570e+01    2.749976e+00
  1.157745e+01    2.731348e+00
  1.160920e+01    2.763215e+00
  1.164095e+01    2.758460e+00
  1.167270e+01    2.695103e+00
  1.170445e+01    2.707840e+00
  1.173621e+01    2.765948e+00
  1.176796e+01    2.726418e+00
  1.179971e+01    2.661165e+00
  1.183146e+01    2.688454e+00
  1.186321e+01    2.654685e+00
  1.189496e+01    2.697807e+00
  1.192671e+01    2.655087e+00
  1.195846e+01    2.649034e+00
  1.199021e+01    2.653976e+00
  1.202197e+01    2.660570e+00
  1.205372e+01    2.707465e+00
  1.208547e+01    2.700785e+00
  1.211722e+01    2.707340e+00
  1.214897e+01    2.713839e+00
  1.218072e+01    2.671501e+00
  1.221247e+01    2.701586e+00
  1.224422e+01    2.661084e+00
  1.227597e+01    2.666403e+00
  1.230773e+01    2.696799e+00
  1.233948e+01    2.629428e+00
  1.237123e+01    2.630512e+00
  1.240298e+01    2.651996e+00
  1.243473e+01    2.693022e+00
  1.246648e+01    2.667290e+00
  1.249823e+01    2.676244e+00
  1.252998e+01    2.732567e+00
  1.256174e+01    2.668014e+00
  1.259349e+01    2.693338e+00
  1.262524e+01    2.724520e+00
  1.265699e+01    2.718965e+00
  1.268874e+01    2.776588e+00
  1.272049e+01    2.830593e+00
  1.275224e+01    2.840142e+00
  1.278399e+01    2.926636e+00
  1.281574e+01    2.990295e+00
  1.284750e+01    3.159642e+00
  1.287925e+01    3.292648e+00
  1.291100e+01    3.634689e+00
  1.294275e+01    4.062975e+00
  1.297450e+01    4.720751e+00
  1.300625e+01    5.807078e+00
  1.303800e+01    7.582439e+00
  1.306975e+01    1.007832e+01
  1.310150e+01    1.250333e+01
  1.313326e+01    1.451432e+01
  1.316501e+01    1.614404e+01
  1.319676e+01    1.548932e+01
  1.322851e+01    1.231315e+01
  1.326026e+01    8.935897e+00
  1.329201e+01    6.763089e+00
  1.332376e+01    5.205316e+00
  1.335551e+01    4.346996e+00
  1.338727e+01    3.786153e+00
  1.341902e+01    3.447531e+00
  1.345077e+01    3.198162e+00
  1.348252e+01    2.995537e+00
  1.351427e+01    2.852473e+00
  1.354602e+01    2.789726e+00
  1.357777e+01    2.706399e+00
  1.360952e+01    2.676115e+00
  1.364127e+01    2.603275e+00
  1.367303e+01    2.587293e+00
  1.370478e+01    2.512057e+00
  1.373653e+01    2.477153e+00
  1.376828e+01    2.485160e+00
  1.380003e+01    2.443812e+00
  1.383178e+01    2.389557e+00
  1.386353e+01    2.400915e+00
  1.389528e+01    2.381210e+00
  1.392703e+01    2.374794e+00
  1.395879e+01    2.382617e+00
  1.399054e+01    2.352068e+00
  1.402229e+01    2.313515e+00
  1.405404e+01    2.315838e+00
  1.408579e+01    2.304430e+00
  1.411754e+01    2.295482e+00
  1.414929e+01    2.259290e+00
  1.418104e+01    2.270725e+00
  1.421279e+01    2.300145e+00
  1.424455e+01    2.237236e+00
  1.427630e+01    2.239095e+00
  1.430805e+01    2.222121e+00
  1.433980e+01    2.248189e+00
  1.437155e+01    2.231359e+00
  1.440330e+01    2.233620e+00
  1.443505e+01    2.220605e+00
  1.446680e+01    2.125891e+00
  1.449856e+01    2.199029e+00
  1.453031e+01    2.200964e+00
  1.456206e+01    2.194407e+00
  1.459381e+01    2.215573e+00
  1.462556e+01    2.201185e+00
  1.465731e+01    2.179858e+00
  1.468906e+01    2.190611e+00
  1.472081e+01    2.153840e+00
  1.475256e+01    2.195201e+00
  1.478432e+01    2.171585e+00
  1.481607e+01    2.164778e+00
  1.484782e+01    2.183691e+00
  1.487957e+01    2.230476e+00
  1.491132e+01    2.244028e+00
  1.494307e+01    2.276049e+00
  1.497482e+01    2.322908e+00
  1.500657e+01    2.423936e+00
  1.503832e+01    2.510777e+00
  1.507008e+01    2.810097e+00
  1.510183e+01    3.163887e+00
  1.513358e+01    3.721407e+00
  1.516533e+01    4.459922e+00
  1.519708e+01    5.120337e+00
  1.522883e+01    5.591020e+00
  1.526058e+01    5.671679e+00
  1.529233e+01    5.386372e+00
  1.532409e+01    4.661765e+00
  1.535584e+01    3.707764e+00
  1.538759e+01    3.098146e+00
  1.541934e+01    2.701382e+00
  1.545109e+01    2.474344e+00
  1.548284e+01    2.337488e+00
  1.551459e+01    2.219015e+00
  1.554634e+01    2.166314e+00
  1.557809e+01    2.122910e+00
  1.560985e+01    2.003820e+00
  1.564160e+01    2.025630e+00
  1.567335e+01    1.969006e+00
  1.570510e+01    1.995841e+00
  1.573685e+01    1.976778e+00
  1.576860e+01    1.902815e+00
  1.580035e+01    1.935947e+00
  1.583210e+01    1.895679e+00
  1.586385e+01    1.861859e+00
  1.589561e+01    1.897794e+00
  1.592736e+01    1.911132e+00
  1.595911e+01    1.828280e+00
  1.599086e+01    1.910137e+00
  1.602261e+01    1.854245e+00
  1.605436e+01    1.831160e+00
  1.608611e+01    1.835703e+00
  1.611786e+01    1.812915e+00
  1.614961e+01    1.789417e+00
  1.618137e+01    1.780388e+00
  1.621312e+01    1.809067e+00
  1.624487e+01    1.786131e+00
  1.627662e+01    1.845102e+00
  1.630837e+01    1.791756e+00
  1.634012e+01    1.781631e+00
  1.637187e+01    1.757273e+00
  1.640362e+01    1.729845e+00
  1.643538e+01    1.758585e+00
  1.646713e+01    1.742341e+00
  1.649888e+01    1.742694e+00
  1.653063e+01    1.734883e+00
  1.656238e+01    1.708867e+00
  1.659413e+01    1.765797e+00
  1.662588e+01    1.702922e+00
  1.665763e+01    1.709131e+00
  1.668938e+01    1.698461e+00
  1.672114e+01    1.684836e+00
  1.675289e+01    1.675322e+00
  1.678464e+01    1.711668e+00
  1.681639e+01    1.659842e+00
  1.684814e+01    1.705093e+00
  1.687989e+01    1.654538e+00
  1.691164e+01    1.655894e+00
  1.694339e+01    1.651369e+00
  1.697514e+01    1.660624e+00
  1.700690e+01    1.636253e+00
  1.703865e+01    1.611037e+00
  1.707040e+01    1.626212e+00
  1.710215e+01    1.619795e+00
  1.713390e+01    1.661534e+00
  1.716565e+01    1.627372e+00
  1.719740e+01    1.595747e+00
  1.722915e+01    1.605900e+00
  1.726091e+01    1.580799e+00
  1.729266e+01    1.630131e+00
  1.732441e+01    1.587537e+00
  1.735616e+01    1.590265e+00
  1.738791e+01    1.592564e+00
  1.741966e+01    1.565923e+00
  1.745141e+01    1.607365e+00
  1.748316e+01    1.564551e+00
  1.751491e+01    1.551620e+00
  1.754667e+01    1.554529e+00
  1.757842e+01    1.572135e+00
  1.761017e+01    1.545799e+00
  1.764192e+01    1.570720e+00
  1.767367e+01    1.551172e+00
  1.770542e+01    1.510372e+00
  1.773717e+01    1.530441e+00
  1.776892e+01    1.547968e+00
  1.780067e+01    1.521273e+00
  1.783243e+01    1.513258e+00
  1.786418e+01    1.503023e+00
  1.789593e+01    1.509748e+00
  1.792768e+01    1.535552e+00
  1.795943e+01    1.517251e+00
  1.799118e+01    1.501877e+00
  1.802293e+01    1.517179e+00
  1.805468e+01    1.504849e+00
  1.808643e+01    1.459541e+00
  1.811819e+01    1.497322e+00
  1.814994e+01    1.473801e+00
  1.818169e+01    1.462130e+00
  1.821344e+01    1.463323e+00
  1.824519e+01    1.482287e+00
  1.827694e+01    1.454981e+00
  1.830869e+01    1.480590e+00
  1.834044e+01    1.448777e+00
  1.837220e+01    1.428764e+00
  1.840395e+01    1.417192e+00
  1.843570e+01    1.429880e+00
  1.846745e+01    1.444223e+00
  1.849920e+01    1.414820e+00
  1.853095e+01    1.401069e+00
  1.856270e+01    1.439629e+00
  1.859445e+01    1.390820e+00
  1.862620e+01    1.422682e+00
  1.865796e+01    1.399383e+00
  1.868971e+01    1.402318e+00
  1.872146e+01    1.417218e+00
  1.875321e+01    1.407941e+00
  1.878496e+01    1.387924e+00
  1.881671e+01    1.385363e+00
  1.884846e+01    1.411512e+00
  1.888021e+01    1.379555e+00
  1.891196e+01    1.380571e+00
  1.894372e+01    1.386270e+00
  1.897547e+01    1.360910e+00
  1.900722e+01    1.322372e+00
  1.903897e+01    1.372232e+00
  1.907072e+01    1.347274e+00
  1.910247e+01    1.335979e+00
  1.913422e+01    1.352067e+00
  1.916597e+01    1.352959e+00
  1.919773e+01    1.330393e+00
  1.922948e+01    1.332454e+00
  1.926123e+01    1.330190e+00
  1.929298e+01    1.359518e+00
  1.932473e+01    1.329458e+00
  1.935648e+01    1.335467e+00
  1.938823e+01    1.333525e+00
  1.941998e+01    1.312536e+00
  1.945173e+01    1.312448e+00
  1.948349e+01    1.307615e+00
  1.951524e+01    1.303783e+00
  1.954699e+01    1.337601e+00
  1.957874e+01    1.297299e+00
  1.961049e+01    1.286009e+00
  1.964224e+01    1.294350e+00
  1.967399e+01    1.286062e+00
  1.970574e+01    1.292999e+00
  1.973749e+01    1.278137e+00
  1.976925e+01    1.288150e+00
  1.980100e+01    1.279813e+00
  1.983275e+01    1.278773e+00
  1.986450e+01    1.270215e+00
  1.989625e+01    1.282235e+00
  1.992800e+01    1.307226e+00
  1.995975e+01    1.292544e+00
  1.999150e+01    1.279031e+00
  2.002325e+01    1.275453e+00
  2.005501e+01    1.256587e+00
  2.008676e+01    1.272058e+00
  2.011851e+01    1.293012e+00
  2.015026e+01    1.281892e+00
  2.018201e+01    1.258738e+00
  2.021376e+01    1.248857e+00
  2.024551e+01    1.253387e+00
  2.027726e+01    1.237935e+00
  2.030902e+01    1.236514e+00
  2.034077e+01    1.248944e+00
  2.037252e+01    1.247375e+00
  2.040427e+01    1.235201e+00
  2.043602e+01    1.260898e+00
  2.046777e+01    1.206586e+00
  2.049952e+01    1.228129e+00
  2.053127e+01    1.228864e+00
  2.056302e+01    1.204482e+00
  2.059478e+01    1.221160e+00
  2.062653e+01    1.189111e+00
  2.065828e+01    1.208861e+00
  2.069003e+01    1.198380e+00
  2.072178e+01    1.218875e+00
  2.075353e+01    1.222265e+00
  2.078528e+01    1.200001e+00
  2.081703e+01    1.195946e+00
  2.084878e+01    1.181501e+00
  2.088054e+01    1.215608e+00
  2.091229e+01    1.204819e+00
  2.094404e+01    1.206056e+00
  2.097579e+01    1.197545e+00
  2.100754e+01    1.203083e+00
  2.103929e+01    1.199036e+00
  2.107104e+01    1.185651e+00
  2.110279e+01    1.203009e+00
  2.113455e+01    1.188778e+00
  2.116630e+01    1.185764e+00
  2.119805e+01    1.198223e+00
  2.122980e+01    1.244400e+00
  2.126155e+01    1.252285e+00
  2.129330e+01    1.251261e+00
  2.132505e+01    1.242985e+00
  2.135680e+01    1.265396e+00
  2.138855e+01    1.310978e+00
  2.142031e+01    1.297503e+00
  2.145206e+01    1.324331e+00
  2.148381e+01    1.388319e+00
  2.151556e+01    1.415148e+00
  2.154731e+01    1.479429e+00
  2.157906e+01    1.612933e+00
  2.161081e+01    1.709670e+00
  2.164256e+01    1.945449e+00
  2.167431e+01    2.255514e+00
  2.170607e+01    2.750569e+00
  2.173782e+01    3.474726e+00
  2.176957e+01    4.524962e+00
  2.180132e+01    5.673695e+00
  2.183307e+01    7.056277e+00
  2.186482e+01    8.236853e+00
  2.189657e+01    8.765794e+00
  2.192832e+01    8.110988e+00
  2.196007e+01    6.484307e+00
  2.199183e+01    4.777833e+00
  2.202358e+01    3.584776e+00
  2.205533e+01    2.823848e+00
  2.208708e+01    2.290795e+00
  2.211883e+01    1.951878e+00
  2.215058e+01    1.765719e+00
  2.218233e+01    1.591575e+00
  2.221408e+01    1.468760e+00
  2.224584e+01    1.417049e+00
  2.227759e+01    1.306384e+00
  2.230934e+01    1.283184e+00
  2.234109e+01    1.261305e+00
  2.237284e+01    1.245206e+00
  2.240459e+01    1.187527e+00
  2.243634e+01    1.173458e+00
  2.246809e+01    1.153683e+00
  2.249984e+01    1.139582e+00
  2.253160e+01    1.118656e+00
  2.256335e+01    1.086171e+00
  2.259510e+01    1.089658e+00
  2.262685e+01    1.080645e+00
  2.265860e+01    1.076939e+00
  2.269035e+01    1.060004e+00
  2.272210e+01    1.033673e+00
  2.275385e+01    1.055348e+00
  2.278560e+01    1.037068e+00
  2.281736e+01    1.053121e+00
  2.284911e+01    1.033186e+00
  2.288086e+01    1.030965e+00
  2.291261e+01    1.024641e+00
  2.294436e+01    1.009660e+00
  2.297611e+01    1.002977e+00
  2.300786e+01    9.979528e-01
  2.303961e+01    9.849347e-01
  2.307137e+01    9.782083e-01
  2.310312e+01    1.006051e+00
  2.313487e+01    1.007228e+00
  2.316662e+01    9.727178e-01
  2.319837e+01    9.852902e-01
  2.323012e+01    9.784681e-01
  2.326187e+01    9.597785e-01
  2.329362e+01    9.712077e-01
  2.332537e+01    9.635875e-01
  2.335713e+01    9.861303e-01
  2.338888e+01    9.580461e-01
  2.342063e+01    9.524134e-01
  2.345238e+01    9.658741e-01
  2.348413e+01    9.509593e-01
  2.351588e+01    9.587407e-01
  2.354763e+01    9.548457e-01
  2.357938e+01    9.537757e-01
  2.361113e+01    9.450118e-01
  2.364289e+01    9.480286e-01
  2.367464e+01    9.428111e-01
  2.370639e+01    9.266928e-01
  2.373814e+01    8.945286e-01
  2.376989e+01    9.076089e-01
  2.380164e+01    9.058194e-01
  2.383339e+01    9.071564e-01
  2.386514e+01    8.932996e-01
  2.389689e+01    9.119951e-01
  2.392865e+01    9.152132e-01
  2.396040e+01    9.059080e-01
  2.399215e+01    9.132413e-01
  2.402390e+01    8.934618e-01
  2.405565e+01    8.938692e-01
  2.408740e+01    8.725247e-01
  2.411915e+01    8.489991e-01
  2.415090e+01    8.569146e-01
  2.418266e+01    8.819355e-01
  2.421441e+01    8.677273e-01
  2.424616e+01    8.632081e-01
  2.427791e+01    8.849494e-01
  2.430966e+01    8.610912e-01
  2.434141e+01    8.845637e-01
  2.437316e+01    8.913566e-01
  2.440491e+01    8.890227e-01
  2.443666e+01    8.524576e-01
  2.446842e+01    8.989247e-01
  2.450017e+01    8.936219e-01
  2.453192e+01    8.772016e-01
  2.456367e+01    8.695530e-01
  2.459542e+01    8.866547e-01
  2.462717e+01    8.956493e-01
  2.465892e+01    8.929346e-01
  2.469067e+01    8.900017e-01
  2.472242e+01    8.799801e-01
  2.475418e+01    9.178789e-01
  2.478593e+01    8.797575e-01
  2.481768e+01    8.812009e-01
  2.484943e+01    8.886536e-01
  2.488118e+01    8.868738e-01
  2.491293e+01    8.689042e-01
  2.494468e+01    8.647736e-01
  2.497643e+01    8.832627e-01
  2.500819e+01    8.825769e-01
  2.503994e+01    8.914372e-01
  2.507169e+01    8.855883e-01
  2.510344e+01    8.897054e-01
  2.513519e+01    9.005913e-01
  2.516694e+01    9.091381e-01
  2.519869e+01    9.121339e-01
  2.523044e+01    9.265964e-01
  2.526219e+01    9.209634e-01
  2.529395e+01    9.334059e-01
  2.532570e+01    9.402131e-01
  2.535745e+01    9.659848e-01
  2.538920e+01    9.858407e-01
  2.542095e+01    9.919253e-01
  2.545270e+01    1.004190e+00
  2.548445e+01    1.035891e+00
  2.551620e+01    1.044514e+00
  2.554795e+01    1.104319e+00
  2.557971e+01    1.150345e+00
  2.561146e+01    1.204767e+00
  2.564321e+01    1.302459e+00
  2.567496e+01    1.409381e+00
  2.570671e+01    1.578726e+00
  2.573846e+01    1.860087e+00
  2.577021e+01    2.208073e+00
  2.580196e+01    2.748623e+00
  2.583371e+01    3.574042e+00
  2.586547e+01    4.587050e+00
  2.589722e+01    5.760531e+00
  2.592897e+01    6.645353e+00
  2.596072e+01    7.006910e+00
  2.599247e+01    6.493314e+00
  2.602422e+01    5.184102e+00
  2.605597e+01    3.936316e+00
  2.608772e+01    2.963713e+00
  2.611948e+01    2.330354e+00
  2.615123e+01    1.914923e+00
  2.618298e+01    1.687918e+00
  2.621473e+01    1.466971e+00
  2.624648e+01    1.334469e+00
  2.627823e+01    1.214100e+00
  2.630998e+01    1.160532e+00
  2.634173e+01    1.099282e+00
  2.637348e+01    1.060657e+00
  2.640524e+01    1.044955e+00
  2.643699e+01    1.018028e+00
  2.646874e+01    1.018352e+00
  2.650049e+01    1.002404e+00
  2.653224e+01    9.959405e-01
  2.656399e+01    9.849257e-01
  2.659574e+01    9.462996e-01
  2.662749e+01    9.736405e-01
  2.665924e+01    9.527884e-01
  2.669100e+01    9.741819e-01
  2.672275e+01    9.372308e-01
  2.675450e+01    9.613956e-01
  2.678625e+01    9.480532e-01
  2.681800e+01    9.418313e-01
  2.684975e+01    9.312662e-01
  2.688150e+01    9.965242e-01
  2.691325e+01    1.004554e+00
  2.694501e+01    1.031348e+00
  2.697676e+01    1.040919e+00
  2.700851e+01    1.090630e+00
  2.704026e+01    1.173260e+00
  2.707201e+01    1.318927e+00
  2.710376e+01    1.475407e+00
  2.713551e+01    1.728807e+00
  2.716726e+01    1.955036e+00
  2.719901e+01    2.097215e+00
  2.723077e+01    2.121357e+00
  2.726252e+01    1.934887e+00
  2.729427e+01    1.664445e+00
  2.732602e+01    1.424796e+00
  2.735777e+01    1.246211e+00
  2.738952e+01    1.167910e+00
  2.742127e+01    1.080249e+00
  2.745302e+01    1.038264e+00
  2.748477e+01    9.935187e-01
  2.751653e+01    9.682541e-01
  2.754828e+01    9.560432e-01
  2.758003e+01    9.441108e-01
  2.761178e+01    9.115820e-01
  2.764353e+01    9.121285e-01
  2.767528e+01    8.899958e-01
  2.770703e+01    8.912733e-01
  2.773878e+01    8.998202e-01
  2.777054e+01    8.872374e-01
  2.780229e+01    8.636886e-01
  2.783404e+01    8.628753e-01
  2.786579e+01    8.814189e-01
  2.789754e+01    8.748615e-01
  2.792929e+01    8.661984e-01
  2.796104e+01    8.750117e-01
  2.799279e+01    8.554216e-01
  2.802454e+01    8.376287e-01
  2.805630e+01    8.532104e-01
  2.808805e+01    8.527786e-01
  2.811980e+01    8.414325e-01
  2.815155e+01    8.312020e-01
  2.818330e+01    8.335736e-01
  2.821505e+01    8.424972e-01
  2.824680e+01    8.407413e-01
  2.827855e+01    8.364859e-01
  2.831030e+01    8.220474e-01
  2.834206e+01    8.280892e-01
  2.837381e+01    8.347082e-01
  2.840556e+01    8.316729e-01
  2.843731e+01    8.404398e-01
  2.846906e+01    8.250873e-01
  2.850081e+01    8.382130e-01
  2.853256e+01    8.389401e-01
  2.856431e+01    8.225018e-01
  2.859606e+01    8.329719e-01
  2.862782e+01    8.247252e-01
  2.865957e+01    8.379220e-01
  2.869132e+01    8.302584e-01
  2.872307e+01    8.167288e-01
  2.875482e+01    8.280065e-01
  2.878657e+01    8.222328e-01
  2.881832e+01    8.014563e-01
  2.885007e+01    8.057426e-01
  2.888183e+01    8.167890e-01
  2.891358e+01    8.070415e-01
  2.894533e+01    8.146137e-01
  2.897708e+01    8.222786e-01
  2.900883e+01    8.101191e-01
  2.904058e+01    8.090298e-01
  2.907233e+01    8.078266e-01
  2.910408e+01    8.097860e-01
  2.913583e+01    7.922442e-01
  2.916759e+01    8.056514e-01
  2.919934e+01    7.959783e-01
  2.923109e+01    7.834437e-01
  2.926284e+01    7.803271e-01
  2.929459e+01    8.008276e-01
  2.932634e+01    7.971158e-01
  2.935809e+01    8.168368e-01
  2.938984e+01    7.960107e-01
  2.942159e+01    7.928215e-01
  2.945335e+01    7.957321e-01
  2.948510e+01    7.909529e-01
  2.951685e+01    7.791942e-01
  2.954860e+01    7.943087e-01
  2.958035e+01    7.772806e-01
  2.961210e+01    7.852687e-01
  2.964385e+01    7.728699e-01
  2.967560e+01    7.745880e-01
  2.970736e+01    7.868491e-01
  2.973911e+01    7.719898e-01
  2.977086e+01    7.830077e-01
  2.980261e+01    7.883598e-01
  2.983436e+01    7.701893e-01
  2.986611e+01    7.766695e-01
  2.989786e+01    7.887904e-01
  2.992961e+01    7.817450e-01
  2.996136e+01    7.917856e-01
  2.999312e+01    7.904546e-01
  3.002487e+01    8.078895e-01
  3.005662e+01    8.258042e-01
  3.008837e+01    7.928642e-01
  3.012012e+01    7.993945e-01
  3.015187e+01    7.850910e-01
  3.018362e+01    7.848836e-01
  3.021537e+01    7.665132e-01
  3.024712e+01    7.871704e-01
  3.027888e+01    7.775583e-01
  3.031063e+01    7.718123e-01
  3.034238e+01    7.617805e-01
  3.037413e+01    7.844361e-01
  3.040588e+01    7.646633e-01
  3.043763e+01    7.528989e-01
  3.046938e+01    7.681643e-01
  3.050113e+01    7.713990e-01
  3.053288e+01    7.710441e-01
  3.056464e+01    7.643125e-01
  3.059639e+01    7.844468e-01
  3.062814e+01    7.662125e-01
  3.065989e+01    7.713956e-01
  3.069164e+01    7.781683e-01
  3.072339e+01    7.673513e-01
  3.075514e+01    7.761846e-01
  3.078689e+01    7.688223e-01
  3.081865e+01    7.731357e-01
  3.085040e+01    7.625473e-01
  3.088215e+01    7.710249e-01
  3.091390e+01    7.733372e-01
  3.094565e+01    7.746955e-01
  3.097740e+01    7.735672e-01
  3.100915e+01    7.746302e-01
  3.104090e+01    7.777864e-01
  3.107265e+01    7.815141e-01
  3.110441e+01    7.869477e-01
  3.113616e+01    7.874377e-01
  3.116791e+01    7.788083e-01
  3.119966e+01    7.856358e-01
  3.123141e+01    7.787148e-01
  3.126316e+01    7.791215e-01
  3.129491e+01    7.849822e-01
  3.132666e+01    8.132803e-01
  3.135841e+01    7.878678e-01
  3.139017e+01    7.904382e-01
  3.142192e+01    8.075851e-01
  3.145367e+01    8.087168e-01
  3.148542e+01    8.185053e-01
  3.151717e+01    8.276094e-01
  3.154892e+01    8.405180e-01
  3.158067e+01    8.318554e-01
  3.161242e+01    8.445750e-01
  3.164418e+01    8.973072e-01
  3.167593e+01    9.461703e-01
  3.170768e+01    1.007369e+00
  3.173943e+01    1.105683e+00
  3.177118e+01    1.226413e+00
  3.180293e+01    1.476191e+00
  3.183468e+01    1.673772e+00
  3.186643e+01    1.921276e+00
  3.189818e+01    2.050724e+00
  3.192994e+01    2.015971e+00
  3.196169e+01    1.791751e+00
  3.199344e+01    1.512511e+00
  3.202519e+01    1.336834e+00
  3.205694e+01    1.129780e+00
  3.208869e+01    1.027450e+00
  3.212044e+01    9.581513e-01
  3.215219e+01    8.892931e-01
  3.218394e+01    8.591284e-01
  3.221570e+01    8.263832e-01
  3.224745e+01    8.271615e-01
  3.227920e+01    8.064665e-01
  3.231095e+01    8.099186e-01
  3.234270e+01    7.974868e-01
  3.237445e+01    7.809413e-01
  3.240620e+01    7.851090e-01
  3.243795e+01    7.760294e-01
  3.246970e+01    7.755951e-01
  3.250146e+01    7.736943e-01
  3.253321e+01    7.908248e-01
  3.254908e+01    7.894300e-01