File: XRD/Reaction conditions/2024-07-27_003_Ru-CGO-ex_Reaction_dwell_000023_data_000025.dat
# == pyFAI calibration ==
# Distance Sample to Detector: 0.4 m
# PONI: 9.750e-02, 1.135e-01 m
# Rotations: -0.000175 0.000000 -0.000000 rad
#
# == Fit2d calibration ==
# Distance Sample-beamCenter: 400.000 mm
# Center: x=1514.000, y=1300.000 pix
# Tilt: 0.010 deg  TiltPlanRot: 0.010 deg
#
# Detector Detector	 Spline= None	 PixelSize= 7.500e-05, 7.500e-05 m
#    Detector has a mask: False
#    Detector has a dark current: False
#    detector has a flat field: False
#
# Wavelength: 6.888e-11 m
# Mask applied: user provided
# Dark current applied: False
# Flat field applied: False
# Polarization factor: 0.99
# Normalization factor: 1.0
# --> /home/myspot/data/2024_07_Rosario/Ru-CGO-ex/2024-07-27_003_Ru-CGO-ex_Reaction_dwell_000023_data_000025.dat
#       q_nm^-1             I
  2.003187e-02    0.000000e+00
  5.178302e-02    3.113245e-01
  8.353417e-02    8.947740e-02
  1.152853e-01    6.281818e-02
  1.470365e-01    3.442902e-03
  1.787876e-01    5.123460e-02
  2.105388e-01    4.344293e-02
  2.422899e-01    3.573047e-02
  2.740411e-01    3.086270e-03
  3.057922e-01    5.518929e-02
  3.375433e-01    5.648507e-02
  3.692945e-01    5.702762e-02
  4.010456e-01    1.268617e-02
  4.327968e-01    6.917845e-02
  4.645479e-01    2.560500e-02
  4.962991e-01    3.584541e-02
  5.280502e-01    3.634706e-02
  5.598014e-01    2.438990e-02
  5.915525e-01    3.487383e-02
  6.233037e-01    4.115212e-02
  6.550548e-01    2.537231e-02
  6.868060e-01    5.911789e-02
  7.185571e-01    1.770150e-02
  7.503083e-01    6.326546e-02
  7.820594e-01    1.256141e-01
  8.138106e-01    2.061190e-01
  8.455617e-01    3.105381e-01
  8.773129e-01    4.855304e-01
  9.090640e-01    6.651731e-01
  9.408152e-01    8.047651e-01
  9.725663e-01    9.902019e-01
  1.004317e+00    1.220488e+00
  1.036069e+00    1.415942e+00
  1.067820e+00    1.363227e+00
  1.099571e+00    1.522161e+00
  1.131322e+00    1.590172e+00
  1.163073e+00    1.646270e+00
  1.194824e+00    1.898240e+00
  1.226575e+00    2.216270e+00
  1.258327e+00    2.587428e+00
  1.290078e+00    2.559258e+00
  1.321829e+00    2.621747e+00
  1.353580e+00    2.836766e+00
  1.385331e+00    2.814878e+00
  1.417082e+00    2.918578e+00
  1.448834e+00    2.954244e+00
  1.480585e+00    3.081250e+00
  1.512336e+00    3.147677e+00
  1.544087e+00    3.279392e+00
  1.575838e+00    3.226772e+00
  1.607589e+00    3.139691e+00
  1.639340e+00    3.073918e+00
  1.671092e+00    3.084668e+00
  1.702843e+00    3.063735e+00
  1.734594e+00    3.278036e+00
  1.766345e+00    3.161052e+00
  1.798096e+00    3.116711e+00
  1.829847e+00    3.125236e+00
  1.861598e+00    2.898248e+00
  1.893350e+00    3.132205e+00
  1.925101e+00    2.996428e+00
  1.956852e+00    3.215590e+00
  1.988603e+00    3.119463e+00
  2.020354e+00    3.110825e+00
  2.052105e+00    3.130311e+00
  2.083856e+00    2.936370e+00
  2.115608e+00    3.098138e+00
  2.147359e+00    3.150649e+00
  2.179110e+00    3.146709e+00
  2.210861e+00    3.143073e+00
  2.242612e+00    3.184322e+00
  2.274363e+00    3.083803e+00
  2.306115e+00    3.092890e+00
  2.337866e+00    3.112304e+00
  2.369617e+00    3.139947e+00
  2.401368e+00    3.254507e+00
  2.433119e+00    3.260647e+00
  2.464870e+00    3.191659e+00
  2.496621e+00    3.235812e+00
  2.528373e+00    3.188265e+00
  2.560124e+00    3.245475e+00
  2.591875e+00    3.200008e+00
  2.623626e+00    3.211126e+00
  2.655377e+00    3.305204e+00
  2.687128e+00    3.315269e+00
  2.718879e+00    3.239395e+00
  2.750631e+00    3.285428e+00
  2.782382e+00    3.151816e+00
  2.814133e+00    3.282265e+00
  2.845884e+00    3.323306e+00
  2.877635e+00    3.320445e+00
  2.909386e+00    3.350638e+00
  2.941137e+00    3.252892e+00
  2.972889e+00    3.259786e+00
  3.004640e+00    3.394872e+00
  3.036391e+00    3.369503e+00
  3.068142e+00    3.272241e+00
  3.099893e+00    3.359090e+00
  3.131644e+00    3.370532e+00
  3.163395e+00    3.331209e+00
  3.195147e+00    3.347346e+00
  3.226898e+00    3.296643e+00
  3.258649e+00    3.366640e+00
  3.290400e+00    3.401096e+00
  3.322151e+00    3.375902e+00
  3.353902e+00    3.459314e+00
  3.385654e+00    3.482074e+00
  3.417405e+00    3.351331e+00
  3.449156e+00    3.472732e+00
  3.480907e+00    3.452719e+00
  3.512658e+00    3.494750e+00
  3.544409e+00    3.432843e+00
  3.576160e+00    3.422545e+00
  3.607912e+00    3.445463e+00
  3.639663e+00    3.451783e+00
  3.671414e+00    3.412210e+00
  3.703165e+00    3.471535e+00
  3.734916e+00    3.594406e+00
  3.766667e+00    3.464266e+00
  3.798418e+00    3.511269e+00
  3.830170e+00    3.525644e+00
  3.861921e+00    3.428658e+00
  3.893672e+00    3.495551e+00
  3.925423e+00    3.460191e+00
  3.957174e+00    3.518537e+00
  3.988925e+00    3.441635e+00
  4.020676e+00    3.607181e+00
  4.052428e+00    3.516523e+00
  4.084179e+00    3.564031e+00
  4.115930e+00    3.574765e+00
  4.147681e+00    3.492798e+00
  4.179432e+00    3.541162e+00
  4.211183e+00    3.499388e+00
  4.242935e+00    3.510051e+00
  4.274686e+00    3.592102e+00
  4.306437e+00    3.540138e+00
  4.338188e+00    3.614736e+00
  4.369939e+00    3.413329e+00
  4.401690e+00    3.645304e+00
  4.433441e+00    3.648239e+00
  4.465193e+00    3.590216e+00
  4.496944e+00    3.635360e+00
  4.528695e+00    3.570098e+00
  4.560446e+00    3.606791e+00
  4.592197e+00    3.736416e+00
  4.623948e+00    3.598941e+00
  4.655699e+00    3.547882e+00
  4.687451e+00    3.611429e+00
  4.719202e+00    3.611471e+00
  4.750953e+00    3.651804e+00
  4.782704e+00    3.642752e+00
  4.814455e+00    3.679278e+00
  4.846206e+00    3.691947e+00
  4.877957e+00    3.603270e+00
  4.909709e+00    3.690154e+00
  4.941460e+00    3.575410e+00
  4.973211e+00    3.571072e+00
  5.004962e+00    3.739990e+00
  5.036713e+00    3.674463e+00
  5.068464e+00    3.775259e+00
  5.100216e+00    3.632686e+00
  5.131967e+00    3.715882e+00
  5.163718e+00    3.632297e+00
  5.195469e+00    3.675258e+00
  5.227220e+00    3.654132e+00
  5.258971e+00    3.622580e+00
  5.290722e+00    3.747107e+00
  5.322474e+00    3.646399e+00
  5.354225e+00    3.705001e+00
  5.385976e+00    3.675384e+00
  5.417727e+00    3.709175e+00
  5.449478e+00    3.731260e+00
  5.481229e+00    3.628262e+00
  5.512980e+00    3.591551e+00
  5.544732e+00    3.661876e+00
  5.576483e+00    3.547931e+00
  5.608234e+00    3.617805e+00
  5.639985e+00    3.678748e+00
  5.671736e+00    3.581473e+00
  5.703487e+00    3.633079e+00
  5.735238e+00    3.519440e+00
  5.766990e+00    3.603752e+00
  5.798741e+00    3.545869e+00
  5.830492e+00    3.564343e+00
  5.862243e+00    3.611660e+00
  5.893994e+00    3.506875e+00
  5.925745e+00    3.544466e+00
  5.957497e+00    3.538987e+00
  5.989248e+00    3.557353e+00
  6.020999e+00    3.555790e+00
  6.052750e+00    3.602692e+00
  6.084501e+00    3.513107e+00
  6.116252e+00    3.657212e+00
  6.148003e+00    3.626054e+00
  6.179755e+00    3.631283e+00
  6.211506e+00    3.705276e+00
  6.243257e+00    3.648783e+00
  6.275008e+00    3.564867e+00
  6.306759e+00    3.531293e+00
  6.338510e+00    3.513249e+00
  6.370261e+00    3.561137e+00
  6.402013e+00    3.545522e+00
  6.433764e+00    3.618320e+00
  6.465515e+00    3.524680e+00
  6.497266e+00    3.608161e+00
  6.529017e+00    3.521230e+00
  6.560768e+00    3.555408e+00
  6.592519e+00    3.520504e+00
  6.624271e+00    3.558429e+00
  6.656022e+00    3.592437e+00
  6.687773e+00    3.594294e+00
  6.719524e+00    3.514232e+00
  6.751275e+00    3.560130e+00
  6.783026e+00    3.478067e+00
  6.814777e+00    3.548811e+00
  6.846529e+00    3.565991e+00
  6.878280e+00    3.536321e+00
  6.910031e+00    3.542238e+00
  6.941782e+00    3.536310e+00
  6.973533e+00    3.546025e+00
  7.005284e+00    3.465626e+00
  7.037036e+00    3.551134e+00
  7.068787e+00    3.442305e+00
  7.100538e+00    3.498277e+00
  7.132289e+00    3.503305e+00
  7.164040e+00    3.572649e+00
  7.195791e+00    3.497092e+00
  7.227542e+00    3.605443e+00
  7.259294e+00    3.489704e+00
  7.291045e+00    3.594964e+00
  7.322796e+00    3.563117e+00
  7.354547e+00    3.516015e+00
  7.386298e+00    3.507747e+00
  7.418049e+00    3.551282e+00
  7.449800e+00    3.536099e+00
  7.481552e+00    3.482835e+00
  7.513303e+00    3.506740e+00
  7.545054e+00    3.508831e+00
  7.576805e+00    3.526032e+00
  7.608556e+00    3.453502e+00
  7.640307e+00    3.448188e+00
  7.672058e+00    3.508118e+00
  7.703810e+00    3.459979e+00
  7.735561e+00    3.441799e+00
  7.767312e+00    3.464046e+00
  7.799063e+00    3.488475e+00
  7.830814e+00    3.506491e+00
  7.862565e+00    3.422778e+00
  7.894317e+00    3.451025e+00
  7.926068e+00    3.463568e+00
  7.957819e+00    3.390766e+00
  7.989570e+00    3.392620e+00
  8.021321e+00    3.440217e+00
  8.053072e+00    3.481456e+00
  8.084823e+00    3.476381e+00
  8.116575e+00    3.498399e+00
  8.148326e+00    3.530289e+00
  8.180077e+00    3.497692e+00
  8.211828e+00    3.511544e+00
  8.243579e+00    3.504818e+00
  8.275330e+00    3.467593e+00
  8.307081e+00    3.444981e+00
  8.338833e+00    3.390947e+00
  8.370584e+00    3.454038e+00
  8.402335e+00    3.387624e+00
  8.434086e+00    3.379460e+00
  8.465837e+00    3.397473e+00
  8.497588e+00    3.326802e+00
  8.529339e+00    3.309440e+00
  8.561091e+00    3.365346e+00
  8.592842e+00    3.374599e+00
  8.624593e+00    3.437148e+00
  8.656344e+00    3.352452e+00
  8.688095e+00    3.372341e+00
  8.719846e+00    3.353055e+00
  8.751598e+00    3.331249e+00
  8.783349e+00    3.311101e+00
  8.815100e+00    3.302145e+00
  8.846851e+00    3.300238e+00
  8.878602e+00    3.361654e+00
  8.910353e+00    3.305951e+00
  8.942104e+00    3.347543e+00
  8.973856e+00    3.359105e+00
  9.005607e+00    3.336859e+00
  9.037358e+00    3.270849e+00
  9.069109e+00    3.321901e+00
  9.100860e+00    3.388486e+00
  9.132611e+00    3.284397e+00
  9.164362e+00    3.292201e+00
  9.196114e+00    3.348307e+00
  9.227865e+00    3.241037e+00
  9.259616e+00    3.158483e+00
  9.291367e+00    3.239153e+00
  9.323118e+00    3.245103e+00
  9.354869e+00    3.280795e+00
  9.386620e+00    3.243600e+00
  9.418372e+00    3.251176e+00
  9.450123e+00    3.262989e+00
  9.481874e+00    3.220707e+00
  9.513625e+00    3.312961e+00
  9.545376e+00    3.175817e+00
  9.577127e+00    3.207198e+00
  9.608878e+00    3.230702e+00
  9.640630e+00    3.180113e+00
  9.672381e+00    3.207277e+00
  9.704132e+00    3.197835e+00
  9.735883e+00    3.231283e+00
  9.767634e+00    3.170380e+00
  9.799385e+00    3.208058e+00
  9.831137e+00    3.136092e+00
  9.862888e+00    3.164553e+00
  9.894639e+00    3.136418e+00
  9.926390e+00    3.090983e+00
  9.958141e+00    3.147646e+00
  9.989892e+00    3.137254e+00
  1.002164e+01    3.137433e+00
  1.005339e+01    3.104691e+00
  1.008515e+01    3.115899e+00
  1.011690e+01    3.119866e+00
  1.014865e+01    3.140559e+00
  1.018040e+01    3.045841e+00
  1.021215e+01    3.062782e+00
  1.024390e+01    3.049614e+00
  1.027565e+01    3.051311e+00
  1.030740e+01    3.002337e+00
  1.033915e+01    3.087646e+00
  1.037091e+01    3.041354e+00
  1.040266e+01    3.047736e+00
  1.043441e+01    3.057158e+00
  1.046616e+01    2.976863e+00
  1.049791e+01    3.006137e+00
  1.052966e+01    3.051791e+00
  1.056141e+01    2.988886e+00
  1.059316e+01    3.017607e+00
  1.062492e+01    3.031132e+00
  1.065667e+01    2.997248e+00
  1.068842e+01    2.952699e+00
  1.072017e+01    2.943141e+00
  1.075192e+01    2.941064e+00
  1.078367e+01    2.958976e+00
  1.081542e+01    2.951469e+00
  1.084717e+01    2.998203e+00
  1.087892e+01    2.927722e+00
  1.091068e+01    2.939389e+00
  1.094243e+01    2.921527e+00
  1.097418e+01    2.897210e+00
  1.100593e+01    2.890468e+00
  1.103768e+01    2.929533e+00
  1.106943e+01    2.843672e+00
  1.110118e+01    2.894443e+00
  1.113293e+01    2.864932e+00
  1.116468e+01    2.841449e+00
  1.119644e+01    2.863574e+00
  1.122819e+01    2.866026e+00
  1.125994e+01    2.841114e+00
  1.129169e+01    2.900520e+00
  1.132344e+01    2.832879e+00
  1.135519e+01    2.784019e+00
  1.138694e+01    2.838622e+00
  1.141869e+01    2.783671e+00
  1.145045e+01    2.824223e+00
  1.148220e+01    2.834190e+00
  1.151395e+01    2.826931e+00
  1.154570e+01    2.812284e+00
  1.157745e+01    2.806841e+00
  1.160920e+01    2.803110e+00
  1.164095e+01    2.801448e+00
  1.167270e+01    2.775377e+00
  1.170445e+01    2.795141e+00
  1.173621e+01    2.743074e+00
  1.176796e+01    2.757787e+00
  1.179971e+01    2.765403e+00
  1.183146e+01    2.710001e+00
  1.186321e+01    2.717561e+00
  1.189496e+01    2.702649e+00
  1.192671e+01    2.792427e+00
  1.195846e+01    2.727973e+00
  1.199021e+01    2.785559e+00
  1.202197e+01    2.701151e+00
  1.205372e+01    2.707542e+00
  1.208547e+01    2.680022e+00
  1.211722e+01    2.684443e+00
  1.214897e+01    2.674014e+00
  1.218072e+01    2.695807e+00
  1.221247e+01    2.732849e+00
  1.224422e+01    2.697572e+00
  1.227597e+01    2.691946e+00
  1.230773e+01    2.716077e+00
  1.233948e+01    2.740548e+00
  1.237123e+01    2.698304e+00
  1.240298e+01    2.700243e+00
  1.243473e+01    2.722160e+00
  1.246648e+01    2.714481e+00
  1.249823e+01    2.713393e+00
  1.252998e+01    2.729883e+00
  1.256174e+01    2.742455e+00
  1.259349e+01    2.712744e+00
  1.262524e+01    2.769654e+00
  1.265699e+01    2.793721e+00
  1.268874e+01    2.806037e+00
  1.272049e+01    2.817788e+00
  1.275224e+01    2.922650e+00
  1.278399e+01    2.911502e+00
  1.281574e+01    3.026658e+00
  1.284750e+01    3.202085e+00
  1.287925e+01    3.433170e+00
  1.291100e+01    3.679207e+00
  1.294275e+01    4.071245e+00
  1.297450e+01    4.842740e+00
  1.300625e+01    5.923207e+00
  1.303800e+01    7.799798e+00
  1.306975e+01    1.018234e+01
  1.310150e+01    1.277570e+01
  1.313326e+01    1.494684e+01
  1.316501e+01    1.644261e+01
  1.319676e+01    1.590419e+01
  1.322851e+01    1.257115e+01
  1.326026e+01    9.160110e+00
  1.329201e+01    6.836065e+00
  1.332376e+01    5.299104e+00
  1.335551e+01    4.483187e+00
  1.338727e+01    3.954639e+00
  1.341902e+01    3.471477e+00
  1.345077e+01    3.246284e+00
  1.348252e+01    3.108464e+00
  1.351427e+01    2.938135e+00
  1.354602e+01    2.809754e+00
  1.357777e+01    2.765493e+00
  1.360952e+01    2.731308e+00
  1.364127e+01    2.670424e+00
  1.367303e+01    2.592175e+00
  1.370478e+01    2.570122e+00
  1.373653e+01    2.559067e+00
  1.376828e+01    2.519613e+00
  1.380003e+01    2.478942e+00
  1.383178e+01    2.505821e+00
  1.386353e+01    2.407894e+00
  1.389528e+01    2.379938e+00
  1.392703e+01    2.413835e+00
  1.395879e+01    2.400939e+00
  1.399054e+01    2.349508e+00
  1.402229e+01    2.378363e+00
  1.405404e+01    2.353757e+00
  1.408579e+01    2.354891e+00
  1.411754e+01    2.355745e+00
  1.414929e+01    2.306402e+00
  1.418104e+01    2.295608e+00
  1.421279e+01    2.280494e+00
  1.424455e+01    2.271689e+00
  1.427630e+01    2.303601e+00
  1.430805e+01    2.264646e+00
  1.433980e+01    2.287648e+00
  1.437155e+01    2.245856e+00
  1.440330e+01    2.230035e+00
  1.443505e+01    2.251045e+00
  1.446680e+01    2.257541e+00
  1.449856e+01    2.224433e+00
  1.453031e+01    2.218959e+00
  1.456206e+01    2.216499e+00
  1.459381e+01    2.178469e+00
  1.462556e+01    2.226612e+00
  1.465731e+01    2.215334e+00
  1.468906e+01    2.225759e+00
  1.472081e+01    2.234815e+00
  1.475256e+01    2.224368e+00
  1.478432e+01    2.191895e+00
  1.481607e+01    2.231385e+00
  1.484782e+01    2.181444e+00
  1.487957e+01    2.251869e+00
  1.491132e+01    2.249624e+00
  1.494307e+01    2.312369e+00
  1.497482e+01    2.364206e+00
  1.500657e+01    2.425694e+00
  1.503832e+01    2.660012e+00
  1.507008e+01    2.790731e+00
  1.510183e+01    3.215954e+00
  1.513358e+01    3.838421e+00
  1.516533e+01    4.495389e+00
  1.519708e+01    5.158517e+00
  1.522883e+01    5.639662e+00
  1.526058e+01    5.848328e+00
  1.529233e+01    5.607205e+00
  1.532409e+01    4.692600e+00
  1.535584e+01    3.828605e+00
  1.538759e+01    3.216750e+00
  1.541934e+01    2.832637e+00
  1.545109e+01    2.552745e+00
  1.548284e+01    2.407135e+00
  1.551459e+01    2.281681e+00
  1.554634e+01    2.196987e+00
  1.557809e+01    2.148205e+00
  1.560985e+01    2.080437e+00
  1.564160e+01    2.050966e+00
  1.567335e+01    2.024716e+00
  1.570510e+01    2.017283e+00
  1.573685e+01    1.982622e+00
  1.576860e+01    1.977863e+00
  1.580035e+01    1.908561e+00
  1.583210e+01    1.982258e+00
  1.586385e+01    1.944885e+00
  1.589561e+01    1.907239e+00
  1.592736e+01    1.856302e+00
  1.595911e+01    1.903859e+00
  1.599086e+01    1.867260e+00
  1.602261e+01    1.861383e+00
  1.605436e+01    1.870373e+00
  1.608611e+01    1.828914e+00
  1.611786e+01    1.852172e+00
  1.614961e+01    1.810386e+00
  1.618137e+01    1.840235e+00
  1.621312e+01    1.854240e+00
  1.624487e+01    1.798535e+00
  1.627662e+01    1.799054e+00
  1.630837e+01    1.809769e+00
  1.634012e+01    1.750768e+00
  1.637187e+01    1.767031e+00
  1.640362e+01    1.771750e+00
  1.643538e+01    1.792646e+00
  1.646713e+01    1.777912e+00
  1.649888e+01    1.736715e+00
  1.653063e+01    1.766413e+00
  1.656238e+01    1.743811e+00
  1.659413e+01    1.767940e+00
  1.662588e+01    1.758178e+00
  1.665763e+01    1.732965e+00
  1.668938e+01    1.725130e+00
  1.672114e+01    1.703603e+00
  1.675289e+01    1.714352e+00
  1.678464e+01    1.709949e+00
  1.681639e+01    1.678757e+00
  1.684814e+01    1.681666e+00
  1.687989e+01    1.676831e+00
  1.691164e+01    1.688696e+00
  1.694339e+01    1.660466e+00
  1.697514e+01    1.687795e+00
  1.700690e+01    1.683934e+00
  1.703865e+01    1.654272e+00
  1.707040e+01    1.686547e+00
  1.710215e+01    1.655406e+00
  1.713390e+01    1.645762e+00
  1.716565e+01    1.643747e+00
  1.719740e+01    1.650230e+00
  1.722915e+01    1.621419e+00
  1.726091e+01    1.658341e+00
  1.729266e+01    1.629511e+00
  1.732441e+01    1.603333e+00
  1.735616e+01    1.598846e+00
  1.738791e+01    1.606434e+00
  1.741966e+01    1.593135e+00
  1.745141e+01    1.591715e+00
  1.748316e+01    1.588578e+00
  1.751491e+01    1.586522e+00
  1.754667e+01    1.612709e+00
  1.757842e+01    1.580536e+00
  1.761017e+01    1.590488e+00
  1.764192e+01    1.568718e+00
  1.767367e+01    1.618106e+00
  1.770542e+01    1.570433e+00
  1.773717e+01    1.554200e+00
  1.776892e+01    1.542904e+00
  1.780067e+01    1.573835e+00
  1.783243e+01    1.525280e+00
  1.786418e+01    1.553248e+00
  1.789593e+01    1.543081e+00
  1.792768e+01    1.503323e+00
  1.795943e+01    1.497468e+00
  1.799118e+01    1.529105e+00
  1.802293e+01    1.508805e+00
  1.805468e+01    1.519986e+00
  1.808643e+01    1.551878e+00
  1.811819e+01    1.501030e+00
  1.814994e+01    1.488092e+00
  1.818169e+01    1.476272e+00
  1.821344e+01    1.492649e+00
  1.824519e+01    1.506560e+00
  1.827694e+01    1.488568e+00
  1.830869e+01    1.472313e+00
  1.834044e+01    1.429151e+00
  1.837220e+01    1.456340e+00
  1.840395e+01    1.477210e+00
  1.843570e+01    1.431280e+00
  1.846745e+01    1.431278e+00
  1.849920e+01    1.451990e+00
  1.853095e+01    1.445731e+00
  1.856270e+01    1.439413e+00
  1.859445e+01    1.452025e+00
  1.862620e+01    1.437269e+00
  1.865796e+01    1.431372e+00
  1.868971e+01    1.418128e+00
  1.872146e+01    1.422378e+00
  1.875321e+01    1.404175e+00
  1.878496e+01    1.411746e+00
  1.881671e+01    1.426873e+00
  1.884846e+01    1.411084e+00
  1.888021e+01    1.411432e+00
  1.891196e+01    1.422495e+00
  1.894372e+01    1.396802e+00
  1.897547e+01    1.408759e+00
  1.900722e+01    1.361845e+00
  1.903897e+01    1.393312e+00
  1.907072e+01    1.398070e+00
  1.910247e+01    1.397552e+00
  1.913422e+01    1.359488e+00
  1.916597e+01    1.380593e+00
  1.919773e+01    1.367109e+00
  1.922948e+01    1.394076e+00
  1.926123e+01    1.358310e+00
  1.929298e+01    1.337148e+00
  1.932473e+01    1.384840e+00
  1.935648e+01    1.353802e+00
  1.938823e+01    1.341163e+00
  1.941998e+01    1.342267e+00
  1.945173e+01    1.335416e+00
  1.948349e+01    1.344327e+00
  1.951524e+01    1.353497e+00
  1.954699e+01    1.348588e+00
  1.957874e+01    1.323163e+00
  1.961049e+01    1.330245e+00
  1.964224e+01    1.336190e+00
  1.967399e+01    1.329200e+00
  1.970574e+01    1.313755e+00
  1.973749e+01    1.311555e+00
  1.976925e+01    1.295969e+00
  1.980100e+01    1.304945e+00
  1.983275e+01    1.295354e+00
  1.986450e+01    1.295317e+00
  1.989625e+01    1.304587e+00
  1.992800e+01    1.282029e+00
  1.995975e+01    1.279396e+00
  1.999150e+01    1.280164e+00
  2.002325e+01    1.303662e+00
  2.005501e+01    1.291946e+00
  2.008676e+01    1.281941e+00
  2.011851e+01    1.261175e+00
  2.015026e+01    1.289607e+00
  2.018201e+01    1.265765e+00
  2.021376e+01    1.260263e+00
  2.024551e+01    1.270222e+00
  2.027726e+01    1.258157e+00
  2.030902e+01    1.294624e+00
  2.034077e+01    1.257683e+00
  2.037252e+01    1.261036e+00
  2.040427e+01    1.241383e+00
  2.043602e+01    1.210252e+00
  2.046777e+01    1.265067e+00
  2.049952e+01    1.228183e+00
  2.053127e+01    1.247100e+00
  2.056302e+01    1.241274e+00
  2.059478e+01    1.258681e+00
  2.062653e+01    1.250941e+00
  2.065828e+01    1.248263e+00
  2.069003e+01    1.226645e+00
  2.072178e+01    1.219741e+00
  2.075353e+01    1.241926e+00
  2.078528e+01    1.207084e+00
  2.081703e+01    1.255817e+00
  2.084878e+01    1.232039e+00
  2.088054e+01    1.246939e+00
  2.091229e+01    1.229974e+00
  2.094404e+01    1.233857e+00
  2.097579e+01    1.223631e+00
  2.100754e+01    1.224158e+00
  2.103929e+01    1.235252e+00
  2.107104e+01    1.228580e+00
  2.110279e+01    1.202290e+00
  2.113455e+01    1.252236e+00
  2.116630e+01    1.267434e+00
  2.119805e+01    1.263032e+00
  2.122980e+01    1.248669e+00
  2.126155e+01    1.235134e+00
  2.129330e+01    1.258496e+00
  2.132505e+01    1.295556e+00
  2.135680e+01    1.289785e+00
  2.138855e+01    1.311293e+00
  2.142031e+01    1.318842e+00
  2.145206e+01    1.379556e+00
  2.148381e+01    1.393704e+00
  2.151556e+01    1.478599e+00
  2.154731e+01    1.525912e+00
  2.157906e+01    1.595112e+00
  2.161081e+01    1.755388e+00
  2.164256e+01    1.970016e+00
  2.167431e+01    2.299943e+00
  2.170607e+01    2.811824e+00
  2.173782e+01    3.543546e+00
  2.176957e+01    4.652216e+00
  2.180132e+01    5.928720e+00
  2.183307e+01    7.162383e+00
  2.186482e+01    8.473500e+00
  2.189657e+01    9.012334e+00
  2.192832e+01    8.381269e+00
  2.196007e+01    6.672660e+00
  2.199183e+01    4.885923e+00
  2.202358e+01    3.661556e+00
  2.205533e+01    2.873337e+00
  2.208708e+01    2.314098e+00
  2.211883e+01    2.009992e+00
  2.215058e+01    1.778061e+00
  2.218233e+01    1.621750e+00
  2.221408e+01    1.499619e+00
  2.224584e+01    1.417590e+00
  2.227759e+01    1.326759e+00
  2.230934e+01    1.302234e+00
  2.234109e+01    1.254036e+00
  2.237284e+01    1.238018e+00
  2.240459e+01    1.228590e+00
  2.243634e+01    1.177364e+00
  2.246809e+01    1.140241e+00
  2.249984e+01    1.149384e+00
  2.253160e+01    1.135320e+00
  2.256335e+01    1.122787e+00
  2.259510e+01    1.119394e+00
  2.262685e+01    1.097629e+00
  2.265860e+01    1.103734e+00
  2.269035e+01    1.082501e+00
  2.272210e+01    1.094525e+00
  2.275385e+01    1.081697e+00
  2.278560e+01    1.054783e+00
  2.281736e+01    1.062972e+00
  2.284911e+01    1.070569e+00
  2.288086e+01    1.042023e+00
  2.291261e+01    1.052301e+00
  2.294436e+01    1.046778e+00
  2.297611e+01    1.027113e+00
  2.300786e+01    1.044830e+00
  2.303961e+01    1.013841e+00
  2.307137e+01    1.009257e+00
  2.310312e+01    1.026480e+00
  2.313487e+01    1.021544e+00
  2.316662e+01    1.006844e+00
  2.319837e+01    9.978429e-01
  2.323012e+01    1.012794e+00
  2.326187e+01    1.010103e+00
  2.329362e+01    9.864436e-01
  2.332537e+01    9.796253e-01
  2.335713e+01    9.763022e-01
  2.338888e+01    9.597675e-01
  2.342063e+01    9.545039e-01
  2.345238e+01    1.004947e+00
  2.348413e+01    9.642802e-01
  2.351588e+01    9.592559e-01
  2.354763e+01    9.468483e-01
  2.357938e+01    9.585170e-01
  2.361113e+01    9.634854e-01
  2.364289e+01    9.693379e-01
  2.367464e+01    9.460883e-01
  2.370639e+01    9.352350e-01
  2.373814e+01    9.401303e-01
  2.376989e+01    9.063612e-01
  2.380164e+01    9.090533e-01
  2.383339e+01    9.329664e-01
  2.386514e+01    9.146717e-01
  2.389689e+01    9.047893e-01
  2.392865e+01    9.181998e-01
  2.396040e+01    9.135673e-01
  2.399215e+01    8.961287e-01
  2.402390e+01    8.729922e-01
  2.405565e+01    8.914558e-01
  2.408740e+01    9.010834e-01
  2.411915e+01    8.863655e-01
  2.415090e+01    9.146761e-01
  2.418266e+01    8.851202e-01
  2.421441e+01    8.836572e-01
  2.424616e+01    9.036012e-01
  2.427791e+01    8.966565e-01
  2.430966e+01    9.026601e-01
  2.434141e+01    9.265548e-01
  2.437316e+01    9.056326e-01
  2.440491e+01    8.974022e-01
  2.443666e+01    9.036454e-01
  2.446842e+01    8.957250e-01
  2.450017e+01    9.003981e-01
  2.453192e+01    8.936597e-01
  2.456367e+01    9.047389e-01
  2.459542e+01    8.896300e-01
  2.462717e+01    9.141993e-01
  2.465892e+01    8.973199e-01
  2.469067e+01    9.033839e-01
  2.472242e+01    9.013728e-01
  2.475418e+01    8.847488e-01
  2.478593e+01    8.943009e-01
  2.481768e+01    8.926277e-01
  2.484943e+01    8.884165e-01
  2.488118e+01    9.085658e-01
  2.491293e+01    8.922989e-01
  2.494468e+01    8.741213e-01
  2.497643e+01    8.840942e-01
  2.500819e+01    9.035886e-01
  2.503994e+01    9.048180e-01
  2.507169e+01    9.241473e-01
  2.510344e+01    8.989581e-01
  2.513519e+01    9.117791e-01
  2.516694e+01    9.428460e-01
  2.519869e+01    9.295175e-01
  2.523044e+01    9.234750e-01
  2.526219e+01    9.552765e-01
  2.529395e+01    9.506476e-01
  2.532570e+01    9.621246e-01
  2.535745e+01    9.821873e-01
  2.538920e+01    9.923182e-01
  2.542095e+01    1.018577e+00
  2.545270e+01    1.038089e+00
  2.548445e+01    1.066171e+00
  2.551620e+01    1.069061e+00
  2.554795e+01    1.118917e+00
  2.557971e+01    1.156601e+00
  2.561146e+01    1.234454e+00
  2.564321e+01    1.330774e+00
  2.567496e+01    1.423550e+00
  2.570671e+01    1.578952e+00
  2.573846e+01    1.852674e+00
  2.577021e+01    2.253229e+00
  2.580196e+01    2.821699e+00
  2.583371e+01    3.643845e+00
  2.586547e+01    4.679240e+00
  2.589722e+01    5.812530e+00
  2.592897e+01    6.847389e+00
  2.596072e+01    7.193615e+00
  2.599247e+01    6.641841e+00
  2.602422e+01    5.328695e+00
  2.605597e+01    4.042995e+00
  2.608772e+01    3.026235e+00
  2.611948e+01    2.360132e+00
  2.615123e+01    1.969640e+00
  2.618298e+01    1.724353e+00
  2.621473e+01    1.477941e+00
  2.624648e+01    1.329392e+00
  2.627823e+01    1.264529e+00
  2.630998e+01    1.182501e+00
  2.634173e+01    1.130177e+00
  2.637348e+01    1.097054e+00
  2.640524e+01    1.089803e+00
  2.643699e+01    1.031266e+00
  2.646874e+01    1.022597e+00
  2.650049e+01    1.000600e+00
  2.653224e+01    9.957226e-01
  2.656399e+01    9.900232e-01
  2.659574e+01    9.806268e-01
  2.662749e+01    9.965308e-01
  2.665924e+01    9.738895e-01
  2.669100e+01    9.491932e-01
  2.672275e+01    9.633497e-01
  2.675450e+01    1.001347e+00
  2.678625e+01    9.867941e-01
  2.681800e+01    9.790363e-01
  2.684975e+01    9.983109e-01
  2.688150e+01    9.944308e-01
  2.691325e+01    1.028536e+00
  2.694501e+01    1.040913e+00
  2.697676e+01    1.084519e+00
  2.700851e+01    1.152497e+00
  2.704026e+01    1.201170e+00
  2.707201e+01    1.307416e+00
  2.710376e+01    1.504830e+00
  2.713551e+01    1.734321e+00
  2.716726e+01    2.025202e+00
  2.719901e+01    2.160414e+00
  2.723077e+01    2.191900e+00
  2.726252e+01    1.977779e+00
  2.729427e+01    1.717861e+00
  2.732602e+01    1.468490e+00
  2.735777e+01    1.286934e+00
  2.738952e+01    1.151141e+00
  2.742127e+01    1.115623e+00
  2.745302e+01    1.059158e+00
  2.748477e+01    9.900563e-01
  2.751653e+01    9.798264e-01
  2.754828e+01    9.601874e-01
  2.758003e+01    9.536471e-01
  2.761178e+01    9.246215e-01
  2.764353e+01    9.105310e-01
  2.767528e+01    8.808141e-01
  2.770703e+01    8.956559e-01
  2.773878e+01    9.201536e-01
  2.777054e+01    9.154598e-01
  2.780229e+01    8.809864e-01
  2.783404e+01    8.486954e-01
  2.786579e+01    8.834750e-01
  2.789754e+01    8.843925e-01
  2.792929e+01    8.564526e-01
  2.796104e+01    8.958845e-01
  2.799279e+01    8.515779e-01
  2.802454e+01    8.794717e-01
  2.805630e+01    8.532566e-01
  2.808805e+01    8.577588e-01
  2.811980e+01    8.571780e-01
  2.815155e+01    8.638353e-01
  2.818330e+01    8.697666e-01
  2.821505e+01    8.437240e-01
  2.824680e+01    8.677042e-01
  2.827855e+01    8.436080e-01
  2.831030e+01    8.473996e-01
  2.834206e+01    8.646029e-01
  2.837381e+01    8.579297e-01
  2.840556e+01    8.558944e-01
  2.843731e+01    8.393320e-01
  2.846906e+01    8.488553e-01
  2.850081e+01    8.515550e-01
  2.853256e+01    8.598109e-01
  2.856431e+01    8.354380e-01
  2.859606e+01    8.499587e-01
  2.862782e+01    8.307956e-01
  2.865957e+01    8.425440e-01
  2.869132e+01    8.165685e-01
  2.872307e+01    8.114394e-01
  2.875482e+01    8.459550e-01
  2.878657e+01    8.397013e-01
  2.881832e+01    8.270708e-01
  2.885007e+01    8.123735e-01
  2.888183e+01    8.062675e-01
  2.891358e+01    8.463858e-01
  2.894533e+01    8.217682e-01
  2.897708e+01    7.928831e-01
  2.900883e+01    8.308675e-01
  2.904058e+01    8.278865e-01
  2.907233e+01    8.401977e-01
  2.910408e+01    8.265344e-01
  2.913583e+01    8.127377e-01
  2.916759e+01    8.158721e-01
  2.919934e+01    8.181030e-01
  2.923109e+01    8.263279e-01
  2.926284e+01    8.166035e-01
  2.929459e+01    8.216587e-01
  2.932634e+01    7.920226e-01
  2.935809e+01    8.229666e-01
  2.938984e+01    8.188106e-01
  2.942159e+01    7.955264e-01
  2.945335e+01    7.836486e-01
  2.948510e+01    8.093117e-01
  2.951685e+01    8.197429e-01
  2.954860e+01    8.098118e-01
  2.958035e+01    8.057502e-01
  2.961210e+01    7.938637e-01
  2.964385e+01    8.021052e-01
  2.967560e+01    7.804256e-01
  2.970736e+01    8.185489e-01
  2.973911e+01    8.065882e-01
  2.977086e+01    7.987924e-01
  2.980261e+01    7.927523e-01
  2.983436e+01    7.758146e-01
  2.986611e+01    7.947785e-01
  2.989786e+01    7.929284e-01
  2.992961e+01    8.129256e-01
  2.996136e+01    8.246335e-01
  2.999312e+01    8.306427e-01
  3.002487e+01    8.115678e-01
  3.005662e+01    8.328913e-01
  3.008837e+01    8.188031e-01
  3.012012e+01    7.841479e-01
  3.015187e+01    8.082389e-01
  3.018362e+01    7.867010e-01
  3.021537e+01    7.950979e-01
  3.024712e+01    7.844306e-01
  3.027888e+01    7.922711e-01
  3.031063e+01    7.744892e-01
  3.034238e+01    8.040734e-01
  3.037413e+01    7.636679e-01
  3.040588e+01    7.799708e-01
  3.043763e+01    7.827166e-01
  3.046938e+01    7.768163e-01
  3.050113e+01    7.855461e-01
  3.053288e+01    7.806281e-01
  3.056464e+01    7.665720e-01
  3.059639e+01    7.835427e-01
  3.062814e+01    7.936812e-01
  3.065989e+01    7.937800e-01
  3.069164e+01    7.828749e-01
  3.072339e+01    7.824893e-01
  3.075514e+01    7.719701e-01
  3.078689e+01    7.929360e-01
  3.081865e+01    8.129206e-01
  3.085040e+01    7.951185e-01
  3.088215e+01    8.051772e-01
  3.091390e+01    7.670282e-01
  3.094565e+01    7.943583e-01
  3.097740e+01    7.992269e-01
  3.100915e+01    7.778032e-01
  3.104090e+01    8.007686e-01
  3.107265e+01    7.825760e-01
  3.110441e+01    7.864738e-01
  3.113616e+01    7.814735e-01
  3.116791e+01    7.865863e-01
  3.119966e+01    7.936574e-01
  3.123141e+01    8.062332e-01
  3.126316e+01    8.119806e-01
  3.129491e+01    7.923081e-01
  3.132666e+01    8.074393e-01
  3.135841e+01    8.140893e-01
  3.139017e+01    8.401978e-01
  3.142192e+01    8.200188e-01
  3.145367e+01    8.311781e-01
  3.148542e+01    8.375571e-01
  3.151717e+01    8.326323e-01
  3.154892e+01    8.706344e-01
  3.158067e+01    8.911699e-01
  3.161242e+01    8.831875e-01
  3.164418e+01    9.266390e-01
  3.167593e+01    9.711571e-01
  3.170768e+01    1.035111e+00
  3.173943e+01    1.134643e+00
  3.177118e+01    1.269585e+00
  3.180293e+01    1.471546e+00
  3.183468e+01    1.725906e+00
  3.186643e+01    1.992927e+00
  3.189818e+01    2.156822e+00
  3.192994e+01    2.023009e+00
  3.196169e+01    1.812715e+00
  3.199344e+01    1.587407e+00
  3.202519e+01    1.310070e+00
  3.205694e+01    1.161680e+00
  3.208869e+01    1.035913e+00
  3.212044e+01    1.012380e+00
  3.215219e+01    9.383782e-01
  3.218394e+01    8.660377e-01
  3.221570e+01    8.617114e-01
  3.224745e+01    8.306413e-01
  3.227920e+01    8.660077e-01
  3.231095e+01    8.341498e-01
  3.234270e+01    8.179868e-01
  3.237445e+01    7.978456e-01
  3.240620e+01    7.940633e-01
  3.243795e+01    8.047219e-01
  3.246970e+01    7.926905e-01
  3.250146e+01    7.712044e-01
  3.253321e+01    8.109044e-01
  3.254908e+01    7.618623e-01