File: XRD/Reaction conditions/2024-07-27_003_Ru-CGO-ex_Reaction_dwell_000023_data_000103.dat
# == pyFAI calibration ==
# Distance Sample to Detector: 0.4 m
# PONI: 9.750e-02, 1.135e-01 m
# Rotations: -0.000175 0.000000 -0.000000 rad
#
# == Fit2d calibration ==
# Distance Sample-beamCenter: 400.000 mm
# Center: x=1514.000, y=1300.000 pix
# Tilt: 0.010 deg  TiltPlanRot: 0.010 deg
#
# Detector Detector	 Spline= None	 PixelSize= 7.500e-05, 7.500e-05 m
#    Detector has a mask: False
#    Detector has a dark current: False
#    detector has a flat field: False
#
# Wavelength: 6.888e-11 m
# Mask applied: user provided
# Dark current applied: False
# Flat field applied: False
# Polarization factor: 0.99
# Normalization factor: 1.0
# --> /home/myspot/data/2024_07_Rosario/Ru-CGO-ex/2024-07-27_003_Ru-CGO-ex_Reaction_dwell_000023_data_000103.dat
#       q_nm^-1             I
  2.003187e-02    0.000000e+00
  5.178302e-02    4.982381e-02
  8.353417e-02    1.657635e-01
  1.152853e-01    4.113681e-02
  1.470365e-01    1.031231e-01
  1.787876e-01    3.283278e-02
  2.105388e-01    1.415737e-02
  2.422899e-01    2.394964e-02
  2.740411e-01    3.632056e-02
  3.057922e-01    7.814834e-02
  3.375433e-01    3.172446e-02
  3.692945e-01    7.034408e-02
  4.010456e-01    4.202034e-02
  4.327968e-01    2.399279e-02
  4.645479e-01    4.180089e-02
  4.962991e-01    2.546745e-02
  5.280502e-01    7.146315e-02
  5.598014e-01    4.905928e-02
  5.915525e-01    4.482172e-02
  6.233037e-01    5.008537e-02
  6.550548e-01    4.971315e-02
  6.868060e-01    4.747520e-02
  7.185571e-01    4.890536e-02
  7.503083e-01    3.515683e-02
  7.820594e-01    8.938801e-02
  8.138106e-01    2.005300e-01
  8.455617e-01    3.445966e-01
  8.773129e-01    4.975991e-01
  9.090640e-01    7.257219e-01
  9.408152e-01    7.800285e-01
  9.725663e-01    1.093068e+00
  1.004317e+00    1.175456e+00
  1.036069e+00    1.353656e+00
  1.067820e+00    1.409735e+00
  1.099571e+00    1.476032e+00
  1.131322e+00    1.599133e+00
  1.163073e+00    1.694550e+00
  1.194824e+00    1.662652e+00
  1.226575e+00    2.303211e+00
  1.258327e+00    2.485218e+00
  1.290078e+00    2.573915e+00
  1.321829e+00    2.800349e+00
  1.353580e+00    2.835231e+00
  1.385331e+00    2.877019e+00
  1.417082e+00    2.928407e+00
  1.448834e+00    2.903316e+00
  1.480585e+00    3.065200e+00
  1.512336e+00    3.210540e+00
  1.544087e+00    3.319058e+00
  1.575838e+00    3.224133e+00
  1.607589e+00    3.115020e+00
  1.639340e+00    3.177591e+00
  1.671092e+00    3.102838e+00
  1.702843e+00    3.081539e+00
  1.734594e+00    3.133313e+00
  1.766345e+00    3.180620e+00
  1.798096e+00    3.045997e+00
  1.829847e+00    3.131778e+00
  1.861598e+00    3.129247e+00
  1.893350e+00    3.055424e+00
  1.925101e+00    3.159094e+00
  1.956852e+00    3.060865e+00
  1.988603e+00    3.079474e+00
  2.020354e+00    3.085596e+00
  2.052105e+00    3.050129e+00
  2.083856e+00    3.051584e+00
  2.115608e+00    2.980616e+00
  2.147359e+00    3.074381e+00
  2.179110e+00    3.139609e+00
  2.210861e+00    3.092498e+00
  2.242612e+00    3.067234e+00
  2.274363e+00    3.268345e+00
  2.306115e+00    3.150354e+00
  2.337866e+00    3.232688e+00
  2.369617e+00    3.214215e+00
  2.401368e+00    3.129646e+00
  2.433119e+00    3.242247e+00
  2.464870e+00    3.211441e+00
  2.496621e+00    3.281955e+00
  2.528373e+00    3.140758e+00
  2.560124e+00    3.174232e+00
  2.591875e+00    3.146316e+00
  2.623626e+00    3.181524e+00
  2.655377e+00    3.197898e+00
  2.687128e+00    3.289848e+00
  2.718879e+00    3.285295e+00
  2.750631e+00    3.296908e+00
  2.782382e+00    3.318359e+00
  2.814133e+00    3.361901e+00
  2.845884e+00    3.300609e+00
  2.877635e+00    3.269856e+00
  2.909386e+00    3.340674e+00
  2.941137e+00    3.307902e+00
  2.972889e+00    3.391839e+00
  3.004640e+00    3.317206e+00
  3.036391e+00    3.372225e+00
  3.068142e+00    3.313913e+00
  3.099893e+00    3.412136e+00
  3.131644e+00    3.464949e+00
  3.163395e+00    3.410675e+00
  3.195147e+00    3.406227e+00
  3.226898e+00    3.415370e+00
  3.258649e+00    3.460974e+00
  3.290400e+00    3.412985e+00
  3.322151e+00    3.503957e+00
  3.353902e+00    3.318018e+00
  3.385654e+00    3.451761e+00
  3.417405e+00    3.464707e+00
  3.449156e+00    3.449444e+00
  3.480907e+00    3.276827e+00
  3.512658e+00    3.402034e+00
  3.544409e+00    3.375611e+00
  3.576160e+00    3.534465e+00
  3.607912e+00    3.441576e+00
  3.639663e+00    3.495824e+00
  3.671414e+00    3.534461e+00
  3.703165e+00    3.532892e+00
  3.734916e+00    3.548323e+00
  3.766667e+00    3.479889e+00
  3.798418e+00    3.470103e+00
  3.830170e+00    3.444897e+00
  3.861921e+00    3.514107e+00
  3.893672e+00    3.537541e+00
  3.925423e+00    3.491845e+00
  3.957174e+00    3.600653e+00
  3.988925e+00    3.450229e+00
  4.020676e+00    3.500913e+00
  4.052428e+00    3.547134e+00
  4.084179e+00    3.432548e+00
  4.115930e+00    3.553957e+00
  4.147681e+00    3.530282e+00
  4.179432e+00    3.490056e+00
  4.211183e+00    3.594624e+00
  4.242935e+00    3.579817e+00
  4.274686e+00    3.548714e+00
  4.306437e+00    3.436191e+00
  4.338188e+00    3.632396e+00
  4.369939e+00    3.562416e+00
  4.401690e+00    3.598973e+00
  4.433441e+00    3.679129e+00
  4.465193e+00    3.660277e+00
  4.496944e+00    3.482644e+00
  4.528695e+00    3.610984e+00
  4.560446e+00    3.576365e+00
  4.592197e+00    3.675538e+00
  4.623948e+00    3.603638e+00
  4.655699e+00    3.648147e+00
  4.687451e+00    3.687036e+00
  4.719202e+00    3.565200e+00
  4.750953e+00    3.665041e+00
  4.782704e+00    3.618204e+00
  4.814455e+00    3.596642e+00
  4.846206e+00    3.676714e+00
  4.877957e+00    3.635556e+00
  4.909709e+00    3.710740e+00
  4.941460e+00    3.629079e+00
  4.973211e+00    3.619620e+00
  5.004962e+00    3.681611e+00
  5.036713e+00    3.657020e+00
  5.068464e+00    3.700304e+00
  5.100216e+00    3.647444e+00
  5.131967e+00    3.698193e+00
  5.163718e+00    3.553168e+00
  5.195469e+00    3.665711e+00
  5.227220e+00    3.697178e+00
  5.258971e+00    3.679928e+00
  5.290722e+00    3.610466e+00
  5.322474e+00    3.698899e+00
  5.354225e+00    3.660419e+00
  5.385976e+00    3.659384e+00
  5.417727e+00    3.672086e+00
  5.449478e+00    3.603520e+00
  5.481229e+00    3.567567e+00
  5.512980e+00    3.616873e+00
  5.544732e+00    3.662855e+00
  5.576483e+00    3.562914e+00
  5.608234e+00    3.571240e+00
  5.639985e+00    3.618321e+00
  5.671736e+00    3.596371e+00
  5.703487e+00    3.548611e+00
  5.735238e+00    3.631906e+00
  5.766990e+00    3.597222e+00
  5.798741e+00    3.599205e+00
  5.830492e+00    3.476870e+00
  5.862243e+00    3.494326e+00
  5.893994e+00    3.514832e+00
  5.925745e+00    3.551552e+00
  5.957497e+00    3.507714e+00
  5.989248e+00    3.559961e+00
  6.020999e+00    3.561657e+00
  6.052750e+00    3.546725e+00
  6.084501e+00    3.639481e+00
  6.116252e+00    3.688761e+00
  6.148003e+00    3.578486e+00
  6.179755e+00    3.567820e+00
  6.211506e+00    3.618386e+00
  6.243257e+00    3.621428e+00
  6.275008e+00    3.643738e+00
  6.306759e+00    3.520433e+00
  6.338510e+00    3.540433e+00
  6.370261e+00    3.555925e+00
  6.402013e+00    3.592290e+00
  6.433764e+00    3.577066e+00
  6.465515e+00    3.632716e+00
  6.497266e+00    3.655183e+00
  6.529017e+00    3.532787e+00
  6.560768e+00    3.636140e+00
  6.592519e+00    3.552276e+00
  6.624271e+00    3.556666e+00
  6.656022e+00    3.530686e+00
  6.687773e+00    3.561441e+00
  6.719524e+00    3.553371e+00
  6.751275e+00    3.617832e+00
  6.783026e+00    3.601012e+00
  6.814777e+00    3.548347e+00
  6.846529e+00    3.486788e+00
  6.878280e+00    3.564099e+00
  6.910031e+00    3.570454e+00
  6.941782e+00    3.608138e+00
  6.973533e+00    3.544599e+00
  7.005284e+00    3.562141e+00
  7.037036e+00    3.568363e+00
  7.068787e+00    3.511622e+00
  7.100538e+00    3.542699e+00
  7.132289e+00    3.485921e+00
  7.164040e+00    3.620181e+00
  7.195791e+00    3.485604e+00
  7.227542e+00    3.546072e+00
  7.259294e+00    3.543446e+00
  7.291045e+00    3.487806e+00
  7.322796e+00    3.567299e+00
  7.354547e+00    3.507013e+00
  7.386298e+00    3.457767e+00
  7.418049e+00    3.487437e+00
  7.449800e+00    3.470561e+00
  7.481552e+00    3.532635e+00
  7.513303e+00    3.473567e+00
  7.545054e+00    3.399792e+00
  7.576805e+00    3.361004e+00
  7.608556e+00    3.482955e+00
  7.640307e+00    3.544534e+00
  7.672058e+00    3.435876e+00
  7.703810e+00    3.456129e+00
  7.735561e+00    3.470655e+00
  7.767312e+00    3.443764e+00
  7.799063e+00    3.449140e+00
  7.830814e+00    3.487800e+00
  7.862565e+00    3.418183e+00
  7.894317e+00    3.455548e+00
  7.926068e+00    3.378338e+00
  7.957819e+00    3.407496e+00
  7.989570e+00    3.466863e+00
  8.021321e+00    3.433617e+00
  8.053072e+00    3.423744e+00
  8.084823e+00    3.365240e+00
  8.116575e+00    3.439303e+00
  8.148326e+00    3.449747e+00
  8.180077e+00    3.464936e+00
  8.211828e+00    3.478595e+00
  8.243579e+00    3.479822e+00
  8.275330e+00    3.373939e+00
  8.307081e+00    3.334797e+00
  8.338833e+00    3.412735e+00
  8.370584e+00    3.378714e+00
  8.402335e+00    3.299169e+00
  8.434086e+00    3.337488e+00
  8.465837e+00    3.481684e+00
  8.497588e+00    3.348429e+00
  8.529339e+00    3.395384e+00
  8.561091e+00    3.339578e+00
  8.592842e+00    3.404249e+00
  8.624593e+00    3.356760e+00
  8.656344e+00    3.388560e+00
  8.688095e+00    3.377027e+00
  8.719846e+00    3.363854e+00
  8.751598e+00    3.339788e+00
  8.783349e+00    3.341896e+00
  8.815100e+00    3.345294e+00
  8.846851e+00    3.278100e+00
  8.878602e+00    3.359254e+00
  8.910353e+00    3.311154e+00
  8.942104e+00    3.303480e+00
  8.973856e+00    3.277007e+00
  9.005607e+00    3.358154e+00
  9.037358e+00    3.223521e+00
  9.069109e+00    3.273732e+00
  9.100860e+00    3.258340e+00
  9.132611e+00    3.193470e+00
  9.164362e+00    3.246465e+00
  9.196114e+00    3.232185e+00
  9.227865e+00    3.242165e+00
  9.259616e+00    3.254559e+00
  9.291367e+00    3.246020e+00
  9.323118e+00    3.221098e+00
  9.354869e+00    3.197418e+00
  9.386620e+00    3.193921e+00
  9.418372e+00    3.170891e+00
  9.450123e+00    3.188594e+00
  9.481874e+00    3.246298e+00
  9.513625e+00    3.254574e+00
  9.545376e+00    3.258756e+00
  9.577127e+00    3.231384e+00
  9.608878e+00    3.197111e+00
  9.640630e+00    3.209751e+00
  9.672381e+00    3.219124e+00
  9.704132e+00    3.191696e+00
  9.735883e+00    3.181935e+00
  9.767634e+00    3.148582e+00
  9.799385e+00    3.206472e+00
  9.831137e+00    3.097985e+00
  9.862888e+00    3.168825e+00
  9.894639e+00    3.085481e+00
  9.926390e+00    3.111866e+00
  9.958141e+00    3.107157e+00
  9.989892e+00    3.107573e+00
  1.002164e+01    3.149781e+00
  1.005339e+01    3.084281e+00
  1.008515e+01    3.130178e+00
  1.011690e+01    3.095877e+00
  1.014865e+01    3.077338e+00
  1.018040e+01    3.071000e+00
  1.021215e+01    3.091115e+00
  1.024390e+01    3.029830e+00
  1.027565e+01    3.048546e+00
  1.030740e+01    3.062862e+00
  1.033915e+01    3.025976e+00
  1.037091e+01    3.032135e+00
  1.040266e+01    3.026885e+00
  1.043441e+01    2.989006e+00
  1.046616e+01    3.032821e+00
  1.049791e+01    3.003780e+00
  1.052966e+01    2.937907e+00
  1.056141e+01    3.060584e+00
  1.059316e+01    2.993139e+00
  1.062492e+01    2.857365e+00
  1.065667e+01    2.972944e+00
  1.068842e+01    2.945568e+00
  1.072017e+01    2.982255e+00
  1.075192e+01    2.985561e+00
  1.078367e+01    2.958528e+00
  1.081542e+01    2.960324e+00
  1.084717e+01    2.988311e+00
  1.087892e+01    2.929155e+00
  1.091068e+01    2.979621e+00
  1.094243e+01    2.971148e+00
  1.097418e+01    2.952856e+00
  1.100593e+01    2.930245e+00
  1.103768e+01    2.932089e+00
  1.106943e+01    2.885689e+00
  1.110118e+01    2.867269e+00
  1.113293e+01    2.904706e+00
  1.116468e+01    2.875773e+00
  1.119644e+01    2.867040e+00
  1.122819e+01    2.895071e+00
  1.125994e+01    2.846797e+00
  1.129169e+01    2.821596e+00
  1.132344e+01    2.828061e+00
  1.135519e+01    2.805182e+00
  1.138694e+01    2.793275e+00
  1.141869e+01    2.856836e+00
  1.145045e+01    2.844928e+00
  1.148220e+01    2.828014e+00
  1.151395e+01    2.801375e+00
  1.154570e+01    2.745840e+00
  1.157745e+01    2.796664e+00
  1.160920e+01    2.734203e+00
  1.164095e+01    2.777473e+00
  1.167270e+01    2.783028e+00
  1.170445e+01    2.824848e+00
  1.173621e+01    2.750820e+00
  1.176796e+01    2.761530e+00
  1.179971e+01    2.752133e+00
  1.183146e+01    2.726667e+00
  1.186321e+01    2.725110e+00
  1.189496e+01    2.750253e+00
  1.192671e+01    2.729338e+00
  1.195846e+01    2.692323e+00
  1.199021e+01    2.718084e+00
  1.202197e+01    2.692922e+00
  1.205372e+01    2.639459e+00
  1.208547e+01    2.734618e+00
  1.211722e+01    2.709668e+00
  1.214897e+01    2.668254e+00
  1.218072e+01    2.725338e+00
  1.221247e+01    2.714720e+00
  1.224422e+01    2.718235e+00
  1.227597e+01    2.660292e+00
  1.230773e+01    2.724556e+00
  1.233948e+01    2.680467e+00
  1.237123e+01    2.738472e+00
  1.240298e+01    2.690676e+00
  1.243473e+01    2.732741e+00
  1.246648e+01    2.655862e+00
  1.249823e+01    2.716774e+00
  1.252998e+01    2.741772e+00
  1.256174e+01    2.727350e+00
  1.259349e+01    2.777094e+00
  1.262524e+01    2.736941e+00
  1.265699e+01    2.787500e+00
  1.268874e+01    2.816617e+00
  1.272049e+01    2.874647e+00
  1.275224e+01    2.873237e+00
  1.278399e+01    3.005847e+00
  1.281574e+01    3.051608e+00
  1.284750e+01    3.170604e+00
  1.287925e+01    3.332967e+00
  1.291100e+01    3.658574e+00
  1.294275e+01    4.093117e+00
  1.297450e+01    4.807727e+00
  1.300625e+01    5.908075e+00
  1.303800e+01    7.716953e+00
  1.306975e+01    1.017719e+01
  1.310150e+01    1.262340e+01
  1.313326e+01    1.484237e+01
  1.316501e+01    1.627598e+01
  1.319676e+01    1.575188e+01
  1.322851e+01    1.256010e+01
  1.326026e+01    9.098487e+00
  1.329201e+01    6.731936e+00
  1.332376e+01    5.325646e+00
  1.335551e+01    4.439321e+00
  1.338727e+01    3.942201e+00
  1.341902e+01    3.441458e+00
  1.345077e+01    3.255914e+00
  1.348252e+01    3.023946e+00
  1.351427e+01    2.904531e+00
  1.354602e+01    2.852785e+00
  1.357777e+01    2.754830e+00
  1.360952e+01    2.677824e+00
  1.364127e+01    2.649764e+00
  1.367303e+01    2.589715e+00
  1.370478e+01    2.572454e+00
  1.373653e+01    2.539511e+00
  1.376828e+01    2.472582e+00
  1.380003e+01    2.524323e+00
  1.383178e+01    2.455196e+00
  1.386353e+01    2.434176e+00
  1.389528e+01    2.426294e+00
  1.392703e+01    2.388911e+00
  1.395879e+01    2.398165e+00
  1.399054e+01    2.393549e+00
  1.402229e+01    2.359638e+00
  1.405404e+01    2.323801e+00
  1.408579e+01    2.345540e+00
  1.411754e+01    2.322210e+00
  1.414929e+01    2.306202e+00
  1.418104e+01    2.336010e+00
  1.421279e+01    2.252398e+00
  1.424455e+01    2.258581e+00
  1.427630e+01    2.298292e+00
  1.430805e+01    2.271302e+00
  1.433980e+01    2.283556e+00
  1.437155e+01    2.264836e+00
  1.440330e+01    2.212929e+00
  1.443505e+01    2.238721e+00
  1.446680e+01    2.250069e+00
  1.449856e+01    2.235360e+00
  1.453031e+01    2.234225e+00
  1.456206e+01    2.200685e+00
  1.459381e+01    2.247359e+00
  1.462556e+01    2.234414e+00
  1.465731e+01    2.264388e+00
  1.468906e+01    2.197044e+00
  1.472081e+01    2.201878e+00
  1.475256e+01    2.212723e+00
  1.478432e+01    2.215831e+00
  1.481607e+01    2.232141e+00
  1.484782e+01    2.216592e+00
  1.487957e+01    2.254129e+00
  1.491132e+01    2.195035e+00
  1.494307e+01    2.289638e+00
  1.497482e+01    2.386177e+00
  1.500657e+01    2.422127e+00
  1.503832e+01    2.595068e+00
  1.507008e+01    2.849133e+00
  1.510183e+01    3.191573e+00
  1.513358e+01    3.813326e+00
  1.516533e+01    4.530394e+00
  1.519708e+01    5.155385e+00
  1.522883e+01    5.585705e+00
  1.526058e+01    5.814897e+00
  1.529233e+01    5.499810e+00
  1.532409e+01    4.656318e+00
  1.535584e+01    3.861830e+00
  1.538759e+01    3.191622e+00
  1.541934e+01    2.743798e+00
  1.545109e+01    2.509077e+00
  1.548284e+01    2.336731e+00
  1.551459e+01    2.293337e+00
  1.554634e+01    2.187276e+00
  1.557809e+01    2.103653e+00
  1.560985e+01    2.092597e+00
  1.564160e+01    2.067245e+00
  1.567335e+01    2.008730e+00
  1.570510e+01    2.027203e+00
  1.573685e+01    1.991664e+00
  1.576860e+01    1.928136e+00
  1.580035e+01    1.968882e+00
  1.583210e+01    1.970509e+00
  1.586385e+01    1.919841e+00
  1.589561e+01    1.943985e+00
  1.592736e+01    1.874575e+00
  1.595911e+01    1.856929e+00
  1.599086e+01    1.877045e+00
  1.602261e+01    1.915810e+00
  1.605436e+01    1.813455e+00
  1.608611e+01    1.846672e+00
  1.611786e+01    1.853778e+00
  1.614961e+01    1.807929e+00
  1.618137e+01    1.818065e+00
  1.621312e+01    1.849417e+00
  1.624487e+01    1.799315e+00
  1.627662e+01    1.799625e+00
  1.630837e+01    1.794881e+00
  1.634012e+01    1.779538e+00
  1.637187e+01    1.793662e+00
  1.640362e+01    1.771687e+00
  1.643538e+01    1.789512e+00
  1.646713e+01    1.769529e+00
  1.649888e+01    1.759788e+00
  1.653063e+01    1.769027e+00
  1.656238e+01    1.764439e+00
  1.659413e+01    1.741202e+00
  1.662588e+01    1.730369e+00
  1.665763e+01    1.743144e+00
  1.668938e+01    1.733704e+00
  1.672114e+01    1.735962e+00
  1.675289e+01    1.694770e+00
  1.678464e+01    1.717471e+00
  1.681639e+01    1.725857e+00
  1.684814e+01    1.692419e+00
  1.687989e+01    1.685773e+00
  1.691164e+01    1.710836e+00
  1.694339e+01    1.669035e+00
  1.697514e+01    1.666530e+00
  1.700690e+01    1.683098e+00
  1.703865e+01    1.661337e+00
  1.707040e+01    1.635026e+00
  1.710215e+01    1.649226e+00
  1.713390e+01    1.621048e+00
  1.716565e+01    1.648817e+00
  1.719740e+01    1.630884e+00
  1.722915e+01    1.638691e+00
  1.726091e+01    1.648955e+00
  1.729266e+01    1.617910e+00
  1.732441e+01    1.597566e+00
  1.735616e+01    1.639558e+00
  1.738791e+01    1.627070e+00
  1.741966e+01    1.613346e+00
  1.745141e+01    1.606771e+00
  1.748316e+01    1.605909e+00
  1.751491e+01    1.594350e+00
  1.754667e+01    1.586019e+00
  1.757842e+01    1.558898e+00
  1.761017e+01    1.570027e+00
  1.764192e+01    1.561417e+00
  1.767367e+01    1.566546e+00
  1.770542e+01    1.553091e+00
  1.773717e+01    1.563323e+00
  1.776892e+01    1.550412e+00
  1.780067e+01    1.563852e+00
  1.783243e+01    1.522961e+00
  1.786418e+01    1.535877e+00
  1.789593e+01    1.526906e+00
  1.792768e+01    1.509589e+00
  1.795943e+01    1.498246e+00
  1.799118e+01    1.510755e+00
  1.802293e+01    1.514973e+00
  1.805468e+01    1.515092e+00
  1.808643e+01    1.506876e+00
  1.811819e+01    1.508225e+00
  1.814994e+01    1.488215e+00
  1.818169e+01    1.504410e+00
  1.821344e+01    1.504705e+00
  1.824519e+01    1.485221e+00
  1.827694e+01    1.479184e+00
  1.830869e+01    1.488522e+00
  1.834044e+01    1.484923e+00
  1.837220e+01    1.475970e+00
  1.840395e+01    1.479525e+00
  1.843570e+01    1.480616e+00
  1.846745e+01    1.490251e+00
  1.849920e+01    1.473927e+00
  1.853095e+01    1.426214e+00
  1.856270e+01    1.461125e+00
  1.859445e+01    1.432720e+00
  1.862620e+01    1.431673e+00
  1.865796e+01    1.443040e+00
  1.868971e+01    1.396345e+00
  1.872146e+01    1.426702e+00
  1.875321e+01    1.405640e+00
  1.878496e+01    1.415764e+00
  1.881671e+01    1.397365e+00
  1.884846e+01    1.388013e+00
  1.888021e+01    1.423177e+00
  1.891196e+01    1.399867e+00
  1.894372e+01    1.401465e+00
  1.897547e+01    1.418208e+00
  1.900722e+01    1.386383e+00
  1.903897e+01    1.392166e+00
  1.907072e+01    1.386246e+00
  1.910247e+01    1.375680e+00
  1.913422e+01    1.395209e+00
  1.916597e+01    1.374385e+00
  1.919773e+01    1.343006e+00
  1.922948e+01    1.361650e+00
  1.926123e+01    1.372489e+00
  1.929298e+01    1.303168e+00
  1.932473e+01    1.366695e+00
  1.935648e+01    1.352107e+00
  1.938823e+01    1.378756e+00
  1.941998e+01    1.341902e+00
  1.945173e+01    1.335997e+00
  1.948349e+01    1.355105e+00
  1.951524e+01    1.335421e+00
  1.954699e+01    1.343471e+00
  1.957874e+01    1.317312e+00
  1.961049e+01    1.322108e+00
  1.964224e+01    1.320955e+00
  1.967399e+01    1.318223e+00
  1.970574e+01    1.290096e+00
  1.973749e+01    1.310905e+00
  1.976925e+01    1.323365e+00
  1.980100e+01    1.288327e+00
  1.983275e+01    1.284577e+00
  1.986450e+01    1.289477e+00
  1.989625e+01    1.265658e+00
  1.992800e+01    1.302018e+00
  1.995975e+01    1.298307e+00
  1.999150e+01    1.290798e+00
  2.002325e+01    1.287164e+00
  2.005501e+01    1.300244e+00
  2.008676e+01    1.276816e+00
  2.011851e+01    1.264796e+00
  2.015026e+01    1.252395e+00
  2.018201e+01    1.286364e+00
  2.021376e+01    1.266271e+00
  2.024551e+01    1.255142e+00
  2.027726e+01    1.270567e+00
  2.030902e+01    1.250164e+00
  2.034077e+01    1.275223e+00
  2.037252e+01    1.255848e+00
  2.040427e+01    1.228170e+00
  2.043602e+01    1.256111e+00
  2.046777e+01    1.230401e+00
  2.049952e+01    1.248532e+00
  2.053127e+01    1.235386e+00
  2.056302e+01    1.221495e+00
  2.059478e+01    1.220229e+00
  2.062653e+01    1.231319e+00
  2.065828e+01    1.246948e+00
  2.069003e+01    1.227685e+00
  2.072178e+01    1.251445e+00
  2.075353e+01    1.238194e+00
  2.078528e+01    1.224630e+00
  2.081703e+01    1.262977e+00
  2.084878e+01    1.240474e+00
  2.088054e+01    1.245456e+00
  2.091229e+01    1.220418e+00
  2.094404e+01    1.206761e+00
  2.097579e+01    1.197103e+00
  2.100754e+01    1.248139e+00
  2.103929e+01    1.240985e+00
  2.107104e+01    1.232446e+00
  2.110279e+01    1.216227e+00
  2.113455e+01    1.240661e+00
  2.116630e+01    1.231914e+00
  2.119805e+01    1.237742e+00
  2.122980e+01    1.242774e+00
  2.126155e+01    1.248623e+00
  2.129330e+01    1.234888e+00
  2.132505e+01    1.242540e+00
  2.135680e+01    1.285868e+00
  2.138855e+01    1.284396e+00
  2.142031e+01    1.320091e+00
  2.145206e+01    1.349521e+00
  2.148381e+01    1.386436e+00
  2.151556e+01    1.453143e+00
  2.154731e+01    1.521517e+00
  2.157906e+01    1.611630e+00
  2.161081e+01    1.760411e+00
  2.164256e+01    1.951133e+00
  2.167431e+01    2.298524e+00
  2.170607e+01    2.744267e+00
  2.173782e+01    3.542026e+00
  2.176957e+01    4.571331e+00
  2.180132e+01    5.853133e+00
  2.183307e+01    7.285123e+00
  2.186482e+01    8.373370e+00
  2.189657e+01    8.944257e+00
  2.192832e+01    8.262825e+00
  2.196007e+01    6.601248e+00
  2.199183e+01    4.884623e+00
  2.202358e+01    3.606749e+00
  2.205533e+01    2.835449e+00
  2.208708e+01    2.331698e+00
  2.211883e+01    1.993664e+00
  2.215058e+01    1.751971e+00
  2.218233e+01    1.617111e+00
  2.221408e+01    1.499030e+00
  2.224584e+01    1.432943e+00
  2.227759e+01    1.350170e+00
  2.230934e+01    1.320950e+00
  2.234109e+01    1.248842e+00
  2.237284e+01    1.250835e+00
  2.240459e+01    1.228649e+00
  2.243634e+01    1.183254e+00
  2.246809e+01    1.164503e+00
  2.249984e+01    1.127217e+00
  2.253160e+01    1.134941e+00
  2.256335e+01    1.132708e+00
  2.259510e+01    1.126055e+00
  2.262685e+01    1.111608e+00
  2.265860e+01    1.088495e+00
  2.269035e+01    1.094822e+00
  2.272210e+01    1.086115e+00
  2.275385e+01    1.074451e+00
  2.278560e+01    1.072722e+00
  2.281736e+01    1.052936e+00
  2.284911e+01    1.048861e+00
  2.288086e+01    1.047831e+00
  2.291261e+01    1.052588e+00
  2.294436e+01    1.049219e+00
  2.297611e+01    1.023762e+00
  2.300786e+01    1.023778e+00
  2.303961e+01    1.019958e+00
  2.307137e+01    1.019585e+00
  2.310312e+01    1.007476e+00
  2.313487e+01    1.014588e+00
  2.316662e+01    9.961397e-01
  2.319837e+01    9.957803e-01
  2.323012e+01    9.986430e-01
  2.326187e+01    9.902194e-01
  2.329362e+01    1.006607e+00
  2.332537e+01    9.698322e-01
  2.335713e+01    1.002003e+00
  2.338888e+01    9.645895e-01
  2.342063e+01    9.759933e-01
  2.345238e+01    9.824317e-01
  2.348413e+01    9.776132e-01
  2.351588e+01    9.644462e-01
  2.354763e+01    9.556499e-01
  2.357938e+01    9.713341e-01
  2.361113e+01    9.750109e-01
  2.364289e+01    9.576149e-01
  2.367464e+01    9.512841e-01
  2.370639e+01    9.331101e-01
  2.373814e+01    9.310569e-01
  2.376989e+01    9.034908e-01
  2.380164e+01    9.132864e-01
  2.383339e+01    9.078946e-01
  2.386514e+01    9.267095e-01
  2.389689e+01    9.144010e-01
  2.392865e+01    9.202095e-01
  2.396040e+01    8.994311e-01
  2.399215e+01    9.097958e-01
  2.402390e+01    8.941999e-01
  2.405565e+01    9.124170e-01
  2.408740e+01    8.918604e-01
  2.411915e+01    8.795883e-01
  2.415090e+01    8.939683e-01
  2.418266e+01    8.864836e-01
  2.421441e+01    8.599022e-01
  2.424616e+01    8.815090e-01
  2.427791e+01    8.755332e-01
  2.430966e+01    9.044565e-01
  2.434141e+01    8.998277e-01
  2.437316e+01    8.940408e-01
  2.440491e+01    8.912095e-01
  2.443666e+01    9.218780e-01
  2.446842e+01    8.796440e-01
  2.450017e+01    9.080216e-01
  2.453192e+01    8.916207e-01
  2.456367e+01    9.058235e-01
  2.459542e+01    9.010435e-01
  2.462717e+01    8.866507e-01
  2.465892e+01    8.807179e-01
  2.469067e+01    8.936028e-01
  2.472242e+01    8.982717e-01
  2.475418e+01    8.794802e-01
  2.478593e+01    8.744267e-01
  2.481768e+01    8.816706e-01
  2.484943e+01    8.631060e-01
  2.488118e+01    9.038230e-01
  2.491293e+01    8.936844e-01
  2.494468e+01    9.107735e-01
  2.497643e+01    8.831244e-01
  2.500819e+01    9.104582e-01
  2.503994e+01    8.987619e-01
  2.507169e+01    9.053659e-01
  2.510344e+01    9.114211e-01
  2.513519e+01    9.096435e-01
  2.516694e+01    9.072632e-01
  2.519869e+01    9.497059e-01
  2.523044e+01    9.338102e-01
  2.526219e+01    9.486458e-01
  2.529395e+01    9.506320e-01
  2.532570e+01    9.734107e-01
  2.535745e+01    9.706315e-01
  2.538920e+01    9.870200e-01
  2.542095e+01    1.015501e+00
  2.545270e+01    1.013262e+00
  2.548445e+01    1.055831e+00
  2.551620e+01    1.069546e+00
  2.554795e+01    1.121313e+00
  2.557971e+01    1.192950e+00
  2.561146e+01    1.218106e+00
  2.564321e+01    1.323738e+00
  2.567496e+01    1.407909e+00
  2.570671e+01    1.619631e+00
  2.573846e+01    1.828321e+00
  2.577021e+01    2.213559e+00
  2.580196e+01    2.820677e+00
  2.583371e+01    3.635782e+00
  2.586547e+01    4.694885e+00
  2.589722e+01    5.849895e+00
  2.592897e+01    6.789534e+00
  2.596072e+01    7.135064e+00
  2.599247e+01    6.551332e+00
  2.602422e+01    5.305623e+00
  2.605597e+01    3.965360e+00
  2.608772e+01    3.038114e+00
  2.611948e+01    2.382767e+00
  2.615123e+01    1.944300e+00
  2.618298e+01    1.683443e+00
  2.621473e+01    1.497997e+00
  2.624648e+01    1.345168e+00
  2.627823e+01    1.243340e+00
  2.630998e+01    1.207425e+00
  2.634173e+01    1.111576e+00
  2.637348e+01    1.077847e+00
  2.640524e+01    1.068392e+00
  2.643699e+01    1.044010e+00
  2.646874e+01    1.036177e+00
  2.650049e+01    1.034471e+00
  2.653224e+01    9.792023e-01
  2.656399e+01    1.021703e+00
  2.659574e+01    9.846070e-01
  2.662749e+01    9.768052e-01
  2.665924e+01    9.670554e-01
  2.669100e+01    9.994225e-01
  2.672275e+01    9.437933e-01
  2.675450e+01    9.769652e-01
  2.678625e+01    9.606169e-01
  2.681800e+01    9.932949e-01
  2.684975e+01    9.952632e-01
  2.688150e+01    9.872570e-01
  2.691325e+01    9.820551e-01
  2.694501e+01    1.043375e+00
  2.697676e+01    1.048662e+00
  2.700851e+01    1.114552e+00
  2.704026e+01    1.185751e+00
  2.707201e+01    1.322633e+00
  2.710376e+01    1.479990e+00
  2.713551e+01    1.731782e+00
  2.716726e+01    1.992230e+00
  2.719901e+01    2.124676e+00
  2.723077e+01    2.146356e+00
  2.726252e+01    1.971569e+00
  2.729427e+01    1.700658e+00
  2.732602e+01    1.478862e+00
  2.735777e+01    1.276013e+00
  2.738952e+01    1.186810e+00
  2.742127e+01    1.085498e+00
  2.745302e+01    1.024121e+00
  2.748477e+01    1.027470e+00
  2.751653e+01    9.957341e-01
  2.754828e+01    9.752816e-01
  2.758003e+01    9.371127e-01
  2.761178e+01    9.413001e-01
  2.764353e+01    9.206868e-01
  2.767528e+01    9.354941e-01
  2.770703e+01    9.030658e-01
  2.773878e+01    8.948747e-01
  2.777054e+01    9.237983e-01
  2.780229e+01    9.045808e-01
  2.783404e+01    8.989376e-01
  2.786579e+01    8.898055e-01
  2.789754e+01    9.050876e-01
  2.792929e+01    8.680983e-01
  2.796104e+01    8.775911e-01
  2.799279e+01    8.303414e-01
  2.802454e+01    8.730394e-01
  2.805630e+01    8.799710e-01
  2.808805e+01    8.458797e-01
  2.811980e+01    8.617882e-01
  2.815155e+01    8.575079e-01
  2.818330e+01    8.714654e-01
  2.821505e+01    8.496931e-01
  2.824680e+01    8.577969e-01
  2.827855e+01    8.623046e-01
  2.831030e+01    8.293071e-01
  2.834206e+01    8.553154e-01
  2.837381e+01    8.440915e-01
  2.840556e+01    8.348880e-01
  2.843731e+01    8.412135e-01
  2.846906e+01    8.498839e-01
  2.850081e+01    8.462393e-01
  2.853256e+01    8.294050e-01
  2.856431e+01    8.355898e-01
  2.859606e+01    8.341314e-01
  2.862782e+01    8.335585e-01
  2.865957e+01    8.328632e-01
  2.869132e+01    8.403574e-01
  2.872307e+01    8.437175e-01
  2.875482e+01    8.216071e-01
  2.878657e+01    8.297892e-01
  2.881832e+01    8.160883e-01
  2.885007e+01    8.089882e-01
  2.888183e+01    8.183630e-01
  2.891358e+01    8.190849e-01
  2.894533e+01    8.145341e-01
  2.897708e+01    8.284301e-01
  2.900883e+01    8.248744e-01
  2.904058e+01    8.259798e-01
  2.907233e+01    8.177933e-01
  2.910408e+01    8.154461e-01
  2.913583e+01    8.096778e-01
  2.916759e+01    7.955847e-01
  2.919934e+01    8.188044e-01
  2.923109e+01    8.115941e-01
  2.926284e+01    8.247909e-01
  2.929459e+01    8.004604e-01
  2.932634e+01    8.281931e-01
  2.935809e+01    8.208622e-01
  2.938984e+01    8.055036e-01
  2.942159e+01    7.995989e-01
  2.945335e+01    8.089903e-01
  2.948510e+01    8.103204e-01
  2.951685e+01    7.949994e-01
  2.954860e+01    8.209696e-01
  2.958035e+01    7.989018e-01
  2.961210e+01    8.224877e-01
  2.964385e+01    7.959623e-01
  2.967560e+01    8.087279e-01
  2.970736e+01    7.937771e-01
  2.973911e+01    7.835618e-01
  2.977086e+01    7.899032e-01
  2.980261e+01    7.877383e-01
  2.983436e+01    8.073187e-01
  2.986611e+01    7.885036e-01
  2.989786e+01    7.940912e-01
  2.992961e+01    8.098550e-01
  2.996136e+01    8.023336e-01
  2.999312e+01    8.075041e-01
  3.002487e+01    8.076049e-01
  3.005662e+01    8.167008e-01
  3.008837e+01    8.301902e-01
  3.012012e+01    8.171241e-01
  3.015187e+01    8.035369e-01
  3.018362e+01    8.003116e-01
  3.021537e+01    7.867174e-01
  3.024712e+01    7.867640e-01
  3.027888e+01    7.927331e-01
  3.031063e+01    8.024445e-01
  3.034238e+01    7.765947e-01
  3.037413e+01    7.957653e-01
  3.040588e+01    7.923230e-01
  3.043763e+01    7.779021e-01
  3.046938e+01    7.891076e-01
  3.050113e+01    7.862633e-01
  3.053288e+01    7.776853e-01
  3.056464e+01    7.704792e-01
  3.059639e+01    8.090529e-01
  3.062814e+01    7.951829e-01
  3.065989e+01    7.858860e-01
  3.069164e+01    7.788850e-01
  3.072339e+01    7.862964e-01
  3.075514e+01    7.881907e-01
  3.078689e+01    7.697920e-01
  3.081865e+01    7.926902e-01
  3.085040e+01    7.765126e-01
  3.088215e+01    8.035508e-01
  3.091390e+01    7.783265e-01
  3.094565e+01    7.763181e-01
  3.097740e+01    7.943647e-01
  3.100915e+01    7.816958e-01
  3.104090e+01    7.759562e-01
  3.107265e+01    7.938846e-01
  3.110441e+01    7.787289e-01
  3.113616e+01    7.951698e-01
  3.116791e+01    8.074372e-01
  3.119966e+01    8.058529e-01
  3.123141e+01    8.112830e-01
  3.126316e+01    7.829015e-01
  3.129491e+01    8.188660e-01
  3.132666e+01    8.071482e-01
  3.135841e+01    7.835332e-01
  3.139017e+01    8.262591e-01
  3.142192e+01    7.914134e-01
  3.145367e+01    8.386945e-01
  3.148542e+01    8.026537e-01
  3.151717e+01    8.209683e-01
  3.154892e+01    8.529434e-01
  3.158067e+01    8.832169e-01
  3.161242e+01    8.817900e-01
  3.164418e+01    9.183128e-01
  3.167593e+01    9.743597e-01
  3.170768e+01    1.002959e+00
  3.173943e+01    1.104650e+00
  3.177118e+01    1.251675e+00
  3.180293e+01    1.448192e+00
  3.183468e+01    1.712283e+00
  3.186643e+01    1.971783e+00
  3.189818e+01    2.061511e+00
  3.192994e+01    2.061567e+00
  3.196169e+01    1.806976e+00
  3.199344e+01    1.563155e+00
  3.202519e+01    1.347571e+00
  3.205694e+01    1.159993e+00
  3.208869e+01    1.057519e+00
  3.212044e+01    9.674304e-01
  3.215219e+01    9.071211e-01
  3.218394e+01    8.674579e-01
  3.221570e+01    8.497818e-01
  3.224745e+01    8.335013e-01
  3.227920e+01    8.175129e-01
  3.231095e+01    7.956565e-01
  3.234270e+01    7.965916e-01
  3.237445e+01    7.776508e-01
  3.240620e+01    7.959077e-01
  3.243795e+01    7.971513e-01
  3.246970e+01    7.590232e-01
  3.250146e+01    7.446811e-01
  3.253321e+01    7.707584e-01
  3.254908e+01    7.639282e-01