File: XRD/Reaction conditions/2024-07-27_003_Ru-CGO-ex_Reaction_dwell_000023_data_000137.dat
# == pyFAI calibration ==
# Distance Sample to Detector: 0.4 m
# PONI: 9.750e-02, 1.135e-01 m
# Rotations: -0.000175 0.000000 -0.000000 rad
#
# == Fit2d calibration ==
# Distance Sample-beamCenter: 400.000 mm
# Center: x=1514.000, y=1300.000 pix
# Tilt: 0.010 deg  TiltPlanRot: 0.010 deg
#
# Detector Detector	 Spline= None	 PixelSize= 7.500e-05, 7.500e-05 m
#    Detector has a mask: False
#    Detector has a dark current: False
#    detector has a flat field: False
#
# Wavelength: 6.888e-11 m
# Mask applied: user provided
# Dark current applied: False
# Flat field applied: False
# Polarization factor: 0.99
# Normalization factor: 1.0
# --> /home/myspot/data/2024_07_Rosario/Ru-CGO-ex/2024-07-27_003_Ru-CGO-ex_Reaction_dwell_000023_data_000137.dat
#       q_nm^-1             I
  2.003187e-02    2.849293e-01
  5.178302e-02    2.671064e-02
  8.353417e-02    2.592503e-03
  1.152853e-01    8.042735e-02
  1.470365e-01    4.615516e-02
  1.787876e-01    5.714674e-03
  2.105388e-01    1.931425e-02
  2.422899e-01    2.484329e-02
  2.740411e-01    1.564143e-02
  3.057922e-01    4.361747e-02
  3.375433e-01    5.583175e-02
  3.692945e-01    4.999907e-02
  4.010456e-01    2.673641e-02
  4.327968e-01    2.281420e-02
  4.645479e-01    1.116055e-02
  4.962991e-01    4.147510e-02
  5.280502e-01    5.404429e-02
  5.598014e-01    3.183480e-02
  5.915525e-01    5.431134e-02
  6.233037e-01    4.587967e-02
  6.550548e-01    5.214719e-02
  6.868060e-01    8.224879e-02
  7.185571e-01    6.384476e-02
  7.503083e-01    3.816038e-02
  7.820594e-01    1.451218e-01
  8.138106e-01    2.082674e-01
  8.455617e-01    3.406541e-01
  8.773129e-01    4.972517e-01
  9.090640e-01    6.428611e-01
  9.408152e-01    8.468155e-01
  9.725663e-01    1.033357e+00
  1.004317e+00    1.240797e+00
  1.036069e+00    1.355852e+00
  1.067820e+00    1.537188e+00
  1.099571e+00    1.615750e+00
  1.131322e+00    1.576040e+00
  1.163073e+00    1.622633e+00
  1.194824e+00    1.806697e+00
  1.226575e+00    2.215748e+00
  1.258327e+00    2.513019e+00
  1.290078e+00    2.780991e+00
  1.321829e+00    2.688288e+00
  1.353580e+00    2.869268e+00
  1.385331e+00    2.827006e+00
  1.417082e+00    2.898039e+00
  1.448834e+00    2.929978e+00
  1.480585e+00    2.937427e+00
  1.512336e+00    3.071241e+00
  1.544087e+00    3.267628e+00
  1.575838e+00    2.871887e+00
  1.607589e+00    3.197228e+00
  1.639340e+00    3.217625e+00
  1.671092e+00    3.052609e+00
  1.702843e+00    3.234472e+00
  1.734594e+00    3.170851e+00
  1.766345e+00    3.136551e+00
  1.798096e+00    3.015181e+00
  1.829847e+00    3.103153e+00
  1.861598e+00    3.089756e+00
  1.893350e+00    3.110744e+00
  1.925101e+00    3.086679e+00
  1.956852e+00    2.950497e+00
  1.988603e+00    3.028582e+00
  2.020354e+00    3.052436e+00
  2.052105e+00    3.143128e+00
  2.083856e+00    3.074557e+00
  2.115608e+00    3.086773e+00
  2.147359e+00    3.155742e+00
  2.179110e+00    3.022034e+00
  2.210861e+00    3.282136e+00
  2.242612e+00    3.141140e+00
  2.274363e+00    3.178819e+00
  2.306115e+00    3.084928e+00
  2.337866e+00    3.144762e+00
  2.369617e+00    3.057646e+00
  2.401368e+00    3.066558e+00
  2.433119e+00    3.205968e+00
  2.464870e+00    3.197824e+00
  2.496621e+00    3.193620e+00
  2.528373e+00    3.163068e+00
  2.560124e+00    3.190029e+00
  2.591875e+00    3.184970e+00
  2.623626e+00    3.256309e+00
  2.655377e+00    3.196634e+00
  2.687128e+00    3.279201e+00
  2.718879e+00    3.297893e+00
  2.750631e+00    3.282045e+00
  2.782382e+00    3.184441e+00
  2.814133e+00    3.195505e+00
  2.845884e+00    3.375662e+00
  2.877635e+00    3.305034e+00
  2.909386e+00    3.300960e+00
  2.941137e+00    3.399485e+00
  2.972889e+00    3.323939e+00
  3.004640e+00    3.281149e+00
  3.036391e+00    3.333343e+00
  3.068142e+00    3.286948e+00
  3.099893e+00    3.386560e+00
  3.131644e+00    3.299100e+00
  3.163395e+00    3.401468e+00
  3.195147e+00    3.420646e+00
  3.226898e+00    3.360091e+00
  3.258649e+00    3.450025e+00
  3.290400e+00    3.426743e+00
  3.322151e+00    3.297155e+00
  3.353902e+00    3.358430e+00
  3.385654e+00    3.433645e+00
  3.417405e+00    3.436483e+00
  3.449156e+00    3.495536e+00
  3.480907e+00    3.454766e+00
  3.512658e+00    3.448481e+00
  3.544409e+00    3.434775e+00
  3.576160e+00    3.473792e+00
  3.607912e+00    3.413170e+00
  3.639663e+00    3.539504e+00
  3.671414e+00    3.438452e+00
  3.703165e+00    3.551064e+00
  3.734916e+00    3.503916e+00
  3.766667e+00    3.461145e+00
  3.798418e+00    3.570739e+00
  3.830170e+00    3.412673e+00
  3.861921e+00    3.514444e+00
  3.893672e+00    3.548539e+00
  3.925423e+00    3.458429e+00
  3.957174e+00    3.489101e+00
  3.988925e+00    3.488402e+00
  4.020676e+00    3.462788e+00
  4.052428e+00    3.535366e+00
  4.084179e+00    3.526052e+00
  4.115930e+00    3.454643e+00
  4.147681e+00    3.561473e+00
  4.179432e+00    3.478302e+00
  4.211183e+00    3.514301e+00
  4.242935e+00    3.612771e+00
  4.274686e+00    3.622020e+00
  4.306437e+00    3.529081e+00
  4.338188e+00    3.565135e+00
  4.369939e+00    3.558178e+00
  4.401690e+00    3.593168e+00
  4.433441e+00    3.734287e+00
  4.465193e+00    3.645466e+00
  4.496944e+00    3.615077e+00
  4.528695e+00    3.560047e+00
  4.560446e+00    3.670405e+00
  4.592197e+00    3.644622e+00
  4.623948e+00    3.566398e+00
  4.655699e+00    3.585669e+00
  4.687451e+00    3.691935e+00
  4.719202e+00    3.623152e+00
  4.750953e+00    3.662889e+00
  4.782704e+00    3.645638e+00
  4.814455e+00    3.587767e+00
  4.846206e+00    3.704452e+00
  4.877957e+00    3.644252e+00
  4.909709e+00    3.653152e+00
  4.941460e+00    3.651767e+00
  4.973211e+00    3.617800e+00
  5.004962e+00    3.622714e+00
  5.036713e+00    3.561063e+00
  5.068464e+00    3.702408e+00
  5.100216e+00    3.589887e+00
  5.131967e+00    3.631246e+00
  5.163718e+00    3.630427e+00
  5.195469e+00    3.684233e+00
  5.227220e+00    3.681551e+00
  5.258971e+00    3.630994e+00
  5.290722e+00    3.757968e+00
  5.322474e+00    3.648545e+00
  5.354225e+00    3.683175e+00
  5.385976e+00    3.646210e+00
  5.417727e+00    3.646480e+00
  5.449478e+00    3.591095e+00
  5.481229e+00    3.704793e+00
  5.512980e+00    3.588422e+00
  5.544732e+00    3.644352e+00
  5.576483e+00    3.548030e+00
  5.608234e+00    3.660124e+00
  5.639985e+00    3.711393e+00
  5.671736e+00    3.641297e+00
  5.703487e+00    3.548060e+00
  5.735238e+00    3.642551e+00
  5.766990e+00    3.626196e+00
  5.798741e+00    3.517721e+00
  5.830492e+00    3.627940e+00
  5.862243e+00    3.517438e+00
  5.893994e+00    3.596790e+00
  5.925745e+00    3.548184e+00
  5.957497e+00    3.575442e+00
  5.989248e+00    3.573266e+00
  6.020999e+00    3.618095e+00
  6.052750e+00    3.636817e+00
  6.084501e+00    3.631503e+00
  6.116252e+00    3.669111e+00
  6.148003e+00    3.571038e+00
  6.179755e+00    3.611478e+00
  6.211506e+00    3.630765e+00
  6.243257e+00    3.568675e+00
  6.275008e+00    3.525967e+00
  6.306759e+00    3.547390e+00
  6.338510e+00    3.560380e+00
  6.370261e+00    3.583622e+00
  6.402013e+00    3.576694e+00
  6.433764e+00    3.557537e+00
  6.465515e+00    3.470354e+00
  6.497266e+00    3.578427e+00
  6.529017e+00    3.547733e+00
  6.560768e+00    3.544799e+00
  6.592519e+00    3.494419e+00
  6.624271e+00    3.574916e+00
  6.656022e+00    3.548870e+00
  6.687773e+00    3.666703e+00
  6.719524e+00    3.552347e+00
  6.751275e+00    3.532000e+00
  6.783026e+00    3.524727e+00
  6.814777e+00    3.531515e+00
  6.846529e+00    3.545592e+00
  6.878280e+00    3.504689e+00
  6.910031e+00    3.551608e+00
  6.941782e+00    3.595383e+00
  6.973533e+00    3.505105e+00
  7.005284e+00    3.614442e+00
  7.037036e+00    3.567278e+00
  7.068787e+00    3.519864e+00
  7.100538e+00    3.511371e+00
  7.132289e+00    3.488938e+00
  7.164040e+00    3.476838e+00
  7.195791e+00    3.482442e+00
  7.227542e+00    3.380778e+00
  7.259294e+00    3.476589e+00
  7.291045e+00    3.548708e+00
  7.322796e+00    3.463742e+00
  7.354547e+00    3.509122e+00
  7.386298e+00    3.522120e+00
  7.418049e+00    3.517190e+00
  7.449800e+00    3.470469e+00
  7.481552e+00    3.435227e+00
  7.513303e+00    3.549107e+00
  7.545054e+00    3.471452e+00
  7.576805e+00    3.481635e+00
  7.608556e+00    3.504504e+00
  7.640307e+00    3.508244e+00
  7.672058e+00    3.501284e+00
  7.703810e+00    3.411647e+00
  7.735561e+00    3.460248e+00
  7.767312e+00    3.434026e+00
  7.799063e+00    3.418551e+00
  7.830814e+00    3.425949e+00
  7.862565e+00    3.394183e+00
  7.894317e+00    3.489796e+00
  7.926068e+00    3.510169e+00
  7.957819e+00    3.332520e+00
  7.989570e+00    3.319318e+00
  8.021321e+00    3.479889e+00
  8.053072e+00    3.493554e+00
  8.084823e+00    3.495960e+00
  8.116575e+00    3.516445e+00
  8.148326e+00    3.487980e+00
  8.180077e+00    3.343132e+00
  8.211828e+00    3.487290e+00
  8.243579e+00    3.495760e+00
  8.275330e+00    3.438515e+00
  8.307081e+00    3.456303e+00
  8.338833e+00    3.395364e+00
  8.370584e+00    3.414149e+00
  8.402335e+00    3.385985e+00
  8.434086e+00    3.369156e+00
  8.465837e+00    3.407511e+00
  8.497588e+00    3.359156e+00
  8.529339e+00    3.342057e+00
  8.561091e+00    3.357635e+00
  8.592842e+00    3.338527e+00
  8.624593e+00    3.337555e+00
  8.656344e+00    3.338894e+00
  8.688095e+00    3.409660e+00
  8.719846e+00    3.300019e+00
  8.751598e+00    3.365905e+00
  8.783349e+00    3.278802e+00
  8.815100e+00    3.337820e+00
  8.846851e+00    3.362657e+00
  8.878602e+00    3.301455e+00
  8.910353e+00    3.296987e+00
  8.942104e+00    3.352773e+00
  8.973856e+00    3.300197e+00
  9.005607e+00    3.297220e+00
  9.037358e+00    3.297757e+00
  9.069109e+00    3.309449e+00
  9.100860e+00    3.286493e+00
  9.132611e+00    3.207827e+00
  9.164362e+00    3.246115e+00
  9.196114e+00    3.286823e+00
  9.227865e+00    3.174395e+00
  9.259616e+00    3.254987e+00
  9.291367e+00    3.226066e+00
  9.323118e+00    3.214536e+00
  9.354869e+00    3.198079e+00
  9.386620e+00    3.203250e+00
  9.418372e+00    3.237862e+00
  9.450123e+00    3.254895e+00
  9.481874e+00    3.249615e+00
  9.513625e+00    3.257261e+00
  9.545376e+00    3.266186e+00
  9.577127e+00    3.185360e+00
  9.608878e+00    3.231714e+00
  9.640630e+00    3.171172e+00
  9.672381e+00    3.195081e+00
  9.704132e+00    3.221021e+00
  9.735883e+00    3.188529e+00
  9.767634e+00    3.139543e+00
  9.799385e+00    3.171453e+00
  9.831137e+00    3.163543e+00
  9.862888e+00    3.135234e+00
  9.894639e+00    3.122413e+00
  9.926390e+00    3.096544e+00
  9.958141e+00    3.146239e+00
  9.989892e+00    3.153099e+00
  1.002164e+01    3.082189e+00
  1.005339e+01    3.096390e+00
  1.008515e+01    3.067339e+00
  1.011690e+01    3.109433e+00
  1.014865e+01    3.076721e+00
  1.018040e+01    3.087096e+00
  1.021215e+01    3.090776e+00
  1.024390e+01    3.098210e+00
  1.027565e+01    3.069621e+00
  1.030740e+01    3.086151e+00
  1.033915e+01    3.031181e+00
  1.037091e+01    3.040946e+00
  1.040266e+01    3.060964e+00
  1.043441e+01    3.003490e+00
  1.046616e+01    3.055025e+00
  1.049791e+01    2.991361e+00
  1.052966e+01    3.012467e+00
  1.056141e+01    3.037401e+00
  1.059316e+01    3.034675e+00
  1.062492e+01    3.023627e+00
  1.065667e+01    2.996934e+00
  1.068842e+01    2.988952e+00
  1.072017e+01    3.036439e+00
  1.075192e+01    2.991302e+00
  1.078367e+01    2.981843e+00
  1.081542e+01    2.970523e+00
  1.084717e+01    2.904296e+00
  1.087892e+01    2.976729e+00
  1.091068e+01    2.902092e+00
  1.094243e+01    2.881217e+00
  1.097418e+01    2.904275e+00
  1.100593e+01    2.913400e+00
  1.103768e+01    2.911399e+00
  1.106943e+01    2.924479e+00
  1.110118e+01    2.887747e+00
  1.113293e+01    2.902184e+00
  1.116468e+01    2.851032e+00
  1.119644e+01    2.824337e+00
  1.122819e+01    2.826119e+00
  1.125994e+01    2.831377e+00
  1.129169e+01    2.847193e+00
  1.132344e+01    2.797130e+00
  1.135519e+01    2.884293e+00
  1.138694e+01    2.852136e+00
  1.141869e+01    2.855989e+00
  1.145045e+01    2.768505e+00
  1.148220e+01    2.819045e+00
  1.151395e+01    2.868365e+00
  1.154570e+01    2.812415e+00
  1.157745e+01    2.782472e+00
  1.160920e+01    2.764203e+00
  1.164095e+01    2.753725e+00
  1.167270e+01    2.738645e+00
  1.170445e+01    2.723100e+00
  1.173621e+01    2.734015e+00
  1.176796e+01    2.760987e+00
  1.179971e+01    2.775935e+00
  1.183146e+01    2.759449e+00
  1.186321e+01    2.761678e+00
  1.189496e+01    2.713683e+00
  1.192671e+01    2.759111e+00
  1.195846e+01    2.742333e+00
  1.199021e+01    2.719951e+00
  1.202197e+01    2.705932e+00
  1.205372e+01    2.684271e+00
  1.208547e+01    2.707537e+00
  1.211722e+01    2.722243e+00
  1.214897e+01    2.691070e+00
  1.218072e+01    2.655436e+00
  1.221247e+01    2.648830e+00
  1.224422e+01    2.721988e+00
  1.227597e+01    2.655366e+00
  1.230773e+01    2.753768e+00
  1.233948e+01    2.652203e+00
  1.237123e+01    2.693719e+00
  1.240298e+01    2.701729e+00
  1.243473e+01    2.657527e+00
  1.246648e+01    2.692474e+00
  1.249823e+01    2.689596e+00
  1.252998e+01    2.770245e+00
  1.256174e+01    2.670151e+00
  1.259349e+01    2.804349e+00
  1.262524e+01    2.793776e+00
  1.265699e+01    2.791541e+00
  1.268874e+01    2.801070e+00
  1.272049e+01    2.809949e+00
  1.275224e+01    2.843961e+00
  1.278399e+01    2.936856e+00
  1.281574e+01    2.975295e+00
  1.284750e+01    3.227528e+00
  1.287925e+01    3.400505e+00
  1.291100e+01    3.659595e+00
  1.294275e+01    4.046765e+00
  1.297450e+01    4.775695e+00
  1.300625e+01    5.919765e+00
  1.303800e+01    7.757284e+00
  1.306975e+01    1.024725e+01
  1.310150e+01    1.277208e+01
  1.313326e+01    1.482466e+01
  1.316501e+01    1.629268e+01
  1.319676e+01    1.569911e+01
  1.322851e+01    1.250416e+01
  1.326026e+01    9.065129e+00
  1.329201e+01    6.705362e+00
  1.332376e+01    5.353491e+00
  1.335551e+01    4.449091e+00
  1.338727e+01    3.884953e+00
  1.341902e+01    3.441838e+00
  1.345077e+01    3.259862e+00
  1.348252e+01    3.035735e+00
  1.351427e+01    2.966624e+00
  1.354602e+01    2.804262e+00
  1.357777e+01    2.786391e+00
  1.360952e+01    2.620959e+00
  1.364127e+01    2.624323e+00
  1.367303e+01    2.596416e+00
  1.370478e+01    2.547185e+00
  1.373653e+01    2.536456e+00
  1.376828e+01    2.516970e+00
  1.380003e+01    2.454718e+00
  1.383178e+01    2.423227e+00
  1.386353e+01    2.388186e+00
  1.389528e+01    2.420875e+00
  1.392703e+01    2.388938e+00
  1.395879e+01    2.370422e+00
  1.399054e+01    2.370421e+00
  1.402229e+01    2.382823e+00
  1.405404e+01    2.359349e+00
  1.408579e+01    2.343715e+00
  1.411754e+01    2.291004e+00
  1.414929e+01    2.322423e+00
  1.418104e+01    2.273284e+00
  1.421279e+01    2.309354e+00
  1.424455e+01    2.295349e+00
  1.427630e+01    2.291203e+00
  1.430805e+01    2.268821e+00
  1.433980e+01    2.245016e+00
  1.437155e+01    2.252328e+00
  1.440330e+01    2.230902e+00
  1.443505e+01    2.232238e+00
  1.446680e+01    2.239397e+00
  1.449856e+01    2.206378e+00
  1.453031e+01    2.222497e+00
  1.456206e+01    2.213111e+00
  1.459381e+01    2.212348e+00
  1.462556e+01    2.248097e+00
  1.465731e+01    2.240182e+00
  1.468906e+01    2.216712e+00
  1.472081e+01    2.190733e+00
  1.475256e+01    2.214722e+00
  1.478432e+01    2.211488e+00
  1.481607e+01    2.207017e+00
  1.484782e+01    2.246731e+00
  1.487957e+01    2.236506e+00
  1.491132e+01    2.254849e+00
  1.494307e+01    2.287954e+00
  1.497482e+01    2.372363e+00
  1.500657e+01    2.446509e+00
  1.503832e+01    2.614423e+00
  1.507008e+01    2.830719e+00
  1.510183e+01    3.131231e+00
  1.513358e+01    3.827341e+00
  1.516533e+01    4.530599e+00
  1.519708e+01    5.242838e+00
  1.522883e+01    5.586902e+00
  1.526058e+01    5.781743e+00
  1.529233e+01    5.441533e+00
  1.532409e+01    4.669144e+00
  1.535584e+01    3.776960e+00
  1.538759e+01    3.169028e+00
  1.541934e+01    2.751721e+00
  1.545109e+01    2.486258e+00
  1.548284e+01    2.388008e+00
  1.551459e+01    2.249272e+00
  1.554634e+01    2.148961e+00
  1.557809e+01    2.143655e+00
  1.560985e+01    2.066453e+00
  1.564160e+01    2.064942e+00
  1.567335e+01    1.998021e+00
  1.570510e+01    1.986955e+00
  1.573685e+01    1.979952e+00
  1.576860e+01    1.931162e+00
  1.580035e+01    1.923140e+00
  1.583210e+01    1.910778e+00
  1.586385e+01    1.953473e+00
  1.589561e+01    1.921628e+00
  1.592736e+01    1.867611e+00
  1.595911e+01    1.906197e+00
  1.599086e+01    1.862745e+00
  1.602261e+01    1.854790e+00
  1.605436e+01    1.807715e+00
  1.608611e+01    1.808729e+00
  1.611786e+01    1.836653e+00
  1.614961e+01    1.844935e+00
  1.618137e+01    1.806753e+00
  1.621312e+01    1.816441e+00
  1.624487e+01    1.816409e+00
  1.627662e+01    1.791892e+00
  1.630837e+01    1.780215e+00
  1.634012e+01    1.788576e+00
  1.637187e+01    1.779739e+00
  1.640362e+01    1.758576e+00
  1.643538e+01    1.781966e+00
  1.646713e+01    1.749427e+00
  1.649888e+01    1.732543e+00
  1.653063e+01    1.766806e+00
  1.656238e+01    1.742001e+00
  1.659413e+01    1.742959e+00
  1.662588e+01    1.731486e+00
  1.665763e+01    1.729153e+00
  1.668938e+01    1.756649e+00
  1.672114e+01    1.754081e+00
  1.675289e+01    1.718091e+00
  1.678464e+01    1.710857e+00
  1.681639e+01    1.707684e+00
  1.684814e+01    1.723408e+00
  1.687989e+01    1.673281e+00
  1.691164e+01    1.669689e+00
  1.694339e+01    1.672859e+00
  1.697514e+01    1.691042e+00
  1.700690e+01    1.653259e+00
  1.703865e+01    1.651384e+00
  1.707040e+01    1.653620e+00
  1.710215e+01    1.637301e+00
  1.713390e+01    1.637931e+00
  1.716565e+01    1.591736e+00
  1.719740e+01    1.638884e+00
  1.722915e+01    1.615110e+00
  1.726091e+01    1.602783e+00
  1.729266e+01    1.586596e+00
  1.732441e+01    1.610036e+00
  1.735616e+01    1.600757e+00
  1.738791e+01    1.604665e+00
  1.741966e+01    1.577971e+00
  1.745141e+01    1.625662e+00
  1.748316e+01    1.611044e+00
  1.751491e+01    1.609080e+00
  1.754667e+01    1.611681e+00
  1.757842e+01    1.585880e+00
  1.761017e+01    1.556261e+00
  1.764192e+01    1.493168e+00
  1.767367e+01    1.546384e+00
  1.770542e+01    1.551943e+00
  1.773717e+01    1.541080e+00
  1.776892e+01    1.564800e+00
  1.780067e+01    1.542292e+00
  1.783243e+01    1.494921e+00
  1.786418e+01    1.534378e+00
  1.789593e+01    1.549433e+00
  1.792768e+01    1.528622e+00
  1.795943e+01    1.546924e+00
  1.799118e+01    1.511818e+00
  1.802293e+01    1.523759e+00
  1.805468e+01    1.520450e+00
  1.808643e+01    1.503664e+00
  1.811819e+01    1.522187e+00
  1.814994e+01    1.486288e+00
  1.818169e+01    1.463655e+00
  1.821344e+01    1.497966e+00
  1.824519e+01    1.481172e+00
  1.827694e+01    1.479070e+00
  1.830869e+01    1.492207e+00
  1.834044e+01    1.470858e+00
  1.837220e+01    1.474919e+00
  1.840395e+01    1.461036e+00
  1.843570e+01    1.468827e+00
  1.846745e+01    1.445722e+00
  1.849920e+01    1.437182e+00
  1.853095e+01    1.430664e+00
  1.856270e+01    1.458875e+00
  1.859445e+01    1.398515e+00
  1.862620e+01    1.428149e+00
  1.865796e+01    1.420350e+00
  1.868971e+01    1.428343e+00
  1.872146e+01    1.432783e+00
  1.875321e+01    1.433326e+00
  1.878496e+01    1.407852e+00
  1.881671e+01    1.412310e+00
  1.884846e+01    1.419475e+00
  1.888021e+01    1.389846e+00
  1.891196e+01    1.395401e+00
  1.894372e+01    1.389321e+00
  1.897547e+01    1.404984e+00
  1.900722e+01    1.420736e+00
  1.903897e+01    1.366536e+00
  1.907072e+01    1.353940e+00
  1.910247e+01    1.359863e+00
  1.913422e+01    1.362533e+00
  1.916597e+01    1.385764e+00
  1.919773e+01    1.385193e+00
  1.922948e+01    1.375874e+00
  1.926123e+01    1.362385e+00
  1.929298e+01    1.354052e+00
  1.932473e+01    1.347326e+00
  1.935648e+01    1.356815e+00
  1.938823e+01    1.366535e+00
  1.941998e+01    1.341154e+00
  1.945173e+01    1.342977e+00
  1.948349e+01    1.322815e+00
  1.951524e+01    1.325329e+00
  1.954699e+01    1.320718e+00
  1.957874e+01    1.317318e+00
  1.961049e+01    1.299779e+00
  1.964224e+01    1.315110e+00
  1.967399e+01    1.302240e+00
  1.970574e+01    1.327902e+00
  1.973749e+01    1.297267e+00
  1.976925e+01    1.307833e+00
  1.980100e+01    1.288020e+00
  1.983275e+01    1.304507e+00
  1.986450e+01    1.289902e+00
  1.989625e+01    1.262452e+00
  1.992800e+01    1.300886e+00
  1.995975e+01    1.299302e+00
  1.999150e+01    1.298860e+00
  2.002325e+01    1.297110e+00
  2.005501e+01    1.268950e+00
  2.008676e+01    1.283494e+00
  2.011851e+01    1.264786e+00
  2.015026e+01    1.286117e+00
  2.018201e+01    1.276898e+00
  2.021376e+01    1.235480e+00
  2.024551e+01    1.257841e+00
  2.027726e+01    1.240124e+00
  2.030902e+01    1.261139e+00
  2.034077e+01    1.244842e+00
  2.037252e+01    1.230305e+00
  2.040427e+01    1.249271e+00
  2.043602e+01    1.235389e+00
  2.046777e+01    1.235918e+00
  2.049952e+01    1.227986e+00
  2.053127e+01    1.244422e+00
  2.056302e+01    1.244361e+00
  2.059478e+01    1.236233e+00
  2.062653e+01    1.243103e+00
  2.065828e+01    1.238799e+00
  2.069003e+01    1.219520e+00
  2.072178e+01    1.186525e+00
  2.075353e+01    1.219734e+00
  2.078528e+01    1.215360e+00
  2.081703e+01    1.224537e+00
  2.084878e+01    1.218312e+00
  2.088054e+01    1.200419e+00
  2.091229e+01    1.231339e+00
  2.094404e+01    1.227012e+00
  2.097579e+01    1.190289e+00
  2.100754e+01    1.247549e+00
  2.103929e+01    1.201268e+00
  2.107104e+01    1.219153e+00
  2.110279e+01    1.210886e+00
  2.113455e+01    1.267814e+00
  2.116630e+01    1.233310e+00
  2.119805e+01    1.247644e+00
  2.122980e+01    1.271065e+00
  2.126155e+01    1.216698e+00
  2.129330e+01    1.265211e+00
  2.132505e+01    1.269830e+00
  2.135680e+01    1.292341e+00
  2.138855e+01    1.332622e+00
  2.142031e+01    1.316466e+00
  2.145206e+01    1.350657e+00
  2.148381e+01    1.370346e+00
  2.151556e+01    1.467294e+00
  2.154731e+01    1.525735e+00
  2.157906e+01    1.628800e+00
  2.161081e+01    1.781027e+00
  2.164256e+01    1.982590e+00
  2.167431e+01    2.292171e+00
  2.170607e+01    2.800777e+00
  2.173782e+01    3.512315e+00
  2.176957e+01    4.583909e+00
  2.180132e+01    5.892462e+00
  2.183307e+01    7.175838e+00
  2.186482e+01    8.362338e+00
  2.189657e+01    9.007987e+00
  2.192832e+01    8.269415e+00
  2.196007e+01    6.541836e+00
  2.199183e+01    4.877759e+00
  2.202358e+01    3.634574e+00
  2.205533e+01    2.792035e+00
  2.208708e+01    2.336155e+00
  2.211883e+01    1.996683e+00
  2.215058e+01    1.804676e+00
  2.218233e+01    1.593325e+00
  2.221408e+01    1.489550e+00
  2.224584e+01    1.392321e+00
  2.227759e+01    1.370107e+00
  2.230934e+01    1.297989e+00
  2.234109e+01    1.251044e+00
  2.237284e+01    1.231024e+00
  2.240459e+01    1.205486e+00
  2.243634e+01    1.160590e+00
  2.246809e+01    1.158311e+00
  2.249984e+01    1.145155e+00
  2.253160e+01    1.146010e+00
  2.256335e+01    1.136018e+00
  2.259510e+01    1.113257e+00
  2.262685e+01    1.117555e+00
  2.265860e+01    1.087613e+00
  2.269035e+01    1.077238e+00
  2.272210e+01    1.059842e+00
  2.275385e+01    1.068717e+00
  2.278560e+01    1.077232e+00
  2.281736e+01    1.051753e+00
  2.284911e+01    1.062334e+00
  2.288086e+01    1.030972e+00
  2.291261e+01    1.032580e+00
  2.294436e+01    1.032642e+00
  2.297611e+01    1.032778e+00
  2.300786e+01    1.035220e+00
  2.303961e+01    1.004827e+00
  2.307137e+01    1.015340e+00
  2.310312e+01    9.914021e-01
  2.313487e+01    1.003345e+00
  2.316662e+01    1.004234e+00
  2.319837e+01    9.969237e-01
  2.323012e+01    1.002398e+00
  2.326187e+01    9.765698e-01
  2.329362e+01    9.756750e-01
  2.332537e+01    9.729648e-01
  2.335713e+01    9.814689e-01
  2.338888e+01    9.687682e-01
  2.342063e+01    9.664919e-01
  2.345238e+01    9.862005e-01
  2.348413e+01    9.680538e-01
  2.351588e+01    9.616183e-01
  2.354763e+01    9.505794e-01
  2.357938e+01    9.816810e-01
  2.361113e+01    9.423898e-01
  2.364289e+01    9.736652e-01
  2.367464e+01    9.573720e-01
  2.370639e+01    9.410806e-01
  2.373814e+01    9.462018e-01
  2.376989e+01    9.340699e-01
  2.380164e+01    9.336530e-01
  2.383339e+01    9.183546e-01
  2.386514e+01    9.242048e-01
  2.389689e+01    9.050190e-01
  2.392865e+01    9.389434e-01
  2.396040e+01    8.961586e-01
  2.399215e+01    8.831049e-01
  2.402390e+01    8.906353e-01
  2.405565e+01    8.935039e-01
  2.408740e+01    9.039817e-01
  2.411915e+01    8.840088e-01
  2.415090e+01    8.785308e-01
  2.418266e+01    8.877501e-01
  2.421441e+01    8.837831e-01
  2.424616e+01    8.874753e-01
  2.427791e+01    8.717496e-01
  2.430966e+01    9.110685e-01
  2.434141e+01    8.919163e-01
  2.437316e+01    8.892168e-01
  2.440491e+01    8.837478e-01
  2.443666e+01    9.028736e-01
  2.446842e+01    9.083354e-01
  2.450017e+01    9.001040e-01
  2.453192e+01    8.967667e-01
  2.456367e+01    8.866879e-01
  2.459542e+01    9.008288e-01
  2.462717e+01    8.945422e-01
  2.465892e+01    9.091017e-01
  2.469067e+01    8.599575e-01
  2.472242e+01    8.987135e-01
  2.475418e+01    8.899518e-01
  2.478593e+01    9.094334e-01
  2.481768e+01    9.047480e-01
  2.484943e+01    8.781546e-01
  2.488118e+01    8.985977e-01
  2.491293e+01    8.863532e-01
  2.494468e+01    9.045161e-01
  2.497643e+01    9.091196e-01
  2.500819e+01    9.000646e-01
  2.503994e+01    9.084494e-01
  2.507169e+01    9.018254e-01
  2.510344e+01    8.865488e-01
  2.513519e+01    9.196705e-01
  2.516694e+01    9.028849e-01
  2.519869e+01    9.349791e-01
  2.523044e+01    9.295998e-01
  2.526219e+01    9.374770e-01
  2.529395e+01    9.509214e-01
  2.532570e+01    9.519764e-01
  2.535745e+01    9.827129e-01
  2.538920e+01    9.801725e-01
  2.542095e+01    1.004855e+00
  2.545270e+01    1.021242e+00
  2.548445e+01    1.035426e+00
  2.551620e+01    1.058305e+00
  2.554795e+01    1.107273e+00
  2.557971e+01    1.166421e+00
  2.561146e+01    1.212335e+00
  2.564321e+01    1.336977e+00
  2.567496e+01    1.418943e+00
  2.570671e+01    1.564202e+00
  2.573846e+01    1.850563e+00
  2.577021e+01    2.217710e+00
  2.580196e+01    2.844869e+00
  2.583371e+01    3.661644e+00
  2.586547e+01    4.699252e+00
  2.589722e+01    5.796339e+00
  2.592897e+01    6.760904e+00
  2.596072e+01    7.095068e+00
  2.599247e+01    6.506041e+00
  2.602422e+01    5.252045e+00
  2.605597e+01    3.972006e+00
  2.608772e+01    2.995267e+00
  2.611948e+01    2.365602e+00
  2.615123e+01    1.952948e+00
  2.618298e+01    1.654544e+00
  2.621473e+01    1.451158e+00
  2.624648e+01    1.329155e+00
  2.627823e+01    1.263460e+00
  2.630998e+01    1.190876e+00
  2.634173e+01    1.108676e+00
  2.637348e+01    1.073172e+00
  2.640524e+01    1.036682e+00
  2.643699e+01    1.017253e+00
  2.646874e+01    1.016986e+00
  2.650049e+01    1.000238e+00
  2.653224e+01    1.019853e+00
  2.656399e+01    9.893003e-01
  2.659574e+01    9.942136e-01
  2.662749e+01    9.563367e-01
  2.665924e+01    9.831522e-01
  2.669100e+01    9.495225e-01
  2.672275e+01    9.708749e-01
  2.675450e+01    9.897234e-01
  2.678625e+01    9.612631e-01
  2.681800e+01    9.849417e-01
  2.684975e+01    9.816872e-01
  2.688150e+01    9.974709e-01
  2.691325e+01    1.021302e+00
  2.694501e+01    1.028690e+00
  2.697676e+01    1.061529e+00
  2.700851e+01    1.112227e+00
  2.704026e+01    1.219650e+00
  2.707201e+01    1.326360e+00
  2.710376e+01    1.508486e+00
  2.713551e+01    1.730372e+00
  2.716726e+01    1.977718e+00
  2.719901e+01    2.140743e+00
  2.723077e+01    2.134724e+00
  2.726252e+01    1.952305e+00
  2.729427e+01    1.714490e+00
  2.732602e+01    1.443721e+00
  2.735777e+01    1.315433e+00
  2.738952e+01    1.145759e+00
  2.742127e+01    1.086388e+00
  2.745302e+01    1.042554e+00
  2.748477e+01    9.883571e-01
  2.751653e+01    9.742758e-01
  2.754828e+01    9.458441e-01
  2.758003e+01    9.584360e-01
  2.761178e+01    9.304956e-01
  2.764353e+01    9.233972e-01
  2.767528e+01    9.024042e-01
  2.770703e+01    8.951228e-01
  2.773878e+01    8.871393e-01
  2.777054e+01    8.947156e-01
  2.780229e+01    8.878983e-01
  2.783404e+01    8.990273e-01
  2.786579e+01    8.798480e-01
  2.789754e+01    8.877498e-01
  2.792929e+01    8.857784e-01
  2.796104e+01    8.568495e-01
  2.799279e+01    8.702745e-01
  2.802454e+01    8.583310e-01
  2.805630e+01    8.589361e-01
  2.808805e+01    8.643715e-01
  2.811980e+01    8.633548e-01
  2.815155e+01    8.385488e-01
  2.818330e+01    8.613093e-01
  2.821505e+01    8.604698e-01
  2.824680e+01    8.814001e-01
  2.827855e+01    8.401943e-01
  2.831030e+01    8.333361e-01
  2.834206e+01    8.443118e-01
  2.837381e+01    8.517157e-01
  2.840556e+01    8.457253e-01
  2.843731e+01    8.329799e-01
  2.846906e+01    8.401017e-01
  2.850081e+01    8.464931e-01
  2.853256e+01    8.139039e-01
  2.856431e+01    8.589936e-01
  2.859606e+01    8.243048e-01
  2.862782e+01    8.390958e-01
  2.865957e+01    8.433942e-01
  2.869132e+01    8.379604e-01
  2.872307e+01    8.278393e-01
  2.875482e+01    8.465603e-01
  2.878657e+01    8.268046e-01
  2.881832e+01    8.263439e-01
  2.885007e+01    8.267536e-01
  2.888183e+01    8.143986e-01
  2.891358e+01    8.200005e-01
  2.894533e+01    8.334027e-01
  2.897708e+01    8.442637e-01
  2.900883e+01    8.245262e-01
  2.904058e+01    8.311338e-01
  2.907233e+01    8.276234e-01
  2.910408e+01    8.246793e-01
  2.913583e+01    8.286789e-01
  2.916759e+01    8.195768e-01
  2.919934e+01    7.934068e-01
  2.923109e+01    8.180577e-01
  2.926284e+01    8.312678e-01
  2.929459e+01    8.057672e-01
  2.932634e+01    8.326089e-01
  2.935809e+01    8.142834e-01
  2.938984e+01    7.970720e-01
  2.942159e+01    8.043720e-01
  2.945335e+01    8.037994e-01
  2.948510e+01    8.101978e-01
  2.951685e+01    8.101550e-01
  2.954860e+01    8.096864e-01
  2.958035e+01    8.046966e-01
  2.961210e+01    8.048017e-01
  2.964385e+01    8.166493e-01
  2.967560e+01    7.855484e-01
  2.970736e+01    7.922943e-01
  2.973911e+01    8.062676e-01
  2.977086e+01    7.936925e-01
  2.980261e+01    7.716967e-01
  2.983436e+01    7.986820e-01
  2.986611e+01    7.896661e-01
  2.989786e+01    7.791397e-01
  2.992961e+01    8.167437e-01
  2.996136e+01    7.978770e-01
  2.999312e+01    7.914519e-01
  3.002487e+01    8.323941e-01
  3.005662e+01    8.083032e-01
  3.008837e+01    8.267462e-01
  3.012012e+01    7.910833e-01
  3.015187e+01    7.874679e-01
  3.018362e+01    8.074569e-01
  3.021537e+01    7.781594e-01
  3.024712e+01    7.693542e-01
  3.027888e+01    7.719623e-01
  3.031063e+01    7.824156e-01
  3.034238e+01    7.836859e-01
  3.037413e+01    7.849388e-01
  3.040588e+01    7.869648e-01
  3.043763e+01    7.911439e-01
  3.046938e+01    7.956420e-01
  3.050113e+01    8.040423e-01
  3.053288e+01    7.864522e-01
  3.056464e+01    7.704534e-01
  3.059639e+01    8.129193e-01
  3.062814e+01    7.925366e-01
  3.065989e+01    7.883491e-01
  3.069164e+01    7.829206e-01
  3.072339e+01    7.880458e-01
  3.075514e+01    7.874826e-01
  3.078689e+01    7.813030e-01
  3.081865e+01    7.731674e-01
  3.085040e+01    7.828201e-01
  3.088215e+01    7.797355e-01
  3.091390e+01    7.762220e-01
  3.094565e+01    7.818658e-01
  3.097740e+01    7.872633e-01
  3.100915e+01    7.819394e-01
  3.104090e+01    7.815023e-01
  3.107265e+01    7.926001e-01
  3.110441e+01    7.899104e-01
  3.113616e+01    7.863283e-01
  3.116791e+01    7.917076e-01
  3.119966e+01    8.090330e-01
  3.123141e+01    7.920046e-01
  3.126316e+01    7.822457e-01
  3.129491e+01    8.234411e-01
  3.132666e+01    7.931031e-01
  3.135841e+01    8.166215e-01
  3.139017e+01    8.136510e-01
  3.142192e+01    8.050371e-01
  3.145367e+01    8.203398e-01
  3.148542e+01    8.211008e-01
  3.151717e+01    8.279126e-01
  3.154892e+01    8.406931e-01
  3.158067e+01    8.706228e-01
  3.161242e+01    8.870960e-01
  3.164418e+01    9.270307e-01
  3.167593e+01    9.834552e-01
  3.170768e+01    1.039930e+00
  3.173943e+01    1.149906e+00
  3.177118e+01    1.244502e+00
  3.180293e+01    1.474288e+00
  3.183468e+01    1.732582e+00
  3.186643e+01    1.964496e+00
  3.189818e+01    2.069231e+00
  3.192994e+01    2.017516e+00
  3.196169e+01    1.806375e+00
  3.199344e+01    1.539686e+00
  3.202519e+01    1.305223e+00
  3.205694e+01    1.176992e+00
  3.208869e+01    1.061213e+00
  3.212044e+01    9.783486e-01
  3.215219e+01    9.017278e-01
  3.218394e+01    8.744953e-01
  3.221570e+01    8.499005e-01
  3.224745e+01    8.488540e-01
  3.227920e+01    8.249421e-01
  3.231095e+01    7.888291e-01
  3.234270e+01    8.058280e-01
  3.237445e+01    8.013384e-01
  3.240620e+01    7.869043e-01
  3.243795e+01    8.017280e-01
  3.246970e+01    7.760246e-01
  3.250146e+01    7.821326e-01
  3.253321e+01    7.845933e-01
  3.254908e+01    7.797601e-01