File: XRD/Reaction conditions/2024-07-27_003_Ru-CGO-ex_Reaction_dwell_000023_data_000090.dat
# == pyFAI calibration ==
# Distance Sample to Detector: 0.4 m
# PONI: 9.750e-02, 1.135e-01 m
# Rotations: -0.000175 0.000000 -0.000000 rad
#
# == Fit2d calibration ==
# Distance Sample-beamCenter: 400.000 mm
# Center: x=1514.000, y=1300.000 pix
# Tilt: 0.010 deg  TiltPlanRot: 0.010 deg
#
# Detector Detector	 Spline= None	 PixelSize= 7.500e-05, 7.500e-05 m
#    Detector has a mask: False
#    Detector has a dark current: False
#    detector has a flat field: False
#
# Wavelength: 6.888e-11 m
# Mask applied: user provided
# Dark current applied: False
# Flat field applied: False
# Polarization factor: 0.99
# Normalization factor: 1.0
# --> /home/myspot/data/2024_07_Rosario/Ru-CGO-ex/2024-07-27_003_Ru-CGO-ex_Reaction_dwell_000023_data_000090.dat
#       q_nm^-1             I
  2.003187e-02    0.000000e+00
  5.178302e-02    1.905794e-01
  8.353417e-02    2.009160e-01
  1.152853e-01    2.997023e-02
  1.470365e-01    9.547535e-02
  1.787876e-01    1.161120e-02
  2.105388e-01    6.579411e-02
  2.422899e-01    3.961842e-02
  2.740411e-01    2.632853e-02
  3.057922e-01    2.908503e-02
  3.375433e-01    3.796670e-02
  3.692945e-01    1.556806e-02
  4.010456e-01    3.498175e-02
  4.327968e-01    2.922189e-02
  4.645479e-01    5.645718e-02
  4.962991e-01    5.812487e-02
  5.280502e-01    6.092151e-02
  5.598014e-01    8.419302e-02
  5.915525e-01    7.056747e-02
  6.233037e-01    3.545672e-02
  6.550548e-01    2.188383e-02
  6.868060e-01    2.775591e-02
  7.185571e-01    3.080793e-02
  7.503083e-01    4.461093e-02
  7.820594e-01    9.069188e-02
  8.138106e-01    2.249312e-01
  8.455617e-01    3.050649e-01
  8.773129e-01    4.962365e-01
  9.090640e-01    5.559890e-01
  9.408152e-01    8.015348e-01
  9.725663e-01    9.348006e-01
  1.004317e+00    1.243947e+00
  1.036069e+00    1.371271e+00
  1.067820e+00    1.514408e+00
  1.099571e+00    1.599482e+00
  1.131322e+00    1.715908e+00
  1.163073e+00    1.699104e+00
  1.194824e+00    1.781313e+00
  1.226575e+00    2.313272e+00
  1.258327e+00    2.422228e+00
  1.290078e+00    2.658604e+00
  1.321829e+00    2.804305e+00
  1.353580e+00    2.793945e+00
  1.385331e+00    2.880167e+00
  1.417082e+00    2.982786e+00
  1.448834e+00    3.019181e+00
  1.480585e+00    2.978851e+00
  1.512336e+00    3.158976e+00
  1.544087e+00    3.288175e+00
  1.575838e+00    3.157558e+00
  1.607589e+00    3.005023e+00
  1.639340e+00    3.124099e+00
  1.671092e+00    3.058101e+00
  1.702843e+00    3.112249e+00
  1.734594e+00    3.011125e+00
  1.766345e+00    3.097216e+00
  1.798096e+00    2.990038e+00
  1.829847e+00    3.058983e+00
  1.861598e+00    3.199964e+00
  1.893350e+00    3.173382e+00
  1.925101e+00    3.112344e+00
  1.956852e+00    3.093999e+00
  1.988603e+00    3.044859e+00
  2.020354e+00    2.929384e+00
  2.052105e+00    3.070425e+00
  2.083856e+00    3.067782e+00
  2.115608e+00    3.148054e+00
  2.147359e+00    3.144080e+00
  2.179110e+00    3.145351e+00
  2.210861e+00    3.166941e+00
  2.242612e+00    3.146016e+00
  2.274363e+00    3.165399e+00
  2.306115e+00    3.132810e+00
  2.337866e+00    3.120272e+00
  2.369617e+00    3.120978e+00
  2.401368e+00    3.266626e+00
  2.433119e+00    3.285231e+00
  2.464870e+00    3.226953e+00
  2.496621e+00    3.292000e+00
  2.528373e+00    3.199653e+00
  2.560124e+00    3.100861e+00
  2.591875e+00    3.279620e+00
  2.623626e+00    3.242487e+00
  2.655377e+00    3.297359e+00
  2.687128e+00    3.208849e+00
  2.718879e+00    3.200751e+00
  2.750631e+00    3.128302e+00
  2.782382e+00    3.306826e+00
  2.814133e+00    3.260580e+00
  2.845884e+00    3.339655e+00
  2.877635e+00    3.260091e+00
  2.909386e+00    3.275321e+00
  2.941137e+00    3.376416e+00
  2.972889e+00    3.390500e+00
  3.004640e+00    3.365007e+00
  3.036391e+00    3.339635e+00
  3.068142e+00    3.327945e+00
  3.099893e+00    3.277107e+00
  3.131644e+00    3.421560e+00
  3.163395e+00    3.322698e+00
  3.195147e+00    3.507357e+00
  3.226898e+00    3.451756e+00
  3.258649e+00    3.391238e+00
  3.290400e+00    3.389699e+00
  3.322151e+00    3.394356e+00
  3.353902e+00    3.416922e+00
  3.385654e+00    3.305555e+00
  3.417405e+00    3.445532e+00
  3.449156e+00    3.410258e+00
  3.480907e+00    3.423878e+00
  3.512658e+00    3.418447e+00
  3.544409e+00    3.414389e+00
  3.576160e+00    3.456992e+00
  3.607912e+00    3.469062e+00
  3.639663e+00    3.440294e+00
  3.671414e+00    3.460055e+00
  3.703165e+00    3.551856e+00
  3.734916e+00    3.459105e+00
  3.766667e+00    3.564895e+00
  3.798418e+00    3.564707e+00
  3.830170e+00    3.546977e+00
  3.861921e+00    3.543670e+00
  3.893672e+00    3.462669e+00
  3.925423e+00    3.532349e+00
  3.957174e+00    3.594018e+00
  3.988925e+00    3.559652e+00
  4.020676e+00    3.542777e+00
  4.052428e+00    3.643682e+00
  4.084179e+00    3.569818e+00
  4.115930e+00    3.551354e+00
  4.147681e+00    3.517176e+00
  4.179432e+00    3.532783e+00
  4.211183e+00    3.584424e+00
  4.242935e+00    3.544888e+00
  4.274686e+00    3.568534e+00
  4.306437e+00    3.508817e+00
  4.338188e+00    3.584753e+00
  4.369939e+00    3.567683e+00
  4.401690e+00    3.636045e+00
  4.433441e+00    3.617984e+00
  4.465193e+00    3.590001e+00
  4.496944e+00    3.663202e+00
  4.528695e+00    3.566230e+00
  4.560446e+00    3.632113e+00
  4.592197e+00    3.544161e+00
  4.623948e+00    3.668715e+00
  4.655699e+00    3.544974e+00
  4.687451e+00    3.622508e+00
  4.719202e+00    3.641644e+00
  4.750953e+00    3.552178e+00
  4.782704e+00    3.608722e+00
  4.814455e+00    3.716975e+00
  4.846206e+00    3.700140e+00
  4.877957e+00    3.604994e+00
  4.909709e+00    3.623775e+00
  4.941460e+00    3.617084e+00
  4.973211e+00    3.635491e+00
  5.004962e+00    3.676408e+00
  5.036713e+00    3.663362e+00
  5.068464e+00    3.563634e+00
  5.100216e+00    3.637292e+00
  5.131967e+00    3.638712e+00
  5.163718e+00    3.558129e+00
  5.195469e+00    3.638730e+00
  5.227220e+00    3.726035e+00
  5.258971e+00    3.667335e+00
  5.290722e+00    3.637361e+00
  5.322474e+00    3.589211e+00
  5.354225e+00    3.636720e+00
  5.385976e+00    3.658925e+00
  5.417727e+00    3.653534e+00
  5.449478e+00    3.581309e+00
  5.481229e+00    3.581094e+00
  5.512980e+00    3.647630e+00
  5.544732e+00    3.617757e+00
  5.576483e+00    3.547193e+00
  5.608234e+00    3.514954e+00
  5.639985e+00    3.624811e+00
  5.671736e+00    3.579009e+00
  5.703487e+00    3.608562e+00
  5.735238e+00    3.609854e+00
  5.766990e+00    3.621589e+00
  5.798741e+00    3.554987e+00
  5.830492e+00    3.536274e+00
  5.862243e+00    3.609970e+00
  5.893994e+00    3.583148e+00
  5.925745e+00    3.490391e+00
  5.957497e+00    3.694136e+00
  5.989248e+00    3.530351e+00
  6.020999e+00    3.528771e+00
  6.052750e+00    3.540636e+00
  6.084501e+00    3.582693e+00
  6.116252e+00    3.549822e+00
  6.148003e+00    3.567484e+00
  6.179755e+00    3.554644e+00
  6.211506e+00    3.531147e+00
  6.243257e+00    3.533712e+00
  6.275008e+00    3.588003e+00
  6.306759e+00    3.592851e+00
  6.338510e+00    3.541948e+00
  6.370261e+00    3.548505e+00
  6.402013e+00    3.493990e+00
  6.433764e+00    3.513679e+00
  6.465515e+00    3.581307e+00
  6.497266e+00    3.571427e+00
  6.529017e+00    3.579931e+00
  6.560768e+00    3.470747e+00
  6.592519e+00    3.577172e+00
  6.624271e+00    3.595618e+00
  6.656022e+00    3.509427e+00
  6.687773e+00    3.467628e+00
  6.719524e+00    3.515826e+00
  6.751275e+00    3.536357e+00
  6.783026e+00    3.571343e+00
  6.814777e+00    3.614878e+00
  6.846529e+00    3.597595e+00
  6.878280e+00    3.540102e+00
  6.910031e+00    3.528930e+00
  6.941782e+00    3.575189e+00
  6.973533e+00    3.504978e+00
  7.005284e+00    3.630253e+00
  7.037036e+00    3.448375e+00
  7.068787e+00    3.512420e+00
  7.100538e+00    3.591893e+00
  7.132289e+00    3.498398e+00
  7.164040e+00    3.569775e+00
  7.195791e+00    3.491024e+00
  7.227542e+00    3.473166e+00
  7.259294e+00    3.552239e+00
  7.291045e+00    3.516157e+00
  7.322796e+00    3.622184e+00
  7.354547e+00    3.511478e+00
  7.386298e+00    3.508714e+00
  7.418049e+00    3.451073e+00
  7.449800e+00    3.500643e+00
  7.481552e+00    3.488820e+00
  7.513303e+00    3.436485e+00
  7.545054e+00    3.539112e+00
  7.576805e+00    3.518761e+00
  7.608556e+00    3.454872e+00
  7.640307e+00    3.397587e+00
  7.672058e+00    3.496405e+00
  7.703810e+00    3.419002e+00
  7.735561e+00    3.477939e+00
  7.767312e+00    3.460342e+00
  7.799063e+00    3.489671e+00
  7.830814e+00    3.446502e+00
  7.862565e+00    3.440325e+00
  7.894317e+00    3.472091e+00
  7.926068e+00    3.377525e+00
  7.957819e+00    3.465194e+00
  7.989570e+00    3.453060e+00
  8.021321e+00    3.447003e+00
  8.053072e+00    3.437459e+00
  8.084823e+00    3.412007e+00
  8.116575e+00    3.484169e+00
  8.148326e+00    3.467579e+00
  8.180077e+00    3.455954e+00
  8.211828e+00    3.514187e+00
  8.243579e+00    3.519154e+00
  8.275330e+00    3.397985e+00
  8.307081e+00    3.374191e+00
  8.338833e+00    3.443689e+00
  8.370584e+00    3.401321e+00
  8.402335e+00    3.397907e+00
  8.434086e+00    3.424910e+00
  8.465837e+00    3.426352e+00
  8.497588e+00    3.415475e+00
  8.529339e+00    3.387937e+00
  8.561091e+00    3.389054e+00
  8.592842e+00    3.368904e+00
  8.624593e+00    3.362495e+00
  8.656344e+00    3.372140e+00
  8.688095e+00    3.320279e+00
  8.719846e+00    3.324443e+00
  8.751598e+00    3.362465e+00
  8.783349e+00    3.298631e+00
  8.815100e+00    3.264325e+00
  8.846851e+00    3.316546e+00
  8.878602e+00    3.260936e+00
  8.910353e+00    3.325219e+00
  8.942104e+00    3.277785e+00
  8.973856e+00    3.261629e+00
  9.005607e+00    3.302624e+00
  9.037358e+00    3.408508e+00
  9.069109e+00    3.296588e+00
  9.100860e+00    3.294603e+00
  9.132611e+00    3.208384e+00
  9.164362e+00    3.290840e+00
  9.196114e+00    3.315439e+00
  9.227865e+00    3.277093e+00
  9.259616e+00    3.269819e+00
  9.291367e+00    3.215287e+00
  9.323118e+00    3.242011e+00
  9.354869e+00    3.218162e+00
  9.386620e+00    3.237876e+00
  9.418372e+00    3.189730e+00
  9.450123e+00    3.241517e+00
  9.481874e+00    3.198504e+00
  9.513625e+00    3.259891e+00
  9.545376e+00    3.243272e+00
  9.577127e+00    3.263682e+00
  9.608878e+00    3.247644e+00
  9.640630e+00    3.183709e+00
  9.672381e+00    3.193922e+00
  9.704132e+00    3.201922e+00
  9.735883e+00    3.120319e+00
  9.767634e+00    3.208302e+00
  9.799385e+00    3.170872e+00
  9.831137e+00    3.157134e+00
  9.862888e+00    3.110771e+00
  9.894639e+00    3.207093e+00
  9.926390e+00    3.101407e+00
  9.958141e+00    3.173684e+00
  9.989892e+00    3.125940e+00
  1.002164e+01    3.169939e+00
  1.005339e+01    3.115434e+00
  1.008515e+01    3.112539e+00
  1.011690e+01    3.156053e+00
  1.014865e+01    3.066014e+00
  1.018040e+01    3.115849e+00
  1.021215e+01    3.081405e+00
  1.024390e+01    3.073410e+00
  1.027565e+01    3.088306e+00
  1.030740e+01    3.026532e+00
  1.033915e+01    3.010396e+00
  1.037091e+01    3.039140e+00
  1.040266e+01    3.071071e+00
  1.043441e+01    3.036049e+00
  1.046616e+01    3.053487e+00
  1.049791e+01    3.073574e+00
  1.052966e+01    3.034996e+00
  1.056141e+01    3.023647e+00
  1.059316e+01    2.986110e+00
  1.062492e+01    2.991945e+00
  1.065667e+01    3.002933e+00
  1.068842e+01    3.038910e+00
  1.072017e+01    3.014093e+00
  1.075192e+01    2.975678e+00
  1.078367e+01    2.949580e+00
  1.081542e+01    2.928625e+00
  1.084717e+01    2.978694e+00
  1.087892e+01    2.959865e+00
  1.091068e+01    2.958239e+00
  1.094243e+01    2.941656e+00
  1.097418e+01    2.914789e+00
  1.100593e+01    2.963891e+00
  1.103768e+01    2.871618e+00
  1.106943e+01    2.893702e+00
  1.110118e+01    2.910249e+00
  1.113293e+01    2.843345e+00
  1.116468e+01    2.922107e+00
  1.119644e+01    2.877470e+00
  1.122819e+01    2.916528e+00
  1.125994e+01    2.817309e+00
  1.129169e+01    2.854001e+00
  1.132344e+01    2.866334e+00
  1.135519e+01    2.828637e+00
  1.138694e+01    2.863375e+00
  1.141869e+01    2.809560e+00
  1.145045e+01    2.827326e+00
  1.148220e+01    2.814040e+00
  1.151395e+01    2.794135e+00
  1.154570e+01    2.773621e+00
  1.157745e+01    2.805705e+00
  1.160920e+01    2.767136e+00
  1.164095e+01    2.773264e+00
  1.167270e+01    2.751563e+00
  1.170445e+01    2.775537e+00
  1.173621e+01    2.715965e+00
  1.176796e+01    2.744611e+00
  1.179971e+01    2.765579e+00
  1.183146e+01    2.681097e+00
  1.186321e+01    2.748111e+00
  1.189496e+01    2.728034e+00
  1.192671e+01    2.740906e+00
  1.195846e+01    2.748237e+00
  1.199021e+01    2.711144e+00
  1.202197e+01    2.717513e+00
  1.205372e+01    2.682476e+00
  1.208547e+01    2.710039e+00
  1.211722e+01    2.685279e+00
  1.214897e+01    2.700166e+00
  1.218072e+01    2.653222e+00
  1.221247e+01    2.689291e+00
  1.224422e+01    2.680937e+00
  1.227597e+01    2.679187e+00
  1.230773e+01    2.680972e+00
  1.233948e+01    2.668263e+00
  1.237123e+01    2.739635e+00
  1.240298e+01    2.695792e+00
  1.243473e+01    2.747548e+00
  1.246648e+01    2.718867e+00
  1.249823e+01    2.715131e+00
  1.252998e+01    2.694972e+00
  1.256174e+01    2.722991e+00
  1.259349e+01    2.715957e+00
  1.262524e+01    2.789655e+00
  1.265699e+01    2.785440e+00
  1.268874e+01    2.764578e+00
  1.272049e+01    2.902738e+00
  1.275224e+01    2.832226e+00
  1.278399e+01    2.950553e+00
  1.281574e+01    3.113409e+00
  1.284750e+01    3.167199e+00
  1.287925e+01    3.400520e+00
  1.291100e+01    3.635810e+00
  1.294275e+01    4.123718e+00
  1.297450e+01    4.788791e+00
  1.300625e+01    5.948097e+00
  1.303800e+01    7.767015e+00
  1.306975e+01    1.022458e+01
  1.310150e+01    1.271394e+01
  1.313326e+01    1.491074e+01
  1.316501e+01    1.648355e+01
  1.319676e+01    1.582415e+01
  1.322851e+01    1.254305e+01
  1.326026e+01    9.212705e+00
  1.329201e+01    6.797046e+00
  1.332376e+01    5.347657e+00
  1.335551e+01    4.459538e+00
  1.338727e+01    3.877275e+00
  1.341902e+01    3.482698e+00
  1.345077e+01    3.262321e+00
  1.348252e+01    3.028284e+00
  1.351427e+01    2.937314e+00
  1.354602e+01    2.821622e+00
  1.357777e+01    2.719368e+00
  1.360952e+01    2.713345e+00
  1.364127e+01    2.603715e+00
  1.367303e+01    2.602970e+00
  1.370478e+01    2.529290e+00
  1.373653e+01    2.547485e+00
  1.376828e+01    2.488769e+00
  1.380003e+01    2.470099e+00
  1.383178e+01    2.453470e+00
  1.386353e+01    2.414212e+00
  1.389528e+01    2.413889e+00
  1.392703e+01    2.391429e+00
  1.395879e+01    2.380636e+00
  1.399054e+01    2.401952e+00
  1.402229e+01    2.387916e+00
  1.405404e+01    2.357960e+00
  1.408579e+01    2.340908e+00
  1.411754e+01    2.319966e+00
  1.414929e+01    2.284666e+00
  1.418104e+01    2.287485e+00
  1.421279e+01    2.286294e+00
  1.424455e+01    2.289752e+00
  1.427630e+01    2.257389e+00
  1.430805e+01    2.254419e+00
  1.433980e+01    2.254087e+00
  1.437155e+01    2.258977e+00
  1.440330e+01    2.279071e+00
  1.443505e+01    2.228953e+00
  1.446680e+01    2.258890e+00
  1.449856e+01    2.232909e+00
  1.453031e+01    2.218318e+00
  1.456206e+01    2.241829e+00
  1.459381e+01    2.242811e+00
  1.462556e+01    2.233506e+00
  1.465731e+01    2.194528e+00
  1.468906e+01    2.242358e+00
  1.472081e+01    2.182517e+00
  1.475256e+01    2.222934e+00
  1.478432e+01    2.204856e+00
  1.481607e+01    2.243529e+00
  1.484782e+01    2.213382e+00
  1.487957e+01    2.224607e+00
  1.491132e+01    2.268359e+00
  1.494307e+01    2.252010e+00
  1.497482e+01    2.369722e+00
  1.500657e+01    2.441966e+00
  1.503832e+01    2.567877e+00
  1.507008e+01    2.778082e+00
  1.510183e+01    3.221920e+00
  1.513358e+01    3.757587e+00
  1.516533e+01    4.494596e+00
  1.519708e+01    5.180271e+00
  1.522883e+01    5.682481e+00
  1.526058e+01    5.869493e+00
  1.529233e+01    5.525727e+00
  1.532409e+01    4.740904e+00
  1.535584e+01    3.744070e+00
  1.538759e+01    3.176296e+00
  1.541934e+01    2.791440e+00
  1.545109e+01    2.530979e+00
  1.548284e+01    2.369491e+00
  1.551459e+01    2.295727e+00
  1.554634e+01    2.181189e+00
  1.557809e+01    2.125466e+00
  1.560985e+01    2.029418e+00
  1.564160e+01    2.072958e+00
  1.567335e+01    2.025997e+00
  1.570510e+01    2.005616e+00
  1.573685e+01    1.997001e+00
  1.576860e+01    1.995768e+00
  1.580035e+01    1.940176e+00
  1.583210e+01    1.961958e+00
  1.586385e+01    1.969608e+00
  1.589561e+01    1.899380e+00
  1.592736e+01    1.908212e+00
  1.595911e+01    1.887313e+00
  1.599086e+01    1.887821e+00
  1.602261e+01    1.913355e+00
  1.605436e+01    1.850721e+00
  1.608611e+01    1.861663e+00
  1.611786e+01    1.841805e+00
  1.614961e+01    1.814393e+00
  1.618137e+01    1.829774e+00
  1.621312e+01    1.795169e+00
  1.624487e+01    1.799244e+00
  1.627662e+01    1.871099e+00
  1.630837e+01    1.782778e+00
  1.634012e+01    1.806772e+00
  1.637187e+01    1.781481e+00
  1.640362e+01    1.832465e+00
  1.643538e+01    1.769431e+00
  1.646713e+01    1.761313e+00
  1.649888e+01    1.760636e+00
  1.653063e+01    1.773258e+00
  1.656238e+01    1.743961e+00
  1.659413e+01    1.726543e+00
  1.662588e+01    1.711558e+00
  1.665763e+01    1.745674e+00
  1.668938e+01    1.759275e+00
  1.672114e+01    1.753532e+00
  1.675289e+01    1.703842e+00
  1.678464e+01    1.721069e+00
  1.681639e+01    1.686111e+00
  1.684814e+01    1.685270e+00
  1.687989e+01    1.690836e+00
  1.691164e+01    1.709232e+00
  1.694339e+01    1.723226e+00
  1.697514e+01    1.699249e+00
  1.700690e+01    1.672686e+00
  1.703865e+01    1.634929e+00
  1.707040e+01    1.664080e+00
  1.710215e+01    1.659059e+00
  1.713390e+01    1.642999e+00
  1.716565e+01    1.640698e+00
  1.719740e+01    1.647760e+00
  1.722915e+01    1.662086e+00
  1.726091e+01    1.644309e+00
  1.729266e+01    1.645883e+00
  1.732441e+01    1.582210e+00
  1.735616e+01    1.642147e+00
  1.738791e+01    1.577839e+00
  1.741966e+01    1.614068e+00
  1.745141e+01    1.616596e+00
  1.748316e+01    1.571379e+00
  1.751491e+01    1.539101e+00
  1.754667e+01    1.575716e+00
  1.757842e+01    1.573248e+00
  1.761017e+01    1.582864e+00
  1.764192e+01    1.572858e+00
  1.767367e+01    1.568013e+00
  1.770542e+01    1.590201e+00
  1.773717e+01    1.549489e+00
  1.776892e+01    1.601194e+00
  1.780067e+01    1.521887e+00
  1.783243e+01    1.545535e+00
  1.786418e+01    1.550299e+00
  1.789593e+01    1.529166e+00
  1.792768e+01    1.524258e+00
  1.795943e+01    1.556514e+00
  1.799118e+01    1.539731e+00
  1.802293e+01    1.525669e+00
  1.805468e+01    1.523387e+00
  1.808643e+01    1.497763e+00
  1.811819e+01    1.522689e+00
  1.814994e+01    1.497058e+00
  1.818169e+01    1.446544e+00
  1.821344e+01    1.496446e+00
  1.824519e+01    1.482312e+00
  1.827694e+01    1.447286e+00
  1.830869e+01    1.472255e+00
  1.834044e+01    1.503287e+00
  1.837220e+01    1.444266e+00
  1.840395e+01    1.435388e+00
  1.843570e+01    1.432246e+00
  1.846745e+01    1.445113e+00
  1.849920e+01    1.443456e+00
  1.853095e+01    1.436481e+00
  1.856270e+01    1.413373e+00
  1.859445e+01    1.427254e+00
  1.862620e+01    1.458746e+00
  1.865796e+01    1.421703e+00
  1.868971e+01    1.412809e+00
  1.872146e+01    1.406915e+00
  1.875321e+01    1.391263e+00
  1.878496e+01    1.431409e+00
  1.881671e+01    1.434047e+00
  1.884846e+01    1.421632e+00
  1.888021e+01    1.411924e+00
  1.891196e+01    1.417563e+00
  1.894372e+01    1.396781e+00
  1.897547e+01    1.377158e+00
  1.900722e+01    1.376282e+00
  1.903897e+01    1.377550e+00
  1.907072e+01    1.367055e+00
  1.910247e+01    1.402699e+00
  1.913422e+01    1.398138e+00
  1.916597e+01    1.378852e+00
  1.919773e+01    1.351887e+00
  1.922948e+01    1.376761e+00
  1.926123e+01    1.372420e+00
  1.929298e+01    1.375860e+00
  1.932473e+01    1.322243e+00
  1.935648e+01    1.366473e+00
  1.938823e+01    1.347746e+00
  1.941998e+01    1.327699e+00
  1.945173e+01    1.365050e+00
  1.948349e+01    1.353597e+00
  1.951524e+01    1.328808e+00
  1.954699e+01    1.328067e+00
  1.957874e+01    1.329988e+00
  1.961049e+01    1.310468e+00
  1.964224e+01    1.314397e+00
  1.967399e+01    1.305395e+00
  1.970574e+01    1.312326e+00
  1.973749e+01    1.295811e+00
  1.976925e+01    1.307653e+00
  1.980100e+01    1.283423e+00
  1.983275e+01    1.317601e+00
  1.986450e+01    1.301203e+00
  1.989625e+01    1.284555e+00
  1.992800e+01    1.306177e+00
  1.995975e+01    1.286381e+00
  1.999150e+01    1.288765e+00
  2.002325e+01    1.300658e+00
  2.005501e+01    1.277557e+00
  2.008676e+01    1.283279e+00
  2.011851e+01    1.265013e+00
  2.015026e+01    1.257761e+00
  2.018201e+01    1.260089e+00
  2.021376e+01    1.266192e+00
  2.024551e+01    1.265020e+00
  2.027726e+01    1.225541e+00
  2.030902e+01    1.245370e+00
  2.034077e+01    1.235009e+00
  2.037252e+01    1.251828e+00
  2.040427e+01    1.257130e+00
  2.043602e+01    1.257561e+00
  2.046777e+01    1.275366e+00
  2.049952e+01    1.250032e+00
  2.053127e+01    1.239813e+00
  2.056302e+01    1.227667e+00
  2.059478e+01    1.243652e+00
  2.062653e+01    1.263037e+00
  2.065828e+01    1.256264e+00
  2.069003e+01    1.202587e+00
  2.072178e+01    1.235977e+00
  2.075353e+01    1.214461e+00
  2.078528e+01    1.214793e+00
  2.081703e+01    1.220857e+00
  2.084878e+01    1.256101e+00
  2.088054e+01    1.234949e+00
  2.091229e+01    1.223274e+00
  2.094404e+01    1.219101e+00
  2.097579e+01    1.239515e+00
  2.100754e+01    1.227784e+00
  2.103929e+01    1.201138e+00
  2.107104e+01    1.235588e+00
  2.110279e+01    1.230024e+00
  2.113455e+01    1.217265e+00
  2.116630e+01    1.207344e+00
  2.119805e+01    1.243188e+00
  2.122980e+01    1.257107e+00
  2.126155e+01    1.221417e+00
  2.129330e+01    1.285850e+00
  2.132505e+01    1.267450e+00
  2.135680e+01    1.318701e+00
  2.138855e+01    1.329492e+00
  2.142031e+01    1.311066e+00
  2.145206e+01    1.369048e+00
  2.148381e+01    1.414998e+00
  2.151556e+01    1.432284e+00
  2.154731e+01    1.515984e+00
  2.157906e+01    1.611733e+00
  2.161081e+01    1.755963e+00
  2.164256e+01    1.984425e+00
  2.167431e+01    2.255051e+00
  2.170607e+01    2.790277e+00
  2.173782e+01    3.508388e+00
  2.176957e+01    4.610013e+00
  2.180132e+01    5.836247e+00
  2.183307e+01    7.203028e+00
  2.186482e+01    8.456816e+00
  2.189657e+01    8.980737e+00
  2.192832e+01    8.313700e+00
  2.196007e+01    6.672239e+00
  2.199183e+01    4.913068e+00
  2.202358e+01    3.628411e+00
  2.205533e+01    2.816227e+00
  2.208708e+01    2.351794e+00
  2.211883e+01    1.997744e+00
  2.215058e+01    1.808407e+00
  2.218233e+01    1.596824e+00
  2.221408e+01    1.473263e+00
  2.224584e+01    1.428320e+00
  2.227759e+01    1.344654e+00
  2.230934e+01    1.287711e+00
  2.234109e+01    1.273285e+00
  2.237284e+01    1.261727e+00
  2.240459e+01    1.214073e+00
  2.243634e+01    1.199739e+00
  2.246809e+01    1.157317e+00
  2.249984e+01    1.167294e+00
  2.253160e+01    1.136819e+00
  2.256335e+01    1.117707e+00
  2.259510e+01    1.134134e+00
  2.262685e+01    1.102584e+00
  2.265860e+01    1.098577e+00
  2.269035e+01    1.107534e+00
  2.272210e+01    1.064226e+00
  2.275385e+01    1.071011e+00
  2.278560e+01    1.050226e+00
  2.281736e+01    1.072264e+00
  2.284911e+01    1.020440e+00
  2.288086e+01    1.054856e+00
  2.291261e+01    1.047098e+00
  2.294436e+01    1.030400e+00
  2.297611e+01    1.049822e+00
  2.300786e+01    1.022235e+00
  2.303961e+01    1.035470e+00
  2.307137e+01    1.013089e+00
  2.310312e+01    9.868783e-01
  2.313487e+01    9.909171e-01
  2.316662e+01    1.000990e+00
  2.319837e+01    9.937708e-01
  2.323012e+01    9.887435e-01
  2.326187e+01    9.942306e-01
  2.329362e+01    9.934667e-01
  2.332537e+01    9.616128e-01
  2.335713e+01    9.667086e-01
  2.338888e+01    9.755600e-01
  2.342063e+01    9.672974e-01
  2.345238e+01    9.592776e-01
  2.348413e+01    9.713489e-01
  2.351588e+01    9.755855e-01
  2.354763e+01    9.729406e-01
  2.357938e+01    9.561216e-01
  2.361113e+01    9.662812e-01
  2.364289e+01    9.539596e-01
  2.367464e+01    9.475371e-01
  2.370639e+01    9.390306e-01
  2.373814e+01    9.226826e-01
  2.376989e+01    9.339490e-01
  2.380164e+01    9.115537e-01
  2.383339e+01    9.349402e-01
  2.386514e+01    9.169036e-01
  2.389689e+01    9.259828e-01
  2.392865e+01    8.903210e-01
  2.396040e+01    9.002050e-01
  2.399215e+01    9.215848e-01
  2.402390e+01    8.922360e-01
  2.405565e+01    8.950878e-01
  2.408740e+01    8.716965e-01
  2.411915e+01    8.932725e-01
  2.415090e+01    8.956985e-01
  2.418266e+01    9.001349e-01
  2.421441e+01    8.742456e-01
  2.424616e+01    8.768957e-01
  2.427791e+01    9.091026e-01
  2.430966e+01    8.855640e-01
  2.434141e+01    8.897448e-01
  2.437316e+01    9.119138e-01
  2.440491e+01    9.036958e-01
  2.443666e+01    8.879005e-01
  2.446842e+01    8.786067e-01
  2.450017e+01    9.090241e-01
  2.453192e+01    8.749517e-01
  2.456367e+01    8.906522e-01
  2.459542e+01    8.869621e-01
  2.462717e+01    8.846988e-01
  2.465892e+01    8.675095e-01
  2.469067e+01    8.890029e-01
  2.472242e+01    9.010152e-01
  2.475418e+01    9.186807e-01
  2.478593e+01    8.854773e-01
  2.481768e+01    9.019004e-01
  2.484943e+01    9.113078e-01
  2.488118e+01    9.167311e-01
  2.491293e+01    8.960561e-01
  2.494468e+01    8.920534e-01
  2.497643e+01    8.978723e-01
  2.500819e+01    9.056382e-01
  2.503994e+01    8.956190e-01
  2.507169e+01    9.044971e-01
  2.510344e+01    8.870729e-01
  2.513519e+01    9.147266e-01
  2.516694e+01    9.246273e-01
  2.519869e+01    9.297490e-01
  2.523044e+01    9.336355e-01
  2.526219e+01    9.384670e-01
  2.529395e+01    9.698031e-01
  2.532570e+01    9.577969e-01
  2.535745e+01    9.695237e-01
  2.538920e+01    9.992697e-01
  2.542095e+01    9.764835e-01
  2.545270e+01    1.028396e+00
  2.548445e+01    1.047170e+00
  2.551620e+01    1.086336e+00
  2.554795e+01    1.132692e+00
  2.557971e+01    1.164535e+00
  2.561146e+01    1.234617e+00
  2.564321e+01    1.310468e+00
  2.567496e+01    1.445043e+00
  2.570671e+01    1.605341e+00
  2.573846e+01    1.857677e+00
  2.577021e+01    2.238077e+00
  2.580196e+01    2.806213e+00
  2.583371e+01    3.578890e+00
  2.586547e+01    4.634776e+00
  2.589722e+01    5.827119e+00
  2.592897e+01    6.796832e+00
  2.596072e+01    7.194176e+00
  2.599247e+01    6.553795e+00
  2.602422e+01    5.302616e+00
  2.605597e+01    3.979860e+00
  2.608772e+01    3.018953e+00
  2.611948e+01    2.368993e+00
  2.615123e+01    1.952636e+00
  2.618298e+01    1.683137e+00
  2.621473e+01    1.524262e+00
  2.624648e+01    1.333469e+00
  2.627823e+01    1.257163e+00
  2.630998e+01    1.173908e+00
  2.634173e+01    1.141096e+00
  2.637348e+01    1.116823e+00
  2.640524e+01    1.040056e+00
  2.643699e+01    1.050085e+00
  2.646874e+01    1.006003e+00
  2.650049e+01    1.024742e+00
  2.653224e+01    1.005249e+00
  2.656399e+01    9.977834e-01
  2.659574e+01    9.888012e-01
  2.662749e+01    9.726808e-01
  2.665924e+01    9.849408e-01
  2.669100e+01    9.800358e-01
  2.672275e+01    9.658765e-01
  2.675450e+01    9.572322e-01
  2.678625e+01    9.772510e-01
  2.681800e+01    9.846811e-01
  2.684975e+01    9.890321e-01
  2.688150e+01    9.699309e-01
  2.691325e+01    1.015649e+00
  2.694501e+01    1.012976e+00
  2.697676e+01    1.062915e+00
  2.700851e+01    1.130263e+00
  2.704026e+01    1.198331e+00
  2.707201e+01    1.318321e+00
  2.710376e+01    1.512444e+00
  2.713551e+01    1.720967e+00
  2.716726e+01    1.945487e+00
  2.719901e+01    2.144600e+00
  2.723077e+01    2.206383e+00
  2.726252e+01    1.945003e+00
  2.729427e+01    1.688855e+00
  2.732602e+01    1.457153e+00
  2.735777e+01    1.273494e+00
  2.738952e+01    1.161400e+00
  2.742127e+01    1.091527e+00
  2.745302e+01    1.025384e+00
  2.748477e+01    9.898399e-01
  2.751653e+01    9.786392e-01
  2.754828e+01    9.660641e-01
  2.758003e+01    9.300364e-01
  2.761178e+01    9.238147e-01
  2.764353e+01    9.118888e-01
  2.767528e+01    9.094293e-01
  2.770703e+01    9.043569e-01
  2.773878e+01    9.278141e-01
  2.777054e+01    8.989979e-01
  2.780229e+01    8.929662e-01
  2.783404e+01    8.897560e-01
  2.786579e+01    9.132430e-01
  2.789754e+01    8.865528e-01
  2.792929e+01    8.659151e-01
  2.796104e+01    8.639242e-01
  2.799279e+01    8.759673e-01
  2.802454e+01    8.558078e-01
  2.805630e+01    8.729283e-01
  2.808805e+01    8.965859e-01
  2.811980e+01    8.775124e-01
  2.815155e+01    8.561229e-01
  2.818330e+01    8.719468e-01
  2.821505e+01    8.600010e-01
  2.824680e+01    8.722133e-01
  2.827855e+01    8.591087e-01
  2.831030e+01    8.586912e-01
  2.834206e+01    8.379372e-01
  2.837381e+01    8.618886e-01
  2.840556e+01    8.262205e-01
  2.843731e+01    8.326414e-01
  2.846906e+01    8.620988e-01
  2.850081e+01    8.608863e-01
  2.853256e+01    8.357466e-01
  2.856431e+01    8.318042e-01
  2.859606e+01    8.392422e-01
  2.862782e+01    8.082904e-01
  2.865957e+01    8.357086e-01
  2.869132e+01    8.337921e-01
  2.872307e+01    8.485178e-01
  2.875482e+01    8.168570e-01
  2.878657e+01    8.339201e-01
  2.881832e+01    8.403137e-01
  2.885007e+01    8.040903e-01
  2.888183e+01    8.290308e-01
  2.891358e+01    8.362840e-01
  2.894533e+01    8.184922e-01
  2.897708e+01    8.085181e-01
  2.900883e+01    8.174455e-01
  2.904058e+01    8.229403e-01
  2.907233e+01    8.220294e-01
  2.910408e+01    8.354045e-01
  2.913583e+01    7.965294e-01
  2.916759e+01    8.091403e-01
  2.919934e+01    8.077667e-01
  2.923109e+01    7.959073e-01
  2.926284e+01    8.143629e-01
  2.929459e+01    8.254431e-01
  2.932634e+01    8.055820e-01
  2.935809e+01    8.060056e-01
  2.938984e+01    8.200030e-01
  2.942159e+01    8.010378e-01
  2.945335e+01    8.186160e-01
  2.948510e+01    8.131313e-01
  2.951685e+01    8.005737e-01
  2.954860e+01    7.995375e-01
  2.958035e+01    8.092345e-01
  2.961210e+01    7.901796e-01
  2.964385e+01    8.143275e-01
  2.967560e+01    7.867616e-01
  2.970736e+01    7.868014e-01
  2.973911e+01    8.046708e-01
  2.977086e+01    7.994415e-01
  2.980261e+01    7.958231e-01
  2.983436e+01    8.105639e-01
  2.986611e+01    8.254579e-01
  2.989786e+01    7.655210e-01
  2.992961e+01    7.850421e-01
  2.996136e+01    7.930496e-01
  2.999312e+01    8.143535e-01
  3.002487e+01    8.085790e-01
  3.005662e+01    8.317762e-01
  3.008837e+01    8.005800e-01
  3.012012e+01    8.044811e-01
  3.015187e+01    7.761023e-01
  3.018362e+01    7.782177e-01
  3.021537e+01    7.810338e-01
  3.024712e+01    7.856512e-01
  3.027888e+01    7.957776e-01
  3.031063e+01    7.913992e-01
  3.034238e+01    7.799298e-01
  3.037413e+01    8.063304e-01
  3.040588e+01    7.819332e-01
  3.043763e+01    7.989631e-01
  3.046938e+01    7.793019e-01
  3.050113e+01    7.885810e-01
  3.053288e+01    7.897632e-01
  3.056464e+01    8.009294e-01
  3.059639e+01    7.936445e-01
  3.062814e+01    7.869725e-01
  3.065989e+01    8.002186e-01
  3.069164e+01    7.861239e-01
  3.072339e+01    7.922802e-01
  3.075514e+01    7.764069e-01
  3.078689e+01    7.551067e-01
  3.081865e+01    7.864509e-01
  3.085040e+01    7.755817e-01
  3.088215e+01    7.825615e-01
  3.091390e+01    7.958460e-01
  3.094565e+01    8.054016e-01
  3.097740e+01    8.061273e-01
  3.100915e+01    8.059682e-01
  3.104090e+01    8.028269e-01
  3.107265e+01    8.206602e-01
  3.110441e+01    7.898918e-01
  3.113616e+01    8.008892e-01
  3.116791e+01    7.851748e-01
  3.119966e+01    7.782695e-01
  3.123141e+01    8.021879e-01
  3.126316e+01    8.173199e-01
  3.129491e+01    8.096761e-01
  3.132666e+01    7.881264e-01
  3.135841e+01    8.030209e-01
  3.139017e+01    7.815217e-01
  3.142192e+01    7.878240e-01
  3.145367e+01    8.148404e-01
  3.148542e+01    8.213724e-01
  3.151717e+01    8.291155e-01
  3.154892e+01    8.426245e-01
  3.158067e+01    8.525763e-01
  3.161242e+01    8.832343e-01
  3.164418e+01    9.236838e-01
  3.167593e+01    9.893471e-01
  3.170768e+01    1.012260e+00
  3.173943e+01    1.108880e+00
  3.177118e+01    1.250744e+00
  3.180293e+01    1.487891e+00
  3.183468e+01    1.704785e+00
  3.186643e+01    1.965429e+00
  3.189818e+01    2.144652e+00
  3.192994e+01    2.042902e+00
  3.196169e+01    1.817683e+00
  3.199344e+01    1.559613e+00
  3.202519e+01    1.322681e+00
  3.205694e+01    1.152137e+00
  3.208869e+01    1.029921e+00
  3.212044e+01    9.832906e-01
  3.215219e+01    9.041613e-01
  3.218394e+01    8.744787e-01
  3.221570e+01    8.527847e-01
  3.224745e+01    8.259428e-01
  3.227920e+01    8.216892e-01
  3.231095e+01    8.154541e-01
  3.234270e+01    8.189596e-01
  3.237445e+01    7.878403e-01
  3.240620e+01    7.809516e-01
  3.243795e+01    7.829435e-01
  3.246970e+01    7.693289e-01
  3.250146e+01    8.001621e-01
  3.253321e+01    7.662915e-01
  3.254908e+01    7.843276e-01