File: XRD/Reaction conditions/2024-07-27_003_Ru-CGO-ex_Reaction_dwell_000023_data_000171.dat
# == pyFAI calibration ==
# Distance Sample to Detector: 0.4 m
# PONI: 9.750e-02, 1.135e-01 m
# Rotations: -0.000175 0.000000 -0.000000 rad
#
# == Fit2d calibration ==
# Distance Sample-beamCenter: 400.000 mm
# Center: x=1514.000, y=1300.000 pix
# Tilt: 0.010 deg  TiltPlanRot: 0.010 deg
#
# Detector Detector	 Spline= None	 PixelSize= 7.500e-05, 7.500e-05 m
#    Detector has a mask: False
#    Detector has a dark current: False
#    detector has a flat field: False
#
# Wavelength: 6.888e-11 m
# Mask applied: user provided
# Dark current applied: False
# Flat field applied: False
# Polarization factor: 0.99
# Normalization factor: 1.0
# --> /home/myspot/data/2024_07_Rosario/Ru-CGO-ex/2024-07-27_003_Ru-CGO-ex_Reaction_dwell_000023_data_000171.dat
#       q_nm^-1             I
  2.003187e-02    1.424646e-01
  5.178302e-02    4.717292e-02
  8.353417e-02    6.532080e-02
  1.152853e-01    8.845735e-02
  1.470365e-01    4.153555e-02
  1.787876e-01    5.478529e-03
  2.105388e-01    4.883075e-02
  2.422899e-01    2.542928e-02
  2.740411e-01    5.944118e-02
  3.057922e-01    6.765378e-02
  3.375433e-01    6.186704e-02
  3.692945e-01    2.171211e-02
  4.010456e-01    4.488025e-02
  4.327968e-01    3.473618e-02
  4.645479e-01    6.317138e-02
  4.962991e-01    3.865131e-02
  5.280502e-01    4.973872e-02
  5.598014e-01    2.484301e-02
  5.915525e-01    2.966407e-02
  6.233037e-01    1.314933e-02
  6.550548e-01    3.264739e-02
  6.868060e-01    4.827653e-02
  7.185571e-01    3.683054e-02
  7.503083e-01    6.180444e-02
  7.820594e-01    1.146976e-01
  8.138106e-01    2.216333e-01
  8.455617e-01    2.858678e-01
  8.773129e-01    4.837797e-01
  9.090640e-01    6.676390e-01
  9.408152e-01    9.224254e-01
  9.725663e-01    9.619691e-01
  1.004317e+00    1.097565e+00
  1.036069e+00    1.353010e+00
  1.067820e+00    1.567418e+00
  1.099571e+00    1.615560e+00
  1.131322e+00    1.595959e+00
  1.163073e+00    1.617723e+00
  1.194824e+00    1.679158e+00
  1.226575e+00    2.242682e+00
  1.258327e+00    2.472578e+00
  1.290078e+00    2.513914e+00
  1.321829e+00    2.613066e+00
  1.353580e+00    2.870797e+00
  1.385331e+00    2.785720e+00
  1.417082e+00    2.937344e+00
  1.448834e+00    3.059729e+00
  1.480585e+00    2.932476e+00
  1.512336e+00    3.055579e+00
  1.544087e+00    3.035933e+00
  1.575838e+00    3.136845e+00
  1.607589e+00    3.114697e+00
  1.639340e+00    3.228156e+00
  1.671092e+00    3.127673e+00
  1.702843e+00    2.989956e+00
  1.734594e+00    3.037628e+00
  1.766345e+00    3.074472e+00
  1.798096e+00    3.073745e+00
  1.829847e+00    2.972421e+00
  1.861598e+00    3.041118e+00
  1.893350e+00    2.976871e+00
  1.925101e+00    3.044243e+00
  1.956852e+00    2.890606e+00
  1.988603e+00    3.131198e+00
  2.020354e+00    2.885041e+00
  2.052105e+00    3.023984e+00
  2.083856e+00    3.107467e+00
  2.115608e+00    2.983768e+00
  2.147359e+00    3.084590e+00
  2.179110e+00    2.937701e+00
  2.210861e+00    3.120070e+00
  2.242612e+00    3.059160e+00
  2.274363e+00    2.995102e+00
  2.306115e+00    3.053829e+00
  2.337866e+00    3.073010e+00
  2.369617e+00    3.203156e+00
  2.401368e+00    3.062924e+00
  2.433119e+00    3.032372e+00
  2.464870e+00    3.103955e+00
  2.496621e+00    3.059098e+00
  2.528373e+00    3.181997e+00
  2.560124e+00    3.155999e+00
  2.591875e+00    3.074147e+00
  2.623626e+00    3.240771e+00
  2.655377e+00    3.230949e+00
  2.687128e+00    3.127502e+00
  2.718879e+00    3.211306e+00
  2.750631e+00    3.286253e+00
  2.782382e+00    3.171505e+00
  2.814133e+00    3.293362e+00
  2.845884e+00    3.241433e+00
  2.877635e+00    3.228090e+00
  2.909386e+00    3.292110e+00
  2.941137e+00    3.186199e+00
  2.972889e+00    3.266080e+00
  3.004640e+00    3.273201e+00
  3.036391e+00    3.278171e+00
  3.068142e+00    3.271392e+00
  3.099893e+00    3.329702e+00
  3.131644e+00    3.365315e+00
  3.163395e+00    3.277843e+00
  3.195147e+00    3.386162e+00
  3.226898e+00    3.307125e+00
  3.258649e+00    3.440989e+00
  3.290400e+00    3.337212e+00
  3.322151e+00    3.312027e+00
  3.353902e+00    3.386494e+00
  3.385654e+00    3.443517e+00
  3.417405e+00    3.365834e+00
  3.449156e+00    3.422033e+00
  3.480907e+00    3.337075e+00
  3.512658e+00    3.412008e+00
  3.544409e+00    3.440381e+00
  3.576160e+00    3.384703e+00
  3.607912e+00    3.490120e+00
  3.639663e+00    3.471803e+00
  3.671414e+00    3.433712e+00
  3.703165e+00    3.490476e+00
  3.734916e+00    3.377522e+00
  3.766667e+00    3.427353e+00
  3.798418e+00    3.460756e+00
  3.830170e+00    3.455964e+00
  3.861921e+00    3.450507e+00
  3.893672e+00    3.431508e+00
  3.925423e+00    3.548362e+00
  3.957174e+00    3.436898e+00
  3.988925e+00    3.501482e+00
  4.020676e+00    3.466892e+00
  4.052428e+00    3.582481e+00
  4.084179e+00    3.511385e+00
  4.115930e+00    3.471729e+00
  4.147681e+00    3.452023e+00
  4.179432e+00    3.514784e+00
  4.211183e+00    3.529740e+00
  4.242935e+00    3.558206e+00
  4.274686e+00    3.541929e+00
  4.306437e+00    3.575774e+00
  4.338188e+00    3.486104e+00
  4.369939e+00    3.407069e+00
  4.401690e+00    3.529991e+00
  4.433441e+00    3.549483e+00
  4.465193e+00    3.549133e+00
  4.496944e+00    3.529356e+00
  4.528695e+00    3.457351e+00
  4.560446e+00    3.603108e+00
  4.592197e+00    3.537634e+00
  4.623948e+00    3.527161e+00
  4.655699e+00    3.583313e+00
  4.687451e+00    3.494092e+00
  4.719202e+00    3.504515e+00
  4.750953e+00    3.653027e+00
  4.782704e+00    3.641695e+00
  4.814455e+00    3.558547e+00
  4.846206e+00    3.671808e+00
  4.877957e+00    3.636900e+00
  4.909709e+00    3.598305e+00
  4.941460e+00    3.656991e+00
  4.973211e+00    3.584673e+00
  5.004962e+00    3.638896e+00
  5.036713e+00    3.637939e+00
  5.068464e+00    3.587292e+00
  5.100216e+00    3.616476e+00
  5.131967e+00    3.664413e+00
  5.163718e+00    3.619822e+00
  5.195469e+00    3.663276e+00
  5.227220e+00    3.607948e+00
  5.258971e+00    3.549101e+00
  5.290722e+00    3.636858e+00
  5.322474e+00    3.576402e+00
  5.354225e+00    3.637381e+00
  5.385976e+00    3.608343e+00
  5.417727e+00    3.632180e+00
  5.449478e+00    3.539213e+00
  5.481229e+00    3.585520e+00
  5.512980e+00    3.581947e+00
  5.544732e+00    3.586741e+00
  5.576483e+00    3.530065e+00
  5.608234e+00    3.598351e+00
  5.639985e+00    3.515887e+00
  5.671736e+00    3.557607e+00
  5.703487e+00    3.573424e+00
  5.735238e+00    3.560342e+00
  5.766990e+00    3.514272e+00
  5.798741e+00    3.612522e+00
  5.830492e+00    3.514865e+00
  5.862243e+00    3.584147e+00
  5.893994e+00    3.487956e+00
  5.925745e+00    3.460171e+00
  5.957497e+00    3.451244e+00
  5.989248e+00    3.545837e+00
  6.020999e+00    3.397631e+00
  6.052750e+00    3.401566e+00
  6.084501e+00    3.565731e+00
  6.116252e+00    3.552080e+00
  6.148003e+00    3.582014e+00
  6.179755e+00    3.474340e+00
  6.211506e+00    3.591747e+00
  6.243257e+00    3.531156e+00
  6.275008e+00    3.415579e+00
  6.306759e+00    3.606029e+00
  6.338510e+00    3.594881e+00
  6.370261e+00    3.454845e+00
  6.402013e+00    3.535664e+00
  6.433764e+00    3.575007e+00
  6.465515e+00    3.539886e+00
  6.497266e+00    3.523088e+00
  6.529017e+00    3.557861e+00
  6.560768e+00    3.516662e+00
  6.592519e+00    3.501289e+00
  6.624271e+00    3.504868e+00
  6.656022e+00    3.485084e+00
  6.687773e+00    3.460312e+00
  6.719524e+00    3.593380e+00
  6.751275e+00    3.516134e+00
  6.783026e+00    3.502109e+00
  6.814777e+00    3.416545e+00
  6.846529e+00    3.506424e+00
  6.878280e+00    3.478392e+00
  6.910031e+00    3.479697e+00
  6.941782e+00    3.540380e+00
  6.973533e+00    3.485718e+00
  7.005284e+00    3.393777e+00
  7.037036e+00    3.541984e+00
  7.068787e+00    3.471761e+00
  7.100538e+00    3.516761e+00
  7.132289e+00    3.518765e+00
  7.164040e+00    3.375279e+00
  7.195791e+00    3.458533e+00
  7.227542e+00    3.474360e+00
  7.259294e+00    3.420621e+00
  7.291045e+00    3.465303e+00
  7.322796e+00    3.424509e+00
  7.354547e+00    3.467951e+00
  7.386298e+00    3.463272e+00
  7.418049e+00    3.373956e+00
  7.449800e+00    3.384624e+00
  7.481552e+00    3.456187e+00
  7.513303e+00    3.437675e+00
  7.545054e+00    3.430339e+00
  7.576805e+00    3.428784e+00
  7.608556e+00    3.444918e+00
  7.640307e+00    3.434755e+00
  7.672058e+00    3.448093e+00
  7.703810e+00    3.376336e+00
  7.735561e+00    3.420627e+00
  7.767312e+00    3.400681e+00
  7.799063e+00    3.395108e+00
  7.830814e+00    3.442224e+00
  7.862565e+00    3.417409e+00
  7.894317e+00    3.376230e+00
  7.926068e+00    3.334612e+00
  7.957819e+00    3.466568e+00
  7.989570e+00    3.415273e+00
  8.021321e+00    3.373050e+00
  8.053072e+00    3.394798e+00
  8.084823e+00    3.380559e+00
  8.116575e+00    3.320382e+00
  8.148326e+00    3.426598e+00
  8.180077e+00    3.408236e+00
  8.211828e+00    3.504455e+00
  8.243579e+00    3.407748e+00
  8.275330e+00    3.352201e+00
  8.307081e+00    3.421945e+00
  8.338833e+00    3.350476e+00
  8.370584e+00    3.395983e+00
  8.402335e+00    3.371800e+00
  8.434086e+00    3.348292e+00
  8.465837e+00    3.396950e+00
  8.497588e+00    3.397622e+00
  8.529339e+00    3.382385e+00
  8.561091e+00    3.279241e+00
  8.592842e+00    3.284720e+00
  8.624593e+00    3.259090e+00
  8.656344e+00    3.300223e+00
  8.688095e+00    3.336940e+00
  8.719846e+00    3.286592e+00
  8.751598e+00    3.251293e+00
  8.783349e+00    3.286487e+00
  8.815100e+00    3.355541e+00
  8.846851e+00    3.258217e+00
  8.878602e+00    3.230308e+00
  8.910353e+00    3.281926e+00
  8.942104e+00    3.296105e+00
  8.973856e+00    3.252720e+00
  9.005607e+00    3.256395e+00
  9.037358e+00    3.263054e+00
  9.069109e+00    3.231033e+00
  9.100860e+00    3.274020e+00
  9.132611e+00    3.214726e+00
  9.164362e+00    3.191576e+00
  9.196114e+00    3.158332e+00
  9.227865e+00    3.223158e+00
  9.259616e+00    3.229460e+00
  9.291367e+00    3.105365e+00
  9.323118e+00    3.227925e+00
  9.354869e+00    3.248932e+00
  9.386620e+00    3.167009e+00
  9.418372e+00    3.242209e+00
  9.450123e+00    3.155577e+00
  9.481874e+00    3.225488e+00
  9.513625e+00    3.205067e+00
  9.545376e+00    3.164445e+00
  9.577127e+00    3.193595e+00
  9.608878e+00    3.214251e+00
  9.640630e+00    3.123440e+00
  9.672381e+00    3.113335e+00
  9.704132e+00    3.179868e+00
  9.735883e+00    3.148933e+00
  9.767634e+00    3.148208e+00
  9.799385e+00    3.123546e+00
  9.831137e+00    3.102552e+00
  9.862888e+00    3.136173e+00
  9.894639e+00    3.156953e+00
  9.926390e+00    3.003208e+00
  9.958141e+00    3.102303e+00
  9.989892e+00    3.105075e+00
  1.002164e+01    3.090954e+00
  1.005339e+01    3.071747e+00
  1.008515e+01    3.059429e+00
  1.011690e+01    3.060513e+00
  1.014865e+01    3.011021e+00
  1.018040e+01    3.019064e+00
  1.021215e+01    3.004539e+00
  1.024390e+01    3.066157e+00
  1.027565e+01    3.064031e+00
  1.030740e+01    3.008736e+00
  1.033915e+01    2.963213e+00
  1.037091e+01    2.988876e+00
  1.040266e+01    2.995546e+00
  1.043441e+01    2.973943e+00
  1.046616e+01    2.985560e+00
  1.049791e+01    2.964139e+00
  1.052966e+01    2.978918e+00
  1.056141e+01    2.942253e+00
  1.059316e+01    2.992626e+00
  1.062492e+01    2.970533e+00
  1.065667e+01    2.973641e+00
  1.068842e+01    2.910436e+00
  1.072017e+01    2.858489e+00
  1.075192e+01    2.928756e+00
  1.078367e+01    2.890523e+00
  1.081542e+01    2.945875e+00
  1.084717e+01    2.933856e+00
  1.087892e+01    2.915635e+00
  1.091068e+01    2.862897e+00
  1.094243e+01    2.946974e+00
  1.097418e+01    2.913555e+00
  1.100593e+01    2.854080e+00
  1.103768e+01    2.892407e+00
  1.106943e+01    2.862899e+00
  1.110118e+01    2.869811e+00
  1.113293e+01    2.872710e+00
  1.116468e+01    2.907062e+00
  1.119644e+01    2.823143e+00
  1.122819e+01    2.883111e+00
  1.125994e+01    2.768373e+00
  1.129169e+01    2.721604e+00
  1.132344e+01    2.790759e+00
  1.135519e+01    2.769797e+00
  1.138694e+01    2.810260e+00
  1.141869e+01    2.796337e+00
  1.145045e+01    2.825342e+00
  1.148220e+01    2.793223e+00
  1.151395e+01    2.781310e+00
  1.154570e+01    2.752445e+00
  1.157745e+01    2.763187e+00
  1.160920e+01    2.742823e+00
  1.164095e+01    2.730145e+00
  1.167270e+01    2.752813e+00
  1.170445e+01    2.754781e+00
  1.173621e+01    2.714345e+00
  1.176796e+01    2.678390e+00
  1.179971e+01    2.691223e+00
  1.183146e+01    2.734495e+00
  1.186321e+01    2.683475e+00
  1.189496e+01    2.684906e+00
  1.192671e+01    2.735765e+00
  1.195846e+01    2.714240e+00
  1.199021e+01    2.658796e+00
  1.202197e+01    2.677910e+00
  1.205372e+01    2.677064e+00
  1.208547e+01    2.695239e+00
  1.211722e+01    2.686304e+00
  1.214897e+01    2.633271e+00
  1.218072e+01    2.695552e+00
  1.221247e+01    2.686722e+00
  1.224422e+01    2.684306e+00
  1.227597e+01    2.662038e+00
  1.230773e+01    2.656599e+00
  1.233948e+01    2.633426e+00
  1.237123e+01    2.673221e+00
  1.240298e+01    2.693737e+00
  1.243473e+01    2.644774e+00
  1.246648e+01    2.653254e+00
  1.249823e+01    2.694219e+00
  1.252998e+01    2.689032e+00
  1.256174e+01    2.669894e+00
  1.259349e+01    2.672470e+00
  1.262524e+01    2.703276e+00
  1.265699e+01    2.725654e+00
  1.268874e+01    2.774749e+00
  1.272049e+01    2.820385e+00
  1.275224e+01    2.884420e+00
  1.278399e+01    2.894343e+00
  1.281574e+01    2.976539e+00
  1.284750e+01    3.081401e+00
  1.287925e+01    3.307523e+00
  1.291100e+01    3.659885e+00
  1.294275e+01    4.017936e+00
  1.297450e+01    4.693626e+00
  1.300625e+01    5.799527e+00
  1.303800e+01    7.588505e+00
  1.306975e+01    1.008964e+01
  1.310150e+01    1.260390e+01
  1.313326e+01    1.461793e+01
  1.316501e+01    1.609676e+01
  1.319676e+01    1.538620e+01
  1.322851e+01    1.223595e+01
  1.326026e+01    8.971566e+00
  1.329201e+01    6.658477e+00
  1.332376e+01    5.303886e+00
  1.335551e+01    4.391738e+00
  1.338727e+01    3.759155e+00
  1.341902e+01    3.435869e+00
  1.345077e+01    3.185634e+00
  1.348252e+01    2.979860e+00
  1.351427e+01    2.895193e+00
  1.354602e+01    2.824483e+00
  1.357777e+01    2.688861e+00
  1.360952e+01    2.659169e+00
  1.364127e+01    2.572912e+00
  1.367303e+01    2.617776e+00
  1.370478e+01    2.524699e+00
  1.373653e+01    2.516037e+00
  1.376828e+01    2.449055e+00
  1.380003e+01    2.429042e+00
  1.383178e+01    2.425015e+00
  1.386353e+01    2.429562e+00
  1.389528e+01    2.396825e+00
  1.392703e+01    2.357924e+00
  1.395879e+01    2.342544e+00
  1.399054e+01    2.335204e+00
  1.402229e+01    2.280700e+00
  1.405404e+01    2.319135e+00
  1.408579e+01    2.306229e+00
  1.411754e+01    2.322078e+00
  1.414929e+01    2.232833e+00
  1.418104e+01    2.264094e+00
  1.421279e+01    2.282714e+00
  1.424455e+01    2.213066e+00
  1.427630e+01    2.254742e+00
  1.430805e+01    2.245739e+00
  1.433980e+01    2.265526e+00
  1.437155e+01    2.216662e+00
  1.440330e+01    2.222133e+00
  1.443505e+01    2.225798e+00
  1.446680e+01    2.198264e+00
  1.449856e+01    2.195535e+00
  1.453031e+01    2.250633e+00
  1.456206e+01    2.200783e+00
  1.459381e+01    2.191574e+00
  1.462556e+01    2.187758e+00
  1.465731e+01    2.144620e+00
  1.468906e+01    2.182220e+00
  1.472081e+01    2.179369e+00
  1.475256e+01    2.152781e+00
  1.478432e+01    2.198901e+00
  1.481607e+01    2.172393e+00
  1.484782e+01    2.215036e+00
  1.487957e+01    2.192803e+00
  1.491132e+01    2.247575e+00
  1.494307e+01    2.280881e+00
  1.497482e+01    2.319470e+00
  1.500657e+01    2.424238e+00
  1.503832e+01    2.611921e+00
  1.507008e+01    2.828509e+00
  1.510183e+01    3.134369e+00
  1.513358e+01    3.748726e+00
  1.516533e+01    4.412930e+00
  1.519708e+01    5.138370e+00
  1.522883e+01    5.567281e+00
  1.526058e+01    5.726086e+00
  1.529233e+01    5.410310e+00
  1.532409e+01    4.611439e+00
  1.535584e+01    3.703997e+00
  1.538759e+01    3.132131e+00
  1.541934e+01    2.758233e+00
  1.545109e+01    2.491076e+00
  1.548284e+01    2.325898e+00
  1.551459e+01    2.177907e+00
  1.554634e+01    2.143034e+00
  1.557809e+01    2.089944e+00
  1.560985e+01    2.032715e+00
  1.564160e+01    2.004842e+00
  1.567335e+01    1.997262e+00
  1.570510e+01    1.937265e+00
  1.573685e+01    1.962656e+00
  1.576860e+01    1.944767e+00
  1.580035e+01    1.931214e+00
  1.583210e+01    1.896305e+00
  1.586385e+01    1.908929e+00
  1.589561e+01    1.887335e+00
  1.592736e+01    1.872853e+00
  1.595911e+01    1.858772e+00
  1.599086e+01    1.834840e+00
  1.602261e+01    1.875062e+00
  1.605436e+01    1.825177e+00
  1.608611e+01    1.802358e+00
  1.611786e+01    1.848735e+00
  1.614961e+01    1.825888e+00
  1.618137e+01    1.809242e+00
  1.621312e+01    1.786811e+00
  1.624487e+01    1.776678e+00
  1.627662e+01    1.783234e+00
  1.630837e+01    1.782974e+00
  1.634012e+01    1.752515e+00
  1.637187e+01    1.788999e+00
  1.640362e+01    1.755024e+00
  1.643538e+01    1.744369e+00
  1.646713e+01    1.753359e+00
  1.649888e+01    1.721235e+00
  1.653063e+01    1.723117e+00
  1.656238e+01    1.708958e+00
  1.659413e+01    1.717867e+00
  1.662588e+01    1.706636e+00
  1.665763e+01    1.674816e+00
  1.668938e+01    1.714786e+00
  1.672114e+01    1.719993e+00
  1.675289e+01    1.690822e+00
  1.678464e+01    1.689657e+00
  1.681639e+01    1.723603e+00
  1.684814e+01    1.702423e+00
  1.687989e+01    1.638183e+00
  1.691164e+01    1.659750e+00
  1.694339e+01    1.640602e+00
  1.697514e+01    1.654279e+00
  1.700690e+01    1.653997e+00
  1.703865e+01    1.695832e+00
  1.707040e+01    1.641751e+00
  1.710215e+01    1.631593e+00
  1.713390e+01    1.627018e+00
  1.716565e+01    1.622352e+00
  1.719740e+01    1.629600e+00
  1.722915e+01    1.608923e+00
  1.726091e+01    1.599709e+00
  1.729266e+01    1.620157e+00
  1.732441e+01    1.622829e+00
  1.735616e+01    1.558549e+00
  1.738791e+01    1.576950e+00
  1.741966e+01    1.624119e+00
  1.745141e+01    1.556538e+00
  1.748316e+01    1.579167e+00
  1.751491e+01    1.572363e+00
  1.754667e+01    1.555796e+00
  1.757842e+01    1.522493e+00
  1.761017e+01    1.528687e+00
  1.764192e+01    1.553935e+00
  1.767367e+01    1.544684e+00
  1.770542e+01    1.531549e+00
  1.773717e+01    1.553696e+00
  1.776892e+01    1.542062e+00
  1.780067e+01    1.501276e+00
  1.783243e+01    1.535815e+00
  1.786418e+01    1.516001e+00
  1.789593e+01    1.519637e+00
  1.792768e+01    1.487127e+00
  1.795943e+01    1.519783e+00
  1.799118e+01    1.518479e+00
  1.802293e+01    1.467189e+00
  1.805468e+01    1.481013e+00
  1.808643e+01    1.488248e+00
  1.811819e+01    1.500363e+00
  1.814994e+01    1.462183e+00
  1.818169e+01    1.487109e+00
  1.821344e+01    1.471727e+00
  1.824519e+01    1.433314e+00
  1.827694e+01    1.465548e+00
  1.830869e+01    1.463077e+00
  1.834044e+01    1.465509e+00
  1.837220e+01    1.429493e+00
  1.840395e+01    1.438709e+00
  1.843570e+01    1.429876e+00
  1.846745e+01    1.446970e+00
  1.849920e+01    1.417403e+00
  1.853095e+01    1.424787e+00
  1.856270e+01    1.427534e+00
  1.859445e+01    1.391754e+00
  1.862620e+01    1.426397e+00
  1.865796e+01    1.415552e+00
  1.868971e+01    1.425193e+00
  1.872146e+01    1.396443e+00
  1.875321e+01    1.408095e+00
  1.878496e+01    1.390829e+00
  1.881671e+01    1.391449e+00
  1.884846e+01    1.395050e+00
  1.888021e+01    1.359644e+00
  1.891196e+01    1.364847e+00
  1.894372e+01    1.389279e+00
  1.897547e+01    1.354117e+00
  1.900722e+01    1.361022e+00
  1.903897e+01    1.354513e+00
  1.907072e+01    1.362763e+00
  1.910247e+01    1.354676e+00
  1.913422e+01    1.333219e+00
  1.916597e+01    1.345014e+00
  1.919773e+01    1.344756e+00
  1.922948e+01    1.355470e+00
  1.926123e+01    1.345902e+00
  1.929298e+01    1.349985e+00
  1.932473e+01    1.348421e+00
  1.935648e+01    1.316405e+00
  1.938823e+01    1.327380e+00
  1.941998e+01    1.317030e+00
  1.945173e+01    1.296745e+00
  1.948349e+01    1.322469e+00
  1.951524e+01    1.303382e+00
  1.954699e+01    1.297681e+00
  1.957874e+01    1.303221e+00
  1.961049e+01    1.304125e+00
  1.964224e+01    1.287611e+00
  1.967399e+01    1.311571e+00
  1.970574e+01    1.307098e+00
  1.973749e+01    1.283496e+00
  1.976925e+01    1.298654e+00
  1.980100e+01    1.302199e+00
  1.983275e+01    1.293009e+00
  1.986450e+01    1.293795e+00
  1.989625e+01    1.291848e+00
  1.992800e+01    1.280730e+00
  1.995975e+01    1.266537e+00
  1.999150e+01    1.287140e+00
  2.002325e+01    1.269174e+00
  2.005501e+01    1.247443e+00
  2.008676e+01    1.236046e+00
  2.011851e+01    1.276947e+00
  2.015026e+01    1.251543e+00
  2.018201e+01    1.249442e+00
  2.021376e+01    1.266197e+00
  2.024551e+01    1.245556e+00
  2.027726e+01    1.231165e+00
  2.030902e+01    1.223826e+00
  2.034077e+01    1.252821e+00
  2.037252e+01    1.214258e+00
  2.040427e+01    1.212067e+00
  2.043602e+01    1.242400e+00
  2.046777e+01    1.261891e+00
  2.049952e+01    1.246975e+00
  2.053127e+01    1.238016e+00
  2.056302e+01    1.227158e+00
  2.059478e+01    1.232470e+00
  2.062653e+01    1.216727e+00
  2.065828e+01    1.231064e+00
  2.069003e+01    1.236692e+00
  2.072178e+01    1.196515e+00
  2.075353e+01    1.219580e+00
  2.078528e+01    1.209341e+00
  2.081703e+01    1.203299e+00
  2.084878e+01    1.217856e+00
  2.088054e+01    1.206910e+00
  2.091229e+01    1.209357e+00
  2.094404e+01    1.234552e+00
  2.097579e+01    1.185131e+00
  2.100754e+01    1.213005e+00
  2.103929e+01    1.212544e+00
  2.107104e+01    1.190939e+00
  2.110279e+01    1.173383e+00
  2.113455e+01    1.204392e+00
  2.116630e+01    1.230517e+00
  2.119805e+01    1.232964e+00
  2.122980e+01    1.242682e+00
  2.126155e+01    1.247797e+00
  2.129330e+01    1.255748e+00
  2.132505e+01    1.247547e+00
  2.135680e+01    1.277569e+00
  2.138855e+01    1.286933e+00
  2.142031e+01    1.321247e+00
  2.145206e+01    1.345125e+00
  2.148381e+01    1.387566e+00
  2.151556e+01    1.433060e+00
  2.154731e+01    1.451168e+00
  2.157906e+01    1.584071e+00
  2.161081e+01    1.703293e+00
  2.164256e+01    1.934756e+00
  2.167431e+01    2.282402e+00
  2.170607e+01    2.751513e+00
  2.173782e+01    3.443297e+00
  2.176957e+01    4.523246e+00
  2.180132e+01    5.683175e+00
  2.183307e+01    7.097548e+00
  2.186482e+01    8.235754e+00
  2.189657e+01    8.755763e+00
  2.192832e+01    8.172625e+00
  2.196007e+01    6.545323e+00
  2.199183e+01    4.885060e+00
  2.202358e+01    3.598830e+00
  2.205533e+01    2.789565e+00
  2.208708e+01    2.333872e+00
  2.211883e+01    1.948920e+00
  2.215058e+01    1.764251e+00
  2.218233e+01    1.601714e+00
  2.221408e+01    1.445305e+00
  2.224584e+01    1.384836e+00
  2.227759e+01    1.328345e+00
  2.230934e+01    1.279795e+00
  2.234109e+01    1.244466e+00
  2.237284e+01    1.205507e+00
  2.240459e+01    1.199444e+00
  2.243634e+01    1.155009e+00
  2.246809e+01    1.159661e+00
  2.249984e+01    1.126588e+00
  2.253160e+01    1.129558e+00
  2.256335e+01    1.118633e+00
  2.259510e+01    1.080071e+00
  2.262685e+01    1.075851e+00
  2.265860e+01    1.088814e+00
  2.269035e+01    1.077836e+00
  2.272210e+01    1.065488e+00
  2.275385e+01    1.065739e+00
  2.278560e+01    1.060851e+00
  2.281736e+01    1.065409e+00
  2.284911e+01    1.014416e+00
  2.288086e+01    1.038322e+00
  2.291261e+01    1.033738e+00
  2.294436e+01    9.891615e-01
  2.297611e+01    1.008966e+00
  2.300786e+01    1.004180e+00
  2.303961e+01    1.003296e+00
  2.307137e+01    1.005939e+00
  2.310312e+01    9.871672e-01
  2.313487e+01    9.894609e-01
  2.316662e+01    9.894424e-01
  2.319837e+01    9.809488e-01
  2.323012e+01    9.884123e-01
  2.326187e+01    9.814994e-01
  2.329362e+01    9.804628e-01
  2.332537e+01    9.787071e-01
  2.335713e+01    9.820024e-01
  2.338888e+01    9.527971e-01
  2.342063e+01    9.564417e-01
  2.345238e+01    9.576494e-01
  2.348413e+01    9.675695e-01
  2.351588e+01    9.687605e-01
  2.354763e+01    9.352039e-01
  2.357938e+01    9.531049e-01
  2.361113e+01    9.407023e-01
  2.364289e+01    9.446361e-01
  2.367464e+01    9.210270e-01
  2.370639e+01    9.166664e-01
  2.373814e+01    9.090548e-01
  2.376989e+01    9.376172e-01
  2.380164e+01    9.241744e-01
  2.383339e+01    8.760921e-01
  2.386514e+01    8.833998e-01
  2.389689e+01    9.025028e-01
  2.392865e+01    9.132606e-01
  2.396040e+01    9.028773e-01
  2.399215e+01    8.912020e-01
  2.402390e+01    8.920581e-01
  2.405565e+01    8.969091e-01
  2.408740e+01    8.897756e-01
  2.411915e+01    8.755960e-01
  2.415090e+01    8.638943e-01
  2.418266e+01    8.822289e-01
  2.421441e+01    8.628242e-01
  2.424616e+01    8.725480e-01
  2.427791e+01    8.839033e-01
  2.430966e+01    8.716633e-01
  2.434141e+01    8.738914e-01
  2.437316e+01    8.590747e-01
  2.440491e+01    9.043127e-01
  2.443666e+01    8.832526e-01
  2.446842e+01    8.952823e-01
  2.450017e+01    8.962660e-01
  2.453192e+01    8.807294e-01
  2.456367e+01    8.819757e-01
  2.459542e+01    8.606802e-01
  2.462717e+01    9.014519e-01
  2.465892e+01    8.785979e-01
  2.469067e+01    8.965607e-01
  2.472242e+01    8.782063e-01
  2.475418e+01    8.836218e-01
  2.478593e+01    8.729225e-01
  2.481768e+01    8.752480e-01
  2.484943e+01    8.818082e-01
  2.488118e+01    8.812312e-01
  2.491293e+01    8.805044e-01
  2.494468e+01    8.824498e-01
  2.497643e+01    8.842717e-01
  2.500819e+01    8.955004e-01
  2.503994e+01    8.918988e-01
  2.507169e+01    9.068574e-01
  2.510344e+01    8.820102e-01
  2.513519e+01    8.966954e-01
  2.516694e+01    9.104069e-01
  2.519869e+01    9.198676e-01
  2.523044e+01    9.252084e-01
  2.526219e+01    9.241510e-01
  2.529395e+01    9.475973e-01
  2.532570e+01    9.339984e-01
  2.535745e+01    9.588451e-01
  2.538920e+01    9.563871e-01
  2.542095e+01    9.874592e-01
  2.545270e+01    1.028933e+00
  2.548445e+01    1.020602e+00
  2.551620e+01    1.079177e+00
  2.554795e+01    1.107792e+00
  2.557971e+01    1.164757e+00
  2.561146e+01    1.209210e+00
  2.564321e+01    1.256372e+00
  2.567496e+01    1.429989e+00
  2.570671e+01    1.557328e+00
  2.573846e+01    1.827253e+00
  2.577021e+01    2.212593e+00
  2.580196e+01    2.754108e+00
  2.583371e+01    3.537944e+00
  2.586547e+01    4.582234e+00
  2.589722e+01    5.645324e+00
  2.592897e+01    6.609196e+00
  2.596072e+01    7.078294e+00
  2.599247e+01    6.524289e+00
  2.602422e+01    5.242369e+00
  2.605597e+01    3.901555e+00
  2.608772e+01    2.998810e+00
  2.611948e+01    2.339426e+00
  2.615123e+01    1.953970e+00
  2.618298e+01    1.636733e+00
  2.621473e+01    1.489133e+00
  2.624648e+01    1.375965e+00
  2.627823e+01    1.237583e+00
  2.630998e+01    1.133416e+00
  2.634173e+01    1.098589e+00
  2.637348e+01    1.050349e+00
  2.640524e+01    1.047572e+00
  2.643699e+01    1.020929e+00
  2.646874e+01    9.984910e-01
  2.650049e+01    9.828676e-01
  2.653224e+01    9.768704e-01
  2.656399e+01    1.000960e+00
  2.659574e+01    9.610983e-01
  2.662749e+01    9.793315e-01
  2.665924e+01    9.734225e-01
  2.669100e+01    9.612683e-01
  2.672275e+01    9.470542e-01
  2.675450e+01    9.580419e-01
  2.678625e+01    9.261729e-01
  2.681800e+01    9.700908e-01
  2.684975e+01    9.895633e-01
  2.688150e+01    9.823816e-01
  2.691325e+01    9.686164e-01
  2.694501e+01    1.019305e+00
  2.697676e+01    1.046741e+00
  2.700851e+01    1.120350e+00
  2.704026e+01    1.181177e+00
  2.707201e+01    1.309595e+00
  2.710376e+01    1.479408e+00
  2.713551e+01    1.727827e+00
  2.716726e+01    1.942274e+00
  2.719901e+01    2.090579e+00
  2.723077e+01    2.128498e+00
  2.726252e+01    1.958696e+00
  2.729427e+01    1.673987e+00
  2.732602e+01    1.427756e+00
  2.735777e+01    1.291183e+00
  2.738952e+01    1.157829e+00
  2.742127e+01    1.074325e+00
  2.745302e+01    1.023002e+00
  2.748477e+01    9.839191e-01
  2.751653e+01    9.592423e-01
  2.754828e+01    9.352115e-01
  2.758003e+01    9.091446e-01
  2.761178e+01    9.288871e-01
  2.764353e+01    9.399542e-01
  2.767528e+01    8.991960e-01
  2.770703e+01    8.768268e-01
  2.773878e+01    8.939135e-01
  2.777054e+01    8.903702e-01
  2.780229e+01    8.860046e-01
  2.783404e+01    8.870255e-01
  2.786579e+01    8.664595e-01
  2.789754e+01    8.831288e-01
  2.792929e+01    8.389696e-01
  2.796104e+01    8.642585e-01
  2.799279e+01    8.598832e-01
  2.802454e+01    8.732268e-01
  2.805630e+01    8.281642e-01
  2.808805e+01    8.394141e-01
  2.811980e+01    8.433136e-01
  2.815155e+01    8.358224e-01
  2.818330e+01    8.707573e-01
  2.821505e+01    8.353583e-01
  2.824680e+01    8.694768e-01
  2.827855e+01    8.389741e-01
  2.831030e+01    8.330923e-01
  2.834206e+01    8.611307e-01
  2.837381e+01    8.497252e-01
  2.840556e+01    8.321937e-01
  2.843731e+01    8.301401e-01
  2.846906e+01    8.350365e-01
  2.850081e+01    8.258587e-01
  2.853256e+01    8.241053e-01
  2.856431e+01    8.243857e-01
  2.859606e+01    8.280885e-01
  2.862782e+01    8.271840e-01
  2.865957e+01    8.108236e-01
  2.869132e+01    8.234410e-01
  2.872307e+01    8.291746e-01
  2.875482e+01    8.182803e-01
  2.878657e+01    8.243291e-01
  2.881832e+01    8.182347e-01
  2.885007e+01    8.103031e-01
  2.888183e+01    8.066633e-01
  2.891358e+01    8.148028e-01
  2.894533e+01    8.027026e-01
  2.897708e+01    7.749568e-01
  2.900883e+01    8.133646e-01
  2.904058e+01    8.011218e-01
  2.907233e+01    8.083244e-01
  2.910408e+01    8.150975e-01
  2.913583e+01    8.171828e-01
  2.916759e+01    8.208649e-01
  2.919934e+01    8.185971e-01
  2.923109e+01    7.829166e-01
  2.926284e+01    7.954891e-01
  2.929459e+01    7.877862e-01
  2.932634e+01    8.046547e-01
  2.935809e+01    7.912695e-01
  2.938984e+01    7.943512e-01
  2.942159e+01    7.979675e-01
  2.945335e+01    7.863777e-01
  2.948510e+01    7.981672e-01
  2.951685e+01    7.796491e-01
  2.954860e+01    7.907721e-01
  2.958035e+01    8.013397e-01
  2.961210e+01    8.007461e-01
  2.964385e+01    8.063749e-01
  2.967560e+01    7.968310e-01
  2.970736e+01    7.798117e-01
  2.973911e+01    7.999319e-01
  2.977086e+01    7.803735e-01
  2.980261e+01    7.904205e-01
  2.983436e+01    8.064585e-01
  2.986611e+01    7.907239e-01
  2.989786e+01    7.854179e-01
  2.992961e+01    7.935750e-01
  2.996136e+01    8.032039e-01
  2.999312e+01    7.954786e-01
  3.002487e+01    7.845063e-01
  3.005662e+01    8.380627e-01
  3.008837e+01    8.135495e-01
  3.012012e+01    7.770854e-01
  3.015187e+01    7.766000e-01
  3.018362e+01    7.842063e-01
  3.021537e+01    7.735367e-01
  3.024712e+01    7.848985e-01
  3.027888e+01    7.683359e-01
  3.031063e+01    7.619296e-01
  3.034238e+01    7.840170e-01
  3.037413e+01    7.793445e-01
  3.040588e+01    7.948982e-01
  3.043763e+01    7.608805e-01
  3.046938e+01    7.618402e-01
  3.050113e+01    7.566664e-01
  3.053288e+01    7.630244e-01
  3.056464e+01    7.949715e-01
  3.059639e+01    7.964343e-01
  3.062814e+01    7.860304e-01
  3.065989e+01    7.682182e-01
  3.069164e+01    7.581976e-01
  3.072339e+01    7.714860e-01
  3.075514e+01    7.594810e-01
  3.078689e+01    7.873224e-01
  3.081865e+01    7.711627e-01
  3.085040e+01    7.787760e-01
  3.088215e+01    7.609850e-01
  3.091390e+01    7.736745e-01
  3.094565e+01    7.711464e-01
  3.097740e+01    7.723809e-01
  3.100915e+01    7.742296e-01
  3.104090e+01    7.666133e-01
  3.107265e+01    7.713658e-01
  3.110441e+01    7.702242e-01
  3.113616e+01    7.644377e-01
  3.116791e+01    7.732332e-01
  3.119966e+01    7.757092e-01
  3.123141e+01    8.002419e-01
  3.126316e+01    7.753631e-01
  3.129491e+01    8.240693e-01
  3.132666e+01    8.027446e-01
  3.135841e+01    7.915147e-01
  3.139017e+01    7.983634e-01
  3.142192e+01    7.907699e-01
  3.145367e+01    8.003488e-01
  3.148542e+01    7.901706e-01
  3.151717e+01    8.146173e-01
  3.154892e+01    8.345605e-01
  3.158067e+01    8.447004e-01
  3.161242e+01    8.957330e-01
  3.164418e+01    8.870256e-01
  3.167593e+01    9.509413e-01
  3.170768e+01    1.021283e+00
  3.173943e+01    1.116826e+00
  3.177118e+01    1.223367e+00
  3.180293e+01    1.429052e+00
  3.183468e+01    1.645514e+00
  3.186643e+01    1.945662e+00
  3.189818e+01    2.034679e+00
  3.192994e+01    2.039420e+00
  3.196169e+01    1.811716e+00
  3.199344e+01    1.512868e+00
  3.202519e+01    1.280629e+00
  3.205694e+01    1.145147e+00
  3.208869e+01    1.028435e+00
  3.212044e+01    9.949396e-01
  3.215219e+01    9.199083e-01
  3.218394e+01    8.523459e-01
  3.221570e+01    8.482057e-01
  3.224745e+01    8.160204e-01
  3.227920e+01    7.953296e-01
  3.231095e+01    7.955863e-01
  3.234270e+01    7.909947e-01
  3.237445e+01    7.916996e-01
  3.240620e+01    7.687146e-01
  3.243795e+01    7.760897e-01
  3.246970e+01    7.738281e-01
  3.250146e+01    7.612761e-01
  3.253321e+01    7.619551e-01
  3.254908e+01    7.915826e-01