File: XRD/Reaction conditions/2024-07-27_003_Ru-CGO-ex_Reaction_dwell_000023_data_000014.dat
# == pyFAI calibration ==
# Distance Sample to Detector: 0.4 m
# PONI: 9.750e-02, 1.135e-01 m
# Rotations: -0.000175 0.000000 -0.000000 rad
#
# == Fit2d calibration ==
# Distance Sample-beamCenter: 400.000 mm
# Center: x=1514.000, y=1300.000 pix
# Tilt: 0.010 deg  TiltPlanRot: 0.010 deg
#
# Detector Detector	 Spline= None	 PixelSize= 7.500e-05, 7.500e-05 m
#    Detector has a mask: False
#    Detector has a dark current: False
#    detector has a flat field: False
#
# Wavelength: 6.888e-11 m
# Mask applied: user provided
# Dark current applied: False
# Flat field applied: False
# Polarization factor: 0.99
# Normalization factor: 1.0
# --> /home/myspot/data/2024_07_Rosario/Ru-CGO-ex/2024-07-27_003_Ru-CGO-ex_Reaction_dwell_000023_data_000014.dat
#       q_nm^-1             I
  2.003187e-02    1.424646e-01
  5.178302e-02    2.670345e-02
  8.353417e-02    2.592751e-03
  1.152853e-01    1.577930e-02
  1.470365e-01    7.386756e-02
  1.787876e-01    2.893634e-02
  2.105388e-01    2.633847e-02
  2.422899e-01    5.164895e-02
  2.740411e-01    3.986143e-02
  3.057922e-01    4.815768e-02
  3.375433e-01    5.595166e-02
  3.692945e-01    4.781486e-02
  4.010456e-01    4.524104e-02
  4.327968e-01    4.267859e-02
  4.645479e-01    5.862499e-02
  4.962991e-01    5.213298e-02
  5.280502e-01    3.653328e-02
  5.598014e-01    4.349994e-02
  5.915525e-01    3.499507e-02
  6.233037e-01    3.449625e-02
  6.550548e-01    3.802543e-02
  6.868060e-01    3.183850e-02
  7.185571e-01    5.467466e-02
  7.503083e-01    6.374688e-02
  7.820594e-01    1.282369e-01
  8.138106e-01    2.534679e-01
  8.455617e-01    3.452858e-01
  8.773129e-01    5.665861e-01
  9.090640e-01    6.843738e-01
  9.408152e-01    7.911078e-01
  9.725663e-01    8.823918e-01
  1.004317e+00    1.077672e+00
  1.036069e+00    1.318394e+00
  1.067820e+00    1.395467e+00
  1.099571e+00    1.651867e+00
  1.131322e+00    1.609710e+00
  1.163073e+00    1.722517e+00
  1.194824e+00    1.794667e+00
  1.226575e+00    2.171300e+00
  1.258327e+00    2.530697e+00
  1.290078e+00    2.618681e+00
  1.321829e+00    2.667755e+00
  1.353580e+00    2.783068e+00
  1.385331e+00    2.874233e+00
  1.417082e+00    2.829982e+00
  1.448834e+00    2.979346e+00
  1.480585e+00    3.027440e+00
  1.512336e+00    3.077717e+00
  1.544087e+00    3.276749e+00
  1.575838e+00    3.189486e+00
  1.607589e+00    3.003786e+00
  1.639340e+00    3.184802e+00
  1.671092e+00    3.135727e+00
  1.702843e+00    3.230914e+00
  1.734594e+00    3.094765e+00
  1.766345e+00    3.008662e+00
  1.798096e+00    2.958667e+00
  1.829847e+00    3.142419e+00
  1.861598e+00    3.046106e+00
  1.893350e+00    3.063153e+00
  1.925101e+00    3.047105e+00
  1.956852e+00    3.031510e+00
  1.988603e+00    2.995576e+00
  2.020354e+00    3.122068e+00
  2.052105e+00    3.177746e+00
  2.083856e+00    3.064445e+00
  2.115608e+00    2.968191e+00
  2.147359e+00    3.013462e+00
  2.179110e+00    3.133750e+00
  2.210861e+00    3.144915e+00
  2.242612e+00    3.150012e+00
  2.274363e+00    3.227431e+00
  2.306115e+00    3.122608e+00
  2.337866e+00    3.214880e+00
  2.369617e+00    3.183333e+00
  2.401368e+00    3.224126e+00
  2.433119e+00    3.082804e+00
  2.464870e+00    3.296834e+00
  2.496621e+00    3.265582e+00
  2.528373e+00    3.170677e+00
  2.560124e+00    3.335209e+00
  2.591875e+00    3.225677e+00
  2.623626e+00    3.125248e+00
  2.655377e+00    3.104314e+00
  2.687128e+00    3.236518e+00
  2.718879e+00    3.205805e+00
  2.750631e+00    3.288861e+00
  2.782382e+00    3.298994e+00
  2.814133e+00    3.224664e+00
  2.845884e+00    3.282372e+00
  2.877635e+00    3.313860e+00
  2.909386e+00    3.280057e+00
  2.941137e+00    3.346988e+00
  2.972889e+00    3.255314e+00
  3.004640e+00    3.298662e+00
  3.036391e+00    3.289206e+00
  3.068142e+00    3.444387e+00
  3.099893e+00    3.360693e+00
  3.131644e+00    3.364345e+00
  3.163395e+00    3.445710e+00
  3.195147e+00    3.400333e+00
  3.226898e+00    3.493822e+00
  3.258649e+00    3.458516e+00
  3.290400e+00    3.352305e+00
  3.322151e+00    3.411449e+00
  3.353902e+00    3.471215e+00
  3.385654e+00    3.369231e+00
  3.417405e+00    3.444146e+00
  3.449156e+00    3.394891e+00
  3.480907e+00    3.537238e+00
  3.512658e+00    3.440311e+00
  3.544409e+00    3.498050e+00
  3.576160e+00    3.459833e+00
  3.607912e+00    3.463612e+00
  3.639663e+00    3.404154e+00
  3.671414e+00    3.522513e+00
  3.703165e+00    3.608379e+00
  3.734916e+00    3.420650e+00
  3.766667e+00    3.526528e+00
  3.798418e+00    3.474495e+00
  3.830170e+00    3.433635e+00
  3.861921e+00    3.554917e+00
  3.893672e+00    3.652254e+00
  3.925423e+00    3.521488e+00
  3.957174e+00    3.534218e+00
  3.988925e+00    3.449530e+00
  4.020676e+00    3.563596e+00
  4.052428e+00    3.578239e+00
  4.084179e+00    3.597652e+00
  4.115930e+00    3.630346e+00
  4.147681e+00    3.514836e+00
  4.179432e+00    3.528587e+00
  4.211183e+00    3.586789e+00
  4.242935e+00    3.692447e+00
  4.274686e+00    3.532686e+00
  4.306437e+00    3.590493e+00
  4.338188e+00    3.602840e+00
  4.369939e+00    3.652009e+00
  4.401690e+00    3.592664e+00
  4.433441e+00    3.538590e+00
  4.465193e+00    3.662412e+00
  4.496944e+00    3.548694e+00
  4.528695e+00    3.587810e+00
  4.560446e+00    3.695817e+00
  4.592197e+00    3.619062e+00
  4.623948e+00    3.657783e+00
  4.655699e+00    3.622003e+00
  4.687451e+00    3.573581e+00
  4.719202e+00    3.585949e+00
  4.750953e+00    3.715131e+00
  4.782704e+00    3.637374e+00
  4.814455e+00    3.672265e+00
  4.846206e+00    3.620103e+00
  4.877957e+00    3.548776e+00
  4.909709e+00    3.671299e+00
  4.941460e+00    3.703097e+00
  4.973211e+00    3.558629e+00
  5.004962e+00    3.707347e+00
  5.036713e+00    3.665523e+00
  5.068464e+00    3.618240e+00
  5.100216e+00    3.622352e+00
  5.131967e+00    3.748295e+00
  5.163718e+00    3.642310e+00
  5.195469e+00    3.687713e+00
  5.227220e+00    3.694919e+00
  5.258971e+00    3.548129e+00
  5.290722e+00    3.650830e+00
  5.322474e+00    3.737474e+00
  5.354225e+00    3.640598e+00
  5.385976e+00    3.603714e+00
  5.417727e+00    3.684475e+00
  5.449478e+00    3.596408e+00
  5.481229e+00    3.522443e+00
  5.512980e+00    3.579329e+00
  5.544732e+00    3.510098e+00
  5.576483e+00    3.577066e+00
  5.608234e+00    3.668064e+00
  5.639985e+00    3.562190e+00
  5.671736e+00    3.629810e+00
  5.703487e+00    3.608827e+00
  5.735238e+00    3.627687e+00
  5.766990e+00    3.517929e+00
  5.798741e+00    3.562608e+00
  5.830492e+00    3.584846e+00
  5.862243e+00    3.581317e+00
  5.893994e+00    3.583725e+00
  5.925745e+00    3.572067e+00
  5.957497e+00    3.508395e+00
  5.989248e+00    3.548904e+00
  6.020999e+00    3.655761e+00
  6.052750e+00    3.587343e+00
  6.084501e+00    3.541878e+00
  6.116252e+00    3.495532e+00
  6.148003e+00    3.558159e+00
  6.179755e+00    3.526036e+00
  6.211506e+00    3.540903e+00
  6.243257e+00    3.576321e+00
  6.275008e+00    3.589611e+00
  6.306759e+00    3.549220e+00
  6.338510e+00    3.616996e+00
  6.370261e+00    3.567881e+00
  6.402013e+00    3.661820e+00
  6.433764e+00    3.580488e+00
  6.465515e+00    3.559579e+00
  6.497266e+00    3.521543e+00
  6.529017e+00    3.498191e+00
  6.560768e+00    3.534520e+00
  6.592519e+00    3.572311e+00
  6.624271e+00    3.549767e+00
  6.656022e+00    3.636019e+00
  6.687773e+00    3.493068e+00
  6.719524e+00    3.533356e+00
  6.751275e+00    3.594223e+00
  6.783026e+00    3.546976e+00
  6.814777e+00    3.600975e+00
  6.846529e+00    3.522317e+00
  6.878280e+00    3.530082e+00
  6.910031e+00    3.526990e+00
  6.941782e+00    3.552873e+00
  6.973533e+00    3.575326e+00
  7.005284e+00    3.513156e+00
  7.037036e+00    3.498013e+00
  7.068787e+00    3.568718e+00
  7.100538e+00    3.506579e+00
  7.132289e+00    3.472321e+00
  7.164040e+00    3.579920e+00
  7.195791e+00    3.554705e+00
  7.227542e+00    3.517200e+00
  7.259294e+00    3.495163e+00
  7.291045e+00    3.620281e+00
  7.322796e+00    3.540905e+00
  7.354547e+00    3.500044e+00
  7.386298e+00    3.514450e+00
  7.418049e+00    3.490645e+00
  7.449800e+00    3.528877e+00
  7.481552e+00    3.501871e+00
  7.513303e+00    3.545532e+00
  7.545054e+00    3.420874e+00
  7.576805e+00    3.411000e+00
  7.608556e+00    3.493364e+00
  7.640307e+00    3.505906e+00
  7.672058e+00    3.462521e+00
  7.703810e+00    3.475102e+00
  7.735561e+00    3.454877e+00
  7.767312e+00    3.428715e+00
  7.799063e+00    3.477658e+00
  7.830814e+00    3.485297e+00
  7.862565e+00    3.456985e+00
  7.894317e+00    3.474011e+00
  7.926068e+00    3.441865e+00
  7.957819e+00    3.415794e+00
  7.989570e+00    3.471511e+00
  8.021321e+00    3.404573e+00
  8.053072e+00    3.391017e+00
  8.084823e+00    3.509265e+00
  8.116575e+00    3.487498e+00
  8.148326e+00    3.568818e+00
  8.180077e+00    3.540300e+00
  8.211828e+00    3.391422e+00
  8.243579e+00    3.482279e+00
  8.275330e+00    3.351112e+00
  8.307081e+00    3.422676e+00
  8.338833e+00    3.428053e+00
  8.370584e+00    3.378751e+00
  8.402335e+00    3.405345e+00
  8.434086e+00    3.315043e+00
  8.465837e+00    3.422234e+00
  8.497588e+00    3.421636e+00
  8.529339e+00    3.316365e+00
  8.561091e+00    3.409137e+00
  8.592842e+00    3.363893e+00
  8.624593e+00    3.436989e+00
  8.656344e+00    3.318690e+00
  8.688095e+00    3.390202e+00
  8.719846e+00    3.347714e+00
  8.751598e+00    3.337475e+00
  8.783349e+00    3.320821e+00
  8.815100e+00    3.273346e+00
  8.846851e+00    3.387233e+00
  8.878602e+00    3.327271e+00
  8.910353e+00    3.301070e+00
  8.942104e+00    3.315550e+00
  8.973856e+00    3.273784e+00
  9.005607e+00    3.281379e+00
  9.037358e+00    3.287423e+00
  9.069109e+00    3.279061e+00
  9.100860e+00    3.251187e+00
  9.132611e+00    3.305716e+00
  9.164362e+00    3.266578e+00
  9.196114e+00    3.253348e+00
  9.227865e+00    3.264642e+00
  9.259616e+00    3.167897e+00
  9.291367e+00    3.268747e+00
  9.323118e+00    3.199966e+00
  9.354869e+00    3.240088e+00
  9.386620e+00    3.203475e+00
  9.418372e+00    3.289593e+00
  9.450123e+00    3.198708e+00
  9.481874e+00    3.249160e+00
  9.513625e+00    3.194731e+00
  9.545376e+00    3.224208e+00
  9.577127e+00    3.253160e+00
  9.608878e+00    3.233399e+00
  9.640630e+00    3.234646e+00
  9.672381e+00    3.231013e+00
  9.704132e+00    3.226664e+00
  9.735883e+00    3.170473e+00
  9.767634e+00    3.267724e+00
  9.799385e+00    3.150409e+00
  9.831137e+00    3.121208e+00
  9.862888e+00    3.170873e+00
  9.894639e+00    3.142306e+00
  9.926390e+00    3.073992e+00
  9.958141e+00    3.106895e+00
  9.989892e+00    3.145488e+00
  1.002164e+01    3.140263e+00
  1.005339e+01    3.074643e+00
  1.008515e+01    3.078646e+00
  1.011690e+01    3.046089e+00
  1.014865e+01    3.078946e+00
  1.018040e+01    3.049746e+00
  1.021215e+01    3.101530e+00
  1.024390e+01    3.093511e+00
  1.027565e+01    3.067714e+00
  1.030740e+01    3.050749e+00
  1.033915e+01    3.109504e+00
  1.037091e+01    3.053751e+00
  1.040266e+01    3.031628e+00
  1.043441e+01    3.009377e+00
  1.046616e+01    3.026503e+00
  1.049791e+01    2.982822e+00
  1.052966e+01    3.006286e+00
  1.056141e+01    3.060041e+00
  1.059316e+01    3.027196e+00
  1.062492e+01    3.023026e+00
  1.065667e+01    2.931852e+00
  1.068842e+01    2.999307e+00
  1.072017e+01    2.965632e+00
  1.075192e+01    2.974936e+00
  1.078367e+01    2.955859e+00
  1.081542e+01    2.972465e+00
  1.084717e+01    2.940577e+00
  1.087892e+01    2.961164e+00
  1.091068e+01    2.962220e+00
  1.094243e+01    2.909899e+00
  1.097418e+01    2.958906e+00
  1.100593e+01    2.952309e+00
  1.103768e+01    2.906240e+00
  1.106943e+01    2.909592e+00
  1.110118e+01    2.865998e+00
  1.113293e+01    2.936287e+00
  1.116468e+01    2.874483e+00
  1.119644e+01    2.888333e+00
  1.122819e+01    2.928096e+00
  1.125994e+01    2.825994e+00
  1.129169e+01    2.825920e+00
  1.132344e+01    2.860243e+00
  1.135519e+01    2.866572e+00
  1.138694e+01    2.781082e+00
  1.141869e+01    2.793101e+00
  1.145045e+01    2.856596e+00
  1.148220e+01    2.852610e+00
  1.151395e+01    2.854944e+00
  1.154570e+01    2.771453e+00
  1.157745e+01    2.830249e+00
  1.160920e+01    2.780529e+00
  1.164095e+01    2.792618e+00
  1.167270e+01    2.738435e+00
  1.170445e+01    2.768864e+00
  1.173621e+01    2.757838e+00
  1.176796e+01    2.744827e+00
  1.179971e+01    2.753026e+00
  1.183146e+01    2.745225e+00
  1.186321e+01    2.777685e+00
  1.189496e+01    2.720115e+00
  1.192671e+01    2.722710e+00
  1.195846e+01    2.725322e+00
  1.199021e+01    2.743650e+00
  1.202197e+01    2.708908e+00
  1.205372e+01    2.731388e+00
  1.208547e+01    2.710562e+00
  1.211722e+01    2.680096e+00
  1.214897e+01    2.675065e+00
  1.218072e+01    2.746407e+00
  1.221247e+01    2.702239e+00
  1.224422e+01    2.678974e+00
  1.227597e+01    2.656139e+00
  1.230773e+01    2.644664e+00
  1.233948e+01    2.689702e+00
  1.237123e+01    2.724612e+00
  1.240298e+01    2.663668e+00
  1.243473e+01    2.721999e+00
  1.246648e+01    2.626865e+00
  1.249823e+01    2.737246e+00
  1.252998e+01    2.694126e+00
  1.256174e+01    2.684952e+00
  1.259349e+01    2.673661e+00
  1.262524e+01    2.773321e+00
  1.265699e+01    2.804358e+00
  1.268874e+01    2.853302e+00
  1.272049e+01    2.855928e+00
  1.275224e+01    2.871094e+00
  1.278399e+01    2.923492e+00
  1.281574e+01    3.033824e+00
  1.284750e+01    3.145801e+00
  1.287925e+01    3.384671e+00
  1.291100e+01    3.632393e+00
  1.294275e+01    4.081175e+00
  1.297450e+01    4.759276e+00
  1.300625e+01    5.896986e+00
  1.303800e+01    7.625661e+00
  1.306975e+01    1.014784e+01
  1.310150e+01    1.274821e+01
  1.313326e+01    1.479209e+01
  1.316501e+01    1.624772e+01
  1.319676e+01    1.566380e+01
  1.322851e+01    1.255460e+01
  1.326026e+01    9.187428e+00
  1.329201e+01    6.755763e+00
  1.332376e+01    5.364050e+00
  1.335551e+01    4.415756e+00
  1.338727e+01    3.948878e+00
  1.341902e+01    3.478423e+00
  1.345077e+01    3.196137e+00
  1.348252e+01    3.099532e+00
  1.351427e+01    2.903965e+00
  1.354602e+01    2.780685e+00
  1.357777e+01    2.801359e+00
  1.360952e+01    2.680139e+00
  1.364127e+01    2.624597e+00
  1.367303e+01    2.581121e+00
  1.370478e+01    2.584260e+00
  1.373653e+01    2.523117e+00
  1.376828e+01    2.478172e+00
  1.380003e+01    2.456228e+00
  1.383178e+01    2.482108e+00
  1.386353e+01    2.397671e+00
  1.389528e+01    2.415560e+00
  1.392703e+01    2.391095e+00
  1.395879e+01    2.396863e+00
  1.399054e+01    2.393218e+00
  1.402229e+01    2.361115e+00
  1.405404e+01    2.326359e+00
  1.408579e+01    2.349364e+00
  1.411754e+01    2.372598e+00
  1.414929e+01    2.271902e+00
  1.418104e+01    2.328076e+00
  1.421279e+01    2.317464e+00
  1.424455e+01    2.278294e+00
  1.427630e+01    2.275063e+00
  1.430805e+01    2.244642e+00
  1.433980e+01    2.296912e+00
  1.437155e+01    2.222986e+00
  1.440330e+01    2.280090e+00
  1.443505e+01    2.218617e+00
  1.446680e+01    2.201776e+00
  1.449856e+01    2.202152e+00
  1.453031e+01    2.263897e+00
  1.456206e+01    2.213857e+00
  1.459381e+01    2.218951e+00
  1.462556e+01    2.243761e+00
  1.465731e+01    2.241160e+00
  1.468906e+01    2.196200e+00
  1.472081e+01    2.185062e+00
  1.475256e+01    2.172765e+00
  1.478432e+01    2.182096e+00
  1.481607e+01    2.203066e+00
  1.484782e+01    2.239651e+00
  1.487957e+01    2.187499e+00
  1.491132e+01    2.288547e+00
  1.494307e+01    2.276672e+00
  1.497482e+01    2.372814e+00
  1.500657e+01    2.396788e+00
  1.503832e+01    2.588458e+00
  1.507008e+01    2.829933e+00
  1.510183e+01    3.187610e+00
  1.513358e+01    3.788833e+00
  1.516533e+01    4.505981e+00
  1.519708e+01    5.203099e+00
  1.522883e+01    5.615883e+00
  1.526058e+01    5.848941e+00
  1.529233e+01    5.450040e+00
  1.532409e+01    4.678944e+00
  1.535584e+01    3.773423e+00
  1.538759e+01    3.130980e+00
  1.541934e+01    2.786034e+00
  1.545109e+01    2.581338e+00
  1.548284e+01    2.341074e+00
  1.551459e+01    2.270072e+00
  1.554634e+01    2.185366e+00
  1.557809e+01    2.124360e+00
  1.560985e+01    2.088510e+00
  1.564160e+01    2.074955e+00
  1.567335e+01    1.991595e+00
  1.570510e+01    1.981684e+00
  1.573685e+01    1.992196e+00
  1.576860e+01    1.971235e+00
  1.580035e+01    1.928143e+00
  1.583210e+01    1.945321e+00
  1.586385e+01    1.945044e+00
  1.589561e+01    1.910885e+00
  1.592736e+01    1.876852e+00
  1.595911e+01    1.905409e+00
  1.599086e+01    1.891015e+00
  1.602261e+01    1.877448e+00
  1.605436e+01    1.890960e+00
  1.608611e+01    1.821082e+00
  1.611786e+01    1.852001e+00
  1.614961e+01    1.864296e+00
  1.618137e+01    1.824099e+00
  1.621312e+01    1.836942e+00
  1.624487e+01    1.798600e+00
  1.627662e+01    1.823498e+00
  1.630837e+01    1.796712e+00
  1.634012e+01    1.798260e+00
  1.637187e+01    1.801565e+00
  1.640362e+01    1.797598e+00
  1.643538e+01    1.762997e+00
  1.646713e+01    1.787735e+00
  1.649888e+01    1.761133e+00
  1.653063e+01    1.741341e+00
  1.656238e+01    1.696432e+00
  1.659413e+01    1.736606e+00
  1.662588e+01    1.749707e+00
  1.665763e+01    1.722366e+00
  1.668938e+01    1.747801e+00
  1.672114e+01    1.726293e+00
  1.675289e+01    1.708221e+00
  1.678464e+01    1.679957e+00
  1.681639e+01    1.693518e+00
  1.684814e+01    1.688812e+00
  1.687989e+01    1.689058e+00
  1.691164e+01    1.704287e+00
  1.694339e+01    1.676810e+00
  1.697514e+01    1.672004e+00
  1.700690e+01    1.673974e+00
  1.703865e+01    1.654200e+00
  1.707040e+01    1.631334e+00
  1.710215e+01    1.655847e+00
  1.713390e+01    1.670309e+00
  1.716565e+01    1.609748e+00
  1.719740e+01    1.670519e+00
  1.722915e+01    1.625152e+00
  1.726091e+01    1.634013e+00
  1.729266e+01    1.619858e+00
  1.732441e+01    1.582815e+00
  1.735616e+01    1.622741e+00
  1.738791e+01    1.612738e+00
  1.741966e+01    1.612909e+00
  1.745141e+01    1.596671e+00
  1.748316e+01    1.547870e+00
  1.751491e+01    1.608830e+00
  1.754667e+01    1.603506e+00
  1.757842e+01    1.579594e+00
  1.761017e+01    1.573877e+00
  1.764192e+01    1.536186e+00
  1.767367e+01    1.561944e+00
  1.770542e+01    1.572324e+00
  1.773717e+01    1.556510e+00
  1.776892e+01    1.530514e+00
  1.780067e+01    1.515516e+00
  1.783243e+01    1.537951e+00
  1.786418e+01    1.544823e+00
  1.789593e+01    1.528619e+00
  1.792768e+01    1.535090e+00
  1.795943e+01    1.508386e+00
  1.799118e+01    1.496823e+00
  1.802293e+01    1.501364e+00
  1.805468e+01    1.524446e+00
  1.808643e+01    1.509486e+00
  1.811819e+01    1.515209e+00
  1.814994e+01    1.469321e+00
  1.818169e+01    1.503911e+00
  1.821344e+01    1.521047e+00
  1.824519e+01    1.475196e+00
  1.827694e+01    1.464990e+00
  1.830869e+01    1.442279e+00
  1.834044e+01    1.478213e+00
  1.837220e+01    1.468257e+00
  1.840395e+01    1.460578e+00
  1.843570e+01    1.433581e+00
  1.846745e+01    1.419059e+00
  1.849920e+01    1.424372e+00
  1.853095e+01    1.450308e+00
  1.856270e+01    1.413602e+00
  1.859445e+01    1.461993e+00
  1.862620e+01    1.430969e+00
  1.865796e+01    1.424545e+00
  1.868971e+01    1.423842e+00
  1.872146e+01    1.419420e+00
  1.875321e+01    1.422420e+00
  1.878496e+01    1.411544e+00
  1.881671e+01    1.423362e+00
  1.884846e+01    1.410504e+00
  1.888021e+01    1.371146e+00
  1.891196e+01    1.411988e+00
  1.894372e+01    1.392972e+00
  1.897547e+01    1.392012e+00
  1.900722e+01    1.431106e+00
  1.903897e+01    1.379197e+00
  1.907072e+01    1.406107e+00
  1.910247e+01    1.377898e+00
  1.913422e+01    1.388925e+00
  1.916597e+01    1.341713e+00
  1.919773e+01    1.377211e+00
  1.922948e+01    1.363771e+00
  1.926123e+01    1.353512e+00
  1.929298e+01    1.351389e+00
  1.932473e+01    1.328368e+00
  1.935648e+01    1.366106e+00
  1.938823e+01    1.350219e+00
  1.941998e+01    1.331143e+00
  1.945173e+01    1.365610e+00
  1.948349e+01    1.326880e+00
  1.951524e+01    1.327075e+00
  1.954699e+01    1.315793e+00
  1.957874e+01    1.348893e+00
  1.961049e+01    1.327495e+00
  1.964224e+01    1.340486e+00
  1.967399e+01    1.297130e+00
  1.970574e+01    1.292207e+00
  1.973749e+01    1.337065e+00
  1.976925e+01    1.334637e+00
  1.980100e+01    1.309196e+00
  1.983275e+01    1.303851e+00
  1.986450e+01    1.300425e+00
  1.989625e+01    1.296525e+00
  1.992800e+01    1.261485e+00
  1.995975e+01    1.297631e+00
  1.999150e+01    1.296807e+00
  2.002325e+01    1.294806e+00
  2.005501e+01    1.298164e+00
  2.008676e+01    1.283366e+00
  2.011851e+01    1.282551e+00
  2.015026e+01    1.263955e+00
  2.018201e+01    1.292694e+00
  2.021376e+01    1.277878e+00
  2.024551e+01    1.278264e+00
  2.027726e+01    1.293066e+00
  2.030902e+01    1.263330e+00
  2.034077e+01    1.265365e+00
  2.037252e+01    1.257630e+00
  2.040427e+01    1.234429e+00
  2.043602e+01    1.242908e+00
  2.046777e+01    1.265450e+00
  2.049952e+01    1.240431e+00
  2.053127e+01    1.239441e+00
  2.056302e+01    1.247483e+00
  2.059478e+01    1.265924e+00
  2.062653e+01    1.230953e+00
  2.065828e+01    1.245674e+00
  2.069003e+01    1.224329e+00
  2.072178e+01    1.228447e+00
  2.075353e+01    1.214793e+00
  2.078528e+01    1.244216e+00
  2.081703e+01    1.245497e+00
  2.084878e+01    1.243280e+00
  2.088054e+01    1.234363e+00
  2.091229e+01    1.240321e+00
  2.094404e+01    1.199638e+00
  2.097579e+01    1.218002e+00
  2.100754e+01    1.228745e+00
  2.103929e+01    1.202004e+00
  2.107104e+01    1.225080e+00
  2.110279e+01    1.226095e+00
  2.113455e+01    1.210278e+00
  2.116630e+01    1.222556e+00
  2.119805e+01    1.266731e+00
  2.122980e+01    1.244061e+00
  2.126155e+01    1.237218e+00
  2.129330e+01    1.278318e+00
  2.132505e+01    1.254579e+00
  2.135680e+01    1.294947e+00
  2.138855e+01    1.304706e+00
  2.142031e+01    1.315927e+00
  2.145206e+01    1.325344e+00
  2.148381e+01    1.391987e+00
  2.151556e+01    1.437812e+00
  2.154731e+01    1.534045e+00
  2.157906e+01    1.613115e+00
  2.161081e+01    1.756042e+00
  2.164256e+01    1.993963e+00
  2.167431e+01    2.300690e+00
  2.170607e+01    2.759445e+00
  2.173782e+01    3.486135e+00
  2.176957e+01    4.576913e+00
  2.180132e+01    5.860790e+00
  2.183307e+01    7.146271e+00
  2.186482e+01    8.301358e+00
  2.189657e+01    8.964100e+00
  2.192832e+01    8.281625e+00
  2.196007e+01    6.561750e+00
  2.199183e+01    4.859012e+00
  2.202358e+01    3.621973e+00
  2.205533e+01    2.825640e+00
  2.208708e+01    2.335226e+00
  2.211883e+01    2.040770e+00
  2.215058e+01    1.782712e+00
  2.218233e+01    1.581396e+00
  2.221408e+01    1.486188e+00
  2.224584e+01    1.408546e+00
  2.227759e+01    1.342209e+00
  2.230934e+01    1.283017e+00
  2.234109e+01    1.248635e+00
  2.237284e+01    1.222732e+00
  2.240459e+01    1.213659e+00
  2.243634e+01    1.198417e+00
  2.246809e+01    1.149126e+00
  2.249984e+01    1.150484e+00
  2.253160e+01    1.134016e+00
  2.256335e+01    1.120360e+00
  2.259510e+01    1.113814e+00
  2.262685e+01    1.094697e+00
  2.265860e+01    1.075537e+00
  2.269035e+01    1.107942e+00
  2.272210e+01    1.070981e+00
  2.275385e+01    1.059907e+00
  2.278560e+01    1.066950e+00
  2.281736e+01    1.060901e+00
  2.284911e+01    1.055977e+00
  2.288086e+01    1.041932e+00
  2.291261e+01    1.017827e+00
  2.294436e+01    1.034177e+00
  2.297611e+01    1.018471e+00
  2.300786e+01    1.003451e+00
  2.303961e+01    1.031902e+00
  2.307137e+01    1.016956e+00
  2.310312e+01    1.026618e+00
  2.313487e+01    9.952884e-01
  2.316662e+01    9.824245e-01
  2.319837e+01    9.952037e-01
  2.323012e+01    9.854745e-01
  2.326187e+01    9.797366e-01
  2.329362e+01    1.004329e+00
  2.332537e+01    1.014952e+00
  2.335713e+01    9.744128e-01
  2.338888e+01    9.945681e-01
  2.342063e+01    9.734449e-01
  2.345238e+01    9.564913e-01
  2.348413e+01    9.985107e-01
  2.351588e+01    9.718711e-01
  2.354763e+01    9.602495e-01
  2.357938e+01    9.719055e-01
  2.361113e+01    9.667203e-01
  2.364289e+01    9.507875e-01
  2.367464e+01    9.360214e-01
  2.370639e+01    9.467240e-01
  2.373814e+01    9.181798e-01
  2.376989e+01    9.147559e-01
  2.380164e+01    9.179033e-01
  2.383339e+01    9.135866e-01
  2.386514e+01    9.163278e-01
  2.389689e+01    9.049455e-01
  2.392865e+01    8.829881e-01
  2.396040e+01    9.202913e-01
  2.399215e+01    9.023020e-01
  2.402390e+01    9.153129e-01
  2.405565e+01    9.117609e-01
  2.408740e+01    8.961183e-01
  2.411915e+01    8.748868e-01
  2.415090e+01    8.949971e-01
  2.418266e+01    8.960443e-01
  2.421441e+01    8.699617e-01
  2.424616e+01    8.960159e-01
  2.427791e+01    8.801380e-01
  2.430966e+01    8.972237e-01
  2.434141e+01    8.895882e-01
  2.437316e+01    8.927821e-01
  2.440491e+01    8.839775e-01
  2.443666e+01    9.028025e-01
  2.446842e+01    8.901468e-01
  2.450017e+01    8.922839e-01
  2.453192e+01    9.000371e-01
  2.456367e+01    9.029616e-01
  2.459542e+01    8.849085e-01
  2.462717e+01    9.049559e-01
  2.465892e+01    8.866329e-01
  2.469067e+01    8.735383e-01
  2.472242e+01    8.935619e-01
  2.475418e+01    8.869873e-01
  2.478593e+01    8.951589e-01
  2.481768e+01    8.985830e-01
  2.484943e+01    8.801392e-01
  2.488118e+01    8.936595e-01
  2.491293e+01    8.684899e-01
  2.494468e+01    9.107409e-01
  2.497643e+01    8.807289e-01
  2.500819e+01    9.066320e-01
  2.503994e+01    9.018498e-01
  2.507169e+01    9.005451e-01
  2.510344e+01    8.994623e-01
  2.513519e+01    9.057938e-01
  2.516694e+01    9.158506e-01
  2.519869e+01    9.420282e-01
  2.523044e+01    9.300519e-01
  2.526219e+01    9.639837e-01
  2.529395e+01    9.382832e-01
  2.532570e+01    9.768977e-01
  2.535745e+01    9.715174e-01
  2.538920e+01    9.889262e-01
  2.542095e+01    1.002071e+00
  2.545270e+01    1.036618e+00
  2.548445e+01    1.040585e+00
  2.551620e+01    1.054504e+00
  2.554795e+01    1.116861e+00
  2.557971e+01    1.165902e+00
  2.561146e+01    1.224969e+00
  2.564321e+01    1.302050e+00
  2.567496e+01    1.425062e+00
  2.570671e+01    1.590752e+00
  2.573846e+01    1.826389e+00
  2.577021e+01    2.204053e+00
  2.580196e+01    2.800493e+00
  2.583371e+01    3.620491e+00
  2.586547e+01    4.707789e+00
  2.589722e+01    5.817766e+00
  2.592897e+01    6.816458e+00
  2.596072e+01    7.095349e+00
  2.599247e+01    6.545759e+00
  2.602422e+01    5.337165e+00
  2.605597e+01    4.030252e+00
  2.608772e+01    3.015516e+00
  2.611948e+01    2.348269e+00
  2.615123e+01    1.924764e+00
  2.618298e+01    1.675652e+00
  2.621473e+01    1.511955e+00
  2.624648e+01    1.334345e+00
  2.627823e+01    1.270446e+00
  2.630998e+01    1.173303e+00
  2.634173e+01    1.138446e+00
  2.637348e+01    1.094696e+00
  2.640524e+01    1.067578e+00
  2.643699e+01    1.011445e+00
  2.646874e+01    1.039374e+00
  2.650049e+01    1.024015e+00
  2.653224e+01    9.873453e-01
  2.656399e+01    9.896622e-01
  2.659574e+01    9.738904e-01
  2.662749e+01    9.860089e-01
  2.665924e+01    9.980165e-01
  2.669100e+01    9.869534e-01
  2.672275e+01    9.805584e-01
  2.675450e+01    9.585575e-01
  2.678625e+01    9.828150e-01
  2.681800e+01    9.913381e-01
  2.684975e+01    9.965038e-01
  2.688150e+01    9.978350e-01
  2.691325e+01    1.008212e+00
  2.694501e+01    1.020717e+00
  2.697676e+01    1.054340e+00
  2.700851e+01    1.111327e+00
  2.704026e+01    1.186439e+00
  2.707201e+01    1.304114e+00
  2.710376e+01    1.505800e+00
  2.713551e+01    1.711122e+00
  2.716726e+01    1.950292e+00
  2.719901e+01    2.153323e+00
  2.723077e+01    2.102970e+00
  2.726252e+01    1.954461e+00
  2.729427e+01    1.720322e+00
  2.732602e+01    1.461751e+00
  2.735777e+01    1.260581e+00
  2.738952e+01    1.169917e+00
  2.742127e+01    1.096276e+00
  2.745302e+01    1.048741e+00
  2.748477e+01    9.999987e-01
  2.751653e+01    9.715610e-01
  2.754828e+01    9.776766e-01
  2.758003e+01    9.426982e-01
  2.761178e+01    9.420701e-01
  2.764353e+01    9.237462e-01
  2.767528e+01    8.810605e-01
  2.770703e+01    9.070998e-01
  2.773878e+01    9.170104e-01
  2.777054e+01    8.823164e-01
  2.780229e+01    8.877709e-01
  2.783404e+01    8.981029e-01
  2.786579e+01    8.846169e-01
  2.789754e+01    8.671014e-01
  2.792929e+01    8.739895e-01
  2.796104e+01    8.779584e-01
  2.799279e+01    8.439601e-01
  2.802454e+01    8.519976e-01
  2.805630e+01    8.448696e-01
  2.808805e+01    8.591755e-01
  2.811980e+01    8.537986e-01
  2.815155e+01    8.827626e-01
  2.818330e+01    8.521511e-01
  2.821505e+01    8.534708e-01
  2.824680e+01    8.465441e-01
  2.827855e+01    8.553497e-01
  2.831030e+01    8.684453e-01
  2.834206e+01    8.429456e-01
  2.837381e+01    8.423494e-01
  2.840556e+01    8.320612e-01
  2.843731e+01    8.442369e-01
  2.846906e+01    8.369032e-01
  2.850081e+01    8.337331e-01
  2.853256e+01    8.462923e-01
  2.856431e+01    8.196876e-01
  2.859606e+01    8.293360e-01
  2.862782e+01    8.510302e-01
  2.865957e+01    8.217420e-01
  2.869132e+01    8.404930e-01
  2.872307e+01    8.203755e-01
  2.875482e+01    8.268450e-01
  2.878657e+01    8.106979e-01
  2.881832e+01    8.205449e-01
  2.885007e+01    8.354406e-01
  2.888183e+01    8.041892e-01
  2.891358e+01    8.288055e-01
  2.894533e+01    8.351671e-01
  2.897708e+01    8.231270e-01
  2.900883e+01    8.063686e-01
  2.904058e+01    8.169442e-01
  2.907233e+01    8.122221e-01
  2.910408e+01    8.182948e-01
  2.913583e+01    8.226128e-01
  2.916759e+01    8.037513e-01
  2.919934e+01    8.142899e-01
  2.923109e+01    8.181522e-01
  2.926284e+01    8.245282e-01
  2.929459e+01    8.113513e-01
  2.932634e+01    8.113704e-01
  2.935809e+01    8.196791e-01
  2.938984e+01    8.094915e-01
  2.942159e+01    8.102257e-01
  2.945335e+01    7.871967e-01
  2.948510e+01    8.077771e-01
  2.951685e+01    8.086361e-01
  2.954860e+01    8.018590e-01
  2.958035e+01    8.040422e-01
  2.961210e+01    8.096122e-01
  2.964385e+01    8.043455e-01
  2.967560e+01    7.955709e-01
  2.970736e+01    7.819636e-01
  2.973911e+01    8.099308e-01
  2.977086e+01    7.904924e-01
  2.980261e+01    7.924398e-01
  2.983436e+01    7.979388e-01
  2.986611e+01    7.863950e-01
  2.989786e+01    7.966611e-01
  2.992961e+01    7.895738e-01
  2.996136e+01    8.088195e-01
  2.999312e+01    8.116897e-01
  3.002487e+01    8.244216e-01
  3.005662e+01    7.942039e-01
  3.008837e+01    8.194052e-01
  3.012012e+01    8.139602e-01
  3.015187e+01    7.999153e-01
  3.018362e+01    7.930861e-01
  3.021537e+01    7.855165e-01
  3.024712e+01    7.881279e-01
  3.027888e+01    7.772517e-01
  3.031063e+01    7.863679e-01
  3.034238e+01    7.552437e-01
  3.037413e+01    7.954541e-01
  3.040588e+01    7.851810e-01
  3.043763e+01    7.792916e-01
  3.046938e+01    7.669920e-01
  3.050113e+01    7.788830e-01
  3.053288e+01    7.990595e-01
  3.056464e+01    8.092028e-01
  3.059639e+01    7.881267e-01
  3.062814e+01    8.009441e-01
  3.065989e+01    7.805429e-01
  3.069164e+01    7.838936e-01
  3.072339e+01    7.889770e-01
  3.075514e+01    8.048621e-01
  3.078689e+01    7.883323e-01
  3.081865e+01    7.804965e-01
  3.085040e+01    7.823510e-01
  3.088215e+01    7.862580e-01
  3.091390e+01    7.942126e-01
  3.094565e+01    7.832344e-01
  3.097740e+01    8.005757e-01
  3.100915e+01    8.073814e-01
  3.104090e+01    8.072523e-01
  3.107265e+01    7.641475e-01
  3.110441e+01    7.963443e-01
  3.113616e+01    7.680867e-01
  3.116791e+01    7.774693e-01
  3.119966e+01    7.904023e-01
  3.123141e+01    7.781677e-01
  3.126316e+01    8.114854e-01
  3.129491e+01    7.967535e-01
  3.132666e+01    8.103099e-01
  3.135841e+01    7.913785e-01
  3.139017e+01    8.140503e-01
  3.142192e+01    8.225584e-01
  3.145367e+01    7.890263e-01
  3.148542e+01    8.362481e-01
  3.151717e+01    8.448153e-01
  3.154892e+01    8.386621e-01
  3.158067e+01    8.675361e-01
  3.161242e+01    8.939310e-01
  3.164418e+01    9.044228e-01
  3.167593e+01    9.707966e-01
  3.170768e+01    1.006627e+00
  3.173943e+01    1.082523e+00
  3.177118e+01    1.230834e+00
  3.180293e+01    1.448732e+00
  3.183468e+01    1.729347e+00
  3.186643e+01    1.924237e+00
  3.189818e+01    2.079431e+00
  3.192994e+01    2.026896e+00
  3.196169e+01    1.825184e+00
  3.199344e+01    1.584802e+00
  3.202519e+01    1.354978e+00
  3.205694e+01    1.166553e+00
  3.208869e+01    1.029872e+00
  3.212044e+01    9.769495e-01
  3.215219e+01    9.171216e-01
  3.218394e+01    9.040437e-01
  3.221570e+01    8.522059e-01
  3.224745e+01    8.380918e-01
  3.227920e+01    8.327237e-01
  3.231095e+01    8.040724e-01
  3.234270e+01    8.080106e-01
  3.237445e+01    8.134113e-01
  3.240620e+01    7.869278e-01
  3.243795e+01    7.762496e-01
  3.246970e+01    7.772686e-01
  3.250146e+01    7.752178e-01
  3.253321e+01    7.890502e-01
  3.254908e+01    7.804644e-01