File: XRD/Reaction conditions/2024-07-27_003_Ru-CGO-ex_Reaction_dwell_000023_data_000070.dat
# == pyFAI calibration ==
# Distance Sample to Detector: 0.4 m
# PONI: 9.750e-02, 1.135e-01 m
# Rotations: -0.000175 0.000000 -0.000000 rad
#
# == Fit2d calibration ==
# Distance Sample-beamCenter: 400.000 mm
# Center: x=1514.000, y=1300.000 pix
# Tilt: 0.010 deg  TiltPlanRot: 0.010 deg
#
# Detector Detector	 Spline= None	 PixelSize= 7.500e-05, 7.500e-05 m
#    Detector has a mask: False
#    Detector has a dark current: False
#    detector has a flat field: False
#
# Wavelength: 6.888e-11 m
# Mask applied: user provided
# Dark current applied: False
# Flat field applied: False
# Polarization factor: 0.99
# Normalization factor: 1.0
# --> /home/myspot/data/2024_07_Rosario/Ru-CGO-ex/2024-07-27_003_Ru-CGO-ex_Reaction_dwell_000023_data_000070.dat
#       q_nm^-1             I
  2.003187e-02    7.711873e-02
  5.178302e-02    1.655785e-01
  8.353417e-02    5.694613e-02
  1.152853e-01    7.028985e-02
  1.470365e-01    1.756832e-01
  1.787876e-01    2.078067e-02
  2.105388e-01    8.272579e-02
  2.422899e-01    1.437260e-02
  2.740411e-01    2.812479e-02
  3.057922e-01    3.050795e-02
  3.375433e-01    6.589290e-02
  3.692945e-01    2.749198e-02
  4.010456e-01    4.092183e-02
  4.327968e-01    4.673101e-02
  4.645479e-01    5.297225e-02
  4.962991e-01    3.849988e-02
  5.280502e-01    2.604035e-02
  5.598014e-01    4.010162e-02
  5.915525e-01    4.193290e-02
  6.233037e-01    7.505811e-02
  6.550548e-01    6.234403e-02
  6.868060e-01    3.361176e-02
  7.185571e-01    4.856427e-02
  7.503083e-01    5.630660e-02
  7.820594e-01    1.349863e-01
  8.138106e-01    2.213707e-01
  8.455617e-01    3.089372e-01
  8.773129e-01    4.604039e-01
  9.090640e-01    6.573170e-01
  9.408152e-01    8.388288e-01
  9.725663e-01    1.054713e+00
  1.004317e+00    1.244328e+00
  1.036069e+00    1.496570e+00
  1.067820e+00    1.492751e+00
  1.099571e+00    1.624773e+00
  1.131322e+00    1.611690e+00
  1.163073e+00    1.688034e+00
  1.194824e+00    1.783436e+00
  1.226575e+00    2.288419e+00
  1.258327e+00    2.424160e+00
  1.290078e+00    2.571893e+00
  1.321829e+00    2.796021e+00
  1.353580e+00    2.755055e+00
  1.385331e+00    2.768047e+00
  1.417082e+00    2.937394e+00
  1.448834e+00    2.993075e+00
  1.480585e+00    3.064932e+00
  1.512336e+00    3.233760e+00
  1.544087e+00    3.127706e+00
  1.575838e+00    3.107208e+00
  1.607589e+00    3.078365e+00
  1.639340e+00    3.151276e+00
  1.671092e+00    3.083082e+00
  1.702843e+00    3.152525e+00
  1.734594e+00    3.067766e+00
  1.766345e+00    3.006563e+00
  1.798096e+00    3.089343e+00
  1.829847e+00    3.057519e+00
  1.861598e+00    2.852553e+00
  1.893350e+00    3.068105e+00
  1.925101e+00    2.991724e+00
  1.956852e+00    3.144671e+00
  1.988603e+00    3.095805e+00
  2.020354e+00    3.075796e+00
  2.052105e+00    3.134505e+00
  2.083856e+00    3.165824e+00
  2.115608e+00    3.154576e+00
  2.147359e+00    3.158834e+00
  2.179110e+00    3.179143e+00
  2.210861e+00    3.100347e+00
  2.242612e+00    3.110351e+00
  2.274363e+00    3.182441e+00
  2.306115e+00    3.270574e+00
  2.337866e+00    3.182515e+00
  2.369617e+00    3.031920e+00
  2.401368e+00    3.249175e+00
  2.433119e+00    3.174532e+00
  2.464870e+00    3.240664e+00
  2.496621e+00    3.193150e+00
  2.528373e+00    3.296183e+00
  2.560124e+00    3.210445e+00
  2.591875e+00    3.335255e+00
  2.623626e+00    3.259331e+00
  2.655377e+00    3.265285e+00
  2.687128e+00    3.244918e+00
  2.718879e+00    3.245351e+00
  2.750631e+00    3.276361e+00
  2.782382e+00    3.319332e+00
  2.814133e+00    3.190038e+00
  2.845884e+00    3.273715e+00
  2.877635e+00    3.367545e+00
  2.909386e+00    3.306711e+00
  2.941137e+00    3.390323e+00
  2.972889e+00    3.362458e+00
  3.004640e+00    3.251519e+00
  3.036391e+00    3.347713e+00
  3.068142e+00    3.311256e+00
  3.099893e+00    3.372113e+00
  3.131644e+00    3.307520e+00
  3.163395e+00    3.363431e+00
  3.195147e+00    3.364214e+00
  3.226898e+00    3.358198e+00
  3.258649e+00    3.264847e+00
  3.290400e+00    3.436245e+00
  3.322151e+00    3.388535e+00
  3.353902e+00    3.363605e+00
  3.385654e+00    3.494501e+00
  3.417405e+00    3.415466e+00
  3.449156e+00    3.408914e+00
  3.480907e+00    3.482790e+00
  3.512658e+00    3.392618e+00
  3.544409e+00    3.531767e+00
  3.576160e+00    3.449180e+00
  3.607912e+00    3.464281e+00
  3.639663e+00    3.453575e+00
  3.671414e+00    3.521049e+00
  3.703165e+00    3.545580e+00
  3.734916e+00    3.481185e+00
  3.766667e+00    3.484072e+00
  3.798418e+00    3.481495e+00
  3.830170e+00    3.417027e+00
  3.861921e+00    3.475019e+00
  3.893672e+00    3.438929e+00
  3.925423e+00    3.508213e+00
  3.957174e+00    3.485156e+00
  3.988925e+00    3.541371e+00
  4.020676e+00    3.505006e+00
  4.052428e+00    3.595711e+00
  4.084179e+00    3.517285e+00
  4.115930e+00    3.460374e+00
  4.147681e+00    3.599504e+00
  4.179432e+00    3.419708e+00
  4.211183e+00    3.565219e+00
  4.242935e+00    3.643413e+00
  4.274686e+00    3.468570e+00
  4.306437e+00    3.512247e+00
  4.338188e+00    3.597508e+00
  4.369939e+00    3.686884e+00
  4.401690e+00    3.585614e+00
  4.433441e+00    3.623331e+00
  4.465193e+00    3.603728e+00
  4.496944e+00    3.673624e+00
  4.528695e+00    3.655642e+00
  4.560446e+00    3.655951e+00
  4.592197e+00    3.698260e+00
  4.623948e+00    3.607416e+00
  4.655699e+00    3.537914e+00
  4.687451e+00    3.490016e+00
  4.719202e+00    3.649666e+00
  4.750953e+00    3.619178e+00
  4.782704e+00    3.638404e+00
  4.814455e+00    3.670475e+00
  4.846206e+00    3.590623e+00
  4.877957e+00    3.702079e+00
  4.909709e+00    3.682419e+00
  4.941460e+00    3.667257e+00
  4.973211e+00    3.634731e+00
  5.004962e+00    3.625907e+00
  5.036713e+00    3.655840e+00
  5.068464e+00    3.524199e+00
  5.100216e+00    3.701998e+00
  5.131967e+00    3.671800e+00
  5.163718e+00    3.663158e+00
  5.195469e+00    3.523092e+00
  5.227220e+00    3.626738e+00
  5.258971e+00    3.681299e+00
  5.290722e+00    3.645849e+00
  5.322474e+00    3.674471e+00
  5.354225e+00    3.575541e+00
  5.385976e+00    3.709517e+00
  5.417727e+00    3.668200e+00
  5.449478e+00    3.589790e+00
  5.481229e+00    3.612818e+00
  5.512980e+00    3.606207e+00
  5.544732e+00    3.624715e+00
  5.576483e+00    3.615005e+00
  5.608234e+00    3.564700e+00
  5.639985e+00    3.591740e+00
  5.671736e+00    3.606053e+00
  5.703487e+00    3.615456e+00
  5.735238e+00    3.612957e+00
  5.766990e+00    3.584023e+00
  5.798741e+00    3.520227e+00
  5.830492e+00    3.518311e+00
  5.862243e+00    3.593737e+00
  5.893994e+00    3.528880e+00
  5.925745e+00    3.549534e+00
  5.957497e+00    3.608376e+00
  5.989248e+00    3.547420e+00
  6.020999e+00    3.557567e+00
  6.052750e+00    3.564314e+00
  6.084501e+00    3.655560e+00
  6.116252e+00    3.650156e+00
  6.148003e+00    3.522433e+00
  6.179755e+00    3.592132e+00
  6.211506e+00    3.596138e+00
  6.243257e+00    3.563349e+00
  6.275008e+00    3.476577e+00
  6.306759e+00    3.598914e+00
  6.338510e+00    3.590528e+00
  6.370261e+00    3.575642e+00
  6.402013e+00    3.563524e+00
  6.433764e+00    3.574704e+00
  6.465515e+00    3.572621e+00
  6.497266e+00    3.547357e+00
  6.529017e+00    3.515547e+00
  6.560768e+00    3.595407e+00
  6.592519e+00    3.563159e+00
  6.624271e+00    3.489336e+00
  6.656022e+00    3.566207e+00
  6.687773e+00    3.536997e+00
  6.719524e+00    3.571761e+00
  6.751275e+00    3.559372e+00
  6.783026e+00    3.610716e+00
  6.814777e+00    3.534234e+00
  6.846529e+00    3.594919e+00
  6.878280e+00    3.573426e+00
  6.910031e+00    3.472506e+00
  6.941782e+00    3.519978e+00
  6.973533e+00    3.562970e+00
  7.005284e+00    3.581203e+00
  7.037036e+00    3.563748e+00
  7.068787e+00    3.547237e+00
  7.100538e+00    3.546864e+00
  7.132289e+00    3.556643e+00
  7.164040e+00    3.549037e+00
  7.195791e+00    3.529270e+00
  7.227542e+00    3.593672e+00
  7.259294e+00    3.500205e+00
  7.291045e+00    3.498849e+00
  7.322796e+00    3.499383e+00
  7.354547e+00    3.525428e+00
  7.386298e+00    3.475436e+00
  7.418049e+00    3.486143e+00
  7.449800e+00    3.562871e+00
  7.481552e+00    3.443736e+00
  7.513303e+00    3.494270e+00
  7.545054e+00    3.491557e+00
  7.576805e+00    3.443930e+00
  7.608556e+00    3.483720e+00
  7.640307e+00    3.479435e+00
  7.672058e+00    3.417954e+00
  7.703810e+00    3.392799e+00
  7.735561e+00    3.516322e+00
  7.767312e+00    3.393922e+00
  7.799063e+00    3.449319e+00
  7.830814e+00    3.398738e+00
  7.862565e+00    3.398680e+00
  7.894317e+00    3.425402e+00
  7.926068e+00    3.436722e+00
  7.957819e+00    3.435501e+00
  7.989570e+00    3.422234e+00
  8.021321e+00    3.402290e+00
  8.053072e+00    3.417959e+00
  8.084823e+00    3.435392e+00
  8.116575e+00    3.393372e+00
  8.148326e+00    3.505277e+00
  8.180077e+00    3.452120e+00
  8.211828e+00    3.408402e+00
  8.243579e+00    3.484450e+00
  8.275330e+00    3.475338e+00
  8.307081e+00    3.374833e+00
  8.338833e+00    3.411732e+00
  8.370584e+00    3.354048e+00
  8.402335e+00    3.413960e+00
  8.434086e+00    3.302599e+00
  8.465837e+00    3.359794e+00
  8.497588e+00    3.344862e+00
  8.529339e+00    3.310712e+00
  8.561091e+00    3.366251e+00
  8.592842e+00    3.351662e+00
  8.624593e+00    3.312842e+00
  8.656344e+00    3.314177e+00
  8.688095e+00    3.338805e+00
  8.719846e+00    3.318589e+00
  8.751598e+00    3.275531e+00
  8.783349e+00    3.286152e+00
  8.815100e+00    3.327777e+00
  8.846851e+00    3.382329e+00
  8.878602e+00    3.307163e+00
  8.910353e+00    3.357166e+00
  8.942104e+00    3.280345e+00
  8.973856e+00    3.318638e+00
  9.005607e+00    3.266853e+00
  9.037358e+00    3.294758e+00
  9.069109e+00    3.241559e+00
  9.100860e+00    3.289294e+00
  9.132611e+00    3.300937e+00
  9.164362e+00    3.222223e+00
  9.196114e+00    3.257329e+00
  9.227865e+00    3.200091e+00
  9.259616e+00    3.251050e+00
  9.291367e+00    3.259557e+00
  9.323118e+00    3.191111e+00
  9.354869e+00    3.258292e+00
  9.386620e+00    3.192594e+00
  9.418372e+00    3.197528e+00
  9.450123e+00    3.193732e+00
  9.481874e+00    3.148260e+00
  9.513625e+00    3.245880e+00
  9.545376e+00    3.211803e+00
  9.577127e+00    3.314435e+00
  9.608878e+00    3.199498e+00
  9.640630e+00    3.183484e+00
  9.672381e+00    3.261915e+00
  9.704132e+00    3.254598e+00
  9.735883e+00    3.166638e+00
  9.767634e+00    3.129308e+00
  9.799385e+00    3.213097e+00
  9.831137e+00    3.117861e+00
  9.862888e+00    3.209450e+00
  9.894639e+00    3.151614e+00
  9.926390e+00    3.105009e+00
  9.958141e+00    3.086656e+00
  9.989892e+00    3.164463e+00
  1.002164e+01    3.146988e+00
  1.005339e+01    3.108593e+00
  1.008515e+01    3.078190e+00
  1.011690e+01    3.100377e+00
  1.014865e+01    3.134591e+00
  1.018040e+01    3.071846e+00
  1.021215e+01    3.061932e+00
  1.024390e+01    3.057511e+00
  1.027565e+01    3.103508e+00
  1.030740e+01    3.056670e+00
  1.033915e+01    3.076871e+00
  1.037091e+01    3.092379e+00
  1.040266e+01    3.023284e+00
  1.043441e+01    3.026325e+00
  1.046616e+01    2.989603e+00
  1.049791e+01    3.078073e+00
  1.052966e+01    3.028119e+00
  1.056141e+01    2.983166e+00
  1.059316e+01    3.065247e+00
  1.062492e+01    3.002445e+00
  1.065667e+01    3.008645e+00
  1.068842e+01    2.981228e+00
  1.072017e+01    2.981662e+00
  1.075192e+01    2.946035e+00
  1.078367e+01    2.923626e+00
  1.081542e+01    2.934564e+00
  1.084717e+01    2.885484e+00
  1.087892e+01    2.973853e+00
  1.091068e+01    2.916807e+00
  1.094243e+01    2.942187e+00
  1.097418e+01    2.920741e+00
  1.100593e+01    2.928661e+00
  1.103768e+01    2.894233e+00
  1.106943e+01    2.889866e+00
  1.110118e+01    2.909710e+00
  1.113293e+01    2.865360e+00
  1.116468e+01    2.808314e+00
  1.119644e+01    2.916441e+00
  1.122819e+01    2.896703e+00
  1.125994e+01    2.909570e+00
  1.129169e+01    2.860841e+00
  1.132344e+01    2.787627e+00
  1.135519e+01    2.799313e+00
  1.138694e+01    2.853098e+00
  1.141869e+01    2.844770e+00
  1.145045e+01    2.790317e+00
  1.148220e+01    2.789467e+00
  1.151395e+01    2.754858e+00
  1.154570e+01    2.763873e+00
  1.157745e+01    2.758855e+00
  1.160920e+01    2.763423e+00
  1.164095e+01    2.789923e+00
  1.167270e+01    2.824998e+00
  1.170445e+01    2.763722e+00
  1.173621e+01    2.796518e+00
  1.176796e+01    2.767743e+00
  1.179971e+01    2.733934e+00
  1.183146e+01    2.788061e+00
  1.186321e+01    2.737372e+00
  1.189496e+01    2.680636e+00
  1.192671e+01    2.725954e+00
  1.195846e+01    2.675283e+00
  1.199021e+01    2.735577e+00
  1.202197e+01    2.704015e+00
  1.205372e+01    2.737700e+00
  1.208547e+01    2.689548e+00
  1.211722e+01    2.642783e+00
  1.214897e+01    2.703387e+00
  1.218072e+01    2.672302e+00
  1.221247e+01    2.702046e+00
  1.224422e+01    2.660320e+00
  1.227597e+01    2.667906e+00
  1.230773e+01    2.662004e+00
  1.233948e+01    2.658769e+00
  1.237123e+01    2.722886e+00
  1.240298e+01    2.691665e+00
  1.243473e+01    2.676585e+00
  1.246648e+01    2.703824e+00
  1.249823e+01    2.652703e+00
  1.252998e+01    2.715606e+00
  1.256174e+01    2.718788e+00
  1.259349e+01    2.725221e+00
  1.262524e+01    2.793686e+00
  1.265699e+01    2.767080e+00
  1.268874e+01    2.836583e+00
  1.272049e+01    2.865198e+00
  1.275224e+01    2.867188e+00
  1.278399e+01    2.924888e+00
  1.281574e+01    3.048553e+00
  1.284750e+01    3.123786e+00
  1.287925e+01    3.344817e+00
  1.291100e+01    3.717485e+00
  1.294275e+01    4.105165e+00
  1.297450e+01    4.804410e+00
  1.300625e+01    5.879866e+00
  1.303800e+01    7.744123e+00
  1.306975e+01    1.013244e+01
  1.310150e+01    1.260453e+01
  1.313326e+01    1.484464e+01
  1.316501e+01    1.629765e+01
  1.319676e+01    1.581902e+01
  1.322851e+01    1.256349e+01
  1.326026e+01    9.244357e+00
  1.329201e+01    6.730979e+00
  1.332376e+01    5.321704e+00
  1.335551e+01    4.417740e+00
  1.338727e+01    3.837831e+00
  1.341902e+01    3.515866e+00
  1.345077e+01    3.176115e+00
  1.348252e+01    3.057874e+00
  1.351427e+01    2.928687e+00
  1.354602e+01    2.788748e+00
  1.357777e+01    2.718679e+00
  1.360952e+01    2.675160e+00
  1.364127e+01    2.632378e+00
  1.367303e+01    2.600335e+00
  1.370478e+01    2.514862e+00
  1.373653e+01    2.527171e+00
  1.376828e+01    2.501357e+00
  1.380003e+01    2.429790e+00
  1.383178e+01    2.370405e+00
  1.386353e+01    2.460931e+00
  1.389528e+01    2.404389e+00
  1.392703e+01    2.466140e+00
  1.395879e+01    2.359450e+00
  1.399054e+01    2.391360e+00
  1.402229e+01    2.342834e+00
  1.405404e+01    2.348091e+00
  1.408579e+01    2.295715e+00
  1.411754e+01    2.347252e+00
  1.414929e+01    2.320429e+00
  1.418104e+01    2.353285e+00
  1.421279e+01    2.265121e+00
  1.424455e+01    2.300423e+00
  1.427630e+01    2.263347e+00
  1.430805e+01    2.231555e+00
  1.433980e+01    2.238275e+00
  1.437155e+01    2.275547e+00
  1.440330e+01    2.291478e+00
  1.443505e+01    2.248387e+00
  1.446680e+01    2.240956e+00
  1.449856e+01    2.228398e+00
  1.453031e+01    2.191175e+00
  1.456206e+01    2.208335e+00
  1.459381e+01    2.237262e+00
  1.462556e+01    2.224876e+00
  1.465731e+01    2.175894e+00
  1.468906e+01    2.180654e+00
  1.472081e+01    2.199951e+00
  1.475256e+01    2.221036e+00
  1.478432e+01    2.228384e+00
  1.481607e+01    2.236966e+00
  1.484782e+01    2.179452e+00
  1.487957e+01    2.186998e+00
  1.491132e+01    2.249586e+00
  1.494307e+01    2.319144e+00
  1.497482e+01    2.350334e+00
  1.500657e+01    2.423829e+00
  1.503832e+01    2.576824e+00
  1.507008e+01    2.831013e+00
  1.510183e+01    3.206704e+00
  1.513358e+01    3.790584e+00
  1.516533e+01    4.464868e+00
  1.519708e+01    5.141442e+00
  1.522883e+01    5.619804e+00
  1.526058e+01    5.873818e+00
  1.529233e+01    5.514448e+00
  1.532409e+01    4.721588e+00
  1.535584e+01    3.786383e+00
  1.538759e+01    3.126785e+00
  1.541934e+01    2.754725e+00
  1.545109e+01    2.529997e+00
  1.548284e+01    2.352536e+00
  1.551459e+01    2.229277e+00
  1.554634e+01    2.141328e+00
  1.557809e+01    2.131486e+00
  1.560985e+01    2.100381e+00
  1.564160e+01    1.988986e+00
  1.567335e+01    1.997701e+00
  1.570510e+01    2.010179e+00
  1.573685e+01    2.005939e+00
  1.576860e+01    1.960117e+00
  1.580035e+01    1.950263e+00
  1.583210e+01    1.925452e+00
  1.586385e+01    1.912359e+00
  1.589561e+01    1.880165e+00
  1.592736e+01    1.932207e+00
  1.595911e+01    1.885162e+00
  1.599086e+01    1.860659e+00
  1.602261e+01    1.827838e+00
  1.605436e+01    1.885943e+00
  1.608611e+01    1.855956e+00
  1.611786e+01    1.834688e+00
  1.614961e+01    1.874943e+00
  1.618137e+01    1.840358e+00
  1.621312e+01    1.778321e+00
  1.624487e+01    1.797535e+00
  1.627662e+01    1.790191e+00
  1.630837e+01    1.767999e+00
  1.634012e+01    1.799124e+00
  1.637187e+01    1.760871e+00
  1.640362e+01    1.760677e+00
  1.643538e+01    1.771667e+00
  1.646713e+01    1.776080e+00
  1.649888e+01    1.786478e+00
  1.653063e+01    1.781288e+00
  1.656238e+01    1.720700e+00
  1.659413e+01    1.730432e+00
  1.662588e+01    1.736307e+00
  1.665763e+01    1.747232e+00
  1.668938e+01    1.702814e+00
  1.672114e+01    1.732309e+00
  1.675289e+01    1.740078e+00
  1.678464e+01    1.687912e+00
  1.681639e+01    1.677472e+00
  1.684814e+01    1.707434e+00
  1.687989e+01    1.700661e+00
  1.691164e+01    1.687583e+00
  1.694339e+01    1.690715e+00
  1.697514e+01    1.658776e+00
  1.700690e+01    1.664515e+00
  1.703865e+01    1.658721e+00
  1.707040e+01    1.671572e+00
  1.710215e+01    1.666986e+00
  1.713390e+01    1.615049e+00
  1.716565e+01    1.618388e+00
  1.719740e+01    1.642614e+00
  1.722915e+01    1.610911e+00
  1.726091e+01    1.629549e+00
  1.729266e+01    1.643626e+00
  1.732441e+01    1.653116e+00
  1.735616e+01    1.584966e+00
  1.738791e+01    1.607160e+00
  1.741966e+01    1.583187e+00
  1.745141e+01    1.591008e+00
  1.748316e+01    1.577862e+00
  1.751491e+01    1.585453e+00
  1.754667e+01    1.576561e+00
  1.757842e+01    1.576523e+00
  1.761017e+01    1.557860e+00
  1.764192e+01    1.556827e+00
  1.767367e+01    1.570790e+00
  1.770542e+01    1.530685e+00
  1.773717e+01    1.522504e+00
  1.776892e+01    1.590886e+00
  1.780067e+01    1.545482e+00
  1.783243e+01    1.519877e+00
  1.786418e+01    1.526926e+00
  1.789593e+01    1.521218e+00
  1.792768e+01    1.530446e+00
  1.795943e+01    1.525772e+00
  1.799118e+01    1.537761e+00
  1.802293e+01    1.500654e+00
  1.805468e+01    1.477242e+00
  1.808643e+01    1.555379e+00
  1.811819e+01    1.487879e+00
  1.814994e+01    1.472861e+00
  1.818169e+01    1.491522e+00
  1.821344e+01    1.489739e+00
  1.824519e+01    1.484141e+00
  1.827694e+01    1.478796e+00
  1.830869e+01    1.475514e+00
  1.834044e+01    1.468057e+00
  1.837220e+01    1.464708e+00
  1.840395e+01    1.451856e+00
  1.843570e+01    1.467169e+00
  1.846745e+01    1.462682e+00
  1.849920e+01    1.431697e+00
  1.853095e+01    1.429364e+00
  1.856270e+01    1.424193e+00
  1.859445e+01    1.439326e+00
  1.862620e+01    1.398491e+00
  1.865796e+01    1.419276e+00
  1.868971e+01    1.399171e+00
  1.872146e+01    1.423479e+00
  1.875321e+01    1.400646e+00
  1.878496e+01    1.409197e+00
  1.881671e+01    1.405730e+00
  1.884846e+01    1.407319e+00
  1.888021e+01    1.393634e+00
  1.891196e+01    1.406186e+00
  1.894372e+01    1.389402e+00
  1.897547e+01    1.389481e+00
  1.900722e+01    1.389213e+00
  1.903897e+01    1.387285e+00
  1.907072e+01    1.355076e+00
  1.910247e+01    1.371638e+00
  1.913422e+01    1.344178e+00
  1.916597e+01    1.368685e+00
  1.919773e+01    1.371058e+00
  1.922948e+01    1.368039e+00
  1.926123e+01    1.342360e+00
  1.929298e+01    1.374901e+00
  1.932473e+01    1.368657e+00
  1.935648e+01    1.347602e+00
  1.938823e+01    1.339992e+00
  1.941998e+01    1.330004e+00
  1.945173e+01    1.334252e+00
  1.948349e+01    1.326140e+00
  1.951524e+01    1.289449e+00
  1.954699e+01    1.321547e+00
  1.957874e+01    1.353944e+00
  1.961049e+01    1.336750e+00
  1.964224e+01    1.319549e+00
  1.967399e+01    1.279143e+00
  1.970574e+01    1.310781e+00
  1.973749e+01    1.333283e+00
  1.976925e+01    1.284941e+00
  1.980100e+01    1.295266e+00
  1.983275e+01    1.314465e+00
  1.986450e+01    1.294753e+00
  1.989625e+01    1.297015e+00
  1.992800e+01    1.312749e+00
  1.995975e+01    1.311408e+00
  1.999150e+01    1.306998e+00
  2.002325e+01    1.279600e+00
  2.005501e+01    1.274026e+00
  2.008676e+01    1.257642e+00
  2.011851e+01    1.259806e+00
  2.015026e+01    1.270539e+00
  2.018201e+01    1.264462e+00
  2.021376e+01    1.260849e+00
  2.024551e+01    1.279263e+00
  2.027726e+01    1.259074e+00
  2.030902e+01    1.245304e+00
  2.034077e+01    1.241377e+00
  2.037252e+01    1.253526e+00
  2.040427e+01    1.262305e+00
  2.043602e+01    1.236216e+00
  2.046777e+01    1.260890e+00
  2.049952e+01    1.271204e+00
  2.053127e+01    1.224403e+00
  2.056302e+01    1.245592e+00
  2.059478e+01    1.238290e+00
  2.062653e+01    1.239581e+00
  2.065828e+01    1.245252e+00
  2.069003e+01    1.235092e+00
  2.072178e+01    1.236811e+00
  2.075353e+01    1.192440e+00
  2.078528e+01    1.229204e+00
  2.081703e+01    1.211597e+00
  2.084878e+01    1.230883e+00
  2.088054e+01    1.249691e+00
  2.091229e+01    1.213423e+00
  2.094404e+01    1.223446e+00
  2.097579e+01    1.213111e+00
  2.100754e+01    1.233957e+00
  2.103929e+01    1.247111e+00
  2.107104e+01    1.240745e+00
  2.110279e+01    1.245310e+00
  2.113455e+01    1.251086e+00
  2.116630e+01    1.247848e+00
  2.119805e+01    1.239527e+00
  2.122980e+01    1.267866e+00
  2.126155e+01    1.230960e+00
  2.129330e+01    1.272222e+00
  2.132505e+01    1.245532e+00
  2.135680e+01    1.308472e+00
  2.138855e+01    1.316300e+00
  2.142031e+01    1.325578e+00
  2.145206e+01    1.357847e+00
  2.148381e+01    1.379304e+00
  2.151556e+01    1.442409e+00
  2.154731e+01    1.493728e+00
  2.157906e+01    1.585539e+00
  2.161081e+01    1.767920e+00
  2.164256e+01    1.961331e+00
  2.167431e+01    2.277427e+00
  2.170607e+01    2.758625e+00
  2.173782e+01    3.539700e+00
  2.176957e+01    4.552251e+00
  2.180132e+01    5.874652e+00
  2.183307e+01    7.174538e+00
  2.186482e+01    8.388435e+00
  2.189657e+01    8.985023e+00
  2.192832e+01    8.293364e+00
  2.196007e+01    6.665851e+00
  2.199183e+01    4.911675e+00
  2.202358e+01    3.670468e+00
  2.205533e+01    2.868201e+00
  2.208708e+01    2.336764e+00
  2.211883e+01    2.013091e+00
  2.215058e+01    1.752274e+00
  2.218233e+01    1.603168e+00
  2.221408e+01    1.488001e+00
  2.224584e+01    1.383765e+00
  2.227759e+01    1.377711e+00
  2.230934e+01    1.319644e+00
  2.234109e+01    1.264489e+00
  2.237284e+01    1.201000e+00
  2.240459e+01    1.185860e+00
  2.243634e+01    1.195201e+00
  2.246809e+01    1.178321e+00
  2.249984e+01    1.144774e+00
  2.253160e+01    1.108418e+00
  2.256335e+01    1.133308e+00
  2.259510e+01    1.095192e+00
  2.262685e+01    1.106143e+00
  2.265860e+01    1.077790e+00
  2.269035e+01    1.073479e+00
  2.272210e+01    1.084155e+00
  2.275385e+01    1.074556e+00
  2.278560e+01    1.075014e+00
  2.281736e+01    1.050987e+00
  2.284911e+01    1.040275e+00
  2.288086e+01    1.063206e+00
  2.291261e+01    1.045776e+00
  2.294436e+01    1.012867e+00
  2.297611e+01    1.022592e+00
  2.300786e+01    1.012096e+00
  2.303961e+01    1.038163e+00
  2.307137e+01    1.002423e+00
  2.310312e+01    1.006964e+00
  2.313487e+01    9.977671e-01
  2.316662e+01    1.006474e+00
  2.319837e+01    9.990007e-01
  2.323012e+01    1.006079e+00
  2.326187e+01    9.780612e-01
  2.329362e+01    9.942629e-01
  2.332537e+01    9.729694e-01
  2.335713e+01    9.893422e-01
  2.338888e+01    9.749351e-01
  2.342063e+01    9.641593e-01
  2.345238e+01    9.621050e-01
  2.348413e+01    9.849079e-01
  2.351588e+01    9.679855e-01
  2.354763e+01    9.537408e-01
  2.357938e+01    9.377679e-01
  2.361113e+01    9.225125e-01
  2.364289e+01    9.430040e-01
  2.367464e+01    9.410716e-01
  2.370639e+01    9.324880e-01
  2.373814e+01    9.299124e-01
  2.376989e+01    9.385441e-01
  2.380164e+01    9.164765e-01
  2.383339e+01    9.227386e-01
  2.386514e+01    9.085891e-01
  2.389689e+01    8.907351e-01
  2.392865e+01    8.934355e-01
  2.396040e+01    8.948252e-01
  2.399215e+01    9.011303e-01
  2.402390e+01    9.078704e-01
  2.405565e+01    9.069287e-01
  2.408740e+01    8.789271e-01
  2.411915e+01    8.817516e-01
  2.415090e+01    8.814937e-01
  2.418266e+01    8.725497e-01
  2.421441e+01    8.619547e-01
  2.424616e+01    8.737340e-01
  2.427791e+01    8.613307e-01
  2.430966e+01    8.797801e-01
  2.434141e+01    8.749607e-01
  2.437316e+01    9.140341e-01
  2.440491e+01    8.760426e-01
  2.443666e+01    8.965092e-01
  2.446842e+01    9.014340e-01
  2.450017e+01    8.869516e-01
  2.453192e+01    8.932582e-01
  2.456367e+01    8.794517e-01
  2.459542e+01    8.994543e-01
  2.462717e+01    8.705796e-01
  2.465892e+01    8.937389e-01
  2.469067e+01    9.039207e-01
  2.472242e+01    8.839763e-01
  2.475418e+01    8.943093e-01
  2.478593e+01    8.777964e-01
  2.481768e+01    8.774807e-01
  2.484943e+01    8.824842e-01
  2.488118e+01    8.892289e-01
  2.491293e+01    8.927497e-01
  2.494468e+01    8.988196e-01
  2.497643e+01    8.974453e-01
  2.500819e+01    8.788002e-01
  2.503994e+01    8.917687e-01
  2.507169e+01    8.838397e-01
  2.510344e+01    9.155445e-01
  2.513519e+01    9.005296e-01
  2.516694e+01    9.316086e-01
  2.519869e+01    9.145157e-01
  2.523044e+01    9.335514e-01
  2.526219e+01    9.462761e-01
  2.529395e+01    9.461209e-01
  2.532570e+01    9.412266e-01
  2.535745e+01    9.840121e-01
  2.538920e+01    9.658505e-01
  2.542095e+01    1.014834e+00
  2.545270e+01    1.027918e+00
  2.548445e+01    1.060022e+00
  2.551620e+01    1.071723e+00
  2.554795e+01    1.112010e+00
  2.557971e+01    1.171855e+00
  2.561146e+01    1.215727e+00
  2.564321e+01    1.335341e+00
  2.567496e+01    1.428466e+00
  2.570671e+01    1.594156e+00
  2.573846e+01    1.832600e+00
  2.577021e+01    2.211749e+00
  2.580196e+01    2.810213e+00
  2.583371e+01    3.609730e+00
  2.586547e+01    4.689044e+00
  2.589722e+01    5.841517e+00
  2.592897e+01    6.824829e+00
  2.596072e+01    7.180727e+00
  2.599247e+01    6.576216e+00
  2.602422e+01    5.337143e+00
  2.605597e+01    4.045290e+00
  2.608772e+01    3.051762e+00
  2.611948e+01    2.378501e+00
  2.615123e+01    1.962070e+00
  2.618298e+01    1.681878e+00
  2.621473e+01    1.486522e+00
  2.624648e+01    1.344401e+00
  2.627823e+01    1.256946e+00
  2.630998e+01    1.172087e+00
  2.634173e+01    1.136836e+00
  2.637348e+01    1.069143e+00
  2.640524e+01    1.049898e+00
  2.643699e+01    1.018150e+00
  2.646874e+01    1.029065e+00
  2.650049e+01    9.971892e-01
  2.653224e+01    1.012573e+00
  2.656399e+01    9.726494e-01
  2.659574e+01    9.693030e-01
  2.662749e+01    9.898830e-01
  2.665924e+01    9.742533e-01
  2.669100e+01    9.811850e-01
  2.672275e+01    9.875250e-01
  2.675450e+01    9.676836e-01
  2.678625e+01    9.826344e-01
  2.681800e+01    9.594637e-01
  2.684975e+01    9.708250e-01
  2.688150e+01    9.847245e-01
  2.691325e+01    9.980710e-01
  2.694501e+01    1.018160e+00
  2.697676e+01    1.081524e+00
  2.700851e+01    1.116645e+00
  2.704026e+01    1.202516e+00
  2.707201e+01    1.308888e+00
  2.710376e+01    1.486942e+00
  2.713551e+01    1.745127e+00
  2.716726e+01    1.951093e+00
  2.719901e+01    2.140902e+00
  2.723077e+01    2.155884e+00
  2.726252e+01    1.971679e+00
  2.729427e+01    1.695050e+00
  2.732602e+01    1.481903e+00
  2.735777e+01    1.271740e+00
  2.738952e+01    1.194098e+00
  2.742127e+01    1.125631e+00
  2.745302e+01    1.028518e+00
  2.748477e+01    1.000868e+00
  2.751653e+01    9.715102e-01
  2.754828e+01    9.745795e-01
  2.758003e+01    9.608943e-01
  2.761178e+01    9.441758e-01
  2.764353e+01    9.370809e-01
  2.767528e+01    9.207788e-01
  2.770703e+01    9.154426e-01
  2.773878e+01    9.081693e-01
  2.777054e+01    8.748686e-01
  2.780229e+01    8.624006e-01
  2.783404e+01    8.805929e-01
  2.786579e+01    8.884405e-01
  2.789754e+01    8.685715e-01
  2.792929e+01    8.529329e-01
  2.796104e+01    8.696251e-01
  2.799279e+01    8.923098e-01
  2.802454e+01    8.688105e-01
  2.805630e+01    8.610414e-01
  2.808805e+01    8.443094e-01
  2.811980e+01    8.789556e-01
  2.815155e+01    8.635724e-01
  2.818330e+01    8.409696e-01
  2.821505e+01    8.852496e-01
  2.824680e+01    8.400304e-01
  2.827855e+01    8.496099e-01
  2.831030e+01    8.440689e-01
  2.834206e+01    8.462679e-01
  2.837381e+01    8.423555e-01
  2.840556e+01    8.407031e-01
  2.843731e+01    8.184303e-01
  2.846906e+01    8.417124e-01
  2.850081e+01    8.541990e-01
  2.853256e+01    8.367735e-01
  2.856431e+01    8.376350e-01
  2.859606e+01    8.466337e-01
  2.862782e+01    8.400718e-01
  2.865957e+01    8.276852e-01
  2.869132e+01    8.301908e-01
  2.872307e+01    8.264982e-01
  2.875482e+01    8.319492e-01
  2.878657e+01    8.230430e-01
  2.881832e+01    8.333709e-01
  2.885007e+01    8.273231e-01
  2.888183e+01    8.045504e-01
  2.891358e+01    8.366749e-01
  2.894533e+01    7.946715e-01
  2.897708e+01    8.116193e-01
  2.900883e+01    8.181863e-01
  2.904058e+01    8.225656e-01
  2.907233e+01    8.123016e-01
  2.910408e+01    8.187406e-01
  2.913583e+01    8.053396e-01
  2.916759e+01    8.170003e-01
  2.919934e+01    8.242276e-01
  2.923109e+01    8.194443e-01
  2.926284e+01    8.072276e-01
  2.929459e+01    8.069476e-01
  2.932634e+01    8.012315e-01
  2.935809e+01    8.001031e-01
  2.938984e+01    8.060650e-01
  2.942159e+01    8.017049e-01
  2.945335e+01    7.811165e-01
  2.948510e+01    7.890774e-01
  2.951685e+01    8.055102e-01
  2.954860e+01    7.974947e-01
  2.958035e+01    7.819569e-01
  2.961210e+01    8.001658e-01
  2.964385e+01    8.323339e-01
  2.967560e+01    8.043270e-01
  2.970736e+01    8.107014e-01
  2.973911e+01    8.027940e-01
  2.977086e+01    8.088647e-01
  2.980261e+01    7.949478e-01
  2.983436e+01    7.910909e-01
  2.986611e+01    8.207067e-01
  2.989786e+01    8.052744e-01
  2.992961e+01    7.950714e-01
  2.996136e+01    8.016240e-01
  2.999312e+01    8.125007e-01
  3.002487e+01    8.133269e-01
  3.005662e+01    8.132153e-01
  3.008837e+01    8.217840e-01
  3.012012e+01    7.973922e-01
  3.015187e+01    8.125681e-01
  3.018362e+01    7.951993e-01
  3.021537e+01    8.143962e-01
  3.024712e+01    7.958956e-01
  3.027888e+01    7.714099e-01
  3.031063e+01    7.974550e-01
  3.034238e+01    7.876564e-01
  3.037413e+01    8.065519e-01
  3.040588e+01    7.994577e-01
  3.043763e+01    7.897160e-01
  3.046938e+01    7.974300e-01
  3.050113e+01    7.799813e-01
  3.053288e+01    7.792358e-01
  3.056464e+01    7.841938e-01
  3.059639e+01    7.960852e-01
  3.062814e+01    7.859047e-01
  3.065989e+01    8.087807e-01
  3.069164e+01    8.069479e-01
  3.072339e+01    7.743968e-01
  3.075514e+01    8.087900e-01
  3.078689e+01    7.829642e-01
  3.081865e+01    7.811879e-01
  3.085040e+01    7.957059e-01
  3.088215e+01    7.683229e-01
  3.091390e+01    7.977005e-01
  3.094565e+01    8.084809e-01
  3.097740e+01    7.765664e-01
  3.100915e+01    7.749422e-01
  3.104090e+01    7.834277e-01
  3.107265e+01    7.771376e-01
  3.110441e+01    7.859678e-01
  3.113616e+01    8.050409e-01
  3.116791e+01    7.884672e-01
  3.119966e+01    7.877700e-01
  3.123141e+01    7.930235e-01
  3.126316e+01    8.014336e-01
  3.129491e+01    7.937212e-01
  3.132666e+01    7.924976e-01
  3.135841e+01    8.050802e-01
  3.139017e+01    8.086567e-01
  3.142192e+01    8.171658e-01
  3.145367e+01    8.154248e-01
  3.148542e+01    8.300778e-01
  3.151717e+01    8.223863e-01
  3.154892e+01    8.258071e-01
  3.158067e+01    8.758503e-01
  3.161242e+01    8.980759e-01
  3.164418e+01    9.002989e-01
  3.167593e+01    9.829257e-01
  3.170768e+01    1.024820e+00
  3.173943e+01    1.102459e+00
  3.177118e+01    1.269409e+00
  3.180293e+01    1.475387e+00
  3.183468e+01    1.689972e+00
  3.186643e+01    1.930300e+00
  3.189818e+01    2.099855e+00
  3.192994e+01    2.039273e+00
  3.196169e+01    1.795126e+00
  3.199344e+01    1.558854e+00
  3.202519e+01    1.338518e+00
  3.205694e+01    1.166280e+00
  3.208869e+01    1.035058e+00
  3.212044e+01    9.742467e-01
  3.215219e+01    9.190956e-01
  3.218394e+01    8.722179e-01
  3.221570e+01    8.573911e-01
  3.224745e+01    8.453056e-01
  3.227920e+01    8.494191e-01
  3.231095e+01    8.055426e-01
  3.234270e+01    7.999678e-01
  3.237445e+01    8.162585e-01
  3.240620e+01    7.837681e-01
  3.243795e+01    7.875187e-01
  3.246970e+01    7.811445e-01
  3.250146e+01    7.807175e-01
  3.253321e+01    7.826136e-01
  3.254908e+01    7.753671e-01