File: XRD/Reaction conditions/2024-07-27_003_Ru-CGO-ex_Reaction_dwell_000023_data_000099.dat
# == pyFAI calibration ==
# Distance Sample to Detector: 0.4 m
# PONI: 9.750e-02, 1.135e-01 m
# Rotations: -0.000175 0.000000 -0.000000 rad
#
# == Fit2d calibration ==
# Distance Sample-beamCenter: 400.000 mm
# Center: x=1514.000, y=1300.000 pix
# Tilt: 0.010 deg  TiltPlanRot: 0.010 deg
#
# Detector Detector	 Spline= None	 PixelSize= 7.500e-05, 7.500e-05 m
#    Detector has a mask: False
#    Detector has a dark current: False
#    detector has a flat field: False
#
# Wavelength: 6.888e-11 m
# Mask applied: user provided
# Dark current applied: False
# Flat field applied: False
# Polarization factor: 0.99
# Normalization factor: 1.0
# --> /home/myspot/data/2024_07_Rosario/Ru-CGO-ex/2024-07-27_003_Ru-CGO-ex_Reaction_dwell_000023_data_000099.dat
#       q_nm^-1             I
  2.003187e-02    0.000000e+00
  5.178302e-02    2.672067e-02
  8.353417e-02    5.600673e-02
  1.152853e-01    6.282267e-03
  1.470365e-01    1.604886e-02
  1.787876e-01    6.294749e-02
  2.105388e-01    2.232513e-02
  2.422899e-01    0.000000e+00
  2.740411e-01    1.469452e-02
  3.057922e-01    3.717593e-02
  3.375433e-01    8.901723e-02
  3.692945e-01    3.348474e-02
  4.010456e-01    5.163873e-02
  4.327968e-01    3.195650e-02
  4.645479e-01    3.382445e-02
  4.962991e-01    3.541626e-02
  5.280502e-01    2.049700e-02
  5.598014e-01    1.243026e-02
  5.915525e-01    2.595638e-02
  6.233037e-01    5.270572e-02
  6.550548e-01    2.950137e-02
  6.868060e-01    3.801369e-02
  7.185571e-01    1.810987e-02
  7.503083e-01    3.539227e-02
  7.820594e-01    1.308264e-01
  8.138106e-01    1.604398e-01
  8.455617e-01    3.744232e-01
  8.773129e-01    4.630831e-01
  9.090640e-01    6.407254e-01
  9.408152e-01    7.075728e-01
  9.725663e-01    1.051545e+00
  1.004317e+00    1.145717e+00
  1.036069e+00    1.202603e+00
  1.067820e+00    1.405511e+00
  1.099571e+00    1.502294e+00
  1.131322e+00    1.675899e+00
  1.163073e+00    1.723570e+00
  1.194824e+00    1.923699e+00
  1.226575e+00    2.282202e+00
  1.258327e+00    2.494525e+00
  1.290078e+00    2.600410e+00
  1.321829e+00    2.739809e+00
  1.353580e+00    2.872079e+00
  1.385331e+00    2.767791e+00
  1.417082e+00    2.961645e+00
  1.448834e+00    2.953408e+00
  1.480585e+00    3.075515e+00
  1.512336e+00    3.188275e+00
  1.544087e+00    3.229937e+00
  1.575838e+00    3.190881e+00
  1.607589e+00    3.342777e+00
  1.639340e+00    3.082029e+00
  1.671092e+00    3.112203e+00
  1.702843e+00    3.107687e+00
  1.734594e+00    3.150353e+00
  1.766345e+00    3.077319e+00
  1.798096e+00    3.147218e+00
  1.829847e+00    3.115352e+00
  1.861598e+00    2.934479e+00
  1.893350e+00    2.999859e+00
  1.925101e+00    3.024066e+00
  1.956852e+00    3.142246e+00
  1.988603e+00    3.060562e+00
  2.020354e+00    3.097870e+00
  2.052105e+00    3.035521e+00
  2.083856e+00    3.054713e+00
  2.115608e+00    3.095790e+00
  2.147359e+00    3.124593e+00
  2.179110e+00    3.122009e+00
  2.210861e+00    3.165338e+00
  2.242612e+00    3.180051e+00
  2.274363e+00    3.172391e+00
  2.306115e+00    3.122605e+00
  2.337866e+00    3.134234e+00
  2.369617e+00    3.028071e+00
  2.401368e+00    3.072610e+00
  2.433119e+00    3.127513e+00
  2.464870e+00    3.239186e+00
  2.496621e+00    3.237356e+00
  2.528373e+00    3.233095e+00
  2.560124e+00    3.358871e+00
  2.591875e+00    3.287587e+00
  2.623626e+00    3.325608e+00
  2.655377e+00    3.238381e+00
  2.687128e+00    3.284749e+00
  2.718879e+00    3.294362e+00
  2.750631e+00    3.279921e+00
  2.782382e+00    3.284522e+00
  2.814133e+00    3.223113e+00
  2.845884e+00    3.320539e+00
  2.877635e+00    3.337895e+00
  2.909386e+00    3.319369e+00
  2.941137e+00    3.387643e+00
  2.972889e+00    3.350589e+00
  3.004640e+00    3.239734e+00
  3.036391e+00    3.377347e+00
  3.068142e+00    3.483812e+00
  3.099893e+00    3.256141e+00
  3.131644e+00    3.348082e+00
  3.163395e+00    3.329108e+00
  3.195147e+00    3.350716e+00
  3.226898e+00    3.474247e+00
  3.258649e+00    3.512028e+00
  3.290400e+00    3.417648e+00
  3.322151e+00    3.477186e+00
  3.353902e+00    3.331823e+00
  3.385654e+00    3.414112e+00
  3.417405e+00    3.343322e+00
  3.449156e+00    3.412689e+00
  3.480907e+00    3.409023e+00
  3.512658e+00    3.519956e+00
  3.544409e+00    3.456152e+00
  3.576160e+00    3.457460e+00
  3.607912e+00    3.480744e+00
  3.639663e+00    3.553349e+00
  3.671414e+00    3.510931e+00
  3.703165e+00    3.429055e+00
  3.734916e+00    3.374809e+00
  3.766667e+00    3.322377e+00
  3.798418e+00    3.459279e+00
  3.830170e+00    3.553479e+00
  3.861921e+00    3.475961e+00
  3.893672e+00    3.476296e+00
  3.925423e+00    3.612883e+00
  3.957174e+00    3.475646e+00
  3.988925e+00    3.556293e+00
  4.020676e+00    3.648470e+00
  4.052428e+00    3.553240e+00
  4.084179e+00    3.700068e+00
  4.115930e+00    3.511869e+00
  4.147681e+00    3.581736e+00
  4.179432e+00    3.475665e+00
  4.211183e+00    3.589872e+00
  4.242935e+00    3.598756e+00
  4.274686e+00    3.604473e+00
  4.306437e+00    3.558856e+00
  4.338188e+00    3.604681e+00
  4.369939e+00    3.531437e+00
  4.401690e+00    3.615384e+00
  4.433441e+00    3.548006e+00
  4.465193e+00    3.621533e+00
  4.496944e+00    3.652197e+00
  4.528695e+00    3.567614e+00
  4.560446e+00    3.506533e+00
  4.592197e+00    3.647344e+00
  4.623948e+00    3.528722e+00
  4.655699e+00    3.642272e+00
  4.687451e+00    3.686464e+00
  4.719202e+00    3.556907e+00
  4.750953e+00    3.566143e+00
  4.782704e+00    3.584384e+00
  4.814455e+00    3.645755e+00
  4.846206e+00    3.655268e+00
  4.877957e+00    3.595304e+00
  4.909709e+00    3.551061e+00
  4.941460e+00    3.637822e+00
  4.973211e+00    3.689372e+00
  5.004962e+00    3.680370e+00
  5.036713e+00    3.632259e+00
  5.068464e+00    3.641682e+00
  5.100216e+00    3.622339e+00
  5.131967e+00    3.682825e+00
  5.163718e+00    3.622299e+00
  5.195469e+00    3.722055e+00
  5.227220e+00    3.655706e+00
  5.258971e+00    3.583826e+00
  5.290722e+00    3.616392e+00
  5.322474e+00    3.584106e+00
  5.354225e+00    3.709417e+00
  5.385976e+00    3.670927e+00
  5.417727e+00    3.699600e+00
  5.449478e+00    3.636063e+00
  5.481229e+00    3.584717e+00
  5.512980e+00    3.653128e+00
  5.544732e+00    3.553961e+00
  5.576483e+00    3.568502e+00
  5.608234e+00    3.580871e+00
  5.639985e+00    3.628839e+00
  5.671736e+00    3.552843e+00
  5.703487e+00    3.651738e+00
  5.735238e+00    3.663908e+00
  5.766990e+00    3.519375e+00
  5.798741e+00    3.585843e+00
  5.830492e+00    3.507851e+00
  5.862243e+00    3.570974e+00
  5.893994e+00    3.541301e+00
  5.925745e+00    3.500720e+00
  5.957497e+00    3.511484e+00
  5.989248e+00    3.532361e+00
  6.020999e+00    3.598152e+00
  6.052750e+00    3.520025e+00
  6.084501e+00    3.605894e+00
  6.116252e+00    3.591470e+00
  6.148003e+00    3.582366e+00
  6.179755e+00    3.588635e+00
  6.211506e+00    3.704918e+00
  6.243257e+00    3.575235e+00
  6.275008e+00    3.567577e+00
  6.306759e+00    3.581713e+00
  6.338510e+00    3.547455e+00
  6.370261e+00    3.595710e+00
  6.402013e+00    3.484256e+00
  6.433764e+00    3.508790e+00
  6.465515e+00    3.544014e+00
  6.497266e+00    3.538653e+00
  6.529017e+00    3.612768e+00
  6.560768e+00    3.633540e+00
  6.592519e+00    3.549898e+00
  6.624271e+00    3.561335e+00
  6.656022e+00    3.581237e+00
  6.687773e+00    3.609134e+00
  6.719524e+00    3.520120e+00
  6.751275e+00    3.504349e+00
  6.783026e+00    3.497101e+00
  6.814777e+00    3.561041e+00
  6.846529e+00    3.496050e+00
  6.878280e+00    3.559745e+00
  6.910031e+00    3.559855e+00
  6.941782e+00    3.599636e+00
  6.973533e+00    3.539432e+00
  7.005284e+00    3.528646e+00
  7.037036e+00    3.476995e+00
  7.068787e+00    3.559924e+00
  7.100538e+00    3.572988e+00
  7.132289e+00    3.466858e+00
  7.164040e+00    3.574802e+00
  7.195791e+00    3.520694e+00
  7.227542e+00    3.536942e+00
  7.259294e+00    3.513294e+00
  7.291045e+00    3.491017e+00
  7.322796e+00    3.557546e+00
  7.354547e+00    3.511443e+00
  7.386298e+00    3.498544e+00
  7.418049e+00    3.501269e+00
  7.449800e+00    3.519520e+00
  7.481552e+00    3.432174e+00
  7.513303e+00    3.489547e+00
  7.545054e+00    3.437646e+00
  7.576805e+00    3.472955e+00
  7.608556e+00    3.414318e+00
  7.640307e+00    3.520674e+00
  7.672058e+00    3.509251e+00
  7.703810e+00    3.470112e+00
  7.735561e+00    3.441206e+00
  7.767312e+00    3.487008e+00
  7.799063e+00    3.402426e+00
  7.830814e+00    3.410650e+00
  7.862565e+00    3.456372e+00
  7.894317e+00    3.396168e+00
  7.926068e+00    3.474521e+00
  7.957819e+00    3.430679e+00
  7.989570e+00    3.400361e+00
  8.021321e+00    3.471282e+00
  8.053072e+00    3.446472e+00
  8.084823e+00    3.420186e+00
  8.116575e+00    3.493261e+00
  8.148326e+00    3.506112e+00
  8.180077e+00    3.450738e+00
  8.211828e+00    3.454707e+00
  8.243579e+00    3.545510e+00
  8.275330e+00    3.401114e+00
  8.307081e+00    3.487259e+00
  8.338833e+00    3.388355e+00
  8.370584e+00    3.395772e+00
  8.402335e+00    3.401792e+00
  8.434086e+00    3.396509e+00
  8.465837e+00    3.357763e+00
  8.497588e+00    3.357442e+00
  8.529339e+00    3.359036e+00
  8.561091e+00    3.346206e+00
  8.592842e+00    3.323225e+00
  8.624593e+00    3.347614e+00
  8.656344e+00    3.324941e+00
  8.688095e+00    3.372090e+00
  8.719846e+00    3.354329e+00
  8.751598e+00    3.296875e+00
  8.783349e+00    3.308624e+00
  8.815100e+00    3.324429e+00
  8.846851e+00    3.348891e+00
  8.878602e+00    3.266161e+00
  8.910353e+00    3.319132e+00
  8.942104e+00    3.287613e+00
  8.973856e+00    3.281701e+00
  9.005607e+00    3.262318e+00
  9.037358e+00    3.267268e+00
  9.069109e+00    3.219954e+00
  9.100860e+00    3.277694e+00
  9.132611e+00    3.282612e+00
  9.164362e+00    3.272241e+00
  9.196114e+00    3.263554e+00
  9.227865e+00    3.265394e+00
  9.259616e+00    3.187563e+00
  9.291367e+00    3.222020e+00
  9.323118e+00    3.283632e+00
  9.354869e+00    3.198109e+00
  9.386620e+00    3.260123e+00
  9.418372e+00    3.300905e+00
  9.450123e+00    3.197992e+00
  9.481874e+00    3.217147e+00
  9.513625e+00    3.235193e+00
  9.545376e+00    3.206023e+00
  9.577127e+00    3.205497e+00
  9.608878e+00    3.128301e+00
  9.640630e+00    3.254836e+00
  9.672381e+00    3.228065e+00
  9.704132e+00    3.212833e+00
  9.735883e+00    3.157726e+00
  9.767634e+00    3.169143e+00
  9.799385e+00    3.182671e+00
  9.831137e+00    3.155272e+00
  9.862888e+00    3.165145e+00
  9.894639e+00    3.124630e+00
  9.926390e+00    3.184615e+00
  9.958141e+00    3.142252e+00
  9.989892e+00    3.163649e+00
  1.002164e+01    3.094612e+00
  1.005339e+01    3.163718e+00
  1.008515e+01    3.103957e+00
  1.011690e+01    3.078293e+00
  1.014865e+01    2.966190e+00
  1.018040e+01    3.062427e+00
  1.021215e+01    3.084185e+00
  1.024390e+01    3.094191e+00
  1.027565e+01    3.102505e+00
  1.030740e+01    3.108566e+00
  1.033915e+01    3.031375e+00
  1.037091e+01    3.031204e+00
  1.040266e+01    3.034851e+00
  1.043441e+01    3.013051e+00
  1.046616e+01    3.039614e+00
  1.049791e+01    3.023443e+00
  1.052966e+01    3.016411e+00
  1.056141e+01    2.948325e+00
  1.059316e+01    2.997343e+00
  1.062492e+01    3.026223e+00
  1.065667e+01    2.968195e+00
  1.068842e+01    2.985633e+00
  1.072017e+01    2.991028e+00
  1.075192e+01    2.988399e+00
  1.078367e+01    2.954273e+00
  1.081542e+01    2.967974e+00
  1.084717e+01    3.015907e+00
  1.087892e+01    2.992000e+00
  1.091068e+01    2.904763e+00
  1.094243e+01    2.919286e+00
  1.097418e+01    2.921923e+00
  1.100593e+01    2.932440e+00
  1.103768e+01    2.944584e+00
  1.106943e+01    2.902380e+00
  1.110118e+01    2.924558e+00
  1.113293e+01    2.898458e+00
  1.116468e+01    2.910050e+00
  1.119644e+01    2.904632e+00
  1.122819e+01    2.854123e+00
  1.125994e+01    2.856010e+00
  1.129169e+01    2.841215e+00
  1.132344e+01    2.801035e+00
  1.135519e+01    2.816993e+00
  1.138694e+01    2.881288e+00
  1.141869e+01    2.793220e+00
  1.145045e+01    2.769052e+00
  1.148220e+01    2.794252e+00
  1.151395e+01    2.808997e+00
  1.154570e+01    2.843289e+00
  1.157745e+01    2.793217e+00
  1.160920e+01    2.785306e+00
  1.164095e+01    2.770161e+00
  1.167270e+01    2.769974e+00
  1.170445e+01    2.736660e+00
  1.173621e+01    2.722708e+00
  1.176796e+01    2.773316e+00
  1.179971e+01    2.759228e+00
  1.183146e+01    2.765466e+00
  1.186321e+01    2.740560e+00
  1.189496e+01    2.794695e+00
  1.192671e+01    2.709563e+00
  1.195846e+01    2.766655e+00
  1.199021e+01    2.717957e+00
  1.202197e+01    2.736873e+00
  1.205372e+01    2.728686e+00
  1.208547e+01    2.743470e+00
  1.211722e+01    2.689095e+00
  1.214897e+01    2.749862e+00
  1.218072e+01    2.740869e+00
  1.221247e+01    2.695707e+00
  1.224422e+01    2.695083e+00
  1.227597e+01    2.688620e+00
  1.230773e+01    2.719930e+00
  1.233948e+01    2.659674e+00
  1.237123e+01    2.694690e+00
  1.240298e+01    2.744693e+00
  1.243473e+01    2.684822e+00
  1.246648e+01    2.704761e+00
  1.249823e+01    2.724739e+00
  1.252998e+01    2.720963e+00
  1.256174e+01    2.703016e+00
  1.259349e+01    2.717344e+00
  1.262524e+01    2.793920e+00
  1.265699e+01    2.816753e+00
  1.268874e+01    2.846031e+00
  1.272049e+01    2.892971e+00
  1.275224e+01    2.910324e+00
  1.278399e+01    2.922668e+00
  1.281574e+01    3.003695e+00
  1.284750e+01    3.173429e+00
  1.287925e+01    3.384004e+00
  1.291100e+01    3.664869e+00
  1.294275e+01    4.069958e+00
  1.297450e+01    4.762612e+00
  1.300625e+01    5.849503e+00
  1.303800e+01    7.700732e+00
  1.306975e+01    1.009323e+01
  1.310150e+01    1.261573e+01
  1.313326e+01    1.475010e+01
  1.316501e+01    1.615567e+01
  1.319676e+01    1.565775e+01
  1.322851e+01    1.261987e+01
  1.326026e+01    9.096971e+00
  1.329201e+01    6.735403e+00
  1.332376e+01    5.273901e+00
  1.335551e+01    4.457465e+00
  1.338727e+01    3.854107e+00
  1.341902e+01    3.450487e+00
  1.345077e+01    3.196055e+00
  1.348252e+01    2.986169e+00
  1.351427e+01    2.939024e+00
  1.354602e+01    2.844897e+00
  1.357777e+01    2.767507e+00
  1.360952e+01    2.704730e+00
  1.364127e+01    2.624646e+00
  1.367303e+01    2.589323e+00
  1.370478e+01    2.539806e+00
  1.373653e+01    2.538604e+00
  1.376828e+01    2.504123e+00
  1.380003e+01    2.507431e+00
  1.383178e+01    2.474956e+00
  1.386353e+01    2.432821e+00
  1.389528e+01    2.461203e+00
  1.392703e+01    2.415864e+00
  1.395879e+01    2.402451e+00
  1.399054e+01    2.377185e+00
  1.402229e+01    2.364884e+00
  1.405404e+01    2.377821e+00
  1.408579e+01    2.293069e+00
  1.411754e+01    2.336604e+00
  1.414929e+01    2.313698e+00
  1.418104e+01    2.300009e+00
  1.421279e+01    2.277818e+00
  1.424455e+01    2.296134e+00
  1.427630e+01    2.208896e+00
  1.430805e+01    2.238239e+00
  1.433980e+01    2.267610e+00
  1.437155e+01    2.246053e+00
  1.440330e+01    2.246241e+00
  1.443505e+01    2.247041e+00
  1.446680e+01    2.250262e+00
  1.449856e+01    2.227773e+00
  1.453031e+01    2.249274e+00
  1.456206e+01    2.248634e+00
  1.459381e+01    2.191721e+00
  1.462556e+01    2.191930e+00
  1.465731e+01    2.220226e+00
  1.468906e+01    2.201606e+00
  1.472081e+01    2.214232e+00
  1.475256e+01    2.217541e+00
  1.478432e+01    2.191867e+00
  1.481607e+01    2.192470e+00
  1.484782e+01    2.158204e+00
  1.487957e+01    2.228167e+00
  1.491132e+01    2.253462e+00
  1.494307e+01    2.287598e+00
  1.497482e+01    2.407381e+00
  1.500657e+01    2.440655e+00
  1.503832e+01    2.606930e+00
  1.507008e+01    2.844914e+00
  1.510183e+01    3.185258e+00
  1.513358e+01    3.810342e+00
  1.516533e+01    4.509778e+00
  1.519708e+01    5.111575e+00
  1.522883e+01    5.593074e+00
  1.526058e+01    5.764883e+00
  1.529233e+01    5.393332e+00
  1.532409e+01    4.717869e+00
  1.535584e+01    3.808761e+00
  1.538759e+01    3.171561e+00
  1.541934e+01    2.731313e+00
  1.545109e+01    2.548975e+00
  1.548284e+01    2.366965e+00
  1.551459e+01    2.221854e+00
  1.554634e+01    2.136454e+00
  1.557809e+01    2.154615e+00
  1.560985e+01    2.101532e+00
  1.564160e+01    2.081064e+00
  1.567335e+01    2.038500e+00
  1.570510e+01    2.013425e+00
  1.573685e+01    1.989052e+00
  1.576860e+01    1.975434e+00
  1.580035e+01    1.940745e+00
  1.583210e+01    1.994047e+00
  1.586385e+01    1.911898e+00
  1.589561e+01    1.907878e+00
  1.592736e+01    1.897004e+00
  1.595911e+01    1.891274e+00
  1.599086e+01    1.900409e+00
  1.602261e+01    1.879127e+00
  1.605436e+01    1.870298e+00
  1.608611e+01    1.883772e+00
  1.611786e+01    1.855914e+00
  1.614961e+01    1.835931e+00
  1.618137e+01    1.814062e+00
  1.621312e+01    1.817437e+00
  1.624487e+01    1.802095e+00
  1.627662e+01    1.778802e+00
  1.630837e+01    1.822173e+00
  1.634012e+01    1.774024e+00
  1.637187e+01    1.808147e+00
  1.640362e+01    1.809991e+00
  1.643538e+01    1.720301e+00
  1.646713e+01    1.755012e+00
  1.649888e+01    1.761032e+00
  1.653063e+01    1.787599e+00
  1.656238e+01    1.747699e+00
  1.659413e+01    1.744534e+00
  1.662588e+01    1.718333e+00
  1.665763e+01    1.697142e+00
  1.668938e+01    1.716520e+00
  1.672114e+01    1.713320e+00
  1.675289e+01    1.704734e+00
  1.678464e+01    1.684197e+00
  1.681639e+01    1.705015e+00
  1.684814e+01    1.735549e+00
  1.687989e+01    1.717939e+00
  1.691164e+01    1.694620e+00
  1.694339e+01    1.673434e+00
  1.697514e+01    1.703894e+00
  1.700690e+01    1.693381e+00
  1.703865e+01    1.696485e+00
  1.707040e+01    1.658982e+00
  1.710215e+01    1.623318e+00
  1.713390e+01    1.651200e+00
  1.716565e+01    1.628882e+00
  1.719740e+01    1.612654e+00
  1.722915e+01    1.634049e+00
  1.726091e+01    1.621215e+00
  1.729266e+01    1.607074e+00
  1.732441e+01    1.638249e+00
  1.735616e+01    1.620781e+00
  1.738791e+01    1.592204e+00
  1.741966e+01    1.601782e+00
  1.745141e+01    1.584522e+00
  1.748316e+01    1.603931e+00
  1.751491e+01    1.561971e+00
  1.754667e+01    1.591106e+00
  1.757842e+01    1.616116e+00
  1.761017e+01    1.558556e+00
  1.764192e+01    1.595358e+00
  1.767367e+01    1.560570e+00
  1.770542e+01    1.559444e+00
  1.773717e+01    1.570310e+00
  1.776892e+01    1.542801e+00
  1.780067e+01    1.516246e+00
  1.783243e+01    1.534264e+00
  1.786418e+01    1.519528e+00
  1.789593e+01    1.526303e+00
  1.792768e+01    1.548169e+00
  1.795943e+01    1.492141e+00
  1.799118e+01    1.551171e+00
  1.802293e+01    1.515059e+00
  1.805468e+01    1.515674e+00
  1.808643e+01    1.499020e+00
  1.811819e+01    1.511143e+00
  1.814994e+01    1.481961e+00
  1.818169e+01    1.490258e+00
  1.821344e+01    1.473372e+00
  1.824519e+01    1.449633e+00
  1.827694e+01    1.462196e+00
  1.830869e+01    1.473061e+00
  1.834044e+01    1.490389e+00
  1.837220e+01    1.465534e+00
  1.840395e+01    1.447431e+00
  1.843570e+01    1.468414e+00
  1.846745e+01    1.453010e+00
  1.849920e+01    1.436889e+00
  1.853095e+01    1.417664e+00
  1.856270e+01    1.428269e+00
  1.859445e+01    1.442440e+00
  1.862620e+01    1.451106e+00
  1.865796e+01    1.393768e+00
  1.868971e+01    1.431723e+00
  1.872146e+01    1.419368e+00
  1.875321e+01    1.428150e+00
  1.878496e+01    1.413348e+00
  1.881671e+01    1.423999e+00
  1.884846e+01    1.412137e+00
  1.888021e+01    1.428525e+00
  1.891196e+01    1.385442e+00
  1.894372e+01    1.414859e+00
  1.897547e+01    1.399810e+00
  1.900722e+01    1.389480e+00
  1.903897e+01    1.391565e+00
  1.907072e+01    1.371481e+00
  1.910247e+01    1.356450e+00
  1.913422e+01    1.379324e+00
  1.916597e+01    1.365631e+00
  1.919773e+01    1.353281e+00
  1.922948e+01    1.370309e+00
  1.926123e+01    1.341875e+00
  1.929298e+01    1.351005e+00
  1.932473e+01    1.352765e+00
  1.935648e+01    1.332397e+00
  1.938823e+01    1.344157e+00
  1.941998e+01    1.340010e+00
  1.945173e+01    1.356415e+00
  1.948349e+01    1.337083e+00
  1.951524e+01    1.348178e+00
  1.954699e+01    1.314964e+00
  1.957874e+01    1.325928e+00
  1.961049e+01    1.306667e+00
  1.964224e+01    1.313936e+00
  1.967399e+01    1.329851e+00
  1.970574e+01    1.301418e+00
  1.973749e+01    1.328972e+00
  1.976925e+01    1.305827e+00
  1.980100e+01    1.314635e+00
  1.983275e+01    1.302627e+00
  1.986450e+01    1.287050e+00
  1.989625e+01    1.300590e+00
  1.992800e+01    1.298144e+00
  1.995975e+01    1.295182e+00
  1.999150e+01    1.285437e+00
  2.002325e+01    1.305274e+00
  2.005501e+01    1.266726e+00
  2.008676e+01    1.286691e+00
  2.011851e+01    1.272185e+00
  2.015026e+01    1.255523e+00
  2.018201e+01    1.235479e+00
  2.021376e+01    1.270607e+00
  2.024551e+01    1.242547e+00
  2.027726e+01    1.252951e+00
  2.030902e+01    1.254727e+00
  2.034077e+01    1.280307e+00
  2.037252e+01    1.243943e+00
  2.040427e+01    1.241246e+00
  2.043602e+01    1.251565e+00
  2.046777e+01    1.235674e+00
  2.049952e+01    1.233632e+00
  2.053127e+01    1.269364e+00
  2.056302e+01    1.268054e+00
  2.059478e+01    1.244413e+00
  2.062653e+01    1.229233e+00
  2.065828e+01    1.255696e+00
  2.069003e+01    1.241242e+00
  2.072178e+01    1.222267e+00
  2.075353e+01    1.242478e+00
  2.078528e+01    1.244659e+00
  2.081703e+01    1.252280e+00
  2.084878e+01    1.215204e+00
  2.088054e+01    1.252356e+00
  2.091229e+01    1.222222e+00
  2.094404e+01    1.208897e+00
  2.097579e+01    1.223000e+00
  2.100754e+01    1.229748e+00
  2.103929e+01    1.221480e+00
  2.107104e+01    1.237192e+00
  2.110279e+01    1.215971e+00
  2.113455e+01    1.233679e+00
  2.116630e+01    1.211347e+00
  2.119805e+01    1.240346e+00
  2.122980e+01    1.233073e+00
  2.126155e+01    1.228393e+00
  2.129330e+01    1.268066e+00
  2.132505e+01    1.291548e+00
  2.135680e+01    1.307074e+00
  2.138855e+01    1.262488e+00
  2.142031e+01    1.313639e+00
  2.145206e+01    1.363196e+00
  2.148381e+01    1.382965e+00
  2.151556e+01    1.429292e+00
  2.154731e+01    1.493253e+00
  2.157906e+01    1.586499e+00
  2.161081e+01    1.756143e+00
  2.164256e+01    1.964535e+00
  2.167431e+01    2.294375e+00
  2.170607e+01    2.766527e+00
  2.173782e+01    3.505399e+00
  2.176957e+01    4.469144e+00
  2.180132e+01    5.811989e+00
  2.183307e+01    7.144412e+00
  2.186482e+01    8.294559e+00
  2.189657e+01    8.855597e+00
  2.192832e+01    8.327353e+00
  2.196007e+01    6.633993e+00
  2.199183e+01    4.889493e+00
  2.202358e+01    3.671382e+00
  2.205533e+01    2.837541e+00
  2.208708e+01    2.367944e+00
  2.211883e+01    2.026252e+00
  2.215058e+01    1.756408e+00
  2.218233e+01    1.598697e+00
  2.221408e+01    1.523410e+00
  2.224584e+01    1.436353e+00
  2.227759e+01    1.357143e+00
  2.230934e+01    1.290241e+00
  2.234109e+01    1.256116e+00
  2.237284e+01    1.246987e+00
  2.240459e+01    1.219877e+00
  2.243634e+01    1.178140e+00
  2.246809e+01    1.152706e+00
  2.249984e+01    1.153600e+00
  2.253160e+01    1.144262e+00
  2.256335e+01    1.132497e+00
  2.259510e+01    1.120105e+00
  2.262685e+01    1.100240e+00
  2.265860e+01    1.126217e+00
  2.269035e+01    1.087942e+00
  2.272210e+01    1.063335e+00
  2.275385e+01    1.049085e+00
  2.278560e+01    1.057172e+00
  2.281736e+01    1.030945e+00
  2.284911e+01    1.057211e+00
  2.288086e+01    1.037026e+00
  2.291261e+01    1.050221e+00
  2.294436e+01    1.032376e+00
  2.297611e+01    1.007193e+00
  2.300786e+01    1.000206e+00
  2.303961e+01    1.050037e+00
  2.307137e+01    1.007267e+00
  2.310312e+01    1.023346e+00
  2.313487e+01    1.010625e+00
  2.316662e+01    9.995356e-01
  2.319837e+01    9.851702e-01
  2.323012e+01    9.953314e-01
  2.326187e+01    9.921389e-01
  2.329362e+01    9.906330e-01
  2.332537e+01    9.980848e-01
  2.335713e+01    9.899281e-01
  2.338888e+01    9.643428e-01
  2.342063e+01    9.777889e-01
  2.345238e+01    9.731742e-01
  2.348413e+01    9.631794e-01
  2.351588e+01    9.593432e-01
  2.354763e+01    9.736025e-01
  2.357938e+01    9.645784e-01
  2.361113e+01    9.768870e-01
  2.364289e+01    9.467250e-01
  2.367464e+01    9.541092e-01
  2.370639e+01    9.381754e-01
  2.373814e+01    9.585690e-01
  2.376989e+01    9.395469e-01
  2.380164e+01    9.132409e-01
  2.383339e+01    9.298208e-01
  2.386514e+01    9.172747e-01
  2.389689e+01    9.125785e-01
  2.392865e+01    9.235905e-01
  2.396040e+01    8.990519e-01
  2.399215e+01    8.901789e-01
  2.402390e+01    8.962145e-01
  2.405565e+01    8.608740e-01
  2.408740e+01    8.961945e-01
  2.411915e+01    8.923407e-01
  2.415090e+01    8.874741e-01
  2.418266e+01    8.777777e-01
  2.421441e+01    8.811594e-01
  2.424616e+01    8.958665e-01
  2.427791e+01    9.061334e-01
  2.430966e+01    9.002280e-01
  2.434141e+01    8.940781e-01
  2.437316e+01    9.000569e-01
  2.440491e+01    9.049650e-01
  2.443666e+01    9.004155e-01
  2.446842e+01    8.969295e-01
  2.450017e+01    8.955126e-01
  2.453192e+01    8.667440e-01
  2.456367e+01    8.914652e-01
  2.459542e+01    8.844393e-01
  2.462717e+01    8.590412e-01
  2.465892e+01    8.968946e-01
  2.469067e+01    8.825133e-01
  2.472242e+01    8.992980e-01
  2.475418e+01    9.056581e-01
  2.478593e+01    8.939592e-01
  2.481768e+01    8.889504e-01
  2.484943e+01    8.810164e-01
  2.488118e+01    8.939586e-01
  2.491293e+01    8.983513e-01
  2.494468e+01    8.801256e-01
  2.497643e+01    8.977171e-01
  2.500819e+01    9.090594e-01
  2.503994e+01    8.704080e-01
  2.507169e+01    8.774262e-01
  2.510344e+01    9.255585e-01
  2.513519e+01    9.010221e-01
  2.516694e+01    9.171735e-01
  2.519869e+01    9.321468e-01
  2.523044e+01    9.322711e-01
  2.526219e+01    9.555593e-01
  2.529395e+01    9.595741e-01
  2.532570e+01    9.571037e-01
  2.535745e+01    9.679500e-01
  2.538920e+01    9.947945e-01
  2.542095e+01    9.863751e-01
  2.545270e+01    1.034492e+00
  2.548445e+01    1.028047e+00
  2.551620e+01    1.075126e+00
  2.554795e+01    1.089421e+00
  2.557971e+01    1.172528e+00
  2.561146e+01    1.200993e+00
  2.564321e+01    1.322025e+00
  2.567496e+01    1.431899e+00
  2.570671e+01    1.610106e+00
  2.573846e+01    1.757555e+00
  2.577021e+01    2.206765e+00
  2.580196e+01    2.780609e+00
  2.583371e+01    3.581318e+00
  2.586547e+01    4.644459e+00
  2.589722e+01    5.762078e+00
  2.592897e+01    6.759270e+00
  2.596072e+01    7.108151e+00
  2.599247e+01    6.589492e+00
  2.602422e+01    5.349896e+00
  2.605597e+01    4.035346e+00
  2.608772e+01    3.060641e+00
  2.611948e+01    2.343124e+00
  2.615123e+01    1.944149e+00
  2.618298e+01    1.704305e+00
  2.621473e+01    1.461747e+00
  2.624648e+01    1.326225e+00
  2.627823e+01    1.248839e+00
  2.630998e+01    1.176707e+00
  2.634173e+01    1.109118e+00
  2.637348e+01    1.074978e+00
  2.640524e+01    1.073866e+00
  2.643699e+01    1.031575e+00
  2.646874e+01    1.034032e+00
  2.650049e+01    1.029964e+00
  2.653224e+01    9.866247e-01
  2.656399e+01    9.760396e-01
  2.659574e+01    9.847426e-01
  2.662749e+01    9.586750e-01
  2.665924e+01    9.466420e-01
  2.669100e+01    9.866649e-01
  2.672275e+01    9.768875e-01
  2.675450e+01    9.651261e-01
  2.678625e+01    9.804155e-01
  2.681800e+01    1.013777e+00
  2.684975e+01    1.013049e+00
  2.688150e+01    1.006130e+00
  2.691325e+01    1.021946e+00
  2.694501e+01    1.022601e+00
  2.697676e+01    1.024438e+00
  2.700851e+01    1.106097e+00
  2.704026e+01    1.159680e+00
  2.707201e+01    1.325604e+00
  2.710376e+01    1.467473e+00
  2.713551e+01    1.729215e+00
  2.716726e+01    1.989551e+00
  2.719901e+01    2.130315e+00
  2.723077e+01    2.163877e+00
  2.726252e+01    2.000282e+00
  2.729427e+01    1.693707e+00
  2.732602e+01    1.411179e+00
  2.735777e+01    1.292755e+00
  2.738952e+01    1.159811e+00
  2.742127e+01    1.100559e+00
  2.745302e+01    1.036106e+00
  2.748477e+01    1.012379e+00
  2.751653e+01    9.924140e-01
  2.754828e+01    9.766542e-01
  2.758003e+01    9.299553e-01
  2.761178e+01    9.212224e-01
  2.764353e+01    9.324580e-01
  2.767528e+01    8.999393e-01
  2.770703e+01    9.069113e-01
  2.773878e+01    8.853938e-01
  2.777054e+01    9.026656e-01
  2.780229e+01    8.795688e-01
  2.783404e+01    8.932227e-01
  2.786579e+01    8.854519e-01
  2.789754e+01    8.826485e-01
  2.792929e+01    8.667747e-01
  2.796104e+01    8.740946e-01
  2.799279e+01    8.548692e-01
  2.802454e+01    8.826720e-01
  2.805630e+01    8.700407e-01
  2.808805e+01    8.625522e-01
  2.811980e+01    8.504641e-01
  2.815155e+01    8.646486e-01
  2.818330e+01    8.593419e-01
  2.821505e+01    8.739502e-01
  2.824680e+01    8.452020e-01
  2.827855e+01    8.607085e-01
  2.831030e+01    8.540759e-01
  2.834206e+01    8.321809e-01
  2.837381e+01    8.715603e-01
  2.840556e+01    8.262772e-01
  2.843731e+01    8.437754e-01
  2.846906e+01    8.582318e-01
  2.850081e+01    8.420618e-01
  2.853256e+01    8.337488e-01
  2.856431e+01    8.469305e-01
  2.859606e+01    8.384674e-01
  2.862782e+01    8.386401e-01
  2.865957e+01    8.377189e-01
  2.869132e+01    8.580490e-01
  2.872307e+01    8.461305e-01
  2.875482e+01    8.386761e-01
  2.878657e+01    8.375653e-01
  2.881832e+01    8.341188e-01
  2.885007e+01    8.262516e-01
  2.888183e+01    8.239120e-01
  2.891358e+01    8.333336e-01
  2.894533e+01    8.162543e-01
  2.897708e+01    8.167217e-01
  2.900883e+01    7.941748e-01
  2.904058e+01    8.230229e-01
  2.907233e+01    8.146316e-01
  2.910408e+01    8.053637e-01
  2.913583e+01    8.204895e-01
  2.916759e+01    8.140649e-01
  2.919934e+01    7.926622e-01
  2.923109e+01    8.148550e-01
  2.926284e+01    7.920140e-01
  2.929459e+01    8.234217e-01
  2.932634e+01    8.093316e-01
  2.935809e+01    7.739038e-01
  2.938984e+01    8.048556e-01
  2.942159e+01    7.991232e-01
  2.945335e+01    8.183738e-01
  2.948510e+01    8.276656e-01
  2.951685e+01    8.056151e-01
  2.954860e+01    8.194596e-01
  2.958035e+01    8.061600e-01
  2.961210e+01    8.072774e-01
  2.964385e+01    7.888797e-01
  2.967560e+01    8.243228e-01
  2.970736e+01    8.083357e-01
  2.973911e+01    8.104600e-01
  2.977086e+01    8.164904e-01
  2.980261e+01    8.047264e-01
  2.983436e+01    8.085799e-01
  2.986611e+01    7.769468e-01
  2.989786e+01    7.893246e-01
  2.992961e+01    7.901875e-01
  2.996136e+01    7.967620e-01
  2.999312e+01    8.128163e-01
  3.002487e+01    8.201770e-01
  3.005662e+01    8.221753e-01
  3.008837e+01    8.173556e-01
  3.012012e+01    8.084286e-01
  3.015187e+01    8.121601e-01
  3.018362e+01    7.891735e-01
  3.021537e+01    7.852339e-01
  3.024712e+01    8.210629e-01
  3.027888e+01    7.951837e-01
  3.031063e+01    7.819659e-01
  3.034238e+01    7.839224e-01
  3.037413e+01    8.062623e-01
  3.040588e+01    7.583150e-01
  3.043763e+01    7.765363e-01
  3.046938e+01    8.017350e-01
  3.050113e+01    8.051354e-01
  3.053288e+01    7.890675e-01
  3.056464e+01    7.908648e-01
  3.059639e+01    7.977233e-01
  3.062814e+01    7.894117e-01
  3.065989e+01    7.941880e-01
  3.069164e+01    7.685115e-01
  3.072339e+01    7.896104e-01
  3.075514e+01    7.769868e-01
  3.078689e+01    7.796052e-01
  3.081865e+01    7.664611e-01
  3.085040e+01    7.996851e-01
  3.088215e+01    7.611651e-01
  3.091390e+01    7.945647e-01
  3.094565e+01    8.010181e-01
  3.097740e+01    7.972949e-01
  3.100915e+01    7.793077e-01
  3.104090e+01    7.933012e-01
  3.107265e+01    7.965011e-01
  3.110441e+01    7.842063e-01
  3.113616e+01    7.729670e-01
  3.116791e+01    7.773417e-01
  3.119966e+01    8.123499e-01
  3.123141e+01    7.830582e-01
  3.126316e+01    8.018315e-01
  3.129491e+01    8.163099e-01
  3.132666e+01    8.229185e-01
  3.135841e+01    8.030284e-01
  3.139017e+01    8.097726e-01
  3.142192e+01    8.063238e-01
  3.145367e+01    8.128559e-01
  3.148542e+01    8.129393e-01
  3.151717e+01    8.499014e-01
  3.154892e+01    8.530388e-01
  3.158067e+01    8.416026e-01
  3.161242e+01    8.658991e-01
  3.164418e+01    9.009938e-01
  3.167593e+01    9.525054e-01
  3.170768e+01    1.016150e+00
  3.173943e+01    1.155722e+00
  3.177118e+01    1.245655e+00
  3.180293e+01    1.446528e+00
  3.183468e+01    1.678327e+00
  3.186643e+01    1.972189e+00
  3.189818e+01    2.083564e+00
  3.192994e+01    2.036721e+00
  3.196169e+01    1.882844e+00
  3.199344e+01    1.536721e+00
  3.202519e+01    1.338734e+00
  3.205694e+01    1.176620e+00
  3.208869e+01    1.035587e+00
  3.212044e+01    9.892571e-01
  3.215219e+01    8.996293e-01
  3.218394e+01    8.740188e-01
  3.221570e+01    8.744702e-01
  3.224745e+01    8.322714e-01
  3.227920e+01    8.415629e-01
  3.231095e+01    8.231927e-01
  3.234270e+01    8.078793e-01
  3.237445e+01    7.986125e-01
  3.240620e+01    7.814983e-01
  3.243795e+01    7.965235e-01
  3.246970e+01    7.895898e-01
  3.250146e+01    7.805874e-01
  3.253321e+01    7.685572e-01
  3.254908e+01    7.504428e-01