File: XRD/Reaction conditions/2024-07-27_003_Ru-CGO-ex_Reaction_dwell_000023_data_000017.dat
# == pyFAI calibration ==
# Distance Sample to Detector: 0.4 m
# PONI: 9.750e-02, 1.135e-01 m
# Rotations: -0.000175 0.000000 -0.000000 rad
#
# == Fit2d calibration ==
# Distance Sample-beamCenter: 400.000 mm
# Center: x=1514.000, y=1300.000 pix
# Tilt: 0.010 deg  TiltPlanRot: 0.010 deg
#
# Detector Detector	 Spline= None	 PixelSize= 7.500e-05, 7.500e-05 m
#    Detector has a mask: False
#    Detector has a dark current: False
#    detector has a flat field: False
#
# Wavelength: 6.888e-11 m
# Mask applied: user provided
# Dark current applied: False
# Flat field applied: False
# Polarization factor: 0.99
# Normalization factor: 1.0
# --> /home/myspot/data/2024_07_Rosario/Ru-CGO-ex/2024-07-27_003_Ru-CGO-ex_Reaction_dwell_000023_data_000017.dat
#       q_nm^-1             I
  2.003187e-02    7.711873e-02
  5.178302e-02    4.982200e-02
  8.353417e-02    8.296737e-02
  1.152853e-01    8.322357e-02
  1.470365e-01    5.933005e-02
  1.787876e-01    2.795898e-02
  2.105388e-01    6.527758e-02
  2.422899e-01    2.724900e-02
  2.740411e-01    6.194936e-02
  3.057922e-01    1.017072e-02
  3.375433e-01    6.451431e-02
  3.692945e-01    7.108991e-02
  4.010456e-01    8.951526e-02
  4.327968e-01    4.687983e-02
  4.645479e-01    3.416292e-02
  4.962991e-01    6.450813e-02
  5.280502e-01    5.362531e-02
  5.598014e-01    4.288009e-02
  5.915525e-01    4.836908e-02
  6.233037e-01    2.559349e-02
  6.550548e-01    6.079983e-02
  6.868060e-01    5.269549e-02
  7.185571e-01    4.256731e-02
  7.503083e-01    5.219303e-02
  7.820594e-01    1.270237e-01
  8.138106e-01    2.190827e-01
  8.455617e-01    3.850683e-01
  8.773129e-01    4.985010e-01
  9.090640e-01    7.031851e-01
  9.408152e-01    8.060367e-01
  9.725663e-01    1.059244e+00
  1.004317e+00    1.150698e+00
  1.036069e+00    1.373044e+00
  1.067820e+00    1.334550e+00
  1.099571e+00    1.484803e+00
  1.131322e+00    1.561616e+00
  1.163073e+00    1.690218e+00
  1.194824e+00    1.871461e+00
  1.226575e+00    2.209784e+00
  1.258327e+00    2.425795e+00
  1.290078e+00    2.614493e+00
  1.321829e+00    2.741671e+00
  1.353580e+00    2.966222e+00
  1.385331e+00    2.910288e+00
  1.417082e+00    2.771205e+00
  1.448834e+00    2.889795e+00
  1.480585e+00    2.978072e+00
  1.512336e+00    3.214660e+00
  1.544087e+00    3.150418e+00
  1.575838e+00    3.195653e+00
  1.607589e+00    3.201752e+00
  1.639340e+00    3.205103e+00
  1.671092e+00    3.091506e+00
  1.702843e+00    3.172460e+00
  1.734594e+00    3.105647e+00
  1.766345e+00    3.038417e+00
  1.798096e+00    3.163444e+00
  1.829847e+00    2.943696e+00
  1.861598e+00    3.102893e+00
  1.893350e+00    3.106957e+00
  1.925101e+00    3.041329e+00
  1.956852e+00    3.025791e+00
  1.988603e+00    3.150776e+00
  2.020354e+00    3.095109e+00
  2.052105e+00    3.091913e+00
  2.083856e+00    3.133253e+00
  2.115608e+00    3.038945e+00
  2.147359e+00    3.149478e+00
  2.179110e+00    3.060887e+00
  2.210861e+00    3.197493e+00
  2.242612e+00    3.143850e+00
  2.274363e+00    3.210929e+00
  2.306115e+00    3.226673e+00
  2.337866e+00    3.226709e+00
  2.369617e+00    3.260350e+00
  2.401368e+00    3.203165e+00
  2.433119e+00    3.114407e+00
  2.464870e+00    3.152833e+00
  2.496621e+00    3.301740e+00
  2.528373e+00    3.273540e+00
  2.560124e+00    3.261319e+00
  2.591875e+00    3.335805e+00
  2.623626e+00    3.280526e+00
  2.655377e+00    3.239993e+00
  2.687128e+00    3.334420e+00
  2.718879e+00    3.287460e+00
  2.750631e+00    3.344964e+00
  2.782382e+00    3.405985e+00
  2.814133e+00    3.325067e+00
  2.845884e+00    3.439254e+00
  2.877635e+00    3.364749e+00
  2.909386e+00    3.342746e+00
  2.941137e+00    3.448853e+00
  2.972889e+00    3.317910e+00
  3.004640e+00    3.364103e+00
  3.036391e+00    3.229598e+00
  3.068142e+00    3.346591e+00
  3.099893e+00    3.321590e+00
  3.131644e+00    3.418134e+00
  3.163395e+00    3.311993e+00
  3.195147e+00    3.468661e+00
  3.226898e+00    3.411870e+00
  3.258649e+00    3.530781e+00
  3.290400e+00    3.445594e+00
  3.322151e+00    3.464913e+00
  3.353902e+00    3.427003e+00
  3.385654e+00    3.463682e+00
  3.417405e+00    3.405948e+00
  3.449156e+00    3.451811e+00
  3.480907e+00    3.469015e+00
  3.512658e+00    3.424084e+00
  3.544409e+00    3.498225e+00
  3.576160e+00    3.494502e+00
  3.607912e+00    3.486532e+00
  3.639663e+00    3.552636e+00
  3.671414e+00    3.584034e+00
  3.703165e+00    3.437446e+00
  3.734916e+00    3.415922e+00
  3.766667e+00    3.515931e+00
  3.798418e+00    3.551264e+00
  3.830170e+00    3.483253e+00
  3.861921e+00    3.519545e+00
  3.893672e+00    3.605339e+00
  3.925423e+00    3.584348e+00
  3.957174e+00    3.495353e+00
  3.988925e+00    3.503709e+00
  4.020676e+00    3.507927e+00
  4.052428e+00    3.622511e+00
  4.084179e+00    3.575214e+00
  4.115930e+00    3.512587e+00
  4.147681e+00    3.536411e+00
  4.179432e+00    3.669007e+00
  4.211183e+00    3.550898e+00
  4.242935e+00    3.603901e+00
  4.274686e+00    3.612853e+00
  4.306437e+00    3.612976e+00
  4.338188e+00    3.646660e+00
  4.369939e+00    3.684113e+00
  4.401690e+00    3.599940e+00
  4.433441e+00    3.532902e+00
  4.465193e+00    3.583997e+00
  4.496944e+00    3.565466e+00
  4.528695e+00    3.676113e+00
  4.560446e+00    3.632436e+00
  4.592197e+00    3.678585e+00
  4.623948e+00    3.626521e+00
  4.655699e+00    3.724277e+00
  4.687451e+00    3.613199e+00
  4.719202e+00    3.642908e+00
  4.750953e+00    3.661098e+00
  4.782704e+00    3.630278e+00
  4.814455e+00    3.691430e+00
  4.846206e+00    3.701468e+00
  4.877957e+00    3.729161e+00
  4.909709e+00    3.801356e+00
  4.941460e+00    3.624495e+00
  4.973211e+00    3.687615e+00
  5.004962e+00    3.663563e+00
  5.036713e+00    3.684131e+00
  5.068464e+00    3.730912e+00
  5.100216e+00    3.748911e+00
  5.131967e+00    3.839855e+00
  5.163718e+00    3.593279e+00
  5.195469e+00    3.617605e+00
  5.227220e+00    3.688296e+00
  5.258971e+00    3.738355e+00
  5.290722e+00    3.613267e+00
  5.322474e+00    3.591036e+00
  5.354225e+00    3.668042e+00
  5.385976e+00    3.714448e+00
  5.417727e+00    3.802272e+00
  5.449478e+00    3.662955e+00
  5.481229e+00    3.704017e+00
  5.512980e+00    3.585151e+00
  5.544732e+00    3.584245e+00
  5.576483e+00    3.678310e+00
  5.608234e+00    3.689566e+00
  5.639985e+00    3.652348e+00
  5.671736e+00    3.540754e+00
  5.703487e+00    3.607715e+00
  5.735238e+00    3.640749e+00
  5.766990e+00    3.631202e+00
  5.798741e+00    3.588737e+00
  5.830492e+00    3.613659e+00
  5.862243e+00    3.631850e+00
  5.893994e+00    3.569645e+00
  5.925745e+00    3.584392e+00
  5.957497e+00    3.565346e+00
  5.989248e+00    3.547656e+00
  6.020999e+00    3.577570e+00
  6.052750e+00    3.619510e+00
  6.084501e+00    3.581522e+00
  6.116252e+00    3.716376e+00
  6.148003e+00    3.542194e+00
  6.179755e+00    3.579432e+00
  6.211506e+00    3.567967e+00
  6.243257e+00    3.692303e+00
  6.275008e+00    3.686463e+00
  6.306759e+00    3.673958e+00
  6.338510e+00    3.551671e+00
  6.370261e+00    3.528737e+00
  6.402013e+00    3.566867e+00
  6.433764e+00    3.580424e+00
  6.465515e+00    3.509880e+00
  6.497266e+00    3.567066e+00
  6.529017e+00    3.573213e+00
  6.560768e+00    3.571471e+00
  6.592519e+00    3.618827e+00
  6.624271e+00    3.586524e+00
  6.656022e+00    3.625745e+00
  6.687773e+00    3.544833e+00
  6.719524e+00    3.504946e+00
  6.751275e+00    3.621212e+00
  6.783026e+00    3.509285e+00
  6.814777e+00    3.569268e+00
  6.846529e+00    3.554685e+00
  6.878280e+00    3.572997e+00
  6.910031e+00    3.569923e+00
  6.941782e+00    3.557714e+00
  6.973533e+00    3.618646e+00
  7.005284e+00    3.550991e+00
  7.037036e+00    3.599612e+00
  7.068787e+00    3.549396e+00
  7.100538e+00    3.510335e+00
  7.132289e+00    3.639056e+00
  7.164040e+00    3.480191e+00
  7.195791e+00    3.441535e+00
  7.227542e+00    3.554601e+00
  7.259294e+00    3.496561e+00
  7.291045e+00    3.570225e+00
  7.322796e+00    3.513571e+00
  7.354547e+00    3.564831e+00
  7.386298e+00    3.537891e+00
  7.418049e+00    3.489080e+00
  7.449800e+00    3.434617e+00
  7.481552e+00    3.522223e+00
  7.513303e+00    3.519529e+00
  7.545054e+00    3.445996e+00
  7.576805e+00    3.503553e+00
  7.608556e+00    3.481417e+00
  7.640307e+00    3.538661e+00
  7.672058e+00    3.462256e+00
  7.703810e+00    3.539558e+00
  7.735561e+00    3.486340e+00
  7.767312e+00    3.466583e+00
  7.799063e+00    3.490698e+00
  7.830814e+00    3.476947e+00
  7.862565e+00    3.481354e+00
  7.894317e+00    3.410391e+00
  7.926068e+00    3.487890e+00
  7.957819e+00    3.476259e+00
  7.989570e+00    3.378510e+00
  8.021321e+00    3.403645e+00
  8.053072e+00    3.419587e+00
  8.084823e+00    3.487317e+00
  8.116575e+00    3.505420e+00
  8.148326e+00    3.506379e+00
  8.180077e+00    3.500714e+00
  8.211828e+00    3.487686e+00
  8.243579e+00    3.485863e+00
  8.275330e+00    3.460935e+00
  8.307081e+00    3.492546e+00
  8.338833e+00    3.444234e+00
  8.370584e+00    3.368830e+00
  8.402335e+00    3.389201e+00
  8.434086e+00    3.416891e+00
  8.465837e+00    3.406151e+00
  8.497588e+00    3.403854e+00
  8.529339e+00    3.427378e+00
  8.561091e+00    3.374032e+00
  8.592842e+00    3.362733e+00
  8.624593e+00    3.332319e+00
  8.656344e+00    3.333272e+00
  8.688095e+00    3.362798e+00
  8.719846e+00    3.351631e+00
  8.751598e+00    3.350186e+00
  8.783349e+00    3.309215e+00
  8.815100e+00    3.329874e+00
  8.846851e+00    3.315185e+00
  8.878602e+00    3.288686e+00
  8.910353e+00    3.325354e+00
  8.942104e+00    3.325479e+00
  8.973856e+00    3.337892e+00
  9.005607e+00    3.304389e+00
  9.037358e+00    3.326650e+00
  9.069109e+00    3.310824e+00
  9.100860e+00    3.275975e+00
  9.132611e+00    3.304184e+00
  9.164362e+00    3.285236e+00
  9.196114e+00    3.277619e+00
  9.227865e+00    3.307332e+00
  9.259616e+00    3.335092e+00
  9.291367e+00    3.249354e+00
  9.323118e+00    3.230901e+00
  9.354869e+00    3.229595e+00
  9.386620e+00    3.199864e+00
  9.418372e+00    3.250313e+00
  9.450123e+00    3.209803e+00
  9.481874e+00    3.235614e+00
  9.513625e+00    3.256405e+00
  9.545376e+00    3.246614e+00
  9.577127e+00    3.249913e+00
  9.608878e+00    3.253600e+00
  9.640630e+00    3.274427e+00
  9.672381e+00    3.241610e+00
  9.704132e+00    3.163067e+00
  9.735883e+00    3.184792e+00
  9.767634e+00    3.176710e+00
  9.799385e+00    3.215884e+00
  9.831137e+00    3.202949e+00
  9.862888e+00    3.194566e+00
  9.894639e+00    3.165085e+00
  9.926390e+00    3.194920e+00
  9.958141e+00    3.130580e+00
  9.989892e+00    3.161100e+00
  1.002164e+01    3.108258e+00
  1.005339e+01    3.175503e+00
  1.008515e+01    3.149905e+00
  1.011690e+01    3.150378e+00
  1.014865e+01    3.116355e+00
  1.018040e+01    3.167090e+00
  1.021215e+01    3.111478e+00
  1.024390e+01    3.067041e+00
  1.027565e+01    3.105153e+00
  1.030740e+01    3.081241e+00
  1.033915e+01    3.084114e+00
  1.037091e+01    3.028330e+00
  1.040266e+01    3.045414e+00
  1.043441e+01    3.107223e+00
  1.046616e+01    3.038612e+00
  1.049791e+01    3.025398e+00
  1.052966e+01    3.077658e+00
  1.056141e+01    2.982097e+00
  1.059316e+01    2.985543e+00
  1.062492e+01    3.023871e+00
  1.065667e+01    3.013657e+00
  1.068842e+01    3.063398e+00
  1.072017e+01    3.038343e+00
  1.075192e+01    2.986675e+00
  1.078367e+01    3.051772e+00
  1.081542e+01    2.939017e+00
  1.084717e+01    2.952305e+00
  1.087892e+01    3.001940e+00
  1.091068e+01    2.979305e+00
  1.094243e+01    2.944769e+00
  1.097418e+01    2.924796e+00
  1.100593e+01    2.914520e+00
  1.103768e+01    2.903206e+00
  1.106943e+01    2.972598e+00
  1.110118e+01    2.875311e+00
  1.113293e+01    2.955760e+00
  1.116468e+01    2.887736e+00
  1.119644e+01    2.849778e+00
  1.122819e+01    2.830712e+00
  1.125994e+01    2.908791e+00
  1.129169e+01    2.878471e+00
  1.132344e+01    2.852238e+00
  1.135519e+01    2.832266e+00
  1.138694e+01    2.802799e+00
  1.141869e+01    2.829945e+00
  1.145045e+01    2.806898e+00
  1.148220e+01    2.844705e+00
  1.151395e+01    2.826805e+00
  1.154570e+01    2.851408e+00
  1.157745e+01    2.852814e+00
  1.160920e+01    2.803307e+00
  1.164095e+01    2.831384e+00
  1.167270e+01    2.814287e+00
  1.170445e+01    2.784742e+00
  1.173621e+01    2.804376e+00
  1.176796e+01    2.786066e+00
  1.179971e+01    2.782697e+00
  1.183146e+01    2.792090e+00
  1.186321e+01    2.754666e+00
  1.189496e+01    2.726763e+00
  1.192671e+01    2.789776e+00
  1.195846e+01    2.707697e+00
  1.199021e+01    2.670627e+00
  1.202197e+01    2.756151e+00
  1.205372e+01    2.747044e+00
  1.208547e+01    2.730566e+00
  1.211722e+01    2.713240e+00
  1.214897e+01    2.720639e+00
  1.218072e+01    2.705739e+00
  1.221247e+01    2.704114e+00
  1.224422e+01    2.727630e+00
  1.227597e+01    2.729787e+00
  1.230773e+01    2.721987e+00
  1.233948e+01    2.712408e+00
  1.237123e+01    2.720546e+00
  1.240298e+01    2.696188e+00
  1.243473e+01    2.761467e+00
  1.246648e+01    2.701049e+00
  1.249823e+01    2.754452e+00
  1.252998e+01    2.720338e+00
  1.256174e+01    2.779787e+00
  1.259349e+01    2.793030e+00
  1.262524e+01    2.789912e+00
  1.265699e+01    2.790784e+00
  1.268874e+01    2.889713e+00
  1.272049e+01    2.864645e+00
  1.275224e+01    2.893943e+00
  1.278399e+01    2.979754e+00
  1.281574e+01    3.107294e+00
  1.284750e+01    3.294314e+00
  1.287925e+01    3.395290e+00
  1.291100e+01    3.727967e+00
  1.294275e+01    4.144751e+00
  1.297450e+01    4.816877e+00
  1.300625e+01    6.026952e+00
  1.303800e+01    7.758357e+00
  1.306975e+01    1.023480e+01
  1.310150e+01    1.278298e+01
  1.313326e+01    1.504159e+01
  1.316501e+01    1.636358e+01
  1.319676e+01    1.584006e+01
  1.322851e+01    1.248794e+01
  1.326026e+01    9.221879e+00
  1.329201e+01    6.877841e+00
  1.332376e+01    5.353504e+00
  1.335551e+01    4.481035e+00
  1.338727e+01    3.865676e+00
  1.341902e+01    3.505026e+00
  1.345077e+01    3.231550e+00
  1.348252e+01    3.057027e+00
  1.351427e+01    2.924881e+00
  1.354602e+01    2.838249e+00
  1.357777e+01    2.795976e+00
  1.360952e+01    2.705949e+00
  1.364127e+01    2.657684e+00
  1.367303e+01    2.636851e+00
  1.370478e+01    2.582547e+00
  1.373653e+01    2.563331e+00
  1.376828e+01    2.552613e+00
  1.380003e+01    2.516635e+00
  1.383178e+01    2.468619e+00
  1.386353e+01    2.409077e+00
  1.389528e+01    2.422963e+00
  1.392703e+01    2.420295e+00
  1.395879e+01    2.427154e+00
  1.399054e+01    2.418197e+00
  1.402229e+01    2.383590e+00
  1.405404e+01    2.359312e+00
  1.408579e+01    2.339476e+00
  1.411754e+01    2.318462e+00
  1.414929e+01    2.330811e+00
  1.418104e+01    2.360253e+00
  1.421279e+01    2.287743e+00
  1.424455e+01    2.299521e+00
  1.427630e+01    2.278801e+00
  1.430805e+01    2.276689e+00
  1.433980e+01    2.251135e+00
  1.437155e+01    2.284862e+00
  1.440330e+01    2.259573e+00
  1.443505e+01    2.264384e+00
  1.446680e+01    2.259684e+00
  1.449856e+01    2.238377e+00
  1.453031e+01    2.237081e+00
  1.456206e+01    2.277538e+00
  1.459381e+01    2.216762e+00
  1.462556e+01    2.247221e+00
  1.465731e+01    2.276892e+00
  1.468906e+01    2.235737e+00
  1.472081e+01    2.182343e+00
  1.475256e+01    2.205187e+00
  1.478432e+01    2.227875e+00
  1.481607e+01    2.212730e+00
  1.484782e+01    2.276392e+00
  1.487957e+01    2.219131e+00
  1.491132e+01    2.246168e+00
  1.494307e+01    2.265118e+00
  1.497482e+01    2.376320e+00
  1.500657e+01    2.451228e+00
  1.503832e+01    2.615526e+00
  1.507008e+01    2.823661e+00
  1.510183e+01    3.223657e+00
  1.513358e+01    3.834462e+00
  1.516533e+01    4.549848e+00
  1.519708e+01    5.246351e+00
  1.522883e+01    5.629073e+00
  1.526058e+01    5.847034e+00
  1.529233e+01    5.595355e+00
  1.532409e+01    4.657396e+00
  1.535584e+01    3.774260e+00
  1.538759e+01    3.124004e+00
  1.541934e+01    2.785229e+00
  1.545109e+01    2.547053e+00
  1.548284e+01    2.375239e+00
  1.551459e+01    2.276178e+00
  1.554634e+01    2.164576e+00
  1.557809e+01    2.126512e+00
  1.560985e+01    2.084542e+00
  1.564160e+01    2.036274e+00
  1.567335e+01    2.063107e+00
  1.570510e+01    2.013301e+00
  1.573685e+01    2.034171e+00
  1.576860e+01    1.996331e+00
  1.580035e+01    1.949770e+00
  1.583210e+01    1.944138e+00
  1.586385e+01    1.934103e+00
  1.589561e+01    1.932905e+00
  1.592736e+01    1.900675e+00
  1.595911e+01    1.871498e+00
  1.599086e+01    1.909141e+00
  1.602261e+01    1.879875e+00
  1.605436e+01    1.883721e+00
  1.608611e+01    1.831565e+00
  1.611786e+01    1.861248e+00
  1.614961e+01    1.833364e+00
  1.618137e+01    1.861593e+00
  1.621312e+01    1.801270e+00
  1.624487e+01    1.816356e+00
  1.627662e+01    1.821411e+00
  1.630837e+01    1.788882e+00
  1.634012e+01    1.785501e+00
  1.637187e+01    1.819676e+00
  1.640362e+01    1.828674e+00
  1.643538e+01    1.807847e+00
  1.646713e+01    1.762659e+00
  1.649888e+01    1.789318e+00
  1.653063e+01    1.726625e+00
  1.656238e+01    1.748406e+00
  1.659413e+01    1.750949e+00
  1.662588e+01    1.744556e+00
  1.665763e+01    1.726190e+00
  1.668938e+01    1.704784e+00
  1.672114e+01    1.738922e+00
  1.675289e+01    1.717375e+00
  1.678464e+01    1.685757e+00
  1.681639e+01    1.709849e+00
  1.684814e+01    1.670450e+00
  1.687989e+01    1.732907e+00
  1.691164e+01    1.690184e+00
  1.694339e+01    1.694788e+00
  1.697514e+01    1.689732e+00
  1.700690e+01    1.703995e+00
  1.703865e+01    1.664879e+00
  1.707040e+01    1.650964e+00
  1.710215e+01    1.678784e+00
  1.713390e+01    1.630634e+00
  1.716565e+01    1.665556e+00
  1.719740e+01    1.647745e+00
  1.722915e+01    1.655929e+00
  1.726091e+01    1.621348e+00
  1.729266e+01    1.606300e+00
  1.732441e+01    1.599178e+00
  1.735616e+01    1.597115e+00
  1.738791e+01    1.583033e+00
  1.741966e+01    1.600479e+00
  1.745141e+01    1.606220e+00
  1.748316e+01    1.602807e+00
  1.751491e+01    1.583368e+00
  1.754667e+01    1.562439e+00
  1.757842e+01    1.607950e+00
  1.761017e+01    1.568065e+00
  1.764192e+01    1.565853e+00
  1.767367e+01    1.575643e+00
  1.770542e+01    1.551500e+00
  1.773717e+01    1.563118e+00
  1.776892e+01    1.559658e+00
  1.780067e+01    1.573476e+00
  1.783243e+01    1.550471e+00
  1.786418e+01    1.562771e+00
  1.789593e+01    1.550352e+00
  1.792768e+01    1.533888e+00
  1.795943e+01    1.553162e+00
  1.799118e+01    1.525234e+00
  1.802293e+01    1.515453e+00
  1.805468e+01    1.520012e+00
  1.808643e+01    1.495908e+00
  1.811819e+01    1.519934e+00
  1.814994e+01    1.479735e+00
  1.818169e+01    1.463021e+00
  1.821344e+01    1.495928e+00
  1.824519e+01    1.493201e+00
  1.827694e+01    1.484542e+00
  1.830869e+01    1.496979e+00
  1.834044e+01    1.473283e+00
  1.837220e+01    1.479718e+00
  1.840395e+01    1.452339e+00
  1.843570e+01    1.497866e+00
  1.846745e+01    1.482031e+00
  1.849920e+01    1.461252e+00
  1.853095e+01    1.449426e+00
  1.856270e+01    1.470758e+00
  1.859445e+01    1.422965e+00
  1.862620e+01    1.427997e+00
  1.865796e+01    1.451658e+00
  1.868971e+01    1.463336e+00
  1.872146e+01    1.426341e+00
  1.875321e+01    1.431622e+00
  1.878496e+01    1.431409e+00
  1.881671e+01    1.415908e+00
  1.884846e+01    1.406950e+00
  1.888021e+01    1.395972e+00
  1.891196e+01    1.397389e+00
  1.894372e+01    1.417302e+00
  1.897547e+01    1.421189e+00
  1.900722e+01    1.377769e+00
  1.903897e+01    1.400356e+00
  1.907072e+01    1.397372e+00
  1.910247e+01    1.414513e+00
  1.913422e+01    1.382893e+00
  1.916597e+01    1.388596e+00
  1.919773e+01    1.351642e+00
  1.922948e+01    1.383097e+00
  1.926123e+01    1.348778e+00
  1.929298e+01    1.381930e+00
  1.932473e+01    1.353069e+00
  1.935648e+01    1.365479e+00
  1.938823e+01    1.352419e+00
  1.941998e+01    1.360195e+00
  1.945173e+01    1.322613e+00
  1.948349e+01    1.338086e+00
  1.951524e+01    1.336514e+00
  1.954699e+01    1.336083e+00
  1.957874e+01    1.330044e+00
  1.961049e+01    1.321653e+00
  1.964224e+01    1.315782e+00
  1.967399e+01    1.338775e+00
  1.970574e+01    1.338168e+00
  1.973749e+01    1.328969e+00
  1.976925e+01    1.294624e+00
  1.980100e+01    1.310035e+00
  1.983275e+01    1.305583e+00
  1.986450e+01    1.301734e+00
  1.989625e+01    1.302200e+00
  1.992800e+01    1.318068e+00
  1.995975e+01    1.287494e+00
  1.999150e+01    1.281514e+00
  2.002325e+01    1.303122e+00
  2.005501e+01    1.282617e+00
  2.008676e+01    1.275876e+00
  2.011851e+01    1.298202e+00
  2.015026e+01    1.312665e+00
  2.018201e+01    1.260324e+00
  2.021376e+01    1.262464e+00
  2.024551e+01    1.271839e+00
  2.027726e+01    1.271214e+00
  2.030902e+01    1.306758e+00
  2.034077e+01    1.257733e+00
  2.037252e+01    1.244041e+00
  2.040427e+01    1.282609e+00
  2.043602e+01    1.236133e+00
  2.046777e+01    1.261555e+00
  2.049952e+01    1.246339e+00
  2.053127e+01    1.263559e+00
  2.056302e+01    1.269201e+00
  2.059478e+01    1.245466e+00
  2.062653e+01    1.258942e+00
  2.065828e+01    1.234006e+00
  2.069003e+01    1.237016e+00
  2.072178e+01    1.217710e+00
  2.075353e+01    1.235003e+00
  2.078528e+01    1.225709e+00
  2.081703e+01    1.225653e+00
  2.084878e+01    1.256092e+00
  2.088054e+01    1.242060e+00
  2.091229e+01    1.232456e+00
  2.094404e+01    1.233335e+00
  2.097579e+01    1.237371e+00
  2.100754e+01    1.211330e+00
  2.103929e+01    1.232549e+00
  2.107104e+01    1.233449e+00
  2.110279e+01    1.241493e+00
  2.113455e+01    1.234231e+00
  2.116630e+01    1.254918e+00
  2.119805e+01    1.238680e+00
  2.122980e+01    1.231342e+00
  2.126155e+01    1.242716e+00
  2.129330e+01    1.281085e+00
  2.132505e+01    1.285058e+00
  2.135680e+01    1.310954e+00
  2.138855e+01    1.313811e+00
  2.142031e+01    1.354324e+00
  2.145206e+01    1.370818e+00
  2.148381e+01    1.390593e+00
  2.151556e+01    1.452463e+00
  2.154731e+01    1.513943e+00
  2.157906e+01    1.622483e+00
  2.161081e+01    1.801215e+00
  2.164256e+01    1.980946e+00
  2.167431e+01    2.275485e+00
  2.170607e+01    2.785487e+00
  2.173782e+01    3.586592e+00
  2.176957e+01    4.666045e+00
  2.180132e+01    5.871823e+00
  2.183307e+01    7.246793e+00
  2.186482e+01    8.491703e+00
  2.189657e+01    8.983239e+00
  2.192832e+01    8.262762e+00
  2.196007e+01    6.556128e+00
  2.199183e+01    4.922004e+00
  2.202358e+01    3.653931e+00
  2.205533e+01    2.869810e+00
  2.208708e+01    2.343562e+00
  2.211883e+01    1.989844e+00
  2.215058e+01    1.787284e+00
  2.218233e+01    1.607214e+00
  2.221408e+01    1.475653e+00
  2.224584e+01    1.414076e+00
  2.227759e+01    1.367033e+00
  2.230934e+01    1.309326e+00
  2.234109e+01    1.285552e+00
  2.237284e+01    1.235155e+00
  2.240459e+01    1.207099e+00
  2.243634e+01    1.194973e+00
  2.246809e+01    1.145837e+00
  2.249984e+01    1.143566e+00
  2.253160e+01    1.132849e+00
  2.256335e+01    1.141603e+00
  2.259510e+01    1.092171e+00
  2.262685e+01    1.096229e+00
  2.265860e+01    1.102652e+00
  2.269035e+01    1.104061e+00
  2.272210e+01    1.077870e+00
  2.275385e+01    1.076415e+00
  2.278560e+01    1.056947e+00
  2.281736e+01    1.058122e+00
  2.284911e+01    1.045907e+00
  2.288086e+01    1.046974e+00
  2.291261e+01    1.050700e+00
  2.294436e+01    1.032630e+00
  2.297611e+01    1.016933e+00
  2.300786e+01    1.017903e+00
  2.303961e+01    1.033543e+00
  2.307137e+01    1.030627e+00
  2.310312e+01    1.013430e+00
  2.313487e+01    1.002923e+00
  2.316662e+01    9.944802e-01
  2.319837e+01    9.920089e-01
  2.323012e+01    1.008949e+00
  2.326187e+01    9.791576e-01
  2.329362e+01    1.024864e+00
  2.332537e+01    9.573075e-01
  2.335713e+01    9.918337e-01
  2.338888e+01    9.811807e-01
  2.342063e+01    9.613220e-01
  2.345238e+01    9.726856e-01
  2.348413e+01    9.776061e-01
  2.351588e+01    9.784850e-01
  2.354763e+01    9.551561e-01
  2.357938e+01    9.864402e-01
  2.361113e+01    9.643297e-01
  2.364289e+01    9.506023e-01
  2.367464e+01    9.589434e-01
  2.370639e+01    9.447848e-01
  2.373814e+01    9.356195e-01
  2.376989e+01    9.414600e-01
  2.380164e+01    9.172167e-01
  2.383339e+01    9.175894e-01
  2.386514e+01    9.098923e-01
  2.389689e+01    9.154487e-01
  2.392865e+01    9.088150e-01
  2.396040e+01    9.251611e-01
  2.399215e+01    9.101770e-01
  2.402390e+01    8.848125e-01
  2.405565e+01    9.231092e-01
  2.408740e+01    8.890328e-01
  2.411915e+01    8.856703e-01
  2.415090e+01    8.705646e-01
  2.418266e+01    8.815491e-01
  2.421441e+01    9.034265e-01
  2.424616e+01    8.941135e-01
  2.427791e+01    8.844808e-01
  2.430966e+01    8.962289e-01
  2.434141e+01    8.892944e-01
  2.437316e+01    8.896114e-01
  2.440491e+01    8.976397e-01
  2.443666e+01    9.053360e-01
  2.446842e+01    9.226817e-01
  2.450017e+01    9.105883e-01
  2.453192e+01    8.854180e-01
  2.456367e+01    8.878942e-01
  2.459542e+01    9.028339e-01
  2.462717e+01    9.179611e-01
  2.465892e+01    9.309559e-01
  2.469067e+01    8.833693e-01
  2.472242e+01    8.757766e-01
  2.475418e+01    9.062678e-01
  2.478593e+01    8.944709e-01
  2.481768e+01    9.018509e-01
  2.484943e+01    9.150766e-01
  2.488118e+01    8.862249e-01
  2.491293e+01    8.976026e-01
  2.494468e+01    9.150520e-01
  2.497643e+01    9.038793e-01
  2.500819e+01    8.996525e-01
  2.503994e+01    8.970944e-01
  2.507169e+01    9.050339e-01
  2.510344e+01    9.126550e-01
  2.513519e+01    9.396226e-01
  2.516694e+01    9.155992e-01
  2.519869e+01    9.272610e-01
  2.523044e+01    9.316884e-01
  2.526219e+01    9.694995e-01
  2.529395e+01    9.494864e-01
  2.532570e+01    9.664103e-01
  2.535745e+01    9.751471e-01
  2.538920e+01    1.004796e+00
  2.542095e+01    1.005089e+00
  2.545270e+01    1.036343e+00
  2.548445e+01    1.031338e+00
  2.551620e+01    1.103078e+00
  2.554795e+01    1.123546e+00
  2.557971e+01    1.172587e+00
  2.561146e+01    1.236858e+00
  2.564321e+01    1.318046e+00
  2.567496e+01    1.416444e+00
  2.570671e+01    1.587831e+00
  2.573846e+01    1.855740e+00
  2.577021e+01    2.270109e+00
  2.580196e+01    2.852742e+00
  2.583371e+01    3.692965e+00
  2.586547e+01    4.728848e+00
  2.589722e+01    5.875198e+00
  2.592897e+01    6.845119e+00
  2.596072e+01    7.184187e+00
  2.599247e+01    6.644228e+00
  2.602422e+01    5.260366e+00
  2.605597e+01    4.047225e+00
  2.608772e+01    3.016106e+00
  2.611948e+01    2.409487e+00
  2.615123e+01    1.982899e+00
  2.618298e+01    1.692170e+00
  2.621473e+01    1.502121e+00
  2.624648e+01    1.382076e+00
  2.627823e+01    1.255104e+00
  2.630998e+01    1.181850e+00
  2.634173e+01    1.122670e+00
  2.637348e+01    1.095574e+00
  2.640524e+01    1.077565e+00
  2.643699e+01    1.025080e+00
  2.646874e+01    1.038171e+00
  2.650049e+01    1.038977e+00
  2.653224e+01    1.009176e+00
  2.656399e+01    1.002316e+00
  2.659574e+01    9.882896e-01
  2.662749e+01    9.693140e-01
  2.665924e+01    9.816238e-01
  2.669100e+01    9.464588e-01
  2.672275e+01    9.642283e-01
  2.675450e+01    9.679326e-01
  2.678625e+01    9.721066e-01
  2.681800e+01    9.925256e-01
  2.684975e+01    9.926818e-01
  2.688150e+01    9.904969e-01
  2.691325e+01    1.019929e+00
  2.694501e+01    1.020205e+00
  2.697676e+01    1.055251e+00
  2.700851e+01    1.107205e+00
  2.704026e+01    1.209350e+00
  2.707201e+01    1.332233e+00
  2.710376e+01    1.524298e+00
  2.713551e+01    1.736518e+00
  2.716726e+01    1.994219e+00
  2.719901e+01    2.168953e+00
  2.723077e+01    2.196584e+00
  2.726252e+01    1.986191e+00
  2.729427e+01    1.716446e+00
  2.732602e+01    1.478273e+00
  2.735777e+01    1.277389e+00
  2.738952e+01    1.186967e+00
  2.742127e+01    1.103109e+00
  2.745302e+01    1.041843e+00
  2.748477e+01    9.826358e-01
  2.751653e+01    9.798716e-01
  2.754828e+01    9.608308e-01
  2.758003e+01    9.281774e-01
  2.761178e+01    9.334562e-01
  2.764353e+01    8.979224e-01
  2.767528e+01    9.072925e-01
  2.770703e+01    9.302581e-01
  2.773878e+01    8.898703e-01
  2.777054e+01    9.008548e-01
  2.780229e+01    8.776123e-01
  2.783404e+01    8.954560e-01
  2.786579e+01    8.878101e-01
  2.789754e+01    8.956414e-01
  2.792929e+01    8.692183e-01
  2.796104e+01    8.537411e-01
  2.799279e+01    8.548662e-01
  2.802454e+01    8.622176e-01
  2.805630e+01    8.455963e-01
  2.808805e+01    8.725091e-01
  2.811980e+01    8.628367e-01
  2.815155e+01    8.750930e-01
  2.818330e+01    8.665392e-01
  2.821505e+01    8.887579e-01
  2.824680e+01    8.484375e-01
  2.827855e+01    8.530907e-01
  2.831030e+01    8.334928e-01
  2.834206e+01    8.415930e-01
  2.837381e+01    8.408666e-01
  2.840556e+01    8.729134e-01
  2.843731e+01    8.629900e-01
  2.846906e+01    8.522744e-01
  2.850081e+01    8.467858e-01
  2.853256e+01    8.329321e-01
  2.856431e+01    8.312714e-01
  2.859606e+01    8.511987e-01
  2.862782e+01    8.460923e-01
  2.865957e+01    8.543226e-01
  2.869132e+01    8.429444e-01
  2.872307e+01    8.069832e-01
  2.875482e+01    8.349071e-01
  2.878657e+01    8.026553e-01
  2.881832e+01    8.360506e-01
  2.885007e+01    8.275917e-01
  2.888183e+01    8.381005e-01
  2.891358e+01    8.198785e-01
  2.894533e+01    8.383523e-01
  2.897708e+01    8.335914e-01
  2.900883e+01    8.306233e-01
  2.904058e+01    7.993097e-01
  2.907233e+01    8.196861e-01
  2.910408e+01    8.123935e-01
  2.913583e+01    8.556060e-01
  2.916759e+01    8.112051e-01
  2.919934e+01    8.259236e-01
  2.923109e+01    8.102790e-01
  2.926284e+01    8.062596e-01
  2.929459e+01    8.112220e-01
  2.932634e+01    8.086673e-01
  2.935809e+01    8.231949e-01
  2.938984e+01    8.084394e-01
  2.942159e+01    8.255290e-01
  2.945335e+01    7.755634e-01
  2.948510e+01    8.113282e-01
  2.951685e+01    7.883379e-01
  2.954860e+01    8.055688e-01
  2.958035e+01    8.126533e-01
  2.961210e+01    8.184276e-01
  2.964385e+01    8.113231e-01
  2.967560e+01    8.082496e-01
  2.970736e+01    8.157644e-01
  2.973911e+01    8.058537e-01
  2.977086e+01    8.123069e-01
  2.980261e+01    8.103857e-01
  2.983436e+01    8.190179e-01
  2.986611e+01    7.896209e-01
  2.989786e+01    7.982922e-01
  2.992961e+01    8.030070e-01
  2.996136e+01    8.080507e-01
  2.999312e+01    8.037814e-01
  3.002487e+01    8.144954e-01
  3.005662e+01    8.057228e-01
  3.008837e+01    7.806461e-01
  3.012012e+01    8.102194e-01
  3.015187e+01    8.116753e-01
  3.018362e+01    7.765611e-01
  3.021537e+01    7.851318e-01
  3.024712e+01    7.821072e-01
  3.027888e+01    7.800689e-01
  3.031063e+01    8.025435e-01
  3.034238e+01    7.801111e-01
  3.037413e+01    7.877662e-01
  3.040588e+01    8.046492e-01
  3.043763e+01    7.886449e-01
  3.046938e+01    7.747456e-01
  3.050113e+01    8.187663e-01
  3.053288e+01    8.052854e-01
  3.056464e+01    8.014302e-01
  3.059639e+01    7.814630e-01
  3.062814e+01    7.754447e-01
  3.065989e+01    7.858055e-01
  3.069164e+01    8.025112e-01
  3.072339e+01    7.944827e-01
  3.075514e+01    7.842507e-01
  3.078689e+01    8.152426e-01
  3.081865e+01    7.938089e-01
  3.085040e+01    7.794387e-01
  3.088215e+01    7.471589e-01
  3.091390e+01    7.986068e-01
  3.094565e+01    8.014577e-01
  3.097740e+01    7.886600e-01
  3.100915e+01    7.971702e-01
  3.104090e+01    8.049206e-01
  3.107265e+01    7.627271e-01
  3.110441e+01    8.078925e-01
  3.113616e+01    8.024044e-01
  3.116791e+01    8.005465e-01
  3.119966e+01    8.016543e-01
  3.123141e+01    8.171713e-01
  3.126316e+01    8.021310e-01
  3.129491e+01    8.001692e-01
  3.132666e+01    8.076547e-01
  3.135841e+01    8.225801e-01
  3.139017e+01    8.275316e-01
  3.142192e+01    8.197379e-01
  3.145367e+01    8.288770e-01
  3.148542e+01    8.112846e-01
  3.151717e+01    8.253495e-01
  3.154892e+01    8.672083e-01
  3.158067e+01    8.640588e-01
  3.161242e+01    8.919857e-01
  3.164418e+01    9.217608e-01
  3.167593e+01    9.588796e-01
  3.170768e+01    1.021438e+00
  3.173943e+01    1.136083e+00
  3.177118e+01    1.305097e+00
  3.180293e+01    1.490793e+00
  3.183468e+01    1.698725e+00
  3.186643e+01    1.981518e+00
  3.189818e+01    2.095392e+00
  3.192994e+01    2.065586e+00
  3.196169e+01    1.824247e+00
  3.199344e+01    1.542402e+00
  3.202519e+01    1.347306e+00
  3.205694e+01    1.175834e+00
  3.208869e+01    1.023419e+00
  3.212044e+01    1.010568e+00
  3.215219e+01    9.466926e-01
  3.218394e+01    8.946993e-01
  3.221570e+01    8.562793e-01
  3.224745e+01    8.556581e-01
  3.227920e+01    8.055843e-01
  3.231095e+01    8.058563e-01
  3.234270e+01    8.057222e-01
  3.237445e+01    8.018707e-01
  3.240620e+01    8.047690e-01
  3.243795e+01    7.906308e-01
  3.246970e+01    7.835749e-01
  3.250146e+01    7.936510e-01
  3.253321e+01    7.745994e-01
  3.254908e+01    7.894642e-01