File: XRD/Reaction conditions/2024-07-27_003_Ru-CGO-ex_Reaction_dwell_000023_data_000039.dat
# == pyFAI calibration ==
# Distance Sample to Detector: 0.4 m
# PONI: 9.750e-02, 1.135e-01 m
# Rotations: -0.000175 0.000000 -0.000000 rad
#
# == Fit2d calibration ==
# Distance Sample-beamCenter: 400.000 mm
# Center: x=1514.000, y=1300.000 pix
# Tilt: 0.010 deg  TiltPlanRot: 0.010 deg
#
# Detector Detector	 Spline= None	 PixelSize= 7.500e-05, 7.500e-05 m
#    Detector has a mask: False
#    Detector has a dark current: False
#    detector has a flat field: False
#
# Wavelength: 6.888e-11 m
# Mask applied: user provided
# Dark current applied: False
# Flat field applied: False
# Polarization factor: 0.99
# Normalization factor: 1.0
# --> /home/myspot/data/2024_07_Rosario/Ru-CGO-ex/2024-07-27_003_Ru-CGO-ex_Reaction_dwell_000023_data_000039.dat
#       q_nm^-1             I
  2.003187e-02    7.711996e-02
  5.178302e-02    4.718721e-02
  8.353417e-02    3.229201e-01
  1.152853e-01    1.145670e-01
  1.470365e-01    7.229463e-02
  1.787876e-01    5.423878e-02
  2.105388e-01    5.118100e-02
  2.422899e-01    0.000000e+00
  2.740411e-01    4.800213e-02
  3.057922e-01    6.090574e-02
  3.375433e-01    5.827406e-02
  3.692945e-01    5.976122e-02
  4.010456e-01    4.102520e-02
  4.327968e-01    8.997873e-02
  4.645479e-01    2.777903e-02
  4.962991e-01    2.408504e-02
  5.280502e-01    6.057994e-03
  5.598014e-01    4.048478e-02
  5.915525e-01    1.498216e-02
  6.233037e-01    5.776215e-02
  6.550548e-01    3.096520e-02
  6.868060e-01    4.570257e-02
  7.185571e-01    5.695191e-02
  7.503083e-01    4.519812e-02
  7.820594e-01    1.385340e-01
  8.138106e-01    2.209450e-01
  8.455617e-01    3.377336e-01
  8.773129e-01    5.508216e-01
  9.090640e-01    6.916260e-01
  9.408152e-01    8.596990e-01
  9.725663e-01    1.066374e+00
  1.004317e+00    1.203800e+00
  1.036069e+00    1.409505e+00
  1.067820e+00    1.400470e+00
  1.099571e+00    1.588497e+00
  1.131322e+00    1.621443e+00
  1.163073e+00    1.645238e+00
  1.194824e+00    1.787905e+00
  1.226575e+00    2.286248e+00
  1.258327e+00    2.343709e+00
  1.290078e+00    2.517304e+00
  1.321829e+00    2.792896e+00
  1.353580e+00    2.793838e+00
  1.385331e+00    2.890680e+00
  1.417082e+00    2.769673e+00
  1.448834e+00    2.936314e+00
  1.480585e+00    3.165796e+00
  1.512336e+00    3.208672e+00
  1.544087e+00    3.260085e+00
  1.575838e+00    3.246800e+00
  1.607589e+00    3.094299e+00
  1.639340e+00    3.165495e+00
  1.671092e+00    3.112261e+00
  1.702843e+00    3.081241e+00
  1.734594e+00    3.131518e+00
  1.766345e+00    3.119391e+00
  1.798096e+00    3.091245e+00
  1.829847e+00    3.205866e+00
  1.861598e+00    3.121801e+00
  1.893350e+00    3.108706e+00
  1.925101e+00    3.175015e+00
  1.956852e+00    3.181679e+00
  1.988603e+00    3.199756e+00
  2.020354e+00    2.942986e+00
  2.052105e+00    3.058743e+00
  2.083856e+00    3.092780e+00
  2.115608e+00    3.116925e+00
  2.147359e+00    3.216166e+00
  2.179110e+00    3.074889e+00
  2.210861e+00    3.016372e+00
  2.242612e+00    3.140647e+00
  2.274363e+00    3.189877e+00
  2.306115e+00    3.023734e+00
  2.337866e+00    3.155275e+00
  2.369617e+00    3.240553e+00
  2.401368e+00    3.272092e+00
  2.433119e+00    3.097990e+00
  2.464870e+00    3.350961e+00
  2.496621e+00    3.207554e+00
  2.528373e+00    3.222810e+00
  2.560124e+00    3.251031e+00
  2.591875e+00    3.176501e+00
  2.623626e+00    3.312463e+00
  2.655377e+00    3.203750e+00
  2.687128e+00    3.195777e+00
  2.718879e+00    3.264706e+00
  2.750631e+00    3.274004e+00
  2.782382e+00    3.367547e+00
  2.814133e+00    3.388294e+00
  2.845884e+00    3.376546e+00
  2.877635e+00    3.291640e+00
  2.909386e+00    3.292199e+00
  2.941137e+00    3.400135e+00
  2.972889e+00    3.319698e+00
  3.004640e+00    3.383800e+00
  3.036391e+00    3.407107e+00
  3.068142e+00    3.409496e+00
  3.099893e+00    3.360340e+00
  3.131644e+00    3.291185e+00
  3.163395e+00    3.364129e+00
  3.195147e+00    3.325928e+00
  3.226898e+00    3.433278e+00
  3.258649e+00    3.395321e+00
  3.290400e+00    3.488395e+00
  3.322151e+00    3.463539e+00
  3.353902e+00    3.362478e+00
  3.385654e+00    3.460911e+00
  3.417405e+00    3.360679e+00
  3.449156e+00    3.500910e+00
  3.480907e+00    3.468553e+00
  3.512658e+00    3.555168e+00
  3.544409e+00    3.516911e+00
  3.576160e+00    3.427281e+00
  3.607912e+00    3.524039e+00
  3.639663e+00    3.367857e+00
  3.671414e+00    3.463749e+00
  3.703165e+00    3.488026e+00
  3.734916e+00    3.478109e+00
  3.766667e+00    3.564012e+00
  3.798418e+00    3.562916e+00
  3.830170e+00    3.482214e+00
  3.861921e+00    3.545727e+00
  3.893672e+00    3.513219e+00
  3.925423e+00    3.633416e+00
  3.957174e+00    3.605561e+00
  3.988925e+00    3.518931e+00
  4.020676e+00    3.535666e+00
  4.052428e+00    3.532854e+00
  4.084179e+00    3.628800e+00
  4.115930e+00    3.582952e+00
  4.147681e+00    3.522534e+00
  4.179432e+00    3.531034e+00
  4.211183e+00    3.502019e+00
  4.242935e+00    3.543373e+00
  4.274686e+00    3.577877e+00
  4.306437e+00    3.534801e+00
  4.338188e+00    3.641841e+00
  4.369939e+00    3.602968e+00
  4.401690e+00    3.632258e+00
  4.433441e+00    3.535916e+00
  4.465193e+00    3.591649e+00
  4.496944e+00    3.646765e+00
  4.528695e+00    3.606869e+00
  4.560446e+00    3.622140e+00
  4.592197e+00    3.667422e+00
  4.623948e+00    3.638379e+00
  4.655699e+00    3.626521e+00
  4.687451e+00    3.654713e+00
  4.719202e+00    3.576252e+00
  4.750953e+00    3.637520e+00
  4.782704e+00    3.693773e+00
  4.814455e+00    3.647373e+00
  4.846206e+00    3.644766e+00
  4.877957e+00    3.655922e+00
  4.909709e+00    3.696168e+00
  4.941460e+00    3.735161e+00
  4.973211e+00    3.735093e+00
  5.004962e+00    3.605471e+00
  5.036713e+00    3.658601e+00
  5.068464e+00    3.714827e+00
  5.100216e+00    3.622612e+00
  5.131967e+00    3.724700e+00
  5.163718e+00    3.657418e+00
  5.195469e+00    3.681436e+00
  5.227220e+00    3.721062e+00
  5.258971e+00    3.673275e+00
  5.290722e+00    3.618495e+00
  5.322474e+00    3.752588e+00
  5.354225e+00    3.769102e+00
  5.385976e+00    3.685028e+00
  5.417727e+00    3.665684e+00
  5.449478e+00    3.622878e+00
  5.481229e+00    3.631639e+00
  5.512980e+00    3.615720e+00
  5.544732e+00    3.656582e+00
  5.576483e+00    3.647569e+00
  5.608234e+00    3.630125e+00
  5.639985e+00    3.652709e+00
  5.671736e+00    3.516312e+00
  5.703487e+00    3.519124e+00
  5.735238e+00    3.537565e+00
  5.766990e+00    3.697953e+00
  5.798741e+00    3.622837e+00
  5.830492e+00    3.502371e+00
  5.862243e+00    3.535747e+00
  5.893994e+00    3.601917e+00
  5.925745e+00    3.524168e+00
  5.957497e+00    3.571816e+00
  5.989248e+00    3.534929e+00
  6.020999e+00    3.551149e+00
  6.052750e+00    3.563672e+00
  6.084501e+00    3.583730e+00
  6.116252e+00    3.668690e+00
  6.148003e+00    3.531780e+00
  6.179755e+00    3.644607e+00
  6.211506e+00    3.630500e+00
  6.243257e+00    3.643213e+00
  6.275008e+00    3.632972e+00
  6.306759e+00    3.621558e+00
  6.338510e+00    3.539582e+00
  6.370261e+00    3.526629e+00
  6.402013e+00    3.570103e+00
  6.433764e+00    3.552389e+00
  6.465515e+00    3.607598e+00
  6.497266e+00    3.600866e+00
  6.529017e+00    3.449074e+00
  6.560768e+00    3.628563e+00
  6.592519e+00    3.528117e+00
  6.624271e+00    3.596155e+00
  6.656022e+00    3.547296e+00
  6.687773e+00    3.630956e+00
  6.719524e+00    3.543352e+00
  6.751275e+00    3.583957e+00
  6.783026e+00    3.609421e+00
  6.814777e+00    3.549464e+00
  6.846529e+00    3.570563e+00
  6.878280e+00    3.565164e+00
  6.910031e+00    3.540273e+00
  6.941782e+00    3.564608e+00
  6.973533e+00    3.582350e+00
  7.005284e+00    3.568707e+00
  7.037036e+00    3.598741e+00
  7.068787e+00    3.579845e+00
  7.100538e+00    3.561641e+00
  7.132289e+00    3.523508e+00
  7.164040e+00    3.518392e+00
  7.195791e+00    3.563106e+00
  7.227542e+00    3.527977e+00
  7.259294e+00    3.548497e+00
  7.291045e+00    3.559686e+00
  7.322796e+00    3.538527e+00
  7.354547e+00    3.535323e+00
  7.386298e+00    3.471946e+00
  7.418049e+00    3.553591e+00
  7.449800e+00    3.536373e+00
  7.481552e+00    3.443794e+00
  7.513303e+00    3.553335e+00
  7.545054e+00    3.458471e+00
  7.576805e+00    3.500456e+00
  7.608556e+00    3.446193e+00
  7.640307e+00    3.493819e+00
  7.672058e+00    3.421924e+00
  7.703810e+00    3.481812e+00
  7.735561e+00    3.471205e+00
  7.767312e+00    3.450579e+00
  7.799063e+00    3.490659e+00
  7.830814e+00    3.508707e+00
  7.862565e+00    3.403871e+00
  7.894317e+00    3.521794e+00
  7.926068e+00    3.441500e+00
  7.957819e+00    3.521718e+00
  7.989570e+00    3.478136e+00
  8.021321e+00    3.399644e+00
  8.053072e+00    3.395736e+00
  8.084823e+00    3.471481e+00
  8.116575e+00    3.526072e+00
  8.148326e+00    3.396939e+00
  8.180077e+00    3.482826e+00
  8.211828e+00    3.533364e+00
  8.243579e+00    3.411550e+00
  8.275330e+00    3.444804e+00
  8.307081e+00    3.405585e+00
  8.338833e+00    3.434301e+00
  8.370584e+00    3.322139e+00
  8.402335e+00    3.354344e+00
  8.434086e+00    3.444707e+00
  8.465837e+00    3.356236e+00
  8.497588e+00    3.339444e+00
  8.529339e+00    3.414701e+00
  8.561091e+00    3.336843e+00
  8.592842e+00    3.300106e+00
  8.624593e+00    3.369115e+00
  8.656344e+00    3.346591e+00
  8.688095e+00    3.291016e+00
  8.719846e+00    3.351973e+00
  8.751598e+00    3.336143e+00
  8.783349e+00    3.381936e+00
  8.815100e+00    3.280325e+00
  8.846851e+00    3.276417e+00
  8.878602e+00    3.413444e+00
  8.910353e+00    3.319521e+00
  8.942104e+00    3.399548e+00
  8.973856e+00    3.354753e+00
  9.005607e+00    3.343806e+00
  9.037358e+00    3.328810e+00
  9.069109e+00    3.310795e+00
  9.100860e+00    3.217915e+00
  9.132611e+00    3.325845e+00
  9.164362e+00    3.325608e+00
  9.196114e+00    3.277458e+00
  9.227865e+00    3.329647e+00
  9.259616e+00    3.247710e+00
  9.291367e+00    3.286243e+00
  9.323118e+00    3.251925e+00
  9.354869e+00    3.272308e+00
  9.386620e+00    3.193557e+00
  9.418372e+00    3.197916e+00
  9.450123e+00    3.276411e+00
  9.481874e+00    3.286367e+00
  9.513625e+00    3.229923e+00
  9.545376e+00    3.283680e+00
  9.577127e+00    3.203716e+00
  9.608878e+00    3.287017e+00
  9.640630e+00    3.230568e+00
  9.672381e+00    3.214748e+00
  9.704132e+00    3.263304e+00
  9.735883e+00    3.238917e+00
  9.767634e+00    3.184040e+00
  9.799385e+00    3.154429e+00
  9.831137e+00    3.098782e+00
  9.862888e+00    3.131440e+00
  9.894639e+00    3.206462e+00
  9.926390e+00    3.145849e+00
  9.958141e+00    3.130849e+00
  9.989892e+00    3.154468e+00
  1.002164e+01    3.178998e+00
  1.005339e+01    3.099476e+00
  1.008515e+01    3.067402e+00
  1.011690e+01    3.111322e+00
  1.014865e+01    3.090075e+00
  1.018040e+01    3.121814e+00
  1.021215e+01    3.086820e+00
  1.024390e+01    3.040867e+00
  1.027565e+01    3.140856e+00
  1.030740e+01    3.109362e+00
  1.033915e+01    3.045033e+00
  1.037091e+01    3.046879e+00
  1.040266e+01    3.058054e+00
  1.043441e+01    3.001096e+00
  1.046616e+01    3.070896e+00
  1.049791e+01    3.013875e+00
  1.052966e+01    3.073991e+00
  1.056141e+01    2.998806e+00
  1.059316e+01    2.994223e+00
  1.062492e+01    2.967542e+00
  1.065667e+01    3.067542e+00
  1.068842e+01    2.942936e+00
  1.072017e+01    3.081132e+00
  1.075192e+01    2.991133e+00
  1.078367e+01    2.995713e+00
  1.081542e+01    2.975964e+00
  1.084717e+01    2.953959e+00
  1.087892e+01    3.013776e+00
  1.091068e+01    2.941752e+00
  1.094243e+01    2.913104e+00
  1.097418e+01    2.926851e+00
  1.100593e+01    2.952021e+00
  1.103768e+01    2.884117e+00
  1.106943e+01    2.917033e+00
  1.110118e+01    2.899838e+00
  1.113293e+01    2.918685e+00
  1.116468e+01    2.922898e+00
  1.119644e+01    2.876863e+00
  1.122819e+01    2.951236e+00
  1.125994e+01    2.852538e+00
  1.129169e+01    2.881959e+00
  1.132344e+01    2.820598e+00
  1.135519e+01    2.811511e+00
  1.138694e+01    2.853112e+00
  1.141869e+01    2.834722e+00
  1.145045e+01    2.831115e+00
  1.148220e+01    2.800701e+00
  1.151395e+01    2.801462e+00
  1.154570e+01    2.780544e+00
  1.157745e+01    2.783527e+00
  1.160920e+01    2.814211e+00
  1.164095e+01    2.753909e+00
  1.167270e+01    2.815533e+00
  1.170445e+01    2.817782e+00
  1.173621e+01    2.765726e+00
  1.176796e+01    2.827220e+00
  1.179971e+01    2.789236e+00
  1.183146e+01    2.755416e+00
  1.186321e+01    2.777457e+00
  1.189496e+01    2.746485e+00
  1.192671e+01    2.746333e+00
  1.195846e+01    2.778706e+00
  1.199021e+01    2.709244e+00
  1.202197e+01    2.742376e+00
  1.205372e+01    2.690726e+00
  1.208547e+01    2.687407e+00
  1.211722e+01    2.674376e+00
  1.214897e+01    2.707580e+00
  1.218072e+01    2.726646e+00
  1.221247e+01    2.685674e+00
  1.224422e+01    2.697693e+00
  1.227597e+01    2.687390e+00
  1.230773e+01    2.713799e+00
  1.233948e+01    2.773018e+00
  1.237123e+01    2.705317e+00
  1.240298e+01    2.666567e+00
  1.243473e+01    2.724870e+00
  1.246648e+01    2.721051e+00
  1.249823e+01    2.728047e+00
  1.252998e+01    2.744512e+00
  1.256174e+01    2.761405e+00
  1.259349e+01    2.779020e+00
  1.262524e+01    2.782392e+00
  1.265699e+01    2.793263e+00
  1.268874e+01    2.835929e+00
  1.272049e+01    2.835457e+00
  1.275224e+01    2.929338e+00
  1.278399e+01    2.927553e+00
  1.281574e+01    3.087701e+00
  1.284750e+01    3.233429e+00
  1.287925e+01    3.365784e+00
  1.291100e+01    3.678208e+00
  1.294275e+01    4.156929e+00
  1.297450e+01    4.834289e+00
  1.300625e+01    5.990184e+00
  1.303800e+01    7.790707e+00
  1.306975e+01    1.042147e+01
  1.310150e+01    1.277647e+01
  1.313326e+01    1.498369e+01
  1.316501e+01    1.645716e+01
  1.319676e+01    1.579611e+01
  1.322851e+01    1.254354e+01
  1.326026e+01    9.210191e+00
  1.329201e+01    6.872214e+00
  1.332376e+01    5.318467e+00
  1.335551e+01    4.492405e+00
  1.338727e+01    3.879731e+00
  1.341902e+01    3.585703e+00
  1.345077e+01    3.204807e+00
  1.348252e+01    3.107642e+00
  1.351427e+01    2.936020e+00
  1.354602e+01    2.818847e+00
  1.357777e+01    2.767009e+00
  1.360952e+01    2.671662e+00
  1.364127e+01    2.679075e+00
  1.367303e+01    2.625473e+00
  1.370478e+01    2.620502e+00
  1.373653e+01    2.565159e+00
  1.376828e+01    2.543012e+00
  1.380003e+01    2.508842e+00
  1.383178e+01    2.491838e+00
  1.386353e+01    2.442403e+00
  1.389528e+01    2.442848e+00
  1.392703e+01    2.373395e+00
  1.395879e+01    2.368186e+00
  1.399054e+01    2.408628e+00
  1.402229e+01    2.337078e+00
  1.405404e+01    2.373742e+00
  1.408579e+01    2.322596e+00
  1.411754e+01    2.312740e+00
  1.414929e+01    2.360778e+00
  1.418104e+01    2.367529e+00
  1.421279e+01    2.308547e+00
  1.424455e+01    2.343347e+00
  1.427630e+01    2.330381e+00
  1.430805e+01    2.292191e+00
  1.433980e+01    2.235807e+00
  1.437155e+01    2.267756e+00
  1.440330e+01    2.250939e+00
  1.443505e+01    2.217620e+00
  1.446680e+01    2.250291e+00
  1.449856e+01    2.231845e+00
  1.453031e+01    2.248613e+00
  1.456206e+01    2.210836e+00
  1.459381e+01    2.230892e+00
  1.462556e+01    2.234843e+00
  1.465731e+01    2.257456e+00
  1.468906e+01    2.261396e+00
  1.472081e+01    2.260011e+00
  1.475256e+01    2.215174e+00
  1.478432e+01    2.205347e+00
  1.481607e+01    2.213096e+00
  1.484782e+01    2.223068e+00
  1.487957e+01    2.258763e+00
  1.491132e+01    2.296099e+00
  1.494307e+01    2.294358e+00
  1.497482e+01    2.359249e+00
  1.500657e+01    2.418267e+00
  1.503832e+01    2.641460e+00
  1.507008e+01    2.862587e+00
  1.510183e+01    3.234674e+00
  1.513358e+01    3.862425e+00
  1.516533e+01    4.517084e+00
  1.519708e+01    5.284741e+00
  1.522883e+01    5.720350e+00
  1.526058e+01    5.854438e+00
  1.529233e+01    5.509732e+00
  1.532409e+01    4.649324e+00
  1.535584e+01    3.819558e+00
  1.538759e+01    3.178871e+00
  1.541934e+01    2.769726e+00
  1.545109e+01    2.556473e+00
  1.548284e+01    2.380561e+00
  1.551459e+01    2.276885e+00
  1.554634e+01    2.237754e+00
  1.557809e+01    2.146186e+00
  1.560985e+01    2.117299e+00
  1.564160e+01    2.039849e+00
  1.567335e+01    2.070603e+00
  1.570510e+01    1.998682e+00
  1.573685e+01    1.998896e+00
  1.576860e+01    1.963369e+00
  1.580035e+01    1.952453e+00
  1.583210e+01    1.939059e+00
  1.586385e+01    1.921731e+00
  1.589561e+01    1.913877e+00
  1.592736e+01    1.895006e+00
  1.595911e+01    1.906363e+00
  1.599086e+01    1.921277e+00
  1.602261e+01    1.862639e+00
  1.605436e+01    1.881592e+00
  1.608611e+01    1.861537e+00
  1.611786e+01    1.856273e+00
  1.614961e+01    1.878105e+00
  1.618137e+01    1.815885e+00
  1.621312e+01    1.809034e+00
  1.624487e+01    1.824541e+00
  1.627662e+01    1.802964e+00
  1.630837e+01    1.829739e+00
  1.634012e+01    1.794170e+00
  1.637187e+01    1.787225e+00
  1.640362e+01    1.796368e+00
  1.643538e+01    1.845151e+00
  1.646713e+01    1.746605e+00
  1.649888e+01    1.771518e+00
  1.653063e+01    1.730301e+00
  1.656238e+01    1.793852e+00
  1.659413e+01    1.734120e+00
  1.662588e+01    1.753027e+00
  1.665763e+01    1.761296e+00
  1.668938e+01    1.704812e+00
  1.672114e+01    1.713644e+00
  1.675289e+01    1.733230e+00
  1.678464e+01    1.731076e+00
  1.681639e+01    1.744677e+00
  1.684814e+01    1.722494e+00
  1.687989e+01    1.669821e+00
  1.691164e+01    1.699442e+00
  1.694339e+01    1.666602e+00
  1.697514e+01    1.678219e+00
  1.700690e+01    1.675424e+00
  1.703865e+01    1.679685e+00
  1.707040e+01    1.656770e+00
  1.710215e+01    1.673329e+00
  1.713390e+01    1.662741e+00
  1.716565e+01    1.661345e+00
  1.719740e+01    1.672439e+00
  1.722915e+01    1.642082e+00
  1.726091e+01    1.648527e+00
  1.729266e+01    1.626219e+00
  1.732441e+01    1.589360e+00
  1.735616e+01    1.632729e+00
  1.738791e+01    1.607517e+00
  1.741966e+01    1.607600e+00
  1.745141e+01    1.594177e+00
  1.748316e+01    1.587748e+00
  1.751491e+01    1.596935e+00
  1.754667e+01    1.594111e+00
  1.757842e+01    1.582585e+00
  1.761017e+01    1.595624e+00
  1.764192e+01    1.582718e+00
  1.767367e+01    1.553470e+00
  1.770542e+01    1.575701e+00
  1.773717e+01    1.545625e+00
  1.776892e+01    1.541741e+00
  1.780067e+01    1.541944e+00
  1.783243e+01    1.559729e+00
  1.786418e+01    1.526460e+00
  1.789593e+01    1.555488e+00
  1.792768e+01    1.501421e+00
  1.795943e+01    1.552357e+00
  1.799118e+01    1.530782e+00
  1.802293e+01    1.556166e+00
  1.805468e+01    1.502028e+00
  1.808643e+01    1.478861e+00
  1.811819e+01    1.511814e+00
  1.814994e+01    1.475502e+00
  1.818169e+01    1.499695e+00
  1.821344e+01    1.447897e+00
  1.824519e+01    1.475096e+00
  1.827694e+01    1.474403e+00
  1.830869e+01    1.443864e+00
  1.834044e+01    1.468936e+00
  1.837220e+01    1.503724e+00
  1.840395e+01    1.466875e+00
  1.843570e+01    1.464566e+00
  1.846745e+01    1.472916e+00
  1.849920e+01    1.446535e+00
  1.853095e+01    1.438170e+00
  1.856270e+01    1.419603e+00
  1.859445e+01    1.426800e+00
  1.862620e+01    1.465516e+00
  1.865796e+01    1.429940e+00
  1.868971e+01    1.410043e+00
  1.872146e+01    1.410545e+00
  1.875321e+01    1.454370e+00
  1.878496e+01    1.433140e+00
  1.881671e+01    1.387228e+00
  1.884846e+01    1.416957e+00
  1.888021e+01    1.423493e+00
  1.891196e+01    1.402916e+00
  1.894372e+01    1.436091e+00
  1.897547e+01    1.393536e+00
  1.900722e+01    1.387999e+00
  1.903897e+01    1.398970e+00
  1.907072e+01    1.385717e+00
  1.910247e+01    1.363517e+00
  1.913422e+01    1.355462e+00
  1.916597e+01    1.361182e+00
  1.919773e+01    1.350492e+00
  1.922948e+01    1.348548e+00
  1.926123e+01    1.371356e+00
  1.929298e+01    1.333502e+00
  1.932473e+01    1.384277e+00
  1.935648e+01    1.348006e+00
  1.938823e+01    1.352346e+00
  1.941998e+01    1.361046e+00
  1.945173e+01    1.343052e+00
  1.948349e+01    1.333723e+00
  1.951524e+01    1.321365e+00
  1.954699e+01    1.336084e+00
  1.957874e+01    1.367864e+00
  1.961049e+01    1.327309e+00
  1.964224e+01    1.309974e+00
  1.967399e+01    1.309480e+00
  1.970574e+01    1.331888e+00
  1.973749e+01    1.329746e+00
  1.976925e+01    1.303981e+00
  1.980100e+01    1.316586e+00
  1.983275e+01    1.291929e+00
  1.986450e+01    1.311693e+00
  1.989625e+01    1.320622e+00
  1.992800e+01    1.290350e+00
  1.995975e+01    1.277840e+00
  1.999150e+01    1.262771e+00
  2.002325e+01    1.298804e+00
  2.005501e+01    1.267199e+00
  2.008676e+01    1.278216e+00
  2.011851e+01    1.269790e+00
  2.015026e+01    1.284236e+00
  2.018201e+01    1.267480e+00
  2.021376e+01    1.244757e+00
  2.024551e+01    1.267283e+00
  2.027726e+01    1.281951e+00
  2.030902e+01    1.277523e+00
  2.034077e+01    1.248800e+00
  2.037252e+01    1.232956e+00
  2.040427e+01    1.244881e+00
  2.043602e+01    1.280202e+00
  2.046777e+01    1.233643e+00
  2.049952e+01    1.238834e+00
  2.053127e+01    1.239784e+00
  2.056302e+01    1.246201e+00
  2.059478e+01    1.230546e+00
  2.062653e+01    1.226733e+00
  2.065828e+01    1.269420e+00
  2.069003e+01    1.231189e+00
  2.072178e+01    1.237501e+00
  2.075353e+01    1.247148e+00
  2.078528e+01    1.210600e+00
  2.081703e+01    1.224945e+00
  2.084878e+01    1.209779e+00
  2.088054e+01    1.211518e+00
  2.091229e+01    1.220121e+00
  2.094404e+01    1.248175e+00
  2.097579e+01    1.227747e+00
  2.100754e+01    1.243422e+00
  2.103929e+01    1.220248e+00
  2.107104e+01    1.250174e+00
  2.110279e+01    1.220819e+00
  2.113455e+01    1.229226e+00
  2.116630e+01    1.242764e+00
  2.119805e+01    1.245011e+00
  2.122980e+01    1.238429e+00
  2.126155e+01    1.254196e+00
  2.129330e+01    1.253240e+00
  2.132505e+01    1.277499e+00
  2.135680e+01    1.296673e+00
  2.138855e+01    1.308759e+00
  2.142031e+01    1.335557e+00
  2.145206e+01    1.388903e+00
  2.148381e+01    1.405902e+00
  2.151556e+01    1.458007e+00
  2.154731e+01    1.548551e+00
  2.157906e+01    1.626387e+00
  2.161081e+01    1.773780e+00
  2.164256e+01    1.992015e+00
  2.167431e+01    2.363132e+00
  2.170607e+01    2.759950e+00
  2.173782e+01    3.642960e+00
  2.176957e+01    4.668761e+00
  2.180132e+01    5.914872e+00
  2.183307e+01    7.331640e+00
  2.186482e+01    8.534399e+00
  2.189657e+01    9.064302e+00
  2.192832e+01    8.310588e+00
  2.196007e+01    6.551475e+00
  2.199183e+01    4.836438e+00
  2.202358e+01    3.646765e+00
  2.205533e+01    2.827250e+00
  2.208708e+01    2.344450e+00
  2.211883e+01    1.990929e+00
  2.215058e+01    1.767462e+00
  2.218233e+01    1.607739e+00
  2.221408e+01    1.524336e+00
  2.224584e+01    1.402471e+00
  2.227759e+01    1.345650e+00
  2.230934e+01    1.321012e+00
  2.234109e+01    1.273075e+00
  2.237284e+01    1.247952e+00
  2.240459e+01    1.212110e+00
  2.243634e+01    1.186414e+00
  2.246809e+01    1.175333e+00
  2.249984e+01    1.176239e+00
  2.253160e+01    1.145220e+00
  2.256335e+01    1.137721e+00
  2.259510e+01    1.103722e+00
  2.262685e+01    1.103346e+00
  2.265860e+01    1.100661e+00
  2.269035e+01    1.097217e+00
  2.272210e+01    1.075224e+00
  2.275385e+01    1.083338e+00
  2.278560e+01    1.067568e+00
  2.281736e+01    1.083017e+00
  2.284911e+01    1.062135e+00
  2.288086e+01    1.043245e+00
  2.291261e+01    1.044943e+00
  2.294436e+01    1.030322e+00
  2.297611e+01    1.002080e+00
  2.300786e+01    1.009160e+00
  2.303961e+01    1.028810e+00
  2.307137e+01    1.044052e+00
  2.310312e+01    1.017447e+00
  2.313487e+01    1.029423e+00
  2.316662e+01    9.863746e-01
  2.319837e+01    9.995828e-01
  2.323012e+01    1.013609e+00
  2.326187e+01    9.881502e-01
  2.329362e+01    9.885371e-01
  2.332537e+01    9.765252e-01
  2.335713e+01    9.829981e-01
  2.338888e+01    1.013422e+00
  2.342063e+01    9.741548e-01
  2.345238e+01    9.926223e-01
  2.348413e+01    9.545436e-01
  2.351588e+01    9.557111e-01
  2.354763e+01    9.518088e-01
  2.357938e+01    9.776636e-01
  2.361113e+01    9.686632e-01
  2.364289e+01    9.498310e-01
  2.367464e+01    9.492973e-01
  2.370639e+01    9.281250e-01
  2.373814e+01    9.384565e-01
  2.376989e+01    9.449374e-01
  2.380164e+01    9.265544e-01
  2.383339e+01    9.328775e-01
  2.386514e+01    9.339148e-01
  2.389689e+01    9.278528e-01
  2.392865e+01    9.109782e-01
  2.396040e+01    9.148764e-01
  2.399215e+01    8.789478e-01
  2.402390e+01    9.130352e-01
  2.405565e+01    8.998807e-01
  2.408740e+01    8.701377e-01
  2.411915e+01    9.123647e-01
  2.415090e+01    8.934717e-01
  2.418266e+01    8.968272e-01
  2.421441e+01    8.911085e-01
  2.424616e+01    8.801893e-01
  2.427791e+01    8.931978e-01
  2.430966e+01    9.203096e-01
  2.434141e+01    9.055786e-01
  2.437316e+01    8.997031e-01
  2.440491e+01    9.011208e-01
  2.443666e+01    8.986387e-01
  2.446842e+01    8.993934e-01
  2.450017e+01    9.074168e-01
  2.453192e+01    8.846064e-01
  2.456367e+01    8.963726e-01
  2.459542e+01    9.004920e-01
  2.462717e+01    9.089047e-01
  2.465892e+01    9.053109e-01
  2.469067e+01    9.208567e-01
  2.472242e+01    9.111134e-01
  2.475418e+01    9.072005e-01
  2.478593e+01    8.831131e-01
  2.481768e+01    9.071969e-01
  2.484943e+01    8.973405e-01
  2.488118e+01    9.044545e-01
  2.491293e+01    8.753096e-01
  2.494468e+01    8.987289e-01
  2.497643e+01    8.982945e-01
  2.500819e+01    9.105228e-01
  2.503994e+01    9.224510e-01
  2.507169e+01    9.036331e-01
  2.510344e+01    9.129688e-01
  2.513519e+01    9.194467e-01
  2.516694e+01    9.168631e-01
  2.519869e+01    9.275037e-01
  2.523044e+01    9.290987e-01
  2.526219e+01    9.363267e-01
  2.529395e+01    9.571540e-01
  2.532570e+01    9.777364e-01
  2.535745e+01    9.841777e-01
  2.538920e+01    1.000433e+00
  2.542095e+01    9.837140e-01
  2.545270e+01    1.018001e+00
  2.548445e+01    1.050724e+00
  2.551620e+01    1.081919e+00
  2.554795e+01    1.115428e+00
  2.557971e+01    1.144028e+00
  2.561146e+01    1.209042e+00
  2.564321e+01    1.333042e+00
  2.567496e+01    1.426117e+00
  2.570671e+01    1.626547e+00
  2.573846e+01    1.849488e+00
  2.577021e+01    2.282437e+00
  2.580196e+01    2.856150e+00
  2.583371e+01    3.703293e+00
  2.586547e+01    4.783374e+00
  2.589722e+01    5.898500e+00
  2.592897e+01    6.885948e+00
  2.596072e+01    7.251558e+00
  2.599247e+01    6.546939e+00
  2.602422e+01    5.244686e+00
  2.605597e+01    3.976460e+00
  2.608772e+01    2.997605e+00
  2.611948e+01    2.340808e+00
  2.615123e+01    1.984966e+00
  2.618298e+01    1.668300e+00
  2.621473e+01    1.486384e+00
  2.624648e+01    1.369207e+00
  2.627823e+01    1.245772e+00
  2.630998e+01    1.194731e+00
  2.634173e+01    1.127361e+00
  2.637348e+01    1.097492e+00
  2.640524e+01    1.049410e+00
  2.643699e+01    1.064804e+00
  2.646874e+01    1.034000e+00
  2.650049e+01    1.016260e+00
  2.653224e+01    1.032657e+00
  2.656399e+01    1.004911e+00
  2.659574e+01    9.816539e-01
  2.662749e+01    9.758787e-01
  2.665924e+01    9.713246e-01
  2.669100e+01    9.845186e-01
  2.672275e+01    9.951015e-01
  2.675450e+01    9.940523e-01
  2.678625e+01    9.642212e-01
  2.681800e+01    9.951981e-01
  2.684975e+01    9.772478e-01
  2.688150e+01    9.954696e-01
  2.691325e+01    1.029761e+00
  2.694501e+01    1.025085e+00
  2.697676e+01    1.052863e+00
  2.700851e+01    1.108798e+00
  2.704026e+01    1.230997e+00
  2.707201e+01    1.342515e+00
  2.710376e+01    1.518101e+00
  2.713551e+01    1.731710e+00
  2.716726e+01    1.962684e+00
  2.719901e+01    2.185442e+00
  2.723077e+01    2.211901e+00
  2.726252e+01    1.972345e+00
  2.729427e+01    1.707498e+00
  2.732602e+01    1.444494e+00
  2.735777e+01    1.306118e+00
  2.738952e+01    1.186756e+00
  2.742127e+01    1.118559e+00
  2.745302e+01    1.039338e+00
  2.748477e+01    9.950498e-01
  2.751653e+01    9.855835e-01
  2.754828e+01    9.558304e-01
  2.758003e+01    9.562634e-01
  2.761178e+01    9.175013e-01
  2.764353e+01    9.305507e-01
  2.767528e+01    9.144680e-01
  2.770703e+01    9.019222e-01
  2.773878e+01    9.045664e-01
  2.777054e+01    9.030512e-01
  2.780229e+01    8.850479e-01
  2.783404e+01    9.024022e-01
  2.786579e+01    8.813912e-01
  2.789754e+01    8.825550e-01
  2.792929e+01    8.664047e-01
  2.796104e+01    8.612207e-01
  2.799279e+01    8.802944e-01
  2.802454e+01    8.939019e-01
  2.805630e+01    8.971356e-01
  2.808805e+01    8.748422e-01
  2.811980e+01    8.412177e-01
  2.815155e+01    8.710967e-01
  2.818330e+01    8.752533e-01
  2.821505e+01    8.494493e-01
  2.824680e+01    8.451885e-01
  2.827855e+01    8.493554e-01
  2.831030e+01    8.571671e-01
  2.834206e+01    8.661284e-01
  2.837381e+01    8.427988e-01
  2.840556e+01    8.512002e-01
  2.843731e+01    8.272059e-01
  2.846906e+01    8.582113e-01
  2.850081e+01    8.373016e-01
  2.853256e+01    8.174667e-01
  2.856431e+01    8.642711e-01
  2.859606e+01    8.455492e-01
  2.862782e+01    8.220111e-01
  2.865957e+01    8.330880e-01
  2.869132e+01    8.603761e-01
  2.872307e+01    8.267688e-01
  2.875482e+01    8.475606e-01
  2.878657e+01    8.737525e-01
  2.881832e+01    8.268736e-01
  2.885007e+01    8.283877e-01
  2.888183e+01    8.445309e-01
  2.891358e+01    8.382974e-01
  2.894533e+01    8.455468e-01
  2.897708e+01    8.409554e-01
  2.900883e+01    8.213263e-01
  2.904058e+01    8.273677e-01
  2.907233e+01    8.127692e-01
  2.910408e+01    8.063172e-01
  2.913583e+01    8.311520e-01
  2.916759e+01    8.348441e-01
  2.919934e+01    7.978269e-01
  2.923109e+01    8.102933e-01
  2.926284e+01    8.139663e-01
  2.929459e+01    8.362945e-01
  2.932634e+01    8.016098e-01
  2.935809e+01    8.241938e-01
  2.938984e+01    8.030002e-01
  2.942159e+01    8.155276e-01
  2.945335e+01    8.004044e-01
  2.948510e+01    7.982556e-01
  2.951685e+01    7.980930e-01
  2.954860e+01    8.123038e-01
  2.958035e+01    8.113046e-01
  2.961210e+01    8.008664e-01
  2.964385e+01    7.923651e-01
  2.967560e+01    8.065736e-01
  2.970736e+01    7.947781e-01
  2.973911e+01    7.857329e-01
  2.977086e+01    8.144342e-01
  2.980261e+01    8.073850e-01
  2.983436e+01    7.716661e-01
  2.986611e+01    7.846427e-01
  2.989786e+01    7.894415e-01
  2.992961e+01    7.828411e-01
  2.996136e+01    8.096426e-01
  2.999312e+01    7.990313e-01
  3.002487e+01    8.122310e-01
  3.005662e+01    8.306137e-01
  3.008837e+01    8.144671e-01
  3.012012e+01    7.731756e-01
  3.015187e+01    8.097097e-01
  3.018362e+01    7.691231e-01
  3.021537e+01    8.069500e-01
  3.024712e+01    7.670206e-01
  3.027888e+01    8.058550e-01
  3.031063e+01    8.011168e-01
  3.034238e+01    7.928246e-01
  3.037413e+01    8.042002e-01
  3.040588e+01    8.076873e-01
  3.043763e+01    7.904071e-01
  3.046938e+01    7.703224e-01
  3.050113e+01    7.910385e-01
  3.053288e+01    7.818696e-01
  3.056464e+01    7.844036e-01
  3.059639e+01    8.014425e-01
  3.062814e+01    8.066697e-01
  3.065989e+01    7.798745e-01
  3.069164e+01    7.970294e-01
  3.072339e+01    8.226457e-01
  3.075514e+01    7.979601e-01
  3.078689e+01    7.781608e-01
  3.081865e+01    8.012844e-01
  3.085040e+01    7.783063e-01
  3.088215e+01    7.981065e-01
  3.091390e+01    7.959936e-01
  3.094565e+01    7.791912e-01
  3.097740e+01    7.989639e-01
  3.100915e+01    8.050057e-01
  3.104090e+01    7.967206e-01
  3.107265e+01    7.916077e-01
  3.110441e+01    8.075399e-01
  3.113616e+01    7.928533e-01
  3.116791e+01    7.871865e-01
  3.119966e+01    8.074849e-01
  3.123141e+01    7.847087e-01
  3.126316e+01    7.879062e-01
  3.129491e+01    7.912718e-01
  3.132666e+01    7.890962e-01
  3.135841e+01    8.042658e-01
  3.139017e+01    8.100696e-01
  3.142192e+01    8.168671e-01
  3.145367e+01    8.237009e-01
  3.148542e+01    8.141021e-01
  3.151717e+01    8.443059e-01
  3.154892e+01    8.558495e-01
  3.158067e+01    8.578599e-01
  3.161242e+01    8.934684e-01
  3.164418e+01    9.126893e-01
  3.167593e+01    9.821341e-01
  3.170768e+01    1.029546e+00
  3.173943e+01    1.148461e+00
  3.177118e+01    1.265908e+00
  3.180293e+01    1.482857e+00
  3.183468e+01    1.744357e+00
  3.186643e+01    1.969991e+00
  3.189818e+01    2.108750e+00
  3.192994e+01    2.037984e+00
  3.196169e+01    1.828205e+00
  3.199344e+01    1.546278e+00
  3.202519e+01    1.337916e+00
  3.205694e+01    1.182105e+00
  3.208869e+01    1.023390e+00
  3.212044e+01    9.982029e-01
  3.215219e+01    9.181802e-01
  3.218394e+01    8.855907e-01
  3.221570e+01    8.691709e-01
  3.224745e+01    8.477629e-01
  3.227920e+01    8.143288e-01
  3.231095e+01    7.950003e-01
  3.234270e+01    8.077776e-01
  3.237445e+01    8.127816e-01
  3.240620e+01    7.818955e-01
  3.243795e+01    7.963167e-01
  3.246970e+01    8.005507e-01
  3.250146e+01    7.799445e-01
  3.253321e+01    8.010035e-01
  3.254908e+01    8.025742e-01