File: XRD/Reaction conditions/2024-07-27_003_Ru-CGO-ex_Reaction_dwell_000023_data_000172.dat
# == pyFAI calibration ==
# Distance Sample to Detector: 0.4 m
# PONI: 9.750e-02, 1.135e-01 m
# Rotations: -0.000175 0.000000 -0.000000 rad
#
# == Fit2d calibration ==
# Distance Sample-beamCenter: 400.000 mm
# Center: x=1514.000, y=1300.000 pix
# Tilt: 0.010 deg  TiltPlanRot: 0.010 deg
#
# Detector Detector	 Spline= None	 PixelSize= 7.500e-05, 7.500e-05 m
#    Detector has a mask: False
#    Detector has a dark current: False
#    detector has a flat field: False
#
# Wavelength: 6.888e-11 m
# Mask applied: user provided
# Dark current applied: False
# Flat field applied: False
# Polarization factor: 0.99
# Normalization factor: 1.0
# --> /home/myspot/data/2024_07_Rosario/Ru-CGO-ex/2024-07-27_003_Ru-CGO-ex_Reaction_dwell_000023_data_000172.dat
#       q_nm^-1             I
  2.003187e-02    0.000000e+00
  5.178302e-02    2.420963e-01
  8.353417e-02    1.450771e-01
  1.152853e-01    8.300212e-02
  1.470365e-01    3.450372e-03
  1.787876e-01    8.506069e-02
  2.105388e-01    6.940652e-02
  2.422899e-01    5.583143e-02
  2.740411e-01    4.731344e-02
  3.057922e-01    1.460049e-02
  3.375433e-01    2.253948e-02
  3.692945e-01    4.321291e-02
  4.010456e-01    1.845774e-02
  4.327968e-01    5.407380e-02
  4.645479e-01    3.085894e-02
  4.962991e-01    2.987794e-02
  5.280502e-01    6.499717e-02
  5.598014e-01    4.529456e-02
  5.915525e-01    4.731006e-02
  6.233037e-01    5.621283e-02
  6.550548e-01    4.887584e-02
  6.868060e-01    6.325556e-02
  7.185571e-01    4.864096e-02
  7.503083e-01    2.322022e-02
  7.820594e-01    1.586570e-01
  8.138106e-01    2.322554e-01
  8.455617e-01    3.773185e-01
  8.773129e-01    5.082029e-01
  9.090640e-01    6.258323e-01
  9.408152e-01    7.825234e-01
  9.725663e-01    9.493774e-01
  1.004317e+00    1.201814e+00
  1.036069e+00    1.412801e+00
  1.067820e+00    1.490425e+00
  1.099571e+00    1.454607e+00
  1.131322e+00    1.527782e+00
  1.163073e+00    1.792089e+00
  1.194824e+00    1.715405e+00
  1.226575e+00    2.167716e+00
  1.258327e+00    2.326046e+00
  1.290078e+00    2.616106e+00
  1.321829e+00    2.603067e+00
  1.353580e+00    2.687172e+00
  1.385331e+00    2.720470e+00
  1.417082e+00    2.855821e+00
  1.448834e+00    2.953102e+00
  1.480585e+00    3.145987e+00
  1.512336e+00    3.010389e+00
  1.544087e+00    3.291250e+00
  1.575838e+00    3.374498e+00
  1.607589e+00    3.104447e+00
  1.639340e+00    3.290787e+00
  1.671092e+00    3.131507e+00
  1.702843e+00    3.072644e+00
  1.734594e+00    3.076328e+00
  1.766345e+00    2.907808e+00
  1.798096e+00    3.015512e+00
  1.829847e+00    3.057329e+00
  1.861598e+00    2.925410e+00
  1.893350e+00    2.892018e+00
  1.925101e+00    3.079684e+00
  1.956852e+00    3.135580e+00
  1.988603e+00    3.002714e+00
  2.020354e+00    3.151378e+00
  2.052105e+00    2.916512e+00
  2.083856e+00    2.978445e+00
  2.115608e+00    2.970563e+00
  2.147359e+00    3.096537e+00
  2.179110e+00    3.018811e+00
  2.210861e+00    2.996038e+00
  2.242612e+00    3.047182e+00
  2.274363e+00    2.980924e+00
  2.306115e+00    3.185358e+00
  2.337866e+00    3.150742e+00
  2.369617e+00    3.097205e+00
  2.401368e+00    3.192555e+00
  2.433119e+00    2.994050e+00
  2.464870e+00    3.030144e+00
  2.496621e+00    3.214880e+00
  2.528373e+00    3.167176e+00
  2.560124e+00    3.200564e+00
  2.591875e+00    3.205198e+00
  2.623626e+00    3.186404e+00
  2.655377e+00    3.097298e+00
  2.687128e+00    3.194660e+00
  2.718879e+00    3.146566e+00
  2.750631e+00    3.134785e+00
  2.782382e+00    3.298752e+00
  2.814133e+00    3.156369e+00
  2.845884e+00    3.296238e+00
  2.877635e+00    3.174479e+00
  2.909386e+00    3.323151e+00
  2.941137e+00    3.307909e+00
  2.972889e+00    3.267083e+00
  3.004640e+00    3.391661e+00
  3.036391e+00    3.337487e+00
  3.068142e+00    3.399660e+00
  3.099893e+00    3.326457e+00
  3.131644e+00    3.367238e+00
  3.163395e+00    3.250941e+00
  3.195147e+00    3.311458e+00
  3.226898e+00    3.154598e+00
  3.258649e+00    3.367705e+00
  3.290400e+00    3.420218e+00
  3.322151e+00    3.386158e+00
  3.353902e+00    3.362019e+00
  3.385654e+00    3.302377e+00
  3.417405e+00    3.376376e+00
  3.449156e+00    3.406151e+00
  3.480907e+00    3.428223e+00
  3.512658e+00    3.362529e+00
  3.544409e+00    3.467847e+00
  3.576160e+00    3.448076e+00
  3.607912e+00    3.336386e+00
  3.639663e+00    3.267460e+00
  3.671414e+00    3.524343e+00
  3.703165e+00    3.347795e+00
  3.734916e+00    3.340103e+00
  3.766667e+00    3.363837e+00
  3.798418e+00    3.415547e+00
  3.830170e+00    3.559528e+00
  3.861921e+00    3.530825e+00
  3.893672e+00    3.438831e+00
  3.925423e+00    3.375412e+00
  3.957174e+00    3.564364e+00
  3.988925e+00    3.487200e+00
  4.020676e+00    3.533788e+00
  4.052428e+00    3.430681e+00
  4.084179e+00    3.421544e+00
  4.115930e+00    3.500164e+00
  4.147681e+00    3.547059e+00
  4.179432e+00    3.426926e+00
  4.211183e+00    3.507938e+00
  4.242935e+00    3.443735e+00
  4.274686e+00    3.466842e+00
  4.306437e+00    3.529359e+00
  4.338188e+00    3.515914e+00
  4.369939e+00    3.518790e+00
  4.401690e+00    3.476055e+00
  4.433441e+00    3.594264e+00
  4.465193e+00    3.539760e+00
  4.496944e+00    3.480020e+00
  4.528695e+00    3.548352e+00
  4.560446e+00    3.487732e+00
  4.592197e+00    3.475841e+00
  4.623948e+00    3.533922e+00
  4.655699e+00    3.545027e+00
  4.687451e+00    3.613329e+00
  4.719202e+00    3.593435e+00
  4.750953e+00    3.628109e+00
  4.782704e+00    3.579447e+00
  4.814455e+00    3.625336e+00
  4.846206e+00    3.663326e+00
  4.877957e+00    3.527993e+00
  4.909709e+00    3.600738e+00
  4.941460e+00    3.626294e+00
  4.973211e+00    3.587961e+00
  5.004962e+00    3.589314e+00
  5.036713e+00    3.541112e+00
  5.068464e+00    3.629339e+00
  5.100216e+00    3.640914e+00
  5.131967e+00    3.607634e+00
  5.163718e+00    3.495434e+00
  5.195469e+00    3.609601e+00
  5.227220e+00    3.538206e+00
  5.258971e+00    3.665186e+00
  5.290722e+00    3.564761e+00
  5.322474e+00    3.600808e+00
  5.354225e+00    3.657478e+00
  5.385976e+00    3.620679e+00
  5.417727e+00    3.648716e+00
  5.449478e+00    3.530486e+00
  5.481229e+00    3.560279e+00
  5.512980e+00    3.501133e+00
  5.544732e+00    3.543343e+00
  5.576483e+00    3.573340e+00
  5.608234e+00    3.556605e+00
  5.639985e+00    3.521013e+00
  5.671736e+00    3.563184e+00
  5.703487e+00    3.500990e+00
  5.735238e+00    3.625743e+00
  5.766990e+00    3.506436e+00
  5.798741e+00    3.530199e+00
  5.830492e+00    3.553437e+00
  5.862243e+00    3.533608e+00
  5.893994e+00    3.549246e+00
  5.925745e+00    3.547129e+00
  5.957497e+00    3.327550e+00
  5.989248e+00    3.528053e+00
  6.020999e+00    3.592119e+00
  6.052750e+00    3.506599e+00
  6.084501e+00    3.524147e+00
  6.116252e+00    3.546459e+00
  6.148003e+00    3.596672e+00
  6.179755e+00    3.479784e+00
  6.211506e+00    3.510818e+00
  6.243257e+00    3.578386e+00
  6.275008e+00    3.489052e+00
  6.306759e+00    3.440689e+00
  6.338510e+00    3.469774e+00
  6.370261e+00    3.482021e+00
  6.402013e+00    3.503652e+00
  6.433764e+00    3.447609e+00
  6.465515e+00    3.515204e+00
  6.497266e+00    3.552716e+00
  6.529017e+00    3.552445e+00
  6.560768e+00    3.494712e+00
  6.592519e+00    3.538915e+00
  6.624271e+00    3.499933e+00
  6.656022e+00    3.586732e+00
  6.687773e+00    3.501528e+00
  6.719524e+00    3.531011e+00
  6.751275e+00    3.574383e+00
  6.783026e+00    3.470206e+00
  6.814777e+00    3.485445e+00
  6.846529e+00    3.527443e+00
  6.878280e+00    3.434507e+00
  6.910031e+00    3.442518e+00
  6.941782e+00    3.506395e+00
  6.973533e+00    3.445420e+00
  7.005284e+00    3.454278e+00
  7.037036e+00    3.484681e+00
  7.068787e+00    3.414020e+00
  7.100538e+00    3.462493e+00
  7.132289e+00    3.458918e+00
  7.164040e+00    3.523748e+00
  7.195791e+00    3.518603e+00
  7.227542e+00    3.469944e+00
  7.259294e+00    3.408847e+00
  7.291045e+00    3.528233e+00
  7.322796e+00    3.426442e+00
  7.354547e+00    3.488730e+00
  7.386298e+00    3.452143e+00
  7.418049e+00    3.440229e+00
  7.449800e+00    3.450197e+00
  7.481552e+00    3.422524e+00
  7.513303e+00    3.494236e+00
  7.545054e+00    3.489863e+00
  7.576805e+00    3.434694e+00
  7.608556e+00    3.394654e+00
  7.640307e+00    3.421634e+00
  7.672058e+00    3.481585e+00
  7.703810e+00    3.387003e+00
  7.735561e+00    3.357165e+00
  7.767312e+00    3.409247e+00
  7.799063e+00    3.416459e+00
  7.830814e+00    3.423815e+00
  7.862565e+00    3.370961e+00
  7.894317e+00    3.410537e+00
  7.926068e+00    3.433132e+00
  7.957819e+00    3.387740e+00
  7.989570e+00    3.355919e+00
  8.021321e+00    3.473993e+00
  8.053072e+00    3.394194e+00
  8.084823e+00    3.333842e+00
  8.116575e+00    3.326747e+00
  8.148326e+00    3.424009e+00
  8.180077e+00    3.399234e+00
  8.211828e+00    3.432651e+00
  8.243579e+00    3.434585e+00
  8.275330e+00    3.377002e+00
  8.307081e+00    3.337873e+00
  8.338833e+00    3.256480e+00
  8.370584e+00    3.341339e+00
  8.402335e+00    3.298448e+00
  8.434086e+00    3.408708e+00
  8.465837e+00    3.412885e+00
  8.497588e+00    3.423070e+00
  8.529339e+00    3.313058e+00
  8.561091e+00    3.292660e+00
  8.592842e+00    3.270210e+00
  8.624593e+00    3.360799e+00
  8.656344e+00    3.300562e+00
  8.688095e+00    3.274272e+00
  8.719846e+00    3.268508e+00
  8.751598e+00    3.308569e+00
  8.783349e+00    3.356248e+00
  8.815100e+00    3.245602e+00
  8.846851e+00    3.315263e+00
  8.878602e+00    3.350871e+00
  8.910353e+00    3.211091e+00
  8.942104e+00    3.177733e+00
  8.973856e+00    3.247603e+00
  9.005607e+00    3.185739e+00
  9.037358e+00    3.194879e+00
  9.069109e+00    3.187849e+00
  9.100860e+00    3.233638e+00
  9.132611e+00    3.143883e+00
  9.164362e+00    3.251445e+00
  9.196114e+00    3.231958e+00
  9.227865e+00    3.264637e+00
  9.259616e+00    3.233351e+00
  9.291367e+00    3.183751e+00
  9.323118e+00    3.189052e+00
  9.354869e+00    3.179202e+00
  9.386620e+00    3.201659e+00
  9.418372e+00    3.189512e+00
  9.450123e+00    3.192914e+00
  9.481874e+00    3.163103e+00
  9.513625e+00    3.180663e+00
  9.545376e+00    3.204521e+00
  9.577127e+00    3.203884e+00
  9.608878e+00    3.126289e+00
  9.640630e+00    3.099226e+00
  9.672381e+00    3.172052e+00
  9.704132e+00    3.234663e+00
  9.735883e+00    3.162519e+00
  9.767634e+00    3.180780e+00
  9.799385e+00    3.131028e+00
  9.831137e+00    3.125601e+00
  9.862888e+00    3.144625e+00
  9.894639e+00    3.069747e+00
  9.926390e+00    3.118297e+00
  9.958141e+00    3.040345e+00
  9.989892e+00    3.062900e+00
  1.002164e+01    3.057221e+00
  1.005339e+01    3.055952e+00
  1.008515e+01    3.047614e+00
  1.011690e+01    3.047100e+00
  1.014865e+01    3.089831e+00
  1.018040e+01    2.984413e+00
  1.021215e+01    3.033325e+00
  1.024390e+01    3.052340e+00
  1.027565e+01    3.050832e+00
  1.030740e+01    3.090100e+00
  1.033915e+01    2.998955e+00
  1.037091e+01    2.987167e+00
  1.040266e+01    3.048589e+00
  1.043441e+01    3.020262e+00
  1.046616e+01    2.968057e+00
  1.049791e+01    2.955227e+00
  1.052966e+01    2.984292e+00
  1.056141e+01    2.963418e+00
  1.059316e+01    2.963690e+00
  1.062492e+01    3.041863e+00
  1.065667e+01    2.937300e+00
  1.068842e+01    2.920295e+00
  1.072017e+01    2.956157e+00
  1.075192e+01    2.923827e+00
  1.078367e+01    2.883084e+00
  1.081542e+01    2.934447e+00
  1.084717e+01    2.964707e+00
  1.087892e+01    2.862132e+00
  1.091068e+01    2.902130e+00
  1.094243e+01    2.875666e+00
  1.097418e+01    2.889862e+00
  1.100593e+01    2.874187e+00
  1.103768e+01    2.856221e+00
  1.106943e+01    2.843385e+00
  1.110118e+01    2.817629e+00
  1.113293e+01    2.893545e+00
  1.116468e+01    2.840238e+00
  1.119644e+01    2.806470e+00
  1.122819e+01    2.830754e+00
  1.125994e+01    2.828302e+00
  1.129169e+01    2.830718e+00
  1.132344e+01    2.819988e+00
  1.135519e+01    2.807168e+00
  1.138694e+01    2.816965e+00
  1.141869e+01    2.784512e+00
  1.145045e+01    2.722656e+00
  1.148220e+01    2.768221e+00
  1.151395e+01    2.718746e+00
  1.154570e+01    2.735590e+00
  1.157745e+01    2.736490e+00
  1.160920e+01    2.733677e+00
  1.164095e+01    2.702298e+00
  1.167270e+01    2.722811e+00
  1.170445e+01    2.754339e+00
  1.173621e+01    2.719097e+00
  1.176796e+01    2.703748e+00
  1.179971e+01    2.706033e+00
  1.183146e+01    2.695581e+00
  1.186321e+01    2.682261e+00
  1.189496e+01    2.699656e+00
  1.192671e+01    2.701482e+00
  1.195846e+01    2.664104e+00
  1.199021e+01    2.686732e+00
  1.202197e+01    2.651389e+00
  1.205372e+01    2.659892e+00
  1.208547e+01    2.641776e+00
  1.211722e+01    2.636651e+00
  1.214897e+01    2.645631e+00
  1.218072e+01    2.684641e+00
  1.221247e+01    2.684439e+00
  1.224422e+01    2.649048e+00
  1.227597e+01    2.637310e+00
  1.230773e+01    2.639802e+00
  1.233948e+01    2.651307e+00
  1.237123e+01    2.682007e+00
  1.240298e+01    2.683756e+00
  1.243473e+01    2.658716e+00
  1.246648e+01    2.636019e+00
  1.249823e+01    2.660726e+00
  1.252998e+01    2.656016e+00
  1.256174e+01    2.731132e+00
  1.259349e+01    2.773163e+00
  1.262524e+01    2.724176e+00
  1.265699e+01    2.707022e+00
  1.268874e+01    2.813348e+00
  1.272049e+01    2.777237e+00
  1.275224e+01    2.836896e+00
  1.278399e+01    2.935101e+00
  1.281574e+01    3.011035e+00
  1.284750e+01    3.103678e+00
  1.287925e+01    3.368951e+00
  1.291100e+01    3.608234e+00
  1.294275e+01    4.057213e+00
  1.297450e+01    4.743555e+00
  1.300625e+01    5.778924e+00
  1.303800e+01    7.667065e+00
  1.306975e+01    1.016441e+01
  1.310150e+01    1.266028e+01
  1.313326e+01    1.467219e+01
  1.316501e+01    1.613400e+01
  1.319676e+01    1.555687e+01
  1.322851e+01    1.227778e+01
  1.326026e+01    8.907431e+00
  1.329201e+01    6.610739e+00
  1.332376e+01    5.230588e+00
  1.335551e+01    4.407674e+00
  1.338727e+01    3.722240e+00
  1.341902e+01    3.403939e+00
  1.345077e+01    3.214521e+00
  1.348252e+01    3.029956e+00
  1.351427e+01    2.869754e+00
  1.354602e+01    2.804668e+00
  1.357777e+01    2.710615e+00
  1.360952e+01    2.660856e+00
  1.364127e+01    2.596135e+00
  1.367303e+01    2.533123e+00
  1.370478e+01    2.519081e+00
  1.373653e+01    2.442536e+00
  1.376828e+01    2.461329e+00
  1.380003e+01    2.462937e+00
  1.383178e+01    2.457975e+00
  1.386353e+01    2.388152e+00
  1.389528e+01    2.371452e+00
  1.392703e+01    2.397727e+00
  1.395879e+01    2.352687e+00
  1.399054e+01    2.381544e+00
  1.402229e+01    2.344725e+00
  1.405404e+01    2.316961e+00
  1.408579e+01    2.354767e+00
  1.411754e+01    2.314903e+00
  1.414929e+01    2.315016e+00
  1.418104e+01    2.272205e+00
  1.421279e+01    2.249733e+00
  1.424455e+01    2.238302e+00
  1.427630e+01    2.241064e+00
  1.430805e+01    2.304476e+00
  1.433980e+01    2.267043e+00
  1.437155e+01    2.209450e+00
  1.440330e+01    2.209389e+00
  1.443505e+01    2.157860e+00
  1.446680e+01    2.230401e+00
  1.449856e+01    2.183853e+00
  1.453031e+01    2.200553e+00
  1.456206e+01    2.225991e+00
  1.459381e+01    2.160665e+00
  1.462556e+01    2.165153e+00
  1.465731e+01    2.211566e+00
  1.468906e+01    2.175759e+00
  1.472081e+01    2.172423e+00
  1.475256e+01    2.165634e+00
  1.478432e+01    2.178693e+00
  1.481607e+01    2.212178e+00
  1.484782e+01    2.206547e+00
  1.487957e+01    2.220444e+00
  1.491132e+01    2.238443e+00
  1.494307e+01    2.277422e+00
  1.497482e+01    2.292851e+00
  1.500657e+01    2.394913e+00
  1.503832e+01    2.571178e+00
  1.507008e+01    2.786649e+00
  1.510183e+01    3.176753e+00
  1.513358e+01    3.722252e+00
  1.516533e+01    4.488692e+00
  1.519708e+01    5.135577e+00
  1.522883e+01    5.525894e+00
  1.526058e+01    5.737311e+00
  1.529233e+01    5.357783e+00
  1.532409e+01    4.606000e+00
  1.535584e+01    3.683178e+00
  1.538759e+01    3.069997e+00
  1.541934e+01    2.723284e+00
  1.545109e+01    2.487135e+00
  1.548284e+01    2.305608e+00
  1.551459e+01    2.223880e+00
  1.554634e+01    2.153444e+00
  1.557809e+01    2.092073e+00
  1.560985e+01    2.057111e+00
  1.564160e+01    2.019051e+00
  1.567335e+01    2.009891e+00
  1.570510e+01    1.931317e+00
  1.573685e+01    1.965565e+00
  1.576860e+01    1.943386e+00
  1.580035e+01    1.931547e+00
  1.583210e+01    1.864556e+00
  1.586385e+01    1.896408e+00
  1.589561e+01    1.885674e+00
  1.592736e+01    1.852112e+00
  1.595911e+01    1.865058e+00
  1.599086e+01    1.844664e+00
  1.602261e+01    1.826022e+00
  1.605436e+01    1.831100e+00
  1.608611e+01    1.817014e+00
  1.611786e+01    1.828201e+00
  1.614961e+01    1.816746e+00
  1.618137e+01    1.811246e+00
  1.621312e+01    1.769440e+00
  1.624487e+01    1.823441e+00
  1.627662e+01    1.742934e+00
  1.630837e+01    1.767952e+00
  1.634012e+01    1.759925e+00
  1.637187e+01    1.781762e+00
  1.640362e+01    1.764784e+00
  1.643538e+01    1.745505e+00
  1.646713e+01    1.756691e+00
  1.649888e+01    1.745019e+00
  1.653063e+01    1.699745e+00
  1.656238e+01    1.732446e+00
  1.659413e+01    1.709236e+00
  1.662588e+01    1.736915e+00
  1.665763e+01    1.698751e+00
  1.668938e+01    1.709732e+00
  1.672114e+01    1.646505e+00
  1.675289e+01    1.660461e+00
  1.678464e+01    1.662048e+00
  1.681639e+01    1.688505e+00
  1.684814e+01    1.678744e+00
  1.687989e+01    1.643552e+00
  1.691164e+01    1.689228e+00
  1.694339e+01    1.644207e+00
  1.697514e+01    1.659372e+00
  1.700690e+01    1.672480e+00
  1.703865e+01    1.662912e+00
  1.707040e+01    1.631773e+00
  1.710215e+01    1.618105e+00
  1.713390e+01    1.649432e+00
  1.716565e+01    1.599741e+00
  1.719740e+01    1.603900e+00
  1.722915e+01    1.596359e+00
  1.726091e+01    1.587045e+00
  1.729266e+01    1.590844e+00
  1.732441e+01    1.589035e+00
  1.735616e+01    1.578401e+00
  1.738791e+01    1.541277e+00
  1.741966e+01    1.566537e+00
  1.745141e+01    1.550225e+00
  1.748316e+01    1.573232e+00
  1.751491e+01    1.544827e+00
  1.754667e+01    1.550579e+00
  1.757842e+01    1.551050e+00
  1.761017e+01    1.537277e+00
  1.764192e+01    1.543885e+00
  1.767367e+01    1.516976e+00
  1.770542e+01    1.537421e+00
  1.773717e+01    1.547662e+00
  1.776892e+01    1.552253e+00
  1.780067e+01    1.532757e+00
  1.783243e+01    1.512043e+00
  1.786418e+01    1.493583e+00
  1.789593e+01    1.521703e+00
  1.792768e+01    1.510848e+00
  1.795943e+01    1.505878e+00
  1.799118e+01    1.498092e+00
  1.802293e+01    1.482335e+00
  1.805468e+01    1.471447e+00
  1.808643e+01    1.488398e+00
  1.811819e+01    1.497643e+00
  1.814994e+01    1.506436e+00
  1.818169e+01    1.462497e+00
  1.821344e+01    1.461360e+00
  1.824519e+01    1.435559e+00
  1.827694e+01    1.463833e+00
  1.830869e+01    1.446885e+00
  1.834044e+01    1.465141e+00
  1.837220e+01    1.418143e+00
  1.840395e+01    1.433044e+00
  1.843570e+01    1.418702e+00
  1.846745e+01    1.412996e+00
  1.849920e+01    1.453280e+00
  1.853095e+01    1.411335e+00
  1.856270e+01    1.430706e+00
  1.859445e+01    1.414460e+00
  1.862620e+01    1.412599e+00
  1.865796e+01    1.402166e+00
  1.868971e+01    1.399489e+00
  1.872146e+01    1.393250e+00
  1.875321e+01    1.379645e+00
  1.878496e+01    1.394905e+00
  1.881671e+01    1.338928e+00
  1.884846e+01    1.383651e+00
  1.888021e+01    1.357115e+00
  1.891196e+01    1.373325e+00
  1.894372e+01    1.365501e+00
  1.897547e+01    1.341874e+00
  1.900722e+01    1.338613e+00
  1.903897e+01    1.381617e+00
  1.907072e+01    1.363008e+00
  1.910247e+01    1.331180e+00
  1.913422e+01    1.354897e+00
  1.916597e+01    1.336595e+00
  1.919773e+01    1.319400e+00
  1.922948e+01    1.327598e+00
  1.926123e+01    1.348487e+00
  1.929298e+01    1.341886e+00
  1.932473e+01    1.338410e+00
  1.935648e+01    1.310176e+00
  1.938823e+01    1.304264e+00
  1.941998e+01    1.310183e+00
  1.945173e+01    1.295613e+00
  1.948349e+01    1.324562e+00
  1.951524e+01    1.315300e+00
  1.954699e+01    1.299917e+00
  1.957874e+01    1.323966e+00
  1.961049e+01    1.320342e+00
  1.964224e+01    1.292758e+00
  1.967399e+01    1.286527e+00
  1.970574e+01    1.307618e+00
  1.973749e+01    1.281861e+00
  1.976925e+01    1.290705e+00
  1.980100e+01    1.313660e+00
  1.983275e+01    1.309065e+00
  1.986450e+01    1.270847e+00
  1.989625e+01    1.270743e+00
  1.992800e+01    1.267525e+00
  1.995975e+01    1.264364e+00
  1.999150e+01    1.278347e+00
  2.002325e+01    1.281891e+00
  2.005501e+01    1.234949e+00
  2.008676e+01    1.267718e+00
  2.011851e+01    1.234355e+00
  2.015026e+01    1.241286e+00
  2.018201e+01    1.243037e+00
  2.021376e+01    1.261380e+00
  2.024551e+01    1.252727e+00
  2.027726e+01    1.277279e+00
  2.030902e+01    1.259482e+00
  2.034077e+01    1.225481e+00
  2.037252e+01    1.226668e+00
  2.040427e+01    1.220936e+00
  2.043602e+01    1.232489e+00
  2.046777e+01    1.223028e+00
  2.049952e+01    1.228163e+00
  2.053127e+01    1.212083e+00
  2.056302e+01    1.203933e+00
  2.059478e+01    1.215931e+00
  2.062653e+01    1.207115e+00
  2.065828e+01    1.192394e+00
  2.069003e+01    1.226152e+00
  2.072178e+01    1.208366e+00
  2.075353e+01    1.208538e+00
  2.078528e+01    1.220511e+00
  2.081703e+01    1.234712e+00
  2.084878e+01    1.234715e+00
  2.088054e+01    1.199880e+00
  2.091229e+01    1.213738e+00
  2.094404e+01    1.218495e+00
  2.097579e+01    1.194800e+00
  2.100754e+01    1.192404e+00
  2.103929e+01    1.197917e+00
  2.107104e+01    1.214949e+00
  2.110279e+01    1.232945e+00
  2.113455e+01    1.215816e+00
  2.116630e+01    1.212277e+00
  2.119805e+01    1.201569e+00
  2.122980e+01    1.260908e+00
  2.126155e+01    1.219009e+00
  2.129330e+01    1.214449e+00
  2.132505e+01    1.250421e+00
  2.135680e+01    1.272932e+00
  2.138855e+01    1.285474e+00
  2.142031e+01    1.316067e+00
  2.145206e+01    1.329536e+00
  2.148381e+01    1.368783e+00
  2.151556e+01    1.448034e+00
  2.154731e+01    1.527436e+00
  2.157906e+01    1.592416e+00
  2.161081e+01    1.745362e+00
  2.164256e+01    1.949073e+00
  2.167431e+01    2.262454e+00
  2.170607e+01    2.800234e+00
  2.173782e+01    3.519779e+00
  2.176957e+01    4.595450e+00
  2.180132e+01    5.846925e+00
  2.183307e+01    7.168848e+00
  2.186482e+01    8.278060e+00
  2.189657e+01    8.785614e+00
  2.192832e+01    8.077575e+00
  2.196007e+01    6.372759e+00
  2.199183e+01    4.724295e+00
  2.202358e+01    3.528430e+00
  2.205533e+01    2.739581e+00
  2.208708e+01    2.288616e+00
  2.211883e+01    1.954168e+00
  2.215058e+01    1.743822e+00
  2.218233e+01    1.574516e+00
  2.221408e+01    1.493999e+00
  2.224584e+01    1.387825e+00
  2.227759e+01    1.315435e+00
  2.230934e+01    1.252462e+00
  2.234109e+01    1.244339e+00
  2.237284e+01    1.217734e+00
  2.240459e+01    1.184468e+00
  2.243634e+01    1.162762e+00
  2.246809e+01    1.128408e+00
  2.249984e+01    1.130387e+00
  2.253160e+01    1.112514e+00
  2.256335e+01    1.090920e+00
  2.259510e+01    1.097613e+00
  2.262685e+01    1.086498e+00
  2.265860e+01    1.097798e+00
  2.269035e+01    1.065922e+00
  2.272210e+01    1.069371e+00
  2.275385e+01    1.053140e+00
  2.278560e+01    1.056496e+00
  2.281736e+01    1.045984e+00
  2.284911e+01    1.032103e+00
  2.288086e+01    1.035938e+00
  2.291261e+01    1.012064e+00
  2.294436e+01    1.037792e+00
  2.297611e+01    1.029091e+00
  2.300786e+01    9.945201e-01
  2.303961e+01    1.009354e+00
  2.307137e+01    1.011100e+00
  2.310312e+01    1.002926e+00
  2.313487e+01    9.824820e-01
  2.316662e+01    9.910425e-01
  2.319837e+01    9.986911e-01
  2.323012e+01    9.475414e-01
  2.326187e+01    9.737984e-01
  2.329362e+01    9.741380e-01
  2.332537e+01    9.742466e-01
  2.335713e+01    9.612290e-01
  2.338888e+01    9.731259e-01
  2.342063e+01    9.668055e-01
  2.345238e+01    9.645546e-01
  2.348413e+01    9.387817e-01
  2.351588e+01    9.496399e-01
  2.354763e+01    9.569327e-01
  2.357938e+01    9.496955e-01
  2.361113e+01    9.170210e-01
  2.364289e+01    9.409075e-01
  2.367464e+01    9.506969e-01
  2.370639e+01    9.352334e-01
  2.373814e+01    9.143744e-01
  2.376989e+01    9.120204e-01
  2.380164e+01    9.061350e-01
  2.383339e+01    9.039554e-01
  2.386514e+01    9.165383e-01
  2.389689e+01    8.945321e-01
  2.392865e+01    9.065206e-01
  2.396040e+01    8.846098e-01
  2.399215e+01    8.775599e-01
  2.402390e+01    8.846985e-01
  2.405565e+01    8.808808e-01
  2.408740e+01    8.702511e-01
  2.411915e+01    8.780091e-01
  2.415090e+01    8.948218e-01
  2.418266e+01    8.787439e-01
  2.421441e+01    8.661174e-01
  2.424616e+01    8.607486e-01
  2.427791e+01    9.005105e-01
  2.430966e+01    8.731642e-01
  2.434141e+01    8.894923e-01
  2.437316e+01    9.036456e-01
  2.440491e+01    8.958706e-01
  2.443666e+01    8.762149e-01
  2.446842e+01    8.856725e-01
  2.450017e+01    8.885056e-01
  2.453192e+01    9.024274e-01
  2.456367e+01    8.781962e-01
  2.459542e+01    8.778564e-01
  2.462717e+01    8.814021e-01
  2.465892e+01    8.903310e-01
  2.469067e+01    8.848730e-01
  2.472242e+01    8.848669e-01
  2.475418e+01    8.594506e-01
  2.478593e+01    8.790599e-01
  2.481768e+01    8.799175e-01
  2.484943e+01    8.943785e-01
  2.488118e+01    8.917992e-01
  2.491293e+01    8.792315e-01
  2.494468e+01    8.817776e-01
  2.497643e+01    8.780085e-01
  2.500819e+01    8.765119e-01
  2.503994e+01    8.880883e-01
  2.507169e+01    8.678386e-01
  2.510344e+01    8.978466e-01
  2.513519e+01    9.120219e-01
  2.516694e+01    9.116731e-01
  2.519869e+01    9.393525e-01
  2.523044e+01    9.441294e-01
  2.526219e+01    9.264574e-01
  2.529395e+01    9.167021e-01
  2.532570e+01    9.497756e-01
  2.535745e+01    9.345325e-01
  2.538920e+01    9.653841e-01
  2.542095e+01    9.950042e-01
  2.545270e+01    1.002096e+00
  2.548445e+01    1.029236e+00
  2.551620e+01    1.069103e+00
  2.554795e+01    1.092044e+00
  2.557971e+01    1.122116e+00
  2.561146e+01    1.201381e+00
  2.564321e+01    1.286633e+00
  2.567496e+01    1.435099e+00
  2.570671e+01    1.584112e+00
  2.573846e+01    1.836007e+00
  2.577021e+01    2.190062e+00
  2.580196e+01    2.814562e+00
  2.583371e+01    3.673161e+00
  2.586547e+01    4.656457e+00
  2.589722e+01    5.793051e+00
  2.592897e+01    6.721704e+00
  2.596072e+01    6.976044e+00
  2.599247e+01    6.404281e+00
  2.602422e+01    5.104630e+00
  2.605597e+01    3.838156e+00
  2.608772e+01    2.874360e+00
  2.611948e+01    2.302451e+00
  2.615123e+01    1.896564e+00
  2.618298e+01    1.626922e+00
  2.621473e+01    1.464314e+00
  2.624648e+01    1.342675e+00
  2.627823e+01    1.252610e+00
  2.630998e+01    1.165165e+00
  2.634173e+01    1.122030e+00
  2.637348e+01    1.069135e+00
  2.640524e+01    1.028533e+00
  2.643699e+01    1.016953e+00
  2.646874e+01    1.004682e+00
  2.650049e+01    1.006230e+00
  2.653224e+01    9.969925e-01
  2.656399e+01    9.582425e-01
  2.659574e+01    9.774921e-01
  2.662749e+01    9.738614e-01
  2.665924e+01    9.639145e-01
  2.669100e+01    9.506434e-01
  2.672275e+01    9.624844e-01
  2.675450e+01    9.495679e-01
  2.678625e+01    9.625930e-01
  2.681800e+01    9.712280e-01
  2.684975e+01    9.492266e-01
  2.688150e+01    9.729755e-01
  2.691325e+01    9.982390e-01
  2.694501e+01    1.005000e+00
  2.697676e+01    1.057410e+00
  2.700851e+01    1.089399e+00
  2.704026e+01    1.171256e+00
  2.707201e+01    1.329201e+00
  2.710376e+01    1.497084e+00
  2.713551e+01    1.712077e+00
  2.716726e+01    1.961703e+00
  2.719901e+01    2.111273e+00
  2.723077e+01    2.145583e+00
  2.726252e+01    1.927249e+00
  2.729427e+01    1.681921e+00
  2.732602e+01    1.426798e+00
  2.735777e+01    1.235579e+00
  2.738952e+01    1.117514e+00
  2.742127e+01    1.064143e+00
  2.745302e+01    9.932706e-01
  2.748477e+01    9.970179e-01
  2.751653e+01    9.550918e-01
  2.754828e+01    9.617376e-01
  2.758003e+01    9.156621e-01
  2.761178e+01    9.173564e-01
  2.764353e+01    9.102132e-01
  2.767528e+01    8.888112e-01
  2.770703e+01    8.838915e-01
  2.773878e+01    8.620849e-01
  2.777054e+01    8.732367e-01
  2.780229e+01    8.669575e-01
  2.783404e+01    8.778415e-01
  2.786579e+01    8.424596e-01
  2.789754e+01    8.543457e-01
  2.792929e+01    8.905522e-01
  2.796104e+01    8.620620e-01
  2.799279e+01    8.612100e-01
  2.802454e+01    8.615642e-01
  2.805630e+01    8.577482e-01
  2.808805e+01    8.619047e-01
  2.811980e+01    8.511807e-01
  2.815155e+01    8.489466e-01
  2.818330e+01    8.497941e-01
  2.821505e+01    8.430300e-01
  2.824680e+01    8.571168e-01
  2.827855e+01    8.490270e-01
  2.831030e+01    8.338777e-01
  2.834206e+01    8.421876e-01
  2.837381e+01    8.154288e-01
  2.840556e+01    8.334517e-01
  2.843731e+01    8.231083e-01
  2.846906e+01    8.299969e-01
  2.850081e+01    8.231071e-01
  2.853256e+01    8.389798e-01
  2.856431e+01    8.204223e-01
  2.859606e+01    8.356243e-01
  2.862782e+01    8.345035e-01
  2.865957e+01    8.228131e-01
  2.869132e+01    8.186725e-01
  2.872307e+01    8.091850e-01
  2.875482e+01    8.122751e-01
  2.878657e+01    8.135192e-01
  2.881832e+01    8.114954e-01
  2.885007e+01    8.152186e-01
  2.888183e+01    8.339190e-01
  2.891358e+01    8.450394e-01
  2.894533e+01    7.841507e-01
  2.897708e+01    8.253220e-01
  2.900883e+01    7.962055e-01
  2.904058e+01    8.222592e-01
  2.907233e+01    8.092756e-01
  2.910408e+01    8.019289e-01
  2.913583e+01    8.072994e-01
  2.916759e+01    8.195652e-01
  2.919934e+01    8.422860e-01
  2.923109e+01    8.019297e-01
  2.926284e+01    7.833362e-01
  2.929459e+01    8.027357e-01
  2.932634e+01    7.972276e-01
  2.935809e+01    8.061960e-01
  2.938984e+01    7.900252e-01
  2.942159e+01    7.759412e-01
  2.945335e+01    7.909315e-01
  2.948510e+01    7.705008e-01
  2.951685e+01    7.878134e-01
  2.954860e+01    7.891496e-01
  2.958035e+01    8.248905e-01
  2.961210e+01    7.749059e-01
  2.964385e+01    7.865725e-01
  2.967560e+01    7.893049e-01
  2.970736e+01    8.194588e-01
  2.973911e+01    7.921209e-01
  2.977086e+01    7.786266e-01
  2.980261e+01    7.590321e-01
  2.983436e+01    7.979460e-01
  2.986611e+01    7.924279e-01
  2.989786e+01    7.839835e-01
  2.992961e+01    7.920816e-01
  2.996136e+01    7.862837e-01
  2.999312e+01    8.140853e-01
  3.002487e+01    8.024117e-01
  3.005662e+01    8.278037e-01
  3.008837e+01    7.864797e-01
  3.012012e+01    7.819704e-01
  3.015187e+01    7.821258e-01
  3.018362e+01    7.634122e-01
  3.021537e+01    7.734244e-01
  3.024712e+01    7.715377e-01
  3.027888e+01    7.729959e-01
  3.031063e+01    7.905009e-01
  3.034238e+01    7.657908e-01
  3.037413e+01    7.781315e-01
  3.040588e+01    7.740156e-01
  3.043763e+01    7.718205e-01
  3.046938e+01    7.717240e-01
  3.050113e+01    7.877252e-01
  3.053288e+01    7.729218e-01
  3.056464e+01    7.784307e-01
  3.059639e+01    7.776452e-01
  3.062814e+01    7.761400e-01
  3.065989e+01    8.139280e-01
  3.069164e+01    7.521774e-01
  3.072339e+01    7.712156e-01
  3.075514e+01    7.992205e-01
  3.078689e+01    7.565395e-01
  3.081865e+01    7.458535e-01
  3.085040e+01    7.734637e-01
  3.088215e+01    7.785234e-01
  3.091390e+01    7.659038e-01
  3.094565e+01    7.776925e-01
  3.097740e+01    7.637159e-01
  3.100915e+01    7.827761e-01
  3.104090e+01    7.699570e-01
  3.107265e+01    7.628064e-01
  3.110441e+01    7.920432e-01
  3.113616e+01    7.807612e-01
  3.116791e+01    7.589459e-01
  3.119966e+01    7.718337e-01
  3.123141e+01    7.587430e-01
  3.126316e+01    7.722404e-01
  3.129491e+01    8.120012e-01
  3.132666e+01    7.625883e-01
  3.135841e+01    7.870256e-01
  3.139017e+01    7.895507e-01
  3.142192e+01    8.184189e-01
  3.145367e+01    8.027685e-01
  3.148542e+01    8.148726e-01
  3.151717e+01    8.014000e-01
  3.154892e+01    8.468965e-01
  3.158067e+01    8.455549e-01
  3.161242e+01    8.845240e-01
  3.164418e+01    9.118577e-01
  3.167593e+01    9.546829e-01
  3.170768e+01    1.045392e+00
  3.173943e+01    1.114061e+00
  3.177118e+01    1.244006e+00
  3.180293e+01    1.455395e+00
  3.183468e+01    1.721258e+00
  3.186643e+01    1.941560e+00
  3.189818e+01    2.058219e+00
  3.192994e+01    1.983435e+00
  3.196169e+01    1.793839e+00
  3.199344e+01    1.497668e+00
  3.202519e+01    1.303447e+00
  3.205694e+01    1.149364e+00
  3.208869e+01    1.006928e+00
  3.212044e+01    9.702622e-01
  3.215219e+01    9.072359e-01
  3.218394e+01    8.689517e-01
  3.221570e+01    8.274894e-01
  3.224745e+01    8.372268e-01
  3.227920e+01    8.480822e-01
  3.231095e+01    7.972527e-01
  3.234270e+01    8.030520e-01
  3.237445e+01    7.970878e-01
  3.240620e+01    7.802792e-01
  3.243795e+01    7.714956e-01
  3.246970e+01    7.634571e-01
  3.250146e+01    7.584161e-01
  3.253321e+01    7.714412e-01
  3.254908e+01    7.663153e-01