File: XRD/Reaction conditions/2024-07-27_003_Ru-CGO-ex_Reaction_dwell_000023_data_000015.dat
# == pyFAI calibration ==
# Distance Sample to Detector: 0.4 m
# PONI: 9.750e-02, 1.135e-01 m
# Rotations: -0.000175 0.000000 -0.000000 rad
#
# == Fit2d calibration ==
# Distance Sample-beamCenter: 400.000 mm
# Center: x=1514.000, y=1300.000 pix
# Tilt: 0.010 deg  TiltPlanRot: 0.010 deg
#
# Detector Detector	 Spline= None	 PixelSize= 7.500e-05, 7.500e-05 m
#    Detector has a mask: False
#    Detector has a dark current: False
#    detector has a flat field: False
#
# Wavelength: 6.888e-11 m
# Mask applied: user provided
# Dark current applied: False
# Flat field applied: False
# Polarization factor: 0.99
# Normalization factor: 1.0
# --> /home/myspot/data/2024_07_Rosario/Ru-CGO-ex/2024-07-27_003_Ru-CGO-ex_Reaction_dwell_000023_data_000015.dat
#       q_nm^-1             I
  2.003187e-02    0.000000e+00
  5.178302e-02    1.691651e-01
  8.353417e-02    1.104630e-01
  1.152853e-01    1.678189e-01
  1.470365e-01    4.858638e-02
  1.787876e-01    2.108140e-02
  2.105388e-01    2.176828e-02
  2.422899e-01    7.644662e-02
  2.740411e-01    3.968022e-02
  3.057922e-01    2.828023e-02
  3.375433e-01    4.277406e-02
  3.692945e-01    6.315348e-02
  4.010456e-01    3.646447e-02
  4.327968e-01    4.737279e-02
  4.645479e-01    3.215823e-02
  4.962991e-01    2.498433e-02
  5.280502e-01    5.250151e-02
  5.598014e-01    3.125462e-02
  5.915525e-01    5.257585e-02
  6.233037e-01    5.364617e-02
  6.550548e-01    4.329831e-02
  6.868060e-01    4.223684e-02
  7.185571e-01    4.947738e-02
  7.503083e-01    5.409823e-02
  7.820594e-01    1.500467e-01
  8.138106e-01    2.446419e-01
  8.455617e-01    3.328011e-01
  8.773129e-01    4.637999e-01
  9.090640e-01    6.351123e-01
  9.408152e-01    7.789845e-01
  9.725663e-01    9.835458e-01
  1.004317e+00    1.130524e+00
  1.036069e+00    1.465996e+00
  1.067820e+00    1.399320e+00
  1.099571e+00    1.471898e+00
  1.131322e+00    1.645684e+00
  1.163073e+00    1.539213e+00
  1.194824e+00    1.828087e+00
  1.226575e+00    2.245713e+00
  1.258327e+00    2.444839e+00
  1.290078e+00    2.731356e+00
  1.321829e+00    2.626340e+00
  1.353580e+00    2.808047e+00
  1.385331e+00    2.922200e+00
  1.417082e+00    2.842564e+00
  1.448834e+00    2.867211e+00
  1.480585e+00    3.068874e+00
  1.512336e+00    3.088498e+00
  1.544087e+00    3.241629e+00
  1.575838e+00    3.142815e+00
  1.607589e+00    3.108000e+00
  1.639340e+00    3.006843e+00
  1.671092e+00    3.136464e+00
  1.702843e+00    3.048426e+00
  1.734594e+00    3.210831e+00
  1.766345e+00    3.135747e+00
  1.798096e+00    3.130642e+00
  1.829847e+00    2.997751e+00
  1.861598e+00    3.276475e+00
  1.893350e+00    3.118214e+00
  1.925101e+00    3.120796e+00
  1.956852e+00    3.103603e+00
  1.988603e+00    3.080815e+00
  2.020354e+00    3.103871e+00
  2.052105e+00    3.054409e+00
  2.083856e+00    3.119714e+00
  2.115608e+00    3.056626e+00
  2.147359e+00    3.207518e+00
  2.179110e+00    3.121132e+00
  2.210861e+00    3.044563e+00
  2.242612e+00    3.217789e+00
  2.274363e+00    3.150661e+00
  2.306115e+00    3.239461e+00
  2.337866e+00    3.065315e+00
  2.369617e+00    3.136497e+00
  2.401368e+00    3.156608e+00
  2.433119e+00    3.292720e+00
  2.464870e+00    3.068653e+00
  2.496621e+00    3.171479e+00
  2.528373e+00    3.156223e+00
  2.560124e+00    3.221037e+00
  2.591875e+00    3.319147e+00
  2.623626e+00    3.189195e+00
  2.655377e+00    3.322791e+00
  2.687128e+00    3.251456e+00
  2.718879e+00    3.329182e+00
  2.750631e+00    3.239592e+00
  2.782382e+00    3.233754e+00
  2.814133e+00    3.218562e+00
  2.845884e+00    3.455627e+00
  2.877635e+00    3.375179e+00
  2.909386e+00    3.355412e+00
  2.941137e+00    3.372697e+00
  2.972889e+00    3.280366e+00
  3.004640e+00    3.323417e+00
  3.036391e+00    3.260056e+00
  3.068142e+00    3.321553e+00
  3.099893e+00    3.378936e+00
  3.131644e+00    3.408638e+00
  3.163395e+00    3.360917e+00
  3.195147e+00    3.327673e+00
  3.226898e+00    3.434859e+00
  3.258649e+00    3.519002e+00
  3.290400e+00    3.304493e+00
  3.322151e+00    3.321025e+00
  3.353902e+00    3.427331e+00
  3.385654e+00    3.389956e+00
  3.417405e+00    3.387733e+00
  3.449156e+00    3.281147e+00
  3.480907e+00    3.429238e+00
  3.512658e+00    3.501902e+00
  3.544409e+00    3.408760e+00
  3.576160e+00    3.554606e+00
  3.607912e+00    3.421790e+00
  3.639663e+00    3.456922e+00
  3.671414e+00    3.444240e+00
  3.703165e+00    3.471979e+00
  3.734916e+00    3.567246e+00
  3.766667e+00    3.517809e+00
  3.798418e+00    3.452630e+00
  3.830170e+00    3.484335e+00
  3.861921e+00    3.647921e+00
  3.893672e+00    3.549045e+00
  3.925423e+00    3.498615e+00
  3.957174e+00    3.483435e+00
  3.988925e+00    3.573734e+00
  4.020676e+00    3.494758e+00
  4.052428e+00    3.489244e+00
  4.084179e+00    3.584840e+00
  4.115930e+00    3.587420e+00
  4.147681e+00    3.516217e+00
  4.179432e+00    3.522810e+00
  4.211183e+00    3.594651e+00
  4.242935e+00    3.616785e+00
  4.274686e+00    3.537058e+00
  4.306437e+00    3.490023e+00
  4.338188e+00    3.575645e+00
  4.369939e+00    3.573127e+00
  4.401690e+00    3.670525e+00
  4.433441e+00    3.710740e+00
  4.465193e+00    3.515800e+00
  4.496944e+00    3.632952e+00
  4.528695e+00    3.645472e+00
  4.560446e+00    3.654669e+00
  4.592197e+00    3.664881e+00
  4.623948e+00    3.597098e+00
  4.655699e+00    3.571335e+00
  4.687451e+00    3.529726e+00
  4.719202e+00    3.601008e+00
  4.750953e+00    3.509624e+00
  4.782704e+00    3.684189e+00
  4.814455e+00    3.628973e+00
  4.846206e+00    3.775304e+00
  4.877957e+00    3.612970e+00
  4.909709e+00    3.691449e+00
  4.941460e+00    3.635304e+00
  4.973211e+00    3.679698e+00
  5.004962e+00    3.729581e+00
  5.036713e+00    3.644036e+00
  5.068464e+00    3.646442e+00
  5.100216e+00    3.670249e+00
  5.131967e+00    3.755666e+00
  5.163718e+00    3.556897e+00
  5.195469e+00    3.684121e+00
  5.227220e+00    3.713046e+00
  5.258971e+00    3.606373e+00
  5.290722e+00    3.682346e+00
  5.322474e+00    3.681119e+00
  5.354225e+00    3.710363e+00
  5.385976e+00    3.717517e+00
  5.417727e+00    3.632752e+00
  5.449478e+00    3.627010e+00
  5.481229e+00    3.552613e+00
  5.512980e+00    3.581804e+00
  5.544732e+00    3.599825e+00
  5.576483e+00    3.582630e+00
  5.608234e+00    3.679358e+00
  5.639985e+00    3.541492e+00
  5.671736e+00    3.669244e+00
  5.703487e+00    3.667448e+00
  5.735238e+00    3.657696e+00
  5.766990e+00    3.617578e+00
  5.798741e+00    3.528039e+00
  5.830492e+00    3.532198e+00
  5.862243e+00    3.618896e+00
  5.893994e+00    3.525908e+00
  5.925745e+00    3.527745e+00
  5.957497e+00    3.497746e+00
  5.989248e+00    3.548383e+00
  6.020999e+00    3.541152e+00
  6.052750e+00    3.591169e+00
  6.084501e+00    3.658794e+00
  6.116252e+00    3.604357e+00
  6.148003e+00    3.542305e+00
  6.179755e+00    3.611495e+00
  6.211506e+00    3.637013e+00
  6.243257e+00    3.609344e+00
  6.275008e+00    3.565876e+00
  6.306759e+00    3.525943e+00
  6.338510e+00    3.610983e+00
  6.370261e+00    3.595200e+00
  6.402013e+00    3.555240e+00
  6.433764e+00    3.647378e+00
  6.465515e+00    3.506298e+00
  6.497266e+00    3.589497e+00
  6.529017e+00    3.592362e+00
  6.560768e+00    3.516300e+00
  6.592519e+00    3.543479e+00
  6.624271e+00    3.591615e+00
  6.656022e+00    3.552741e+00
  6.687773e+00    3.562784e+00
  6.719524e+00    3.506053e+00
  6.751275e+00    3.575803e+00
  6.783026e+00    3.499116e+00
  6.814777e+00    3.544724e+00
  6.846529e+00    3.522052e+00
  6.878280e+00    3.546188e+00
  6.910031e+00    3.480505e+00
  6.941782e+00    3.546066e+00
  6.973533e+00    3.595594e+00
  7.005284e+00    3.526788e+00
  7.037036e+00    3.463098e+00
  7.068787e+00    3.526476e+00
  7.100538e+00    3.579258e+00
  7.132289e+00    3.489321e+00
  7.164040e+00    3.463589e+00
  7.195791e+00    3.609587e+00
  7.227542e+00    3.452617e+00
  7.259294e+00    3.561250e+00
  7.291045e+00    3.565779e+00
  7.322796e+00    3.570835e+00
  7.354547e+00    3.472262e+00
  7.386298e+00    3.499315e+00
  7.418049e+00    3.482746e+00
  7.449800e+00    3.532486e+00
  7.481552e+00    3.533447e+00
  7.513303e+00    3.529778e+00
  7.545054e+00    3.547606e+00
  7.576805e+00    3.485304e+00
  7.608556e+00    3.457057e+00
  7.640307e+00    3.483647e+00
  7.672058e+00    3.490302e+00
  7.703810e+00    3.486549e+00
  7.735561e+00    3.483551e+00
  7.767312e+00    3.471508e+00
  7.799063e+00    3.465824e+00
  7.830814e+00    3.514862e+00
  7.862565e+00    3.451144e+00
  7.894317e+00    3.388448e+00
  7.926068e+00    3.380958e+00
  7.957819e+00    3.474762e+00
  7.989570e+00    3.370717e+00
  8.021321e+00    3.406185e+00
  8.053072e+00    3.424136e+00
  8.084823e+00    3.377583e+00
  8.116575e+00    3.482309e+00
  8.148326e+00    3.490715e+00
  8.180077e+00    3.453807e+00
  8.211828e+00    3.545486e+00
  8.243579e+00    3.536837e+00
  8.275330e+00    3.450863e+00
  8.307081e+00    3.492112e+00
  8.338833e+00    3.434892e+00
  8.370584e+00    3.454153e+00
  8.402335e+00    3.487761e+00
  8.434086e+00    3.428456e+00
  8.465837e+00    3.469167e+00
  8.497588e+00    3.291652e+00
  8.529339e+00    3.394644e+00
  8.561091e+00    3.311327e+00
  8.592842e+00    3.302316e+00
  8.624593e+00    3.344065e+00
  8.656344e+00    3.362554e+00
  8.688095e+00    3.309306e+00
  8.719846e+00    3.281553e+00
  8.751598e+00    3.348136e+00
  8.783349e+00    3.436539e+00
  8.815100e+00    3.329798e+00
  8.846851e+00    3.405851e+00
  8.878602e+00    3.305930e+00
  8.910353e+00    3.331821e+00
  8.942104e+00    3.244424e+00
  8.973856e+00    3.289435e+00
  9.005607e+00    3.303968e+00
  9.037358e+00    3.321956e+00
  9.069109e+00    3.267387e+00
  9.100860e+00    3.322516e+00
  9.132611e+00    3.204522e+00
  9.164362e+00    3.189107e+00
  9.196114e+00    3.187499e+00
  9.227865e+00    3.282126e+00
  9.259616e+00    3.243617e+00
  9.291367e+00    3.312876e+00
  9.323118e+00    3.295813e+00
  9.354869e+00    3.198282e+00
  9.386620e+00    3.262644e+00
  9.418372e+00    3.257776e+00
  9.450123e+00    3.186458e+00
  9.481874e+00    3.225219e+00
  9.513625e+00    3.197404e+00
  9.545376e+00    3.207791e+00
  9.577127e+00    3.215425e+00
  9.608878e+00    3.238916e+00
  9.640630e+00    3.178282e+00
  9.672381e+00    3.158370e+00
  9.704132e+00    3.173708e+00
  9.735883e+00    3.130424e+00
  9.767634e+00    3.167420e+00
  9.799385e+00    3.185578e+00
  9.831137e+00    3.138464e+00
  9.862888e+00    3.130281e+00
  9.894639e+00    3.151442e+00
  9.926390e+00    3.151888e+00
  9.958141e+00    3.115760e+00
  9.989892e+00    3.097867e+00
  1.002164e+01    3.113706e+00
  1.005339e+01    3.130779e+00
  1.008515e+01    3.103863e+00
  1.011690e+01    3.036691e+00
  1.014865e+01    3.075373e+00
  1.018040e+01    3.091972e+00
  1.021215e+01    3.075808e+00
  1.024390e+01    3.050442e+00
  1.027565e+01    3.101999e+00
  1.030740e+01    3.073074e+00
  1.033915e+01    3.097945e+00
  1.037091e+01    3.079262e+00
  1.040266e+01    3.071921e+00
  1.043441e+01    3.045702e+00
  1.046616e+01    3.016653e+00
  1.049791e+01    3.076238e+00
  1.052966e+01    3.064301e+00
  1.056141e+01    3.031939e+00
  1.059316e+01    3.018151e+00
  1.062492e+01    2.957201e+00
  1.065667e+01    2.982847e+00
  1.068842e+01    2.969433e+00
  1.072017e+01    2.943833e+00
  1.075192e+01    2.954644e+00
  1.078367e+01    2.960789e+00
  1.081542e+01    2.933753e+00
  1.084717e+01    2.972458e+00
  1.087892e+01    2.957606e+00
  1.091068e+01    2.856452e+00
  1.094243e+01    2.914674e+00
  1.097418e+01    2.915924e+00
  1.100593e+01    2.936404e+00
  1.103768e+01    2.938003e+00
  1.106943e+01    2.837405e+00
  1.110118e+01    2.850981e+00
  1.113293e+01    2.860902e+00
  1.116468e+01    2.891670e+00
  1.119644e+01    2.816297e+00
  1.122819e+01    2.864847e+00
  1.125994e+01    2.868574e+00
  1.129169e+01    2.793908e+00
  1.132344e+01    2.814579e+00
  1.135519e+01    2.833344e+00
  1.138694e+01    2.846918e+00
  1.141869e+01    2.854451e+00
  1.145045e+01    2.780413e+00
  1.148220e+01    2.802242e+00
  1.151395e+01    2.771972e+00
  1.154570e+01    2.813861e+00
  1.157745e+01    2.779838e+00
  1.160920e+01    2.737685e+00
  1.164095e+01    2.769820e+00
  1.167270e+01    2.851451e+00
  1.170445e+01    2.777430e+00
  1.173621e+01    2.794099e+00
  1.176796e+01    2.777275e+00
  1.179971e+01    2.724401e+00
  1.183146e+01    2.764487e+00
  1.186321e+01    2.708833e+00
  1.189496e+01    2.700499e+00
  1.192671e+01    2.749380e+00
  1.195846e+01    2.702256e+00
  1.199021e+01    2.766623e+00
  1.202197e+01    2.735321e+00
  1.205372e+01    2.751801e+00
  1.208547e+01    2.761269e+00
  1.211722e+01    2.728913e+00
  1.214897e+01    2.735158e+00
  1.218072e+01    2.691294e+00
  1.221247e+01    2.690477e+00
  1.224422e+01    2.652073e+00
  1.227597e+01    2.650777e+00
  1.230773e+01    2.661716e+00
  1.233948e+01    2.708660e+00
  1.237123e+01    2.712754e+00
  1.240298e+01    2.735809e+00
  1.243473e+01    2.698709e+00
  1.246648e+01    2.707809e+00
  1.249823e+01    2.689657e+00
  1.252998e+01    2.710865e+00
  1.256174e+01    2.724308e+00
  1.259349e+01    2.764870e+00
  1.262524e+01    2.779203e+00
  1.265699e+01    2.743227e+00
  1.268874e+01    2.849851e+00
  1.272049e+01    2.902039e+00
  1.275224e+01    2.927216e+00
  1.278399e+01    2.949505e+00
  1.281574e+01    3.045025e+00
  1.284750e+01    3.179602e+00
  1.287925e+01    3.299210e+00
  1.291100e+01    3.703282e+00
  1.294275e+01    4.106782e+00
  1.297450e+01    4.829197e+00
  1.300625e+01    5.947158e+00
  1.303800e+01    7.775595e+00
  1.306975e+01    1.019416e+01
  1.310150e+01    1.272334e+01
  1.313326e+01    1.491584e+01
  1.316501e+01    1.633649e+01
  1.319676e+01    1.571338e+01
  1.322851e+01    1.240853e+01
  1.326026e+01    9.088107e+00
  1.329201e+01    6.743479e+00
  1.332376e+01    5.344064e+00
  1.335551e+01    4.455460e+00
  1.338727e+01    3.784045e+00
  1.341902e+01    3.460680e+00
  1.345077e+01    3.230917e+00
  1.348252e+01    3.129712e+00
  1.351427e+01    2.865258e+00
  1.354602e+01    2.852793e+00
  1.357777e+01    2.769439e+00
  1.360952e+01    2.674400e+00
  1.364127e+01    2.618904e+00
  1.367303e+01    2.589882e+00
  1.370478e+01    2.555315e+00
  1.373653e+01    2.546217e+00
  1.376828e+01    2.467607e+00
  1.380003e+01    2.497266e+00
  1.383178e+01    2.488446e+00
  1.386353e+01    2.413880e+00
  1.389528e+01    2.440686e+00
  1.392703e+01    2.416541e+00
  1.395879e+01    2.437580e+00
  1.399054e+01    2.361449e+00
  1.402229e+01    2.317297e+00
  1.405404e+01    2.369933e+00
  1.408579e+01    2.367236e+00
  1.411754e+01    2.289794e+00
  1.414929e+01    2.301864e+00
  1.418104e+01    2.329935e+00
  1.421279e+01    2.308069e+00
  1.424455e+01    2.299159e+00
  1.427630e+01    2.308316e+00
  1.430805e+01    2.258769e+00
  1.433980e+01    2.237216e+00
  1.437155e+01    2.219013e+00
  1.440330e+01    2.262160e+00
  1.443505e+01    2.253198e+00
  1.446680e+01    2.250705e+00
  1.449856e+01    2.239262e+00
  1.453031e+01    2.199532e+00
  1.456206e+01    2.177106e+00
  1.459381e+01    2.205133e+00
  1.462556e+01    2.210088e+00
  1.465731e+01    2.217529e+00
  1.468906e+01    2.233972e+00
  1.472081e+01    2.144726e+00
  1.475256e+01    2.235108e+00
  1.478432e+01    2.244807e+00
  1.481607e+01    2.239097e+00
  1.484782e+01    2.185346e+00
  1.487957e+01    2.237436e+00
  1.491132e+01    2.191169e+00
  1.494307e+01    2.273174e+00
  1.497482e+01    2.372865e+00
  1.500657e+01    2.464944e+00
  1.503832e+01    2.642652e+00
  1.507008e+01    2.843876e+00
  1.510183e+01    3.227326e+00
  1.513358e+01    3.798442e+00
  1.516533e+01    4.506444e+00
  1.519708e+01    5.225492e+00
  1.522883e+01    5.646001e+00
  1.526058e+01    5.740029e+00
  1.529233e+01    5.413967e+00
  1.532409e+01    4.610920e+00
  1.535584e+01    3.746805e+00
  1.538759e+01    3.124396e+00
  1.541934e+01    2.801605e+00
  1.545109e+01    2.495556e+00
  1.548284e+01    2.366354e+00
  1.551459e+01    2.268253e+00
  1.554634e+01    2.150103e+00
  1.557809e+01    2.136653e+00
  1.560985e+01    2.108062e+00
  1.564160e+01    2.043447e+00
  1.567335e+01    1.983017e+00
  1.570510e+01    2.014793e+00
  1.573685e+01    1.971690e+00
  1.576860e+01    1.966469e+00
  1.580035e+01    1.936775e+00
  1.583210e+01    1.961025e+00
  1.586385e+01    1.923076e+00
  1.589561e+01    1.905712e+00
  1.592736e+01    1.925266e+00
  1.595911e+01    1.897613e+00
  1.599086e+01    1.929791e+00
  1.602261e+01    1.871398e+00
  1.605436e+01    1.843737e+00
  1.608611e+01    1.835438e+00
  1.611786e+01    1.821374e+00
  1.614961e+01    1.845302e+00
  1.618137e+01    1.829316e+00
  1.621312e+01    1.851091e+00
  1.624487e+01    1.824153e+00
  1.627662e+01    1.799741e+00
  1.630837e+01    1.795086e+00
  1.634012e+01    1.791612e+00
  1.637187e+01    1.816226e+00
  1.640362e+01    1.792110e+00
  1.643538e+01    1.771589e+00
  1.646713e+01    1.769083e+00
  1.649888e+01    1.750907e+00
  1.653063e+01    1.739820e+00
  1.656238e+01    1.751520e+00
  1.659413e+01    1.736041e+00
  1.662588e+01    1.757954e+00
  1.665763e+01    1.730378e+00
  1.668938e+01    1.713580e+00
  1.672114e+01    1.732544e+00
  1.675289e+01    1.693038e+00
  1.678464e+01    1.714718e+00
  1.681639e+01    1.749222e+00
  1.684814e+01    1.690251e+00
  1.687989e+01    1.700556e+00
  1.691164e+01    1.693966e+00
  1.694339e+01    1.683381e+00
  1.697514e+01    1.626919e+00
  1.700690e+01    1.672821e+00
  1.703865e+01    1.655201e+00
  1.707040e+01    1.670177e+00
  1.710215e+01    1.646410e+00
  1.713390e+01    1.659773e+00
  1.716565e+01    1.643996e+00
  1.719740e+01    1.624476e+00
  1.722915e+01    1.618224e+00
  1.726091e+01    1.599134e+00
  1.729266e+01    1.641904e+00
  1.732441e+01    1.640791e+00
  1.735616e+01    1.626730e+00
  1.738791e+01    1.662669e+00
  1.741966e+01    1.594853e+00
  1.745141e+01    1.600814e+00
  1.748316e+01    1.561466e+00
  1.751491e+01    1.600325e+00
  1.754667e+01    1.578854e+00
  1.757842e+01    1.581809e+00
  1.761017e+01    1.581720e+00
  1.764192e+01    1.576981e+00
  1.767367e+01    1.592324e+00
  1.770542e+01    1.571762e+00
  1.773717e+01    1.537162e+00
  1.776892e+01    1.523823e+00
  1.780067e+01    1.542563e+00
  1.783243e+01    1.528321e+00
  1.786418e+01    1.517144e+00
  1.789593e+01    1.526546e+00
  1.792768e+01    1.520724e+00
  1.795943e+01    1.508380e+00
  1.799118e+01    1.495165e+00
  1.802293e+01    1.528424e+00
  1.805468e+01    1.476463e+00
  1.808643e+01    1.488292e+00
  1.811819e+01    1.494720e+00
  1.814994e+01    1.486162e+00
  1.818169e+01    1.487228e+00
  1.821344e+01    1.464865e+00
  1.824519e+01    1.478638e+00
  1.827694e+01    1.487464e+00
  1.830869e+01    1.480760e+00
  1.834044e+01    1.464353e+00
  1.837220e+01    1.465040e+00
  1.840395e+01    1.448622e+00
  1.843570e+01    1.469296e+00
  1.846745e+01    1.427164e+00
  1.849920e+01    1.467737e+00
  1.853095e+01    1.460690e+00
  1.856270e+01    1.442545e+00
  1.859445e+01    1.436442e+00
  1.862620e+01    1.395593e+00
  1.865796e+01    1.432134e+00
  1.868971e+01    1.418456e+00
  1.872146e+01    1.419042e+00
  1.875321e+01    1.418188e+00
  1.878496e+01    1.404426e+00
  1.881671e+01    1.393403e+00
  1.884846e+01    1.384330e+00
  1.888021e+01    1.399323e+00
  1.891196e+01    1.377071e+00
  1.894372e+01    1.363013e+00
  1.897547e+01    1.396050e+00
  1.900722e+01    1.392146e+00
  1.903897e+01    1.380948e+00
  1.907072e+01    1.406333e+00
  1.910247e+01    1.388968e+00
  1.913422e+01    1.349758e+00
  1.916597e+01    1.367407e+00
  1.919773e+01    1.349328e+00
  1.922948e+01    1.380417e+00
  1.926123e+01    1.360926e+00
  1.929298e+01    1.373830e+00
  1.932473e+01    1.325430e+00
  1.935648e+01    1.369055e+00
  1.938823e+01    1.363648e+00
  1.941998e+01    1.342840e+00
  1.945173e+01    1.323349e+00
  1.948349e+01    1.319529e+00
  1.951524e+01    1.334201e+00
  1.954699e+01    1.365605e+00
  1.957874e+01    1.309942e+00
  1.961049e+01    1.344598e+00
  1.964224e+01    1.337520e+00
  1.967399e+01    1.330871e+00
  1.970574e+01    1.337996e+00
  1.973749e+01    1.317935e+00
  1.976925e+01    1.295254e+00
  1.980100e+01    1.311092e+00
  1.983275e+01    1.306826e+00
  1.986450e+01    1.306269e+00
  1.989625e+01    1.312572e+00
  1.992800e+01    1.272163e+00
  1.995975e+01    1.263101e+00
  1.999150e+01    1.265061e+00
  2.002325e+01    1.279067e+00
  2.005501e+01    1.279799e+00
  2.008676e+01    1.279650e+00
  2.011851e+01    1.270325e+00
  2.015026e+01    1.263399e+00
  2.018201e+01    1.258224e+00
  2.021376e+01    1.266498e+00
  2.024551e+01    1.258635e+00
  2.027726e+01    1.246824e+00
  2.030902e+01    1.266232e+00
  2.034077e+01    1.259107e+00
  2.037252e+01    1.250799e+00
  2.040427e+01    1.242860e+00
  2.043602e+01    1.229729e+00
  2.046777e+01    1.221818e+00
  2.049952e+01    1.232305e+00
  2.053127e+01    1.241397e+00
  2.056302e+01    1.252284e+00
  2.059478e+01    1.214222e+00
  2.062653e+01    1.224850e+00
  2.065828e+01    1.243360e+00
  2.069003e+01    1.233294e+00
  2.072178e+01    1.242846e+00
  2.075353e+01    1.215815e+00
  2.078528e+01    1.214122e+00
  2.081703e+01    1.223949e+00
  2.084878e+01    1.262274e+00
  2.088054e+01    1.230209e+00
  2.091229e+01    1.258871e+00
  2.094404e+01    1.214309e+00
  2.097579e+01    1.207317e+00
  2.100754e+01    1.212462e+00
  2.103929e+01    1.228601e+00
  2.107104e+01    1.230859e+00
  2.110279e+01    1.238460e+00
  2.113455e+01    1.241822e+00
  2.116630e+01    1.222428e+00
  2.119805e+01    1.238279e+00
  2.122980e+01    1.232846e+00
  2.126155e+01    1.260733e+00
  2.129330e+01    1.255084e+00
  2.132505e+01    1.269126e+00
  2.135680e+01    1.279281e+00
  2.138855e+01    1.309028e+00
  2.142031e+01    1.328454e+00
  2.145206e+01    1.364927e+00
  2.148381e+01    1.423915e+00
  2.151556e+01    1.451588e+00
  2.154731e+01    1.533222e+00
  2.157906e+01    1.637624e+00
  2.161081e+01    1.773852e+00
  2.164256e+01    1.996684e+00
  2.167431e+01    2.333757e+00
  2.170607e+01    2.807040e+00
  2.173782e+01    3.544771e+00
  2.176957e+01    4.605948e+00
  2.180132e+01    5.897473e+00
  2.183307e+01    7.169503e+00
  2.186482e+01    8.284098e+00
  2.189657e+01    8.975829e+00
  2.192832e+01    8.205209e+00
  2.196007e+01    6.527109e+00
  2.199183e+01    4.843506e+00
  2.202358e+01    3.616816e+00
  2.205533e+01    2.847817e+00
  2.208708e+01    2.353617e+00
  2.211883e+01    2.043482e+00
  2.215058e+01    1.805287e+00
  2.218233e+01    1.592957e+00
  2.221408e+01    1.477329e+00
  2.224584e+01    1.393847e+00
  2.227759e+01    1.344917e+00
  2.230934e+01    1.286706e+00
  2.234109e+01    1.267475e+00
  2.237284e+01    1.257943e+00
  2.240459e+01    1.202529e+00
  2.243634e+01    1.179070e+00
  2.246809e+01    1.191667e+00
  2.249984e+01    1.156562e+00
  2.253160e+01    1.128245e+00
  2.256335e+01    1.131210e+00
  2.259510e+01    1.108022e+00
  2.262685e+01    1.120412e+00
  2.265860e+01    1.110533e+00
  2.269035e+01    1.114697e+00
  2.272210e+01    1.088368e+00
  2.275385e+01    1.034299e+00
  2.278560e+01    1.070043e+00
  2.281736e+01    1.072874e+00
  2.284911e+01    1.049655e+00
  2.288086e+01    1.045032e+00
  2.291261e+01    1.057318e+00
  2.294436e+01    1.030798e+00
  2.297611e+01    1.014942e+00
  2.300786e+01    1.024724e+00
  2.303961e+01    1.002208e+00
  2.307137e+01    1.008729e+00
  2.310312e+01    1.024960e+00
  2.313487e+01    9.993871e-01
  2.316662e+01    9.936585e-01
  2.319837e+01    9.618408e-01
  2.323012e+01    9.800575e-01
  2.326187e+01    9.489587e-01
  2.329362e+01    9.943366e-01
  2.332537e+01    9.747628e-01
  2.335713e+01    9.744126e-01
  2.338888e+01    9.735377e-01
  2.342063e+01    9.656890e-01
  2.345238e+01    9.588454e-01
  2.348413e+01    9.475442e-01
  2.351588e+01    9.690686e-01
  2.354763e+01    9.647990e-01
  2.357938e+01    9.549201e-01
  2.361113e+01    9.485806e-01
  2.364289e+01    9.578246e-01
  2.367464e+01    9.643934e-01
  2.370639e+01    9.490497e-01
  2.373814e+01    9.305313e-01
  2.376989e+01    9.369277e-01
  2.380164e+01    9.307715e-01
  2.383339e+01    9.151056e-01
  2.386514e+01    9.040819e-01
  2.389689e+01    9.191486e-01
  2.392865e+01    9.254614e-01
  2.396040e+01    9.042975e-01
  2.399215e+01    9.102131e-01
  2.402390e+01    9.200545e-01
  2.405565e+01    9.108151e-01
  2.408740e+01    9.008979e-01
  2.411915e+01    8.959584e-01
  2.415090e+01    9.098843e-01
  2.418266e+01    8.909076e-01
  2.421441e+01    8.612390e-01
  2.424616e+01    8.943508e-01
  2.427791e+01    8.916577e-01
  2.430966e+01    8.932090e-01
  2.434141e+01    8.794922e-01
  2.437316e+01    9.114767e-01
  2.440491e+01    8.983374e-01
  2.443666e+01    8.951319e-01
  2.446842e+01    8.817564e-01
  2.450017e+01    9.064647e-01
  2.453192e+01    8.819047e-01
  2.456367e+01    8.807499e-01
  2.459542e+01    8.934480e-01
  2.462717e+01    8.984163e-01
  2.465892e+01    8.864146e-01
  2.469067e+01    9.126945e-01
  2.472242e+01    9.003098e-01
  2.475418e+01    8.779583e-01
  2.478593e+01    8.748991e-01
  2.481768e+01    8.902180e-01
  2.484943e+01    8.933784e-01
  2.488118e+01    8.889672e-01
  2.491293e+01    8.896865e-01
  2.494468e+01    8.948670e-01
  2.497643e+01    9.256354e-01
  2.500819e+01    8.831964e-01
  2.503994e+01    9.027011e-01
  2.507169e+01    9.187730e-01
  2.510344e+01    9.024922e-01
  2.513519e+01    8.927403e-01
  2.516694e+01    9.155855e-01
  2.519869e+01    9.209815e-01
  2.523044e+01    9.350947e-01
  2.526219e+01    9.417531e-01
  2.529395e+01    9.362503e-01
  2.532570e+01    9.754338e-01
  2.535745e+01    9.716987e-01
  2.538920e+01    9.787734e-01
  2.542095e+01    1.001456e+00
  2.545270e+01    1.023205e+00
  2.548445e+01    1.051602e+00
  2.551620e+01    1.065390e+00
  2.554795e+01    1.111902e+00
  2.557971e+01    1.149643e+00
  2.561146e+01    1.210853e+00
  2.564321e+01    1.300313e+00
  2.567496e+01    1.433996e+00
  2.570671e+01    1.618415e+00
  2.573846e+01    1.879267e+00
  2.577021e+01    2.239453e+00
  2.580196e+01    2.843824e+00
  2.583371e+01    3.633508e+00
  2.586547e+01    4.709515e+00
  2.589722e+01    5.870782e+00
  2.592897e+01    6.784858e+00
  2.596072e+01    7.076810e+00
  2.599247e+01    6.517018e+00
  2.602422e+01    5.262453e+00
  2.605597e+01    3.873285e+00
  2.608772e+01    2.978588e+00
  2.611948e+01    2.333740e+00
  2.615123e+01    1.960331e+00
  2.618298e+01    1.668489e+00
  2.621473e+01    1.479668e+00
  2.624648e+01    1.325398e+00
  2.627823e+01    1.249503e+00
  2.630998e+01    1.188576e+00
  2.634173e+01    1.115192e+00
  2.637348e+01    1.107804e+00
  2.640524e+01    1.045477e+00
  2.643699e+01    1.049323e+00
  2.646874e+01    1.023845e+00
  2.650049e+01    1.013602e+00
  2.653224e+01    9.969619e-01
  2.656399e+01    9.908313e-01
  2.659574e+01    9.670804e-01
  2.662749e+01    9.469297e-01
  2.665924e+01    9.823228e-01
  2.669100e+01    9.708381e-01
  2.672275e+01    9.648878e-01
  2.675450e+01    9.774950e-01
  2.678625e+01    9.608116e-01
  2.681800e+01    9.817345e-01
  2.684975e+01    9.671670e-01
  2.688150e+01    1.012905e+00
  2.691325e+01    1.004563e+00
  2.694501e+01    1.015202e+00
  2.697676e+01    1.044628e+00
  2.700851e+01    1.121308e+00
  2.704026e+01    1.185452e+00
  2.707201e+01    1.335901e+00
  2.710376e+01    1.487794e+00
  2.713551e+01    1.730239e+00
  2.716726e+01    1.958601e+00
  2.719901e+01    2.128436e+00
  2.723077e+01    2.144279e+00
  2.726252e+01    1.959013e+00
  2.729427e+01    1.680322e+00
  2.732602e+01    1.421434e+00
  2.735777e+01    1.260142e+00
  2.738952e+01    1.150786e+00
  2.742127e+01    1.111299e+00
  2.745302e+01    1.051377e+00
  2.748477e+01    1.006746e+00
  2.751653e+01    9.758046e-01
  2.754828e+01    9.670439e-01
  2.758003e+01    9.445604e-01
  2.761178e+01    9.205591e-01
  2.764353e+01    9.214967e-01
  2.767528e+01    8.976070e-01
  2.770703e+01    8.959397e-01
  2.773878e+01    8.764088e-01
  2.777054e+01    8.904620e-01
  2.780229e+01    8.594177e-01
  2.783404e+01    8.805475e-01
  2.786579e+01    8.753456e-01
  2.789754e+01    8.743532e-01
  2.792929e+01    8.796656e-01
  2.796104e+01    8.776013e-01
  2.799279e+01    8.752311e-01
  2.802454e+01    8.544221e-01
  2.805630e+01    8.498862e-01
  2.808805e+01    8.529498e-01
  2.811980e+01    8.554425e-01
  2.815155e+01    8.670939e-01
  2.818330e+01    8.650641e-01
  2.821505e+01    8.733463e-01
  2.824680e+01    8.484505e-01
  2.827855e+01    8.523406e-01
  2.831030e+01    8.548988e-01
  2.834206e+01    8.435694e-01
  2.837381e+01    8.533165e-01
  2.840556e+01    8.363813e-01
  2.843731e+01    8.405233e-01
  2.846906e+01    8.494542e-01
  2.850081e+01    8.389555e-01
  2.853256e+01    8.226394e-01
  2.856431e+01    8.476893e-01
  2.859606e+01    8.454143e-01
  2.862782e+01    8.393090e-01
  2.865957e+01    8.395201e-01
  2.869132e+01    8.109822e-01
  2.872307e+01    8.474411e-01
  2.875482e+01    8.492302e-01
  2.878657e+01    8.354453e-01
  2.881832e+01    8.203477e-01
  2.885007e+01    8.211927e-01
  2.888183e+01    8.353059e-01
  2.891358e+01    8.160622e-01
  2.894533e+01    8.459634e-01
  2.897708e+01    8.246355e-01
  2.900883e+01    8.353148e-01
  2.904058e+01    8.278608e-01
  2.907233e+01    8.179049e-01
  2.910408e+01    8.239070e-01
  2.913583e+01    8.011190e-01
  2.916759e+01    7.986179e-01
  2.919934e+01    8.199303e-01
  2.923109e+01    8.157401e-01
  2.926284e+01    8.163347e-01
  2.929459e+01    8.336227e-01
  2.932634e+01    8.090050e-01
  2.935809e+01    8.038994e-01
  2.938984e+01    7.941593e-01
  2.942159e+01    8.203288e-01
  2.945335e+01    8.090396e-01
  2.948510e+01    7.903311e-01
  2.951685e+01    7.986460e-01
  2.954860e+01    8.074211e-01
  2.958035e+01    8.198020e-01
  2.961210e+01    7.962365e-01
  2.964385e+01    8.104186e-01
  2.967560e+01    7.919375e-01
  2.970736e+01    7.863165e-01
  2.973911e+01    7.991983e-01
  2.977086e+01    8.144380e-01
  2.980261e+01    7.972216e-01
  2.983436e+01    7.882562e-01
  2.986611e+01    8.127046e-01
  2.989786e+01    8.063928e-01
  2.992961e+01    7.926593e-01
  2.996136e+01    8.145012e-01
  2.999312e+01    8.171602e-01
  3.002487e+01    8.050338e-01
  3.005662e+01    8.217999e-01
  3.008837e+01    8.142690e-01
  3.012012e+01    7.952027e-01
  3.015187e+01    7.797207e-01
  3.018362e+01    7.797095e-01
  3.021537e+01    7.985759e-01
  3.024712e+01    7.744857e-01
  3.027888e+01    7.793854e-01
  3.031063e+01    7.892070e-01
  3.034238e+01    7.781100e-01
  3.037413e+01    7.958976e-01
  3.040588e+01    7.642344e-01
  3.043763e+01    7.691286e-01
  3.046938e+01    7.789998e-01
  3.050113e+01    7.855143e-01
  3.053288e+01    7.890162e-01
  3.056464e+01    8.032063e-01
  3.059639e+01    7.801991e-01
  3.062814e+01    7.595846e-01
  3.065989e+01    7.890630e-01
  3.069164e+01    7.872211e-01
  3.072339e+01    7.808819e-01
  3.075514e+01    8.042267e-01
  3.078689e+01    7.638186e-01
  3.081865e+01    7.803212e-01
  3.085040e+01    7.705929e-01
  3.088215e+01    7.853478e-01
  3.091390e+01    7.780000e-01
  3.094565e+01    7.913063e-01
  3.097740e+01    7.664341e-01
  3.100915e+01    8.118973e-01
  3.104090e+01    7.675559e-01
  3.107265e+01    7.737887e-01
  3.110441e+01    7.708243e-01
  3.113616e+01    8.023041e-01
  3.116791e+01    8.067118e-01
  3.119966e+01    8.175578e-01
  3.123141e+01    7.698525e-01
  3.126316e+01    7.998117e-01
  3.129491e+01    7.932346e-01
  3.132666e+01    8.087667e-01
  3.135841e+01    8.018572e-01
  3.139017e+01    8.219249e-01
  3.142192e+01    8.220304e-01
  3.145367e+01    8.245041e-01
  3.148542e+01    8.300623e-01
  3.151717e+01    8.318284e-01
  3.154892e+01    8.522915e-01
  3.158067e+01    8.444149e-01
  3.161242e+01    8.684021e-01
  3.164418e+01    9.298020e-01
  3.167593e+01    9.615238e-01
  3.170768e+01    1.045006e+00
  3.173943e+01    1.106108e+00
  3.177118e+01    1.274500e+00
  3.180293e+01    1.464293e+00
  3.183468e+01    1.678407e+00
  3.186643e+01    1.976777e+00
  3.189818e+01    2.048311e+00
  3.192994e+01    2.039901e+00
  3.196169e+01    1.788116e+00
  3.199344e+01    1.570795e+00
  3.202519e+01    1.306029e+00
  3.205694e+01    1.146769e+00
  3.208869e+01    1.040574e+00
  3.212044e+01    9.789264e-01
  3.215219e+01    9.035745e-01
  3.218394e+01    8.680647e-01
  3.221570e+01    8.625579e-01
  3.224745e+01    8.270149e-01
  3.227920e+01    8.175218e-01
  3.231095e+01    8.082929e-01
  3.234270e+01    7.921009e-01
  3.237445e+01    7.864490e-01
  3.240620e+01    7.990919e-01
  3.243795e+01    8.046417e-01
  3.246970e+01    8.071263e-01
  3.250146e+01    7.816746e-01
  3.253321e+01    7.876819e-01
  3.254908e+01    7.766802e-01