File: XRD/Reaction conditions/2024-07-27_003_Ru-CGO-ex_Reaction_dwell_000023_data_000092.dat
# == pyFAI calibration ==
# Distance Sample to Detector: 0.4 m
# PONI: 9.750e-02, 1.135e-01 m
# Rotations: -0.000175 0.000000 -0.000000 rad
#
# == Fit2d calibration ==
# Distance Sample-beamCenter: 400.000 mm
# Center: x=1514.000, y=1300.000 pix
# Tilt: 0.010 deg  TiltPlanRot: 0.010 deg
#
# Detector Detector	 Spline= None	 PixelSize= 7.500e-05, 7.500e-05 m
#    Detector has a mask: False
#    Detector has a dark current: False
#    detector has a flat field: False
#
# Wavelength: 6.888e-11 m
# Mask applied: user provided
# Dark current applied: False
# Flat field applied: False
# Polarization factor: 0.99
# Normalization factor: 1.0
# --> /home/myspot/data/2024_07_Rosario/Ru-CGO-ex/2024-07-27_003_Ru-CGO-ex_Reaction_dwell_000023_data_000092.dat
#       q_nm^-1             I
  2.003187e-02    1.424646e-01
  5.178302e-02    4.717196e-02
  8.353417e-02    1.142546e-01
  1.152853e-01    3.267415e-02
  1.470365e-01    2.542182e-02
  1.787876e-01    7.229460e-02
  2.105388e-01    1.227941e-01
  2.422899e-01    4.412343e-02
  2.740411e-01    1.252661e-02
  3.057922e-01    3.599738e-02
  3.375433e-01    4.222831e-02
  3.692945e-01    2.610497e-02
  4.010456e-01    5.522910e-02
  4.327968e-01    4.931575e-02
  4.645479e-01    4.273254e-02
  4.962991e-01    2.032189e-02
  5.280502e-01    3.919718e-02
  5.598014e-01    2.965877e-02
  5.915525e-01    2.877824e-02
  6.233037e-01    1.894541e-02
  6.550548e-01    4.142692e-02
  6.868060e-01    3.766008e-02
  7.185571e-01    3.742230e-02
  7.503083e-01    7.353429e-02
  7.820594e-01    9.039945e-02
  8.138106e-01    2.382002e-01
  8.455617e-01    3.578873e-01
  8.773129e-01    4.540507e-01
  9.090640e-01    5.964566e-01
  9.408152e-01    7.554662e-01
  9.725663e-01    1.084371e+00
  1.004317e+00    1.208143e+00
  1.036069e+00    1.395865e+00
  1.067820e+00    1.509383e+00
  1.099571e+00    1.466653e+00
  1.131322e+00    1.589436e+00
  1.163073e+00    1.731874e+00
  1.194824e+00    1.842377e+00
  1.226575e+00    2.233610e+00
  1.258327e+00    2.456498e+00
  1.290078e+00    2.696868e+00
  1.321829e+00    2.638376e+00
  1.353580e+00    2.773879e+00
  1.385331e+00    2.925236e+00
  1.417082e+00    2.849886e+00
  1.448834e+00    3.071487e+00
  1.480585e+00    3.185395e+00
  1.512336e+00    3.080965e+00
  1.544087e+00    3.185421e+00
  1.575838e+00    2.927379e+00
  1.607589e+00    3.173555e+00
  1.639340e+00    3.210748e+00
  1.671092e+00    3.191964e+00
  1.702843e+00    3.077154e+00
  1.734594e+00    3.015178e+00
  1.766345e+00    3.016278e+00
  1.798096e+00    3.065287e+00
  1.829847e+00    2.950890e+00
  1.861598e+00    3.019669e+00
  1.893350e+00    3.021578e+00
  1.925101e+00    3.044882e+00
  1.956852e+00    3.070967e+00
  1.988603e+00    3.095253e+00
  2.020354e+00    3.090649e+00
  2.052105e+00    3.049948e+00
  2.083856e+00    3.088855e+00
  2.115608e+00    3.086724e+00
  2.147359e+00    3.069805e+00
  2.179110e+00    3.150716e+00
  2.210861e+00    3.141127e+00
  2.242612e+00    3.232794e+00
  2.274363e+00    3.084500e+00
  2.306115e+00    3.124286e+00
  2.337866e+00    3.174721e+00
  2.369617e+00    3.232454e+00
  2.401368e+00    3.142703e+00
  2.433119e+00    3.225057e+00
  2.464870e+00    3.106204e+00
  2.496621e+00    3.246146e+00
  2.528373e+00    3.146389e+00
  2.560124e+00    3.209379e+00
  2.591875e+00    3.234805e+00
  2.623626e+00    3.140672e+00
  2.655377e+00    3.216329e+00
  2.687128e+00    3.329479e+00
  2.718879e+00    3.223855e+00
  2.750631e+00    3.303221e+00
  2.782382e+00    3.253829e+00
  2.814133e+00    3.260562e+00
  2.845884e+00    3.282866e+00
  2.877635e+00    3.311854e+00
  2.909386e+00    3.254519e+00
  2.941137e+00    3.293023e+00
  2.972889e+00    3.393621e+00
  3.004640e+00    3.299839e+00
  3.036391e+00    3.295930e+00
  3.068142e+00    3.335899e+00
  3.099893e+00    3.367243e+00
  3.131644e+00    3.382450e+00
  3.163395e+00    3.402482e+00
  3.195147e+00    3.353673e+00
  3.226898e+00    3.381994e+00
  3.258649e+00    3.390002e+00
  3.290400e+00    3.488831e+00
  3.322151e+00    3.481957e+00
  3.353902e+00    3.441139e+00
  3.385654e+00    3.427899e+00
  3.417405e+00    3.531670e+00
  3.449156e+00    3.457018e+00
  3.480907e+00    3.502538e+00
  3.512658e+00    3.411809e+00
  3.544409e+00    3.418186e+00
  3.576160e+00    3.594983e+00
  3.607912e+00    3.402127e+00
  3.639663e+00    3.392721e+00
  3.671414e+00    3.471330e+00
  3.703165e+00    3.489728e+00
  3.734916e+00    3.526184e+00
  3.766667e+00    3.472690e+00
  3.798418e+00    3.515442e+00
  3.830170e+00    3.541259e+00
  3.861921e+00    3.550275e+00
  3.893672e+00    3.415567e+00
  3.925423e+00    3.531191e+00
  3.957174e+00    3.529708e+00
  3.988925e+00    3.484271e+00
  4.020676e+00    3.551610e+00
  4.052428e+00    3.510007e+00
  4.084179e+00    3.560476e+00
  4.115930e+00    3.524400e+00
  4.147681e+00    3.559872e+00
  4.179432e+00    3.482232e+00
  4.211183e+00    3.487997e+00
  4.242935e+00    3.486607e+00
  4.274686e+00    3.625216e+00
  4.306437e+00    3.581686e+00
  4.338188e+00    3.514591e+00
  4.369939e+00    3.633527e+00
  4.401690e+00    3.603987e+00
  4.433441e+00    3.661812e+00
  4.465193e+00    3.572522e+00
  4.496944e+00    3.544104e+00
  4.528695e+00    3.546634e+00
  4.560446e+00    3.648771e+00
  4.592197e+00    3.617659e+00
  4.623948e+00    3.617410e+00
  4.655699e+00    3.630920e+00
  4.687451e+00    3.686316e+00
  4.719202e+00    3.601259e+00
  4.750953e+00    3.597730e+00
  4.782704e+00    3.613941e+00
  4.814455e+00    3.642645e+00
  4.846206e+00    3.596246e+00
  4.877957e+00    3.596845e+00
  4.909709e+00    3.698604e+00
  4.941460e+00    3.664334e+00
  4.973211e+00    3.639830e+00
  5.004962e+00    3.681485e+00
  5.036713e+00    3.693907e+00
  5.068464e+00    3.645833e+00
  5.100216e+00    3.725736e+00
  5.131967e+00    3.640593e+00
  5.163718e+00    3.624363e+00
  5.195469e+00    3.658664e+00
  5.227220e+00    3.677055e+00
  5.258971e+00    3.619308e+00
  5.290722e+00    3.717556e+00
  5.322474e+00    3.715174e+00
  5.354225e+00    3.592817e+00
  5.385976e+00    3.725769e+00
  5.417727e+00    3.627057e+00
  5.449478e+00    3.565924e+00
  5.481229e+00    3.572436e+00
  5.512980e+00    3.585120e+00
  5.544732e+00    3.525881e+00
  5.576483e+00    3.552216e+00
  5.608234e+00    3.665836e+00
  5.639985e+00    3.597928e+00
  5.671736e+00    3.621464e+00
  5.703487e+00    3.600348e+00
  5.735238e+00    3.642281e+00
  5.766990e+00    3.604652e+00
  5.798741e+00    3.610392e+00
  5.830492e+00    3.589668e+00
  5.862243e+00    3.509544e+00
  5.893994e+00    3.489590e+00
  5.925745e+00    3.537850e+00
  5.957497e+00    3.537870e+00
  5.989248e+00    3.477936e+00
  6.020999e+00    3.447089e+00
  6.052750e+00    3.443825e+00
  6.084501e+00    3.528230e+00
  6.116252e+00    3.582199e+00
  6.148003e+00    3.577376e+00
  6.179755e+00    3.617302e+00
  6.211506e+00    3.605268e+00
  6.243257e+00    3.567711e+00
  6.275008e+00    3.646657e+00
  6.306759e+00    3.551374e+00
  6.338510e+00    3.569586e+00
  6.370261e+00    3.580931e+00
  6.402013e+00    3.551040e+00
  6.433764e+00    3.574526e+00
  6.465515e+00    3.527781e+00
  6.497266e+00    3.512837e+00
  6.529017e+00    3.526649e+00
  6.560768e+00    3.474666e+00
  6.592519e+00    3.538251e+00
  6.624271e+00    3.608360e+00
  6.656022e+00    3.523611e+00
  6.687773e+00    3.504460e+00
  6.719524e+00    3.639541e+00
  6.751275e+00    3.574231e+00
  6.783026e+00    3.602689e+00
  6.814777e+00    3.539672e+00
  6.846529e+00    3.570349e+00
  6.878280e+00    3.503660e+00
  6.910031e+00    3.558112e+00
  6.941782e+00    3.537034e+00
  6.973533e+00    3.598612e+00
  7.005284e+00    3.637832e+00
  7.037036e+00    3.485456e+00
  7.068787e+00    3.487494e+00
  7.100538e+00    3.566176e+00
  7.132289e+00    3.526627e+00
  7.164040e+00    3.560862e+00
  7.195791e+00    3.567234e+00
  7.227542e+00    3.517661e+00
  7.259294e+00    3.504949e+00
  7.291045e+00    3.557893e+00
  7.322796e+00    3.480836e+00
  7.354547e+00    3.478437e+00
  7.386298e+00    3.501872e+00
  7.418049e+00    3.399551e+00
  7.449800e+00    3.483512e+00
  7.481552e+00    3.499171e+00
  7.513303e+00    3.465916e+00
  7.545054e+00    3.479710e+00
  7.576805e+00    3.429079e+00
  7.608556e+00    3.474756e+00
  7.640307e+00    3.447393e+00
  7.672058e+00    3.456853e+00
  7.703810e+00    3.426902e+00
  7.735561e+00    3.434941e+00
  7.767312e+00    3.456041e+00
  7.799063e+00    3.418019e+00
  7.830814e+00    3.479074e+00
  7.862565e+00    3.405441e+00
  7.894317e+00    3.417929e+00
  7.926068e+00    3.404626e+00
  7.957819e+00    3.434617e+00
  7.989570e+00    3.372554e+00
  8.021321e+00    3.440085e+00
  8.053072e+00    3.461332e+00
  8.084823e+00    3.394178e+00
  8.116575e+00    3.419719e+00
  8.148326e+00    3.484396e+00
  8.180077e+00    3.451596e+00
  8.211828e+00    3.473593e+00
  8.243579e+00    3.492157e+00
  8.275330e+00    3.450563e+00
  8.307081e+00    3.442511e+00
  8.338833e+00    3.412785e+00
  8.370584e+00    3.331460e+00
  8.402335e+00    3.402294e+00
  8.434086e+00    3.382987e+00
  8.465837e+00    3.425549e+00
  8.497588e+00    3.375282e+00
  8.529339e+00    3.361247e+00
  8.561091e+00    3.338594e+00
  8.592842e+00    3.380717e+00
  8.624593e+00    3.316531e+00
  8.656344e+00    3.339958e+00
  8.688095e+00    3.336000e+00
  8.719846e+00    3.336217e+00
  8.751598e+00    3.335925e+00
  8.783349e+00    3.324664e+00
  8.815100e+00    3.361353e+00
  8.846851e+00    3.291955e+00
  8.878602e+00    3.250447e+00
  8.910353e+00    3.357297e+00
  8.942104e+00    3.277551e+00
  8.973856e+00    3.299567e+00
  9.005607e+00    3.349164e+00
  9.037358e+00    3.321053e+00
  9.069109e+00    3.258473e+00
  9.100860e+00    3.254368e+00
  9.132611e+00    3.271766e+00
  9.164362e+00    3.233077e+00
  9.196114e+00    3.275191e+00
  9.227865e+00    3.302771e+00
  9.259616e+00    3.245303e+00
  9.291367e+00    3.339823e+00
  9.323118e+00    3.237210e+00
  9.354869e+00    3.211077e+00
  9.386620e+00    3.169738e+00
  9.418372e+00    3.203154e+00
  9.450123e+00    3.236906e+00
  9.481874e+00    3.228089e+00
  9.513625e+00    3.231114e+00
  9.545376e+00    3.223674e+00
  9.577127e+00    3.209175e+00
  9.608878e+00    3.258592e+00
  9.640630e+00    3.210025e+00
  9.672381e+00    3.169634e+00
  9.704132e+00    3.198090e+00
  9.735883e+00    3.209195e+00
  9.767634e+00    3.166712e+00
  9.799385e+00    3.205235e+00
  9.831137e+00    3.240800e+00
  9.862888e+00    3.141293e+00
  9.894639e+00    3.153955e+00
  9.926390e+00    3.122239e+00
  9.958141e+00    3.162742e+00
  9.989892e+00    3.180345e+00
  1.002164e+01    3.084306e+00
  1.005339e+01    3.091179e+00
  1.008515e+01    3.064324e+00
  1.011690e+01    3.063922e+00
  1.014865e+01    3.055936e+00
  1.018040e+01    3.099921e+00
  1.021215e+01    3.057471e+00
  1.024390e+01    3.065978e+00
  1.027565e+01    3.091398e+00
  1.030740e+01    3.042532e+00
  1.033915e+01    3.113467e+00
  1.037091e+01    3.053426e+00
  1.040266e+01    3.071063e+00
  1.043441e+01    3.081644e+00
  1.046616e+01    2.983227e+00
  1.049791e+01    3.003059e+00
  1.052966e+01    3.025429e+00
  1.056141e+01    2.952408e+00
  1.059316e+01    2.998964e+00
  1.062492e+01    3.000039e+00
  1.065667e+01    3.008642e+00
  1.068842e+01    2.979084e+00
  1.072017e+01    3.037389e+00
  1.075192e+01    2.965747e+00
  1.078367e+01    3.017529e+00
  1.081542e+01    2.963252e+00
  1.084717e+01    2.933374e+00
  1.087892e+01    2.943244e+00
  1.091068e+01    2.940077e+00
  1.094243e+01    2.916039e+00
  1.097418e+01    2.897604e+00
  1.100593e+01    2.897542e+00
  1.103768e+01    2.875608e+00
  1.106943e+01    2.881676e+00
  1.110118e+01    2.865503e+00
  1.113293e+01    2.875211e+00
  1.116468e+01    2.899859e+00
  1.119644e+01    2.878386e+00
  1.122819e+01    2.869545e+00
  1.125994e+01    2.891632e+00
  1.129169e+01    2.821920e+00
  1.132344e+01    2.845900e+00
  1.135519e+01    2.863223e+00
  1.138694e+01    2.841829e+00
  1.141869e+01    2.846415e+00
  1.145045e+01    2.769212e+00
  1.148220e+01    2.799863e+00
  1.151395e+01    2.826653e+00
  1.154570e+01    2.776455e+00
  1.157745e+01    2.763295e+00
  1.160920e+01    2.770602e+00
  1.164095e+01    2.785781e+00
  1.167270e+01    2.755486e+00
  1.170445e+01    2.752565e+00
  1.173621e+01    2.744524e+00
  1.176796e+01    2.763430e+00
  1.179971e+01    2.791057e+00
  1.183146e+01    2.698667e+00
  1.186321e+01    2.675117e+00
  1.189496e+01    2.738602e+00
  1.192671e+01    2.729374e+00
  1.195846e+01    2.716000e+00
  1.199021e+01    2.734391e+00
  1.202197e+01    2.688996e+00
  1.205372e+01    2.702078e+00
  1.208547e+01    2.688889e+00
  1.211722e+01    2.703916e+00
  1.214897e+01    2.674989e+00
  1.218072e+01    2.760427e+00
  1.221247e+01    2.691340e+00
  1.224422e+01    2.692279e+00
  1.227597e+01    2.679373e+00
  1.230773e+01    2.646030e+00
  1.233948e+01    2.654922e+00
  1.237123e+01    2.723217e+00
  1.240298e+01    2.705105e+00
  1.243473e+01    2.736169e+00
  1.246648e+01    2.699767e+00
  1.249823e+01    2.742915e+00
  1.252998e+01    2.742171e+00
  1.256174e+01    2.670573e+00
  1.259349e+01    2.711576e+00
  1.262524e+01    2.774560e+00
  1.265699e+01    2.765129e+00
  1.268874e+01    2.795600e+00
  1.272049e+01    2.835578e+00
  1.275224e+01    2.936776e+00
  1.278399e+01    2.968507e+00
  1.281574e+01    3.082888e+00
  1.284750e+01    3.190377e+00
  1.287925e+01    3.367704e+00
  1.291100e+01    3.608395e+00
  1.294275e+01    4.043127e+00
  1.297450e+01    4.793422e+00
  1.300625e+01    5.842792e+00
  1.303800e+01    7.736407e+00
  1.306975e+01    1.008254e+01
  1.310150e+01    1.257212e+01
  1.313326e+01    1.484702e+01
  1.316501e+01    1.615209e+01
  1.319676e+01    1.565488e+01
  1.322851e+01    1.257330e+01
  1.326026e+01    9.033556e+00
  1.329201e+01    6.861648e+00
  1.332376e+01    5.353627e+00
  1.335551e+01    4.392206e+00
  1.338727e+01    3.876176e+00
  1.341902e+01    3.497048e+00
  1.345077e+01    3.276081e+00
  1.348252e+01    3.045489e+00
  1.351427e+01    2.946237e+00
  1.354602e+01    2.766871e+00
  1.357777e+01    2.740596e+00
  1.360952e+01    2.714305e+00
  1.364127e+01    2.600771e+00
  1.367303e+01    2.549268e+00
  1.370478e+01    2.520365e+00
  1.373653e+01    2.511073e+00
  1.376828e+01    2.504356e+00
  1.380003e+01    2.516806e+00
  1.383178e+01    2.447985e+00
  1.386353e+01    2.424513e+00
  1.389528e+01    2.404975e+00
  1.392703e+01    2.405502e+00
  1.395879e+01    2.369721e+00
  1.399054e+01    2.391172e+00
  1.402229e+01    2.376563e+00
  1.405404e+01    2.323978e+00
  1.408579e+01    2.363919e+00
  1.411754e+01    2.307956e+00
  1.414929e+01    2.348303e+00
  1.418104e+01    2.296783e+00
  1.421279e+01    2.235573e+00
  1.424455e+01    2.291091e+00
  1.427630e+01    2.304413e+00
  1.430805e+01    2.245671e+00
  1.433980e+01    2.275874e+00
  1.437155e+01    2.250568e+00
  1.440330e+01    2.279044e+00
  1.443505e+01    2.229288e+00
  1.446680e+01    2.255386e+00
  1.449856e+01    2.230410e+00
  1.453031e+01    2.221619e+00
  1.456206e+01    2.178441e+00
  1.459381e+01    2.194858e+00
  1.462556e+01    2.229126e+00
  1.465731e+01    2.285314e+00
  1.468906e+01    2.192667e+00
  1.472081e+01    2.236147e+00
  1.475256e+01    2.153765e+00
  1.478432e+01    2.226161e+00
  1.481607e+01    2.213678e+00
  1.484782e+01    2.198841e+00
  1.487957e+01    2.234483e+00
  1.491132e+01    2.241044e+00
  1.494307e+01    2.273710e+00
  1.497482e+01    2.337171e+00
  1.500657e+01    2.432265e+00
  1.503832e+01    2.581071e+00
  1.507008e+01    2.751533e+00
  1.510183e+01    3.193599e+00
  1.513358e+01    3.779704e+00
  1.516533e+01    4.578371e+00
  1.519708e+01    5.065227e+00
  1.522883e+01    5.617902e+00
  1.526058e+01    5.769496e+00
  1.529233e+01    5.508244e+00
  1.532409e+01    4.662123e+00
  1.535584e+01    3.821897e+00
  1.538759e+01    3.159432e+00
  1.541934e+01    2.780403e+00
  1.545109e+01    2.564592e+00
  1.548284e+01    2.354566e+00
  1.551459e+01    2.257375e+00
  1.554634e+01    2.210077e+00
  1.557809e+01    2.135827e+00
  1.560985e+01    2.084457e+00
  1.564160e+01    2.041147e+00
  1.567335e+01    2.040642e+00
  1.570510e+01    2.035191e+00
  1.573685e+01    1.984625e+00
  1.576860e+01    1.966054e+00
  1.580035e+01    1.962161e+00
  1.583210e+01    1.923288e+00
  1.586385e+01    1.900095e+00
  1.589561e+01    1.919205e+00
  1.592736e+01    1.937158e+00
  1.595911e+01    1.932418e+00
  1.599086e+01    1.915204e+00
  1.602261e+01    1.878794e+00
  1.605436e+01    1.874051e+00
  1.608611e+01    1.887690e+00
  1.611786e+01    1.846891e+00
  1.614961e+01    1.847082e+00
  1.618137e+01    1.782484e+00
  1.621312e+01    1.807709e+00
  1.624487e+01    1.840418e+00
  1.627662e+01    1.778114e+00
  1.630837e+01    1.826388e+00
  1.634012e+01    1.817069e+00
  1.637187e+01    1.780840e+00
  1.640362e+01    1.737359e+00
  1.643538e+01    1.763460e+00
  1.646713e+01    1.788297e+00
  1.649888e+01    1.772192e+00
  1.653063e+01    1.725504e+00
  1.656238e+01    1.734800e+00
  1.659413e+01    1.749668e+00
  1.662588e+01    1.748966e+00
  1.665763e+01    1.763208e+00
  1.668938e+01    1.741319e+00
  1.672114e+01    1.689401e+00
  1.675289e+01    1.747599e+00
  1.678464e+01    1.700305e+00
  1.681639e+01    1.673908e+00
  1.684814e+01    1.707292e+00
  1.687989e+01    1.707018e+00
  1.691164e+01    1.703867e+00
  1.694339e+01    1.671864e+00
  1.697514e+01    1.679042e+00
  1.700690e+01    1.657864e+00
  1.703865e+01    1.682200e+00
  1.707040e+01    1.649246e+00
  1.710215e+01    1.642220e+00
  1.713390e+01    1.653577e+00
  1.716565e+01    1.667624e+00
  1.719740e+01    1.610357e+00
  1.722915e+01    1.639867e+00
  1.726091e+01    1.651991e+00
  1.729266e+01    1.593860e+00
  1.732441e+01    1.619355e+00
  1.735616e+01    1.609044e+00
  1.738791e+01    1.578499e+00
  1.741966e+01    1.610857e+00
  1.745141e+01    1.574451e+00
  1.748316e+01    1.592504e+00
  1.751491e+01    1.593325e+00
  1.754667e+01    1.596443e+00
  1.757842e+01    1.603925e+00
  1.761017e+01    1.566866e+00
  1.764192e+01    1.535855e+00
  1.767367e+01    1.570804e+00
  1.770542e+01    1.554168e+00
  1.773717e+01    1.564897e+00
  1.776892e+01    1.555423e+00
  1.780067e+01    1.522328e+00
  1.783243e+01    1.544831e+00
  1.786418e+01    1.564288e+00
  1.789593e+01    1.519914e+00
  1.792768e+01    1.530626e+00
  1.795943e+01    1.524175e+00
  1.799118e+01    1.510253e+00
  1.802293e+01    1.491982e+00
  1.805468e+01    1.503641e+00
  1.808643e+01    1.505342e+00
  1.811819e+01    1.516439e+00
  1.814994e+01    1.486967e+00
  1.818169e+01    1.499469e+00
  1.821344e+01    1.478942e+00
  1.824519e+01    1.492842e+00
  1.827694e+01    1.500640e+00
  1.830869e+01    1.462796e+00
  1.834044e+01    1.453078e+00
  1.837220e+01    1.464750e+00
  1.840395e+01    1.452810e+00
  1.843570e+01    1.462757e+00
  1.846745e+01    1.473732e+00
  1.849920e+01    1.418965e+00
  1.853095e+01    1.456679e+00
  1.856270e+01    1.397232e+00
  1.859445e+01    1.434744e+00
  1.862620e+01    1.431814e+00
  1.865796e+01    1.413791e+00
  1.868971e+01    1.426901e+00
  1.872146e+01    1.434824e+00
  1.875321e+01    1.450973e+00
  1.878496e+01    1.417828e+00
  1.881671e+01    1.380734e+00
  1.884846e+01    1.390093e+00
  1.888021e+01    1.404800e+00
  1.891196e+01    1.385621e+00
  1.894372e+01    1.396737e+00
  1.897547e+01    1.407070e+00
  1.900722e+01    1.382220e+00
  1.903897e+01    1.391536e+00
  1.907072e+01    1.376711e+00
  1.910247e+01    1.383475e+00
  1.913422e+01    1.382249e+00
  1.916597e+01    1.380045e+00
  1.919773e+01    1.360681e+00
  1.922948e+01    1.364824e+00
  1.926123e+01    1.368481e+00
  1.929298e+01    1.360963e+00
  1.932473e+01    1.374449e+00
  1.935648e+01    1.351112e+00
  1.938823e+01    1.334015e+00
  1.941998e+01    1.340464e+00
  1.945173e+01    1.327484e+00
  1.948349e+01    1.320353e+00
  1.951524e+01    1.356476e+00
  1.954699e+01    1.345495e+00
  1.957874e+01    1.352509e+00
  1.961049e+01    1.303512e+00
  1.964224e+01    1.343822e+00
  1.967399e+01    1.314821e+00
  1.970574e+01    1.295527e+00
  1.973749e+01    1.304026e+00
  1.976925e+01    1.292465e+00
  1.980100e+01    1.285122e+00
  1.983275e+01    1.310171e+00
  1.986450e+01    1.270308e+00
  1.989625e+01    1.308467e+00
  1.992800e+01    1.273813e+00
  1.995975e+01    1.284497e+00
  1.999150e+01    1.289074e+00
  2.002325e+01    1.268019e+00
  2.005501e+01    1.279807e+00
  2.008676e+01    1.294746e+00
  2.011851e+01    1.254373e+00
  2.015026e+01    1.265287e+00
  2.018201e+01    1.288304e+00
  2.021376e+01    1.277764e+00
  2.024551e+01    1.272344e+00
  2.027726e+01    1.274240e+00
  2.030902e+01    1.277748e+00
  2.034077e+01    1.248304e+00
  2.037252e+01    1.264223e+00
  2.040427e+01    1.244940e+00
  2.043602e+01    1.260409e+00
  2.046777e+01    1.227344e+00
  2.049952e+01    1.225866e+00
  2.053127e+01    1.238003e+00
  2.056302e+01    1.230538e+00
  2.059478e+01    1.234459e+00
  2.062653e+01    1.227501e+00
  2.065828e+01    1.228805e+00
  2.069003e+01    1.230443e+00
  2.072178e+01    1.256913e+00
  2.075353e+01    1.246221e+00
  2.078528e+01    1.211177e+00
  2.081703e+01    1.210355e+00
  2.084878e+01    1.235645e+00
  2.088054e+01    1.216074e+00
  2.091229e+01    1.221350e+00
  2.094404e+01    1.229693e+00
  2.097579e+01    1.231284e+00
  2.100754e+01    1.206878e+00
  2.103929e+01    1.238077e+00
  2.107104e+01    1.239023e+00
  2.110279e+01    1.266483e+00
  2.113455e+01    1.224899e+00
  2.116630e+01    1.231182e+00
  2.119805e+01    1.225544e+00
  2.122980e+01    1.245489e+00
  2.126155e+01    1.246842e+00
  2.129330e+01    1.268166e+00
  2.132505e+01    1.269682e+00
  2.135680e+01    1.283535e+00
  2.138855e+01    1.292392e+00
  2.142031e+01    1.310792e+00
  2.145206e+01    1.336225e+00
  2.148381e+01    1.369442e+00
  2.151556e+01    1.411116e+00
  2.154731e+01    1.516807e+00
  2.157906e+01    1.609114e+00
  2.161081e+01    1.767938e+00
  2.164256e+01    1.963389e+00
  2.167431e+01    2.283684e+00
  2.170607e+01    2.755961e+00
  2.173782e+01    3.544738e+00
  2.176957e+01    4.536864e+00
  2.180132e+01    5.788517e+00
  2.183307e+01    7.133351e+00
  2.186482e+01    8.343893e+00
  2.189657e+01    8.999113e+00
  2.192832e+01    8.298657e+00
  2.196007e+01    6.600475e+00
  2.199183e+01    4.886035e+00
  2.202358e+01    3.634217e+00
  2.205533e+01    2.834898e+00
  2.208708e+01    2.355514e+00
  2.211883e+01    1.976766e+00
  2.215058e+01    1.780897e+00
  2.218233e+01    1.620642e+00
  2.221408e+01    1.485651e+00
  2.224584e+01    1.384451e+00
  2.227759e+01    1.365464e+00
  2.230934e+01    1.299683e+00
  2.234109e+01    1.234555e+00
  2.237284e+01    1.221674e+00
  2.240459e+01    1.179726e+00
  2.243634e+01    1.199176e+00
  2.246809e+01    1.178388e+00
  2.249984e+01    1.144171e+00
  2.253160e+01    1.121256e+00
  2.256335e+01    1.130842e+00
  2.259510e+01    1.126796e+00
  2.262685e+01    1.093844e+00
  2.265860e+01    1.070948e+00
  2.269035e+01    1.078672e+00
  2.272210e+01    1.091057e+00
  2.275385e+01    1.057397e+00
  2.278560e+01    1.048939e+00
  2.281736e+01    1.043975e+00
  2.284911e+01    1.044095e+00
  2.288086e+01    1.061696e+00
  2.291261e+01    1.053067e+00
  2.294436e+01    1.012676e+00
  2.297611e+01    1.058530e+00
  2.300786e+01    1.043881e+00
  2.303961e+01    1.035878e+00
  2.307137e+01    1.009421e+00
  2.310312e+01    9.852874e-01
  2.313487e+01    9.852702e-01
  2.316662e+01    9.919472e-01
  2.319837e+01    1.002990e+00
  2.323012e+01    1.010955e+00
  2.326187e+01    9.832907e-01
  2.329362e+01    9.916098e-01
  2.332537e+01    9.954062e-01
  2.335713e+01    9.768647e-01
  2.338888e+01    9.700661e-01
  2.342063e+01    9.595456e-01
  2.345238e+01    9.665803e-01
  2.348413e+01    9.589923e-01
  2.351588e+01    9.586241e-01
  2.354763e+01    9.705613e-01
  2.357938e+01    9.469787e-01
  2.361113e+01    9.506202e-01
  2.364289e+01    9.657962e-01
  2.367464e+01    9.330931e-01
  2.370639e+01    9.421759e-01
  2.373814e+01    9.475639e-01
  2.376989e+01    9.257042e-01
  2.380164e+01    9.351245e-01
  2.383339e+01    9.178849e-01
  2.386514e+01    9.226184e-01
  2.389689e+01    9.068179e-01
  2.392865e+01    9.191824e-01
  2.396040e+01    8.878012e-01
  2.399215e+01    8.960582e-01
  2.402390e+01    8.834167e-01
  2.405565e+01    8.982500e-01
  2.408740e+01    8.765031e-01
  2.411915e+01    8.902007e-01
  2.415090e+01    8.867630e-01
  2.418266e+01    8.878046e-01
  2.421441e+01    8.774404e-01
  2.424616e+01    8.901188e-01
  2.427791e+01    8.858761e-01
  2.430966e+01    8.961838e-01
  2.434141e+01    8.960397e-01
  2.437316e+01    9.060507e-01
  2.440491e+01    8.756444e-01
  2.443666e+01    9.065936e-01
  2.446842e+01    8.960620e-01
  2.450017e+01    8.838370e-01
  2.453192e+01    8.867206e-01
  2.456367e+01    9.034449e-01
  2.459542e+01    8.972599e-01
  2.462717e+01    8.961408e-01
  2.465892e+01    8.867810e-01
  2.469067e+01    9.002622e-01
  2.472242e+01    8.882713e-01
  2.475418e+01    9.036829e-01
  2.478593e+01    9.177808e-01
  2.481768e+01    9.040232e-01
  2.484943e+01    8.973008e-01
  2.488118e+01    8.962733e-01
  2.491293e+01    8.787375e-01
  2.494468e+01    9.044917e-01
  2.497643e+01    8.930086e-01
  2.500819e+01    8.961685e-01
  2.503994e+01    9.161332e-01
  2.507169e+01    9.115693e-01
  2.510344e+01    9.094878e-01
  2.513519e+01    9.011523e-01
  2.516694e+01    9.202382e-01
  2.519869e+01    9.395840e-01
  2.523044e+01    9.387661e-01
  2.526219e+01    9.312652e-01
  2.529395e+01    9.506354e-01
  2.532570e+01    9.619223e-01
  2.535745e+01    9.653601e-01
  2.538920e+01    1.002020e+00
  2.542095e+01    1.001362e+00
  2.545270e+01    1.026398e+00
  2.548445e+01    1.050350e+00
  2.551620e+01    1.074868e+00
  2.554795e+01    1.095119e+00
  2.557971e+01    1.148276e+00
  2.561146e+01    1.240132e+00
  2.564321e+01    1.304783e+00
  2.567496e+01    1.407754e+00
  2.570671e+01    1.590068e+00
  2.573846e+01    1.832910e+00
  2.577021e+01    2.236469e+00
  2.580196e+01    2.791364e+00
  2.583371e+01    3.629014e+00
  2.586547e+01    4.663222e+00
  2.589722e+01    5.808430e+00
  2.592897e+01    6.752978e+00
  2.596072e+01    7.086636e+00
  2.599247e+01    6.523752e+00
  2.602422e+01    5.361912e+00
  2.605597e+01    4.017402e+00
  2.608772e+01    3.037436e+00
  2.611948e+01    2.383005e+00
  2.615123e+01    1.958849e+00
  2.618298e+01    1.679297e+00
  2.621473e+01    1.472028e+00
  2.624648e+01    1.335966e+00
  2.627823e+01    1.270083e+00
  2.630998e+01    1.162750e+00
  2.634173e+01    1.141689e+00
  2.637348e+01    1.104736e+00
  2.640524e+01    1.052837e+00
  2.643699e+01    1.038841e+00
  2.646874e+01    1.039567e+00
  2.650049e+01    1.004378e+00
  2.653224e+01    9.818792e-01
  2.656399e+01    9.971414e-01
  2.659574e+01    9.761773e-01
  2.662749e+01    9.855596e-01
  2.665924e+01    9.732845e-01
  2.669100e+01    9.698170e-01
  2.672275e+01    9.833244e-01
  2.675450e+01    9.723725e-01
  2.678625e+01    9.839334e-01
  2.681800e+01    9.608563e-01
  2.684975e+01    9.980237e-01
  2.688150e+01    1.007905e+00
  2.691325e+01    1.007636e+00
  2.694501e+01    1.058695e+00
  2.697676e+01    1.043697e+00
  2.700851e+01    1.113837e+00
  2.704026e+01    1.198488e+00
  2.707201e+01    1.296232e+00
  2.710376e+01    1.493670e+00
  2.713551e+01    1.753486e+00
  2.716726e+01    1.940318e+00
  2.719901e+01    2.121394e+00
  2.723077e+01    2.165456e+00
  2.726252e+01    1.970341e+00
  2.729427e+01    1.695802e+00
  2.732602e+01    1.453980e+00
  2.735777e+01    1.270880e+00
  2.738952e+01    1.179468e+00
  2.742127e+01    1.100788e+00
  2.745302e+01    1.049115e+00
  2.748477e+01    9.954235e-01
  2.751653e+01    9.882768e-01
  2.754828e+01    9.898648e-01
  2.758003e+01    9.476830e-01
  2.761178e+01    9.229004e-01
  2.764353e+01    9.046520e-01
  2.767528e+01    9.004049e-01
  2.770703e+01    9.292501e-01
  2.773878e+01    9.128168e-01
  2.777054e+01    8.748150e-01
  2.780229e+01    8.965853e-01
  2.783404e+01    8.825089e-01
  2.786579e+01    8.701813e-01
  2.789754e+01    8.890665e-01
  2.792929e+01    8.799621e-01
  2.796104e+01    8.861616e-01
  2.799279e+01    8.708755e-01
  2.802454e+01    8.708517e-01
  2.805630e+01    8.705416e-01
  2.808805e+01    8.591462e-01
  2.811980e+01    8.590990e-01
  2.815155e+01    8.483106e-01
  2.818330e+01    8.537980e-01
  2.821505e+01    8.684229e-01
  2.824680e+01    8.520194e-01
  2.827855e+01    8.470823e-01
  2.831030e+01    8.565377e-01
  2.834206e+01    8.552905e-01
  2.837381e+01    8.413938e-01
  2.840556e+01    8.724822e-01
  2.843731e+01    8.612604e-01
  2.846906e+01    8.363506e-01
  2.850081e+01    8.650881e-01
  2.853256e+01    8.451969e-01
  2.856431e+01    8.381933e-01
  2.859606e+01    8.136443e-01
  2.862782e+01    8.192725e-01
  2.865957e+01    8.326035e-01
  2.869132e+01    8.124474e-01
  2.872307e+01    8.265221e-01
  2.875482e+01    8.272131e-01
  2.878657e+01    8.458672e-01
  2.881832e+01    8.236672e-01
  2.885007e+01    8.287110e-01
  2.888183e+01    8.361193e-01
  2.891358e+01    8.324830e-01
  2.894533e+01    8.499220e-01
  2.897708e+01    8.024638e-01
  2.900883e+01    8.168827e-01
  2.904058e+01    8.166427e-01
  2.907233e+01    8.120982e-01
  2.910408e+01    8.343418e-01
  2.913583e+01    8.251108e-01
  2.916759e+01    8.151091e-01
  2.919934e+01    8.156489e-01
  2.923109e+01    8.157818e-01
  2.926284e+01    8.072490e-01
  2.929459e+01    8.083320e-01
  2.932634e+01    8.011972e-01
  2.935809e+01    7.915510e-01
  2.938984e+01    7.974821e-01
  2.942159e+01    8.157214e-01
  2.945335e+01    8.230164e-01
  2.948510e+01    8.106060e-01
  2.951685e+01    7.848859e-01
  2.954860e+01    8.037494e-01
  2.958035e+01    7.951204e-01
  2.961210e+01    8.170503e-01
  2.964385e+01    8.103715e-01
  2.967560e+01    7.847179e-01
  2.970736e+01    7.951283e-01
  2.973911e+01    7.967523e-01
  2.977086e+01    7.812209e-01
  2.980261e+01    8.268219e-01
  2.983436e+01    8.163078e-01
  2.986611e+01    8.126498e-01
  2.989786e+01    7.742447e-01
  2.992961e+01    7.897497e-01
  2.996136e+01    7.850575e-01
  2.999312e+01    7.968307e-01
  3.002487e+01    8.053818e-01
  3.005662e+01    7.943624e-01
  3.008837e+01    8.075495e-01
  3.012012e+01    7.811227e-01
  3.015187e+01    8.156817e-01
  3.018362e+01    7.724419e-01
  3.021537e+01    7.772529e-01
  3.024712e+01    8.008876e-01
  3.027888e+01    7.920833e-01
  3.031063e+01    7.998945e-01
  3.034238e+01    7.851843e-01
  3.037413e+01    7.879518e-01
  3.040588e+01    7.768854e-01
  3.043763e+01    7.937138e-01
  3.046938e+01    7.830364e-01
  3.050113e+01    7.886454e-01
  3.053288e+01    7.930264e-01
  3.056464e+01    7.900290e-01
  3.059639e+01    7.516580e-01
  3.062814e+01    7.782654e-01
  3.065989e+01    7.849278e-01
  3.069164e+01    7.854198e-01
  3.072339e+01    7.937840e-01
  3.075514e+01    7.661729e-01
  3.078689e+01    7.860736e-01
  3.081865e+01    8.182678e-01
  3.085040e+01    7.863448e-01
  3.088215e+01    7.814972e-01
  3.091390e+01    7.824893e-01
  3.094565e+01    7.567765e-01
  3.097740e+01    7.914851e-01
  3.100915e+01    7.960424e-01
  3.104090e+01    7.935508e-01
  3.107265e+01    7.633141e-01
  3.110441e+01    7.894533e-01
  3.113616e+01    8.034006e-01
  3.116791e+01    8.047107e-01
  3.119966e+01    7.816087e-01
  3.123141e+01    8.109220e-01
  3.126316e+01    7.882802e-01
  3.129491e+01    7.928860e-01
  3.132666e+01    8.133253e-01
  3.135841e+01    7.882251e-01
  3.139017e+01    7.856556e-01
  3.142192e+01    8.132657e-01
  3.145367e+01    8.230876e-01
  3.148542e+01    8.210701e-01
  3.151717e+01    8.306662e-01
  3.154892e+01    8.444246e-01
  3.158067e+01    8.617664e-01
  3.161242e+01    9.044689e-01
  3.164418e+01    8.992544e-01
  3.167593e+01    9.727044e-01
  3.170768e+01    1.040233e+00
  3.173943e+01    1.088103e+00
  3.177118e+01    1.249451e+00
  3.180293e+01    1.489199e+00
  3.183468e+01    1.732715e+00
  3.186643e+01    1.927558e+00
  3.189818e+01    2.060236e+00
  3.192994e+01    2.009706e+00
  3.196169e+01    1.841601e+00
  3.199344e+01    1.568862e+00
  3.202519e+01    1.339996e+00
  3.205694e+01    1.152965e+00
  3.208869e+01    1.038805e+00
  3.212044e+01    9.931521e-01
  3.215219e+01    9.082018e-01
  3.218394e+01    8.770607e-01
  3.221570e+01    8.511328e-01
  3.224745e+01    8.142703e-01
  3.227920e+01    8.291717e-01
  3.231095e+01    8.064533e-01
  3.234270e+01    8.143919e-01
  3.237445e+01    7.996418e-01
  3.240620e+01    7.895766e-01
  3.243795e+01    7.666379e-01
  3.246970e+01    7.736056e-01
  3.250146e+01    7.773020e-01
  3.253321e+01    7.521614e-01
  3.254908e+01    7.752544e-01