File: XRD/Reaction conditions/2024-07-27_003_Ru-CGO-ex_Reaction_dwell_000023_data_000062.dat
# == pyFAI calibration ==
# Distance Sample to Detector: 0.4 m
# PONI: 9.750e-02, 1.135e-01 m
# Rotations: -0.000175 0.000000 -0.000000 rad
#
# == Fit2d calibration ==
# Distance Sample-beamCenter: 400.000 mm
# Center: x=1514.000, y=1300.000 pix
# Tilt: 0.010 deg  TiltPlanRot: 0.010 deg
#
# Detector Detector	 Spline= None	 PixelSize= 7.500e-05, 7.500e-05 m
#    Detector has a mask: False
#    Detector has a dark current: False
#    detector has a flat field: False
#
# Wavelength: 6.888e-11 m
# Mask applied: user provided
# Dark current applied: False
# Flat field applied: False
# Polarization factor: 0.99
# Normalization factor: 1.0
# --> /home/myspot/data/2024_07_Rosario/Ru-CGO-ex/2024-07-27_003_Ru-CGO-ex_Reaction_dwell_000023_data_000062.dat
#       q_nm^-1             I
  2.003187e-02    1.424646e-01
  5.178302e-02    1.985288e-01
  8.353417e-02    1.198500e-01
  1.152853e-01    8.606577e-02
  1.470365e-01    1.243822e-02
  1.787876e-01    5.084151e-02
  2.105388e-01    6.710193e-02
  2.422899e-01    2.845418e-02
  2.740411e-01    3.157932e-02
  3.057922e-01    4.071151e-02
  3.375433e-01    1.126995e-02
  3.692945e-01    4.019934e-02
  4.010456e-01    6.666799e-02
  4.327968e-01    2.525914e-02
  4.645479e-01    2.771678e-02
  4.962991e-01    4.276749e-02
  5.280502e-01    2.291606e-02
  5.598014e-01    4.193650e-02
  5.915525e-01    2.559261e-02
  6.233037e-01    5.190206e-02
  6.550548e-01    6.378908e-02
  6.868060e-01    4.860459e-02
  7.185571e-01    4.205911e-02
  7.503083e-01    8.363557e-02
  7.820594e-01    8.829520e-02
  8.138106e-01    2.174643e-01
  8.455617e-01    3.981550e-01
  8.773129e-01    5.152548e-01
  9.090640e-01    6.932358e-01
  9.408152e-01    9.148303e-01
  9.725663e-01    9.382057e-01
  1.004317e+00    1.266376e+00
  1.036069e+00    1.402841e+00
  1.067820e+00    1.523133e+00
  1.099571e+00    1.723890e+00
  1.131322e+00    1.619822e+00
  1.163073e+00    1.650804e+00
  1.194824e+00    1.847968e+00
  1.226575e+00    2.080256e+00
  1.258327e+00    2.417462e+00
  1.290078e+00    2.663047e+00
  1.321829e+00    2.813945e+00
  1.353580e+00    2.665824e+00
  1.385331e+00    2.902587e+00
  1.417082e+00    2.997571e+00
  1.448834e+00    2.925741e+00
  1.480585e+00    3.141182e+00
  1.512336e+00    3.267618e+00
  1.544087e+00    3.304544e+00
  1.575838e+00    3.210245e+00
  1.607589e+00    3.217013e+00
  1.639340e+00    3.104579e+00
  1.671092e+00    3.200454e+00
  1.702843e+00    3.266731e+00
  1.734594e+00    3.102607e+00
  1.766345e+00    2.974464e+00
  1.798096e+00    3.168514e+00
  1.829847e+00    3.124938e+00
  1.861598e+00    3.092025e+00
  1.893350e+00    3.055437e+00
  1.925101e+00    3.070670e+00
  1.956852e+00    3.084944e+00
  1.988603e+00    3.120852e+00
  2.020354e+00    2.935323e+00
  2.052105e+00    3.072747e+00
  2.083856e+00    3.159280e+00
  2.115608e+00    3.042218e+00
  2.147359e+00    3.122530e+00
  2.179110e+00    3.208919e+00
  2.210861e+00    3.138948e+00
  2.242612e+00    3.153471e+00
  2.274363e+00    3.105505e+00
  2.306115e+00    3.071011e+00
  2.337866e+00    3.126606e+00
  2.369617e+00    3.118428e+00
  2.401368e+00    3.145640e+00
  2.433119e+00    3.170573e+00
  2.464870e+00    3.215343e+00
  2.496621e+00    3.175187e+00
  2.528373e+00    3.230099e+00
  2.560124e+00    3.177037e+00
  2.591875e+00    3.166187e+00
  2.623626e+00    3.194235e+00
  2.655377e+00    3.254385e+00
  2.687128e+00    3.241465e+00
  2.718879e+00    3.233700e+00
  2.750631e+00    3.309178e+00
  2.782382e+00    3.227511e+00
  2.814133e+00    3.273983e+00
  2.845884e+00    3.351243e+00
  2.877635e+00    3.257540e+00
  2.909386e+00    3.339094e+00
  2.941137e+00    3.291503e+00
  2.972889e+00    3.376215e+00
  3.004640e+00    3.396725e+00
  3.036391e+00    3.349806e+00
  3.068142e+00    3.309288e+00
  3.099893e+00    3.392353e+00
  3.131644e+00    3.369092e+00
  3.163395e+00    3.454473e+00
  3.195147e+00    3.323277e+00
  3.226898e+00    3.426248e+00
  3.258649e+00    3.442442e+00
  3.290400e+00    3.399932e+00
  3.322151e+00    3.336721e+00
  3.353902e+00    3.399137e+00
  3.385654e+00    3.399496e+00
  3.417405e+00    3.407166e+00
  3.449156e+00    3.491282e+00
  3.480907e+00    3.498185e+00
  3.512658e+00    3.464569e+00
  3.544409e+00    3.437804e+00
  3.576160e+00    3.572152e+00
  3.607912e+00    3.338709e+00
  3.639663e+00    3.476307e+00
  3.671414e+00    3.495825e+00
  3.703165e+00    3.435345e+00
  3.734916e+00    3.526664e+00
  3.766667e+00    3.463139e+00
  3.798418e+00    3.584967e+00
  3.830170e+00    3.475719e+00
  3.861921e+00    3.512426e+00
  3.893672e+00    3.429528e+00
  3.925423e+00    3.573121e+00
  3.957174e+00    3.486757e+00
  3.988925e+00    3.507812e+00
  4.020676e+00    3.539043e+00
  4.052428e+00    3.452676e+00
  4.084179e+00    3.429032e+00
  4.115930e+00    3.537632e+00
  4.147681e+00    3.574275e+00
  4.179432e+00    3.524835e+00
  4.211183e+00    3.519929e+00
  4.242935e+00    3.566859e+00
  4.274686e+00    3.658356e+00
  4.306437e+00    3.562927e+00
  4.338188e+00    3.610573e+00
  4.369939e+00    3.530557e+00
  4.401690e+00    3.625976e+00
  4.433441e+00    3.554559e+00
  4.465193e+00    3.615176e+00
  4.496944e+00    3.524448e+00
  4.528695e+00    3.659834e+00
  4.560446e+00    3.530275e+00
  4.592197e+00    3.456173e+00
  4.623948e+00    3.681090e+00
  4.655699e+00    3.747489e+00
  4.687451e+00    3.696934e+00
  4.719202e+00    3.567308e+00
  4.750953e+00    3.609165e+00
  4.782704e+00    3.617234e+00
  4.814455e+00    3.638940e+00
  4.846206e+00    3.603283e+00
  4.877957e+00    3.572420e+00
  4.909709e+00    3.679415e+00
  4.941460e+00    3.693023e+00
  4.973211e+00    3.608487e+00
  5.004962e+00    3.573967e+00
  5.036713e+00    3.645849e+00
  5.068464e+00    3.692108e+00
  5.100216e+00    3.788928e+00
  5.131967e+00    3.581755e+00
  5.163718e+00    3.667619e+00
  5.195469e+00    3.691944e+00
  5.227220e+00    3.665993e+00
  5.258971e+00    3.700965e+00
  5.290722e+00    3.641292e+00
  5.322474e+00    3.607723e+00
  5.354225e+00    3.649924e+00
  5.385976e+00    3.671181e+00
  5.417727e+00    3.615175e+00
  5.449478e+00    3.645258e+00
  5.481229e+00    3.689555e+00
  5.512980e+00    3.612091e+00
  5.544732e+00    3.560068e+00
  5.576483e+00    3.590014e+00
  5.608234e+00    3.552349e+00
  5.639985e+00    3.653761e+00
  5.671736e+00    3.584255e+00
  5.703487e+00    3.581439e+00
  5.735238e+00    3.591724e+00
  5.766990e+00    3.504632e+00
  5.798741e+00    3.580423e+00
  5.830492e+00    3.651757e+00
  5.862243e+00    3.558141e+00
  5.893994e+00    3.523573e+00
  5.925745e+00    3.592777e+00
  5.957497e+00    3.566867e+00
  5.989248e+00    3.514932e+00
  6.020999e+00    3.522633e+00
  6.052750e+00    3.545544e+00
  6.084501e+00    3.597628e+00
  6.116252e+00    3.635434e+00
  6.148003e+00    3.608145e+00
  6.179755e+00    3.600539e+00
  6.211506e+00    3.635923e+00
  6.243257e+00    3.640055e+00
  6.275008e+00    3.589930e+00
  6.306759e+00    3.496814e+00
  6.338510e+00    3.489197e+00
  6.370261e+00    3.502759e+00
  6.402013e+00    3.664095e+00
  6.433764e+00    3.566365e+00
  6.465515e+00    3.573329e+00
  6.497266e+00    3.614203e+00
  6.529017e+00    3.572718e+00
  6.560768e+00    3.573090e+00
  6.592519e+00    3.507204e+00
  6.624271e+00    3.564446e+00
  6.656022e+00    3.590067e+00
  6.687773e+00    3.565596e+00
  6.719524e+00    3.549083e+00
  6.751275e+00    3.539513e+00
  6.783026e+00    3.490015e+00
  6.814777e+00    3.619317e+00
  6.846529e+00    3.593980e+00
  6.878280e+00    3.564905e+00
  6.910031e+00    3.541874e+00
  6.941782e+00    3.479752e+00
  6.973533e+00    3.560838e+00
  7.005284e+00    3.542834e+00
  7.037036e+00    3.480225e+00
  7.068787e+00    3.516964e+00
  7.100538e+00    3.606391e+00
  7.132289e+00    3.560342e+00
  7.164040e+00    3.558617e+00
  7.195791e+00    3.574927e+00
  7.227542e+00    3.480809e+00
  7.259294e+00    3.571964e+00
  7.291045e+00    3.515008e+00
  7.322796e+00    3.562338e+00
  7.354547e+00    3.516779e+00
  7.386298e+00    3.511247e+00
  7.418049e+00    3.481534e+00
  7.449800e+00    3.524775e+00
  7.481552e+00    3.462740e+00
  7.513303e+00    3.511317e+00
  7.545054e+00    3.442080e+00
  7.576805e+00    3.512933e+00
  7.608556e+00    3.516411e+00
  7.640307e+00    3.496309e+00
  7.672058e+00    3.444023e+00
  7.703810e+00    3.469297e+00
  7.735561e+00    3.480366e+00
  7.767312e+00    3.444633e+00
  7.799063e+00    3.424232e+00
  7.830814e+00    3.433764e+00
  7.862565e+00    3.417114e+00
  7.894317e+00    3.452443e+00
  7.926068e+00    3.452722e+00
  7.957819e+00    3.426349e+00
  7.989570e+00    3.456656e+00
  8.021321e+00    3.430956e+00
  8.053072e+00    3.375660e+00
  8.084823e+00    3.399532e+00
  8.116575e+00    3.404660e+00
  8.148326e+00    3.430005e+00
  8.180077e+00    3.473486e+00
  8.211828e+00    3.431293e+00
  8.243579e+00    3.482213e+00
  8.275330e+00    3.437625e+00
  8.307081e+00    3.347769e+00
  8.338833e+00    3.340311e+00
  8.370584e+00    3.395109e+00
  8.402335e+00    3.356684e+00
  8.434086e+00    3.374029e+00
  8.465837e+00    3.422136e+00
  8.497588e+00    3.456763e+00
  8.529339e+00    3.411630e+00
  8.561091e+00    3.400008e+00
  8.592842e+00    3.333692e+00
  8.624593e+00    3.322136e+00
  8.656344e+00    3.321427e+00
  8.688095e+00    3.315356e+00
  8.719846e+00    3.319294e+00
  8.751598e+00    3.361479e+00
  8.783349e+00    3.313994e+00
  8.815100e+00    3.307691e+00
  8.846851e+00    3.262984e+00
  8.878602e+00    3.249939e+00
  8.910353e+00    3.355829e+00
  8.942104e+00    3.261371e+00
  8.973856e+00    3.349741e+00
  9.005607e+00    3.297388e+00
  9.037358e+00    3.263039e+00
  9.069109e+00    3.241391e+00
  9.100860e+00    3.322966e+00
  9.132611e+00    3.229890e+00
  9.164362e+00    3.284635e+00
  9.196114e+00    3.253515e+00
  9.227865e+00    3.286379e+00
  9.259616e+00    3.180125e+00
  9.291367e+00    3.253252e+00
  9.323118e+00    3.215862e+00
  9.354869e+00    3.233426e+00
  9.386620e+00    3.162612e+00
  9.418372e+00    3.237888e+00
  9.450123e+00    3.209227e+00
  9.481874e+00    3.187143e+00
  9.513625e+00    3.207348e+00
  9.545376e+00    3.282917e+00
  9.577127e+00    3.218889e+00
  9.608878e+00    3.211352e+00
  9.640630e+00    3.187684e+00
  9.672381e+00    3.236309e+00
  9.704132e+00    3.111676e+00
  9.735883e+00    3.115340e+00
  9.767634e+00    3.191382e+00
  9.799385e+00    3.178510e+00
  9.831137e+00    3.124241e+00
  9.862888e+00    3.189479e+00
  9.894639e+00    3.104880e+00
  9.926390e+00    3.123147e+00
  9.958141e+00    3.111578e+00
  9.989892e+00    3.169080e+00
  1.002164e+01    3.146683e+00
  1.005339e+01    3.089439e+00
  1.008515e+01    3.107903e+00
  1.011690e+01    3.144221e+00
  1.014865e+01    3.069473e+00
  1.018040e+01    3.040340e+00
  1.021215e+01    3.111811e+00
  1.024390e+01    3.048516e+00
  1.027565e+01    2.986279e+00
  1.030740e+01    3.102312e+00
  1.033915e+01    3.021359e+00
  1.037091e+01    3.030837e+00
  1.040266e+01    3.029030e+00
  1.043441e+01    3.040797e+00
  1.046616e+01    3.067692e+00
  1.049791e+01    3.070163e+00
  1.052966e+01    2.975099e+00
  1.056141e+01    3.028173e+00
  1.059316e+01    2.976340e+00
  1.062492e+01    3.001877e+00
  1.065667e+01    3.031274e+00
  1.068842e+01    2.964885e+00
  1.072017e+01    2.979198e+00
  1.075192e+01    2.986225e+00
  1.078367e+01    2.975627e+00
  1.081542e+01    2.908512e+00
  1.084717e+01    2.956349e+00
  1.087892e+01    2.985749e+00
  1.091068e+01    2.950910e+00
  1.094243e+01    2.916187e+00
  1.097418e+01    2.965257e+00
  1.100593e+01    2.927572e+00
  1.103768e+01    2.910584e+00
  1.106943e+01    2.932665e+00
  1.110118e+01    2.938171e+00
  1.113293e+01    2.896180e+00
  1.116468e+01    2.873900e+00
  1.119644e+01    2.889345e+00
  1.122819e+01    2.899673e+00
  1.125994e+01    2.881371e+00
  1.129169e+01    2.905464e+00
  1.132344e+01    2.812643e+00
  1.135519e+01    2.888211e+00
  1.138694e+01    2.826415e+00
  1.141869e+01    2.834315e+00
  1.145045e+01    2.795712e+00
  1.148220e+01    2.835825e+00
  1.151395e+01    2.811258e+00
  1.154570e+01    2.799007e+00
  1.157745e+01    2.834424e+00
  1.160920e+01    2.794758e+00
  1.164095e+01    2.782675e+00
  1.167270e+01    2.771466e+00
  1.170445e+01    2.760578e+00
  1.173621e+01    2.775683e+00
  1.176796e+01    2.732581e+00
  1.179971e+01    2.765653e+00
  1.183146e+01    2.736833e+00
  1.186321e+01    2.719821e+00
  1.189496e+01    2.703451e+00
  1.192671e+01    2.736479e+00
  1.195846e+01    2.740585e+00
  1.199021e+01    2.680248e+00
  1.202197e+01    2.719422e+00
  1.205372e+01    2.728333e+00
  1.208547e+01    2.717028e+00
  1.211722e+01    2.658655e+00
  1.214897e+01    2.639643e+00
  1.218072e+01    2.671081e+00
  1.221247e+01    2.670492e+00
  1.224422e+01    2.689067e+00
  1.227597e+01    2.697704e+00
  1.230773e+01    2.704050e+00
  1.233948e+01    2.708555e+00
  1.237123e+01    2.659940e+00
  1.240298e+01    2.740937e+00
  1.243473e+01    2.727594e+00
  1.246648e+01    2.703309e+00
  1.249823e+01    2.660291e+00
  1.252998e+01    2.718631e+00
  1.256174e+01    2.693526e+00
  1.259349e+01    2.762003e+00
  1.262524e+01    2.725045e+00
  1.265699e+01    2.798933e+00
  1.268874e+01    2.767590e+00
  1.272049e+01    2.881141e+00
  1.275224e+01    2.948126e+00
  1.278399e+01    3.008104e+00
  1.281574e+01    3.079522e+00
  1.284750e+01    3.201329e+00
  1.287925e+01    3.399415e+00
  1.291100e+01    3.714625e+00
  1.294275e+01    4.149646e+00
  1.297450e+01    4.839406e+00
  1.300625e+01    5.980952e+00
  1.303800e+01    7.864275e+00
  1.306975e+01    1.041553e+01
  1.310150e+01    1.279618e+01
  1.313326e+01    1.496065e+01
  1.316501e+01    1.635851e+01
  1.319676e+01    1.570786e+01
  1.322851e+01    1.240210e+01
  1.326026e+01    9.010514e+00
  1.329201e+01    6.703976e+00
  1.332376e+01    5.299485e+00
  1.335551e+01    4.356276e+00
  1.338727e+01    3.808440e+00
  1.341902e+01    3.478018e+00
  1.345077e+01    3.227615e+00
  1.348252e+01    3.082350e+00
  1.351427e+01    2.965485e+00
  1.354602e+01    2.888385e+00
  1.357777e+01    2.718148e+00
  1.360952e+01    2.704540e+00
  1.364127e+01    2.680107e+00
  1.367303e+01    2.627065e+00
  1.370478e+01    2.528376e+00
  1.373653e+01    2.566942e+00
  1.376828e+01    2.506078e+00
  1.380003e+01    2.496400e+00
  1.383178e+01    2.459381e+00
  1.386353e+01    2.424379e+00
  1.389528e+01    2.402991e+00
  1.392703e+01    2.419034e+00
  1.395879e+01    2.384616e+00
  1.399054e+01    2.406474e+00
  1.402229e+01    2.359107e+00
  1.405404e+01    2.334548e+00
  1.408579e+01    2.321990e+00
  1.411754e+01    2.348173e+00
  1.414929e+01    2.281325e+00
  1.418104e+01    2.307887e+00
  1.421279e+01    2.321361e+00
  1.424455e+01    2.284449e+00
  1.427630e+01    2.281633e+00
  1.430805e+01    2.247670e+00
  1.433980e+01    2.278365e+00
  1.437155e+01    2.246305e+00
  1.440330e+01    2.233419e+00
  1.443505e+01    2.240302e+00
  1.446680e+01    2.196077e+00
  1.449856e+01    2.234907e+00
  1.453031e+01    2.187798e+00
  1.456206e+01    2.181969e+00
  1.459381e+01    2.220241e+00
  1.462556e+01    2.240483e+00
  1.465731e+01    2.214680e+00
  1.468906e+01    2.178336e+00
  1.472081e+01    2.181426e+00
  1.475256e+01    2.197620e+00
  1.478432e+01    2.206308e+00
  1.481607e+01    2.231844e+00
  1.484782e+01    2.224716e+00
  1.487957e+01    2.219531e+00
  1.491132e+01    2.214210e+00
  1.494307e+01    2.279877e+00
  1.497482e+01    2.368890e+00
  1.500657e+01    2.453492e+00
  1.503832e+01    2.579694e+00
  1.507008e+01    2.834090e+00
  1.510183e+01    3.214471e+00
  1.513358e+01    3.857549e+00
  1.516533e+01    4.621603e+00
  1.519708e+01    5.195470e+00
  1.522883e+01    5.585278e+00
  1.526058e+01    5.906600e+00
  1.529233e+01    5.383440e+00
  1.532409e+01    4.635903e+00
  1.535584e+01    3.784580e+00
  1.538759e+01    3.132996e+00
  1.541934e+01    2.750850e+00
  1.545109e+01    2.577107e+00
  1.548284e+01    2.369726e+00
  1.551459e+01    2.251433e+00
  1.554634e+01    2.183446e+00
  1.557809e+01    2.159853e+00
  1.560985e+01    2.065145e+00
  1.564160e+01    2.052313e+00
  1.567335e+01    2.011948e+00
  1.570510e+01    1.988383e+00
  1.573685e+01    1.961795e+00
  1.576860e+01    1.954417e+00
  1.580035e+01    1.942318e+00
  1.583210e+01    1.896927e+00
  1.586385e+01    1.924178e+00
  1.589561e+01    1.875058e+00
  1.592736e+01    1.904779e+00
  1.595911e+01    1.875204e+00
  1.599086e+01    1.882101e+00
  1.602261e+01    1.903159e+00
  1.605436e+01    1.883787e+00
  1.608611e+01    1.836168e+00
  1.611786e+01    1.865162e+00
  1.614961e+01    1.855145e+00
  1.618137e+01    1.819776e+00
  1.621312e+01    1.806602e+00
  1.624487e+01    1.816313e+00
  1.627662e+01    1.839448e+00
  1.630837e+01    1.801228e+00
  1.634012e+01    1.804801e+00
  1.637187e+01    1.810033e+00
  1.640362e+01    1.776139e+00
  1.643538e+01    1.781127e+00
  1.646713e+01    1.791168e+00
  1.649888e+01    1.773588e+00
  1.653063e+01    1.746419e+00
  1.656238e+01    1.743588e+00
  1.659413e+01    1.775832e+00
  1.662588e+01    1.744182e+00
  1.665763e+01    1.709422e+00
  1.668938e+01    1.722823e+00
  1.672114e+01    1.733171e+00
  1.675289e+01    1.704801e+00
  1.678464e+01    1.710652e+00
  1.681639e+01    1.706457e+00
  1.684814e+01    1.659072e+00
  1.687989e+01    1.694687e+00
  1.691164e+01    1.656553e+00
  1.694339e+01    1.668272e+00
  1.697514e+01    1.610577e+00
  1.700690e+01    1.660349e+00
  1.703865e+01    1.674002e+00
  1.707040e+01    1.665471e+00
  1.710215e+01    1.619880e+00
  1.713390e+01    1.655251e+00
  1.716565e+01    1.645687e+00
  1.719740e+01    1.652591e+00
  1.722915e+01    1.653893e+00
  1.726091e+01    1.661816e+00
  1.729266e+01    1.611694e+00
  1.732441e+01    1.604152e+00
  1.735616e+01    1.631954e+00
  1.738791e+01    1.597521e+00
  1.741966e+01    1.610649e+00
  1.745141e+01    1.597888e+00
  1.748316e+01    1.580235e+00
  1.751491e+01    1.576632e+00
  1.754667e+01    1.608636e+00
  1.757842e+01    1.582431e+00
  1.761017e+01    1.560968e+00
  1.764192e+01    1.562163e+00
  1.767367e+01    1.531814e+00
  1.770542e+01    1.551315e+00
  1.773717e+01    1.536507e+00
  1.776892e+01    1.583662e+00
  1.780067e+01    1.540129e+00
  1.783243e+01    1.519745e+00
  1.786418e+01    1.543632e+00
  1.789593e+01    1.516046e+00
  1.792768e+01    1.526446e+00
  1.795943e+01    1.547858e+00
  1.799118e+01    1.529475e+00
  1.802293e+01    1.509295e+00
  1.805468e+01    1.525915e+00
  1.808643e+01    1.518129e+00
  1.811819e+01    1.488710e+00
  1.814994e+01    1.493344e+00
  1.818169e+01    1.498172e+00
  1.821344e+01    1.495382e+00
  1.824519e+01    1.482343e+00
  1.827694e+01    1.468949e+00
  1.830869e+01    1.476865e+00
  1.834044e+01    1.462292e+00
  1.837220e+01    1.445859e+00
  1.840395e+01    1.474616e+00
  1.843570e+01    1.468860e+00
  1.846745e+01    1.432984e+00
  1.849920e+01    1.476864e+00
  1.853095e+01    1.432666e+00
  1.856270e+01    1.447379e+00
  1.859445e+01    1.435876e+00
  1.862620e+01    1.445654e+00
  1.865796e+01    1.413783e+00
  1.868971e+01    1.416245e+00
  1.872146e+01    1.408956e+00
  1.875321e+01    1.438650e+00
  1.878496e+01    1.423105e+00
  1.881671e+01    1.394988e+00
  1.884846e+01    1.416695e+00
  1.888021e+01    1.415386e+00
  1.891196e+01    1.418505e+00
  1.894372e+01    1.427742e+00
  1.897547e+01    1.381320e+00
  1.900722e+01    1.405777e+00
  1.903897e+01    1.373117e+00
  1.907072e+01    1.374471e+00
  1.910247e+01    1.388731e+00
  1.913422e+01    1.366719e+00
  1.916597e+01    1.386045e+00
  1.919773e+01    1.353022e+00
  1.922948e+01    1.342249e+00
  1.926123e+01    1.354304e+00
  1.929298e+01    1.346756e+00
  1.932473e+01    1.343021e+00
  1.935648e+01    1.315027e+00
  1.938823e+01    1.350486e+00
  1.941998e+01    1.314182e+00
  1.945173e+01    1.324612e+00
  1.948349e+01    1.350484e+00
  1.951524e+01    1.341780e+00
  1.954699e+01    1.353852e+00
  1.957874e+01    1.330021e+00
  1.961049e+01    1.315000e+00
  1.964224e+01    1.331884e+00
  1.967399e+01    1.315581e+00
  1.970574e+01    1.296839e+00
  1.973749e+01    1.309819e+00
  1.976925e+01    1.293933e+00
  1.980100e+01    1.285101e+00
  1.983275e+01    1.302501e+00
  1.986450e+01    1.317235e+00
  1.989625e+01    1.280917e+00
  1.992800e+01    1.285522e+00
  1.995975e+01    1.320674e+00
  1.999150e+01    1.315021e+00
  2.002325e+01    1.279749e+00
  2.005501e+01    1.289441e+00
  2.008676e+01    1.291085e+00
  2.011851e+01    1.287164e+00
  2.015026e+01    1.282239e+00
  2.018201e+01    1.255553e+00
  2.021376e+01    1.254737e+00
  2.024551e+01    1.265036e+00
  2.027726e+01    1.248087e+00
  2.030902e+01    1.253260e+00
  2.034077e+01    1.254310e+00
  2.037252e+01    1.261691e+00
  2.040427e+01    1.263995e+00
  2.043602e+01    1.254867e+00
  2.046777e+01    1.250292e+00
  2.049952e+01    1.249789e+00
  2.053127e+01    1.234059e+00
  2.056302e+01    1.233968e+00
  2.059478e+01    1.253140e+00
  2.062653e+01    1.260300e+00
  2.065828e+01    1.249275e+00
  2.069003e+01    1.216164e+00
  2.072178e+01    1.241765e+00
  2.075353e+01    1.224445e+00
  2.078528e+01    1.205026e+00
  2.081703e+01    1.232311e+00
  2.084878e+01    1.236613e+00
  2.088054e+01    1.221318e+00
  2.091229e+01    1.208344e+00
  2.094404e+01    1.251826e+00
  2.097579e+01    1.227838e+00
  2.100754e+01    1.228095e+00
  2.103929e+01    1.247368e+00
  2.107104e+01    1.228492e+00
  2.110279e+01    1.221423e+00
  2.113455e+01    1.248070e+00
  2.116630e+01    1.248401e+00
  2.119805e+01    1.219775e+00
  2.122980e+01    1.254373e+00
  2.126155e+01    1.278247e+00
  2.129330e+01    1.282725e+00
  2.132505e+01    1.285935e+00
  2.135680e+01    1.278450e+00
  2.138855e+01    1.309702e+00
  2.142031e+01    1.312946e+00
  2.145206e+01    1.374173e+00
  2.148381e+01    1.392090e+00
  2.151556e+01    1.471116e+00
  2.154731e+01    1.516230e+00
  2.157906e+01    1.610774e+00
  2.161081e+01    1.783663e+00
  2.164256e+01    1.998968e+00
  2.167431e+01    2.310421e+00
  2.170607e+01    2.833364e+00
  2.173782e+01    3.618081e+00
  2.176957e+01    4.729936e+00
  2.180132e+01    5.951522e+00
  2.183307e+01    7.304102e+00
  2.186482e+01    8.470002e+00
  2.189657e+01    9.007984e+00
  2.192832e+01    8.165240e+00
  2.196007e+01    6.501955e+00
  2.199183e+01    4.728709e+00
  2.202358e+01    3.618029e+00
  2.205533e+01    2.809978e+00
  2.208708e+01    2.290280e+00
  2.211883e+01    1.978966e+00
  2.215058e+01    1.743765e+00
  2.218233e+01    1.604062e+00
  2.221408e+01    1.476155e+00
  2.224584e+01    1.401109e+00
  2.227759e+01    1.371602e+00
  2.230934e+01    1.295611e+00
  2.234109e+01    1.255048e+00
  2.237284e+01    1.226517e+00
  2.240459e+01    1.203754e+00
  2.243634e+01    1.194672e+00
  2.246809e+01    1.152703e+00
  2.249984e+01    1.108790e+00
  2.253160e+01    1.138475e+00
  2.256335e+01    1.136517e+00
  2.259510e+01    1.092623e+00
  2.262685e+01    1.091391e+00
  2.265860e+01    1.108462e+00
  2.269035e+01    1.119493e+00
  2.272210e+01    1.084408e+00
  2.275385e+01    1.059728e+00
  2.278560e+01    1.066534e+00
  2.281736e+01    1.043015e+00
  2.284911e+01    1.040571e+00
  2.288086e+01    1.037726e+00
  2.291261e+01    1.041001e+00
  2.294436e+01    1.023683e+00
  2.297611e+01    1.034492e+00
  2.300786e+01    1.026687e+00
  2.303961e+01    1.015003e+00
  2.307137e+01    1.015997e+00
  2.310312e+01    9.886924e-01
  2.313487e+01    1.032617e+00
  2.316662e+01    9.829549e-01
  2.319837e+01    9.935893e-01
  2.323012e+01    9.889784e-01
  2.326187e+01    9.942554e-01
  2.329362e+01    9.845078e-01
  2.332537e+01    9.920782e-01
  2.335713e+01    9.792681e-01
  2.338888e+01    9.778388e-01
  2.342063e+01    9.851832e-01
  2.345238e+01    9.427111e-01
  2.348413e+01    9.642524e-01
  2.351588e+01    9.403939e-01
  2.354763e+01    9.388626e-01
  2.357938e+01    9.679806e-01
  2.361113e+01    9.646624e-01
  2.364289e+01    9.486715e-01
  2.367464e+01    9.503635e-01
  2.370639e+01    9.165605e-01
  2.373814e+01    9.203110e-01
  2.376989e+01    9.240588e-01
  2.380164e+01    9.382125e-01
  2.383339e+01    9.315873e-01
  2.386514e+01    9.119254e-01
  2.389689e+01    9.347315e-01
  2.392865e+01    8.983828e-01
  2.396040e+01    9.130808e-01
  2.399215e+01    9.064001e-01
  2.402390e+01    9.037455e-01
  2.405565e+01    8.983077e-01
  2.408740e+01    8.833513e-01
  2.411915e+01    8.884268e-01
  2.415090e+01    8.723270e-01
  2.418266e+01    8.968509e-01
  2.421441e+01    8.836910e-01
  2.424616e+01    8.821489e-01
  2.427791e+01    8.724400e-01
  2.430966e+01    8.949528e-01
  2.434141e+01    8.820504e-01
  2.437316e+01    8.965504e-01
  2.440491e+01    8.857118e-01
  2.443666e+01    8.937842e-01
  2.446842e+01    8.839763e-01
  2.450017e+01    8.983688e-01
  2.453192e+01    9.020882e-01
  2.456367e+01    8.896320e-01
  2.459542e+01    8.905036e-01
  2.462717e+01    8.977294e-01
  2.465892e+01    9.097815e-01
  2.469067e+01    9.008806e-01
  2.472242e+01    8.833057e-01
  2.475418e+01    8.772721e-01
  2.478593e+01    8.845064e-01
  2.481768e+01    9.085278e-01
  2.484943e+01    8.665798e-01
  2.488118e+01    8.972375e-01
  2.491293e+01    8.837924e-01
  2.494468e+01    8.735997e-01
  2.497643e+01    9.158341e-01
  2.500819e+01    8.959836e-01
  2.503994e+01    9.384443e-01
  2.507169e+01    9.268080e-01
  2.510344e+01    9.111682e-01
  2.513519e+01    9.339088e-01
  2.516694e+01    9.117226e-01
  2.519869e+01    9.173007e-01
  2.523044e+01    9.463173e-01
  2.526219e+01    9.542593e-01
  2.529395e+01    9.553202e-01
  2.532570e+01    9.506770e-01
  2.535745e+01    9.887552e-01
  2.538920e+01    9.915143e-01
  2.542095e+01    9.981915e-01
  2.545270e+01    1.042628e+00
  2.548445e+01    1.048139e+00
  2.551620e+01    1.086408e+00
  2.554795e+01    1.113671e+00
  2.557971e+01    1.156207e+00
  2.561146e+01    1.206072e+00
  2.564321e+01    1.350104e+00
  2.567496e+01    1.435234e+00
  2.570671e+01    1.603877e+00
  2.573846e+01    1.894350e+00
  2.577021e+01    2.248077e+00
  2.580196e+01    2.879489e+00
  2.583371e+01    3.689734e+00
  2.586547e+01    4.775499e+00
  2.589722e+01    5.914949e+00
  2.592897e+01    6.880562e+00
  2.596072e+01    7.147888e+00
  2.599247e+01    6.522840e+00
  2.602422e+01    5.173597e+00
  2.605597e+01    3.910033e+00
  2.608772e+01    2.969220e+00
  2.611948e+01    2.333319e+00
  2.615123e+01    1.929244e+00
  2.618298e+01    1.669617e+00
  2.621473e+01    1.472249e+00
  2.624648e+01    1.337953e+00
  2.627823e+01    1.238016e+00
  2.630998e+01    1.183871e+00
  2.634173e+01    1.119800e+00
  2.637348e+01    1.089665e+00
  2.640524e+01    1.051385e+00
  2.643699e+01    1.043461e+00
  2.646874e+01    1.021360e+00
  2.650049e+01    1.008411e+00
  2.653224e+01    1.000079e+00
  2.656399e+01    9.929776e-01
  2.659574e+01    9.700149e-01
  2.662749e+01    9.663497e-01
  2.665924e+01    9.850997e-01
  2.669100e+01    9.749125e-01
  2.672275e+01    9.470107e-01
  2.675450e+01    9.621188e-01
  2.678625e+01    9.735340e-01
  2.681800e+01    9.836965e-01
  2.684975e+01    9.970416e-01
  2.688150e+01    1.002169e+00
  2.691325e+01    1.011629e+00
  2.694501e+01    1.039987e+00
  2.697676e+01    1.084033e+00
  2.700851e+01    1.110298e+00
  2.704026e+01    1.218664e+00
  2.707201e+01    1.334747e+00
  2.710376e+01    1.525442e+00
  2.713551e+01    1.754529e+00
  2.716726e+01    2.028741e+00
  2.719901e+01    2.183379e+00
  2.723077e+01    2.147838e+00
  2.726252e+01    1.939479e+00
  2.729427e+01    1.704208e+00
  2.732602e+01    1.444500e+00
  2.735777e+01    1.269320e+00
  2.738952e+01    1.146245e+00
  2.742127e+01    1.090475e+00
  2.745302e+01    1.036818e+00
  2.748477e+01    1.014726e+00
  2.751653e+01    9.569735e-01
  2.754828e+01    9.446715e-01
  2.758003e+01    9.265228e-01
  2.761178e+01    9.257229e-01
  2.764353e+01    9.101318e-01
  2.767528e+01    9.181294e-01
  2.770703e+01    9.133219e-01
  2.773878e+01    8.789440e-01
  2.777054e+01    8.736989e-01
  2.780229e+01    8.754901e-01
  2.783404e+01    8.656248e-01
  2.786579e+01    8.954378e-01
  2.789754e+01    8.922341e-01
  2.792929e+01    8.976744e-01
  2.796104e+01    8.900300e-01
  2.799279e+01    8.593814e-01
  2.802454e+01    8.656370e-01
  2.805630e+01    8.785102e-01
  2.808805e+01    8.545362e-01
  2.811980e+01    8.647838e-01
  2.815155e+01    8.676849e-01
  2.818330e+01    8.423749e-01
  2.821505e+01    8.449476e-01
  2.824680e+01    8.467736e-01
  2.827855e+01    8.431765e-01
  2.831030e+01    8.501507e-01
  2.834206e+01    8.548940e-01
  2.837381e+01    8.285016e-01
  2.840556e+01    8.516135e-01
  2.843731e+01    8.485348e-01
  2.846906e+01    8.372301e-01
  2.850081e+01    8.316711e-01
  2.853256e+01    8.298596e-01
  2.856431e+01    8.473850e-01
  2.859606e+01    8.625038e-01
  2.862782e+01    8.249624e-01
  2.865957e+01    8.122244e-01
  2.869132e+01    8.265360e-01
  2.872307e+01    8.385888e-01
  2.875482e+01    8.170930e-01
  2.878657e+01    8.289965e-01
  2.881832e+01    8.072094e-01
  2.885007e+01    8.442621e-01
  2.888183e+01    8.130850e-01
  2.891358e+01    8.200735e-01
  2.894533e+01    8.375450e-01
  2.897708e+01    8.196717e-01
  2.900883e+01    8.191376e-01
  2.904058e+01    8.277853e-01
  2.907233e+01    7.899576e-01
  2.910408e+01    8.427820e-01
  2.913583e+01    8.164028e-01
  2.916759e+01    8.149698e-01
  2.919934e+01    8.318137e-01
  2.923109e+01    8.131278e-01
  2.926284e+01    8.050869e-01
  2.929459e+01    8.027965e-01
  2.932634e+01    8.068296e-01
  2.935809e+01    7.891013e-01
  2.938984e+01    7.941258e-01
  2.942159e+01    8.045506e-01
  2.945335e+01    8.108838e-01
  2.948510e+01    8.226241e-01
  2.951685e+01    8.027181e-01
  2.954860e+01    8.082808e-01
  2.958035e+01    7.954677e-01
  2.961210e+01    8.060566e-01
  2.964385e+01    8.129475e-01
  2.967560e+01    7.845842e-01
  2.970736e+01    7.930197e-01
  2.973911e+01    7.916294e-01
  2.977086e+01    8.030672e-01
  2.980261e+01    7.911059e-01
  2.983436e+01    7.877309e-01
  2.986611e+01    7.855259e-01
  2.989786e+01    7.944488e-01
  2.992961e+01    7.944910e-01
  2.996136e+01    7.906109e-01
  2.999312e+01    7.802162e-01
  3.002487e+01    8.076752e-01
  3.005662e+01    8.214551e-01
  3.008837e+01    8.127717e-01
  3.012012e+01    7.781066e-01
  3.015187e+01    7.902853e-01
  3.018362e+01    7.998899e-01
  3.021537e+01    7.829967e-01
  3.024712e+01    7.869728e-01
  3.027888e+01    7.954473e-01
  3.031063e+01    7.903445e-01
  3.034238e+01    7.878467e-01
  3.037413e+01    7.922789e-01
  3.040588e+01    7.914886e-01
  3.043763e+01    7.727432e-01
  3.046938e+01    8.090181e-01
  3.050113e+01    7.745590e-01
  3.053288e+01    7.731560e-01
  3.056464e+01    8.018480e-01
  3.059639e+01    7.839381e-01
  3.062814e+01    8.022405e-01
  3.065989e+01    7.795451e-01
  3.069164e+01    8.162703e-01
  3.072339e+01    7.862195e-01
  3.075514e+01    7.453347e-01
  3.078689e+01    7.623466e-01
  3.081865e+01    7.953213e-01
  3.085040e+01    7.722890e-01
  3.088215e+01    7.758871e-01
  3.091390e+01    7.688441e-01
  3.094565e+01    7.968875e-01
  3.097740e+01    7.712532e-01
  3.100915e+01    7.961650e-01
  3.104090e+01    7.896621e-01
  3.107265e+01    7.753475e-01
  3.110441e+01    7.950626e-01
  3.113616e+01    7.807201e-01
  3.116791e+01    7.864309e-01
  3.119966e+01    7.899708e-01
  3.123141e+01    7.977039e-01
  3.126316e+01    7.854596e-01
  3.129491e+01    8.151380e-01
  3.132666e+01    7.978591e-01
  3.135841e+01    8.242572e-01
  3.139017e+01    7.932410e-01
  3.142192e+01    7.896526e-01
  3.145367e+01    8.023083e-01
  3.148542e+01    8.223215e-01
  3.151717e+01    8.475860e-01
  3.154892e+01    8.473461e-01
  3.158067e+01    8.624722e-01
  3.161242e+01    8.902985e-01
  3.164418e+01    9.244395e-01
  3.167593e+01    9.597763e-01
  3.170768e+01    1.046206e+00
  3.173943e+01    1.125627e+00
  3.177118e+01    1.296321e+00
  3.180293e+01    1.451207e+00
  3.183468e+01    1.714181e+00
  3.186643e+01    1.996979e+00
  3.189818e+01    2.125808e+00
  3.192994e+01    2.016154e+00
  3.196169e+01    1.763247e+00
  3.199344e+01    1.547985e+00
  3.202519e+01    1.320384e+00
  3.205694e+01    1.187148e+00
  3.208869e+01    1.054086e+00
  3.212044e+01    9.767610e-01
  3.215219e+01    8.910453e-01
  3.218394e+01    8.775162e-01
  3.221570e+01    8.567057e-01
  3.224745e+01    8.303083e-01
  3.227920e+01    8.028033e-01
  3.231095e+01    8.203473e-01
  3.234270e+01    8.109363e-01
  3.237445e+01    8.381020e-01
  3.240620e+01    8.063228e-01
  3.243795e+01    7.755061e-01
  3.246970e+01    7.963548e-01
  3.250146e+01    7.886708e-01
  3.253321e+01    7.770385e-01
  3.254908e+01    7.730672e-01