File: XRD/Reaction conditions/2024-07-27_003_Ru-CGO-ex_Reaction_dwell_000023_data_000167.dat
# == pyFAI calibration ==
# Distance Sample to Detector: 0.4 m
# PONI: 9.750e-02, 1.135e-01 m
# Rotations: -0.000175 0.000000 -0.000000 rad
#
# == Fit2d calibration ==
# Distance Sample-beamCenter: 400.000 mm
# Center: x=1514.000, y=1300.000 pix
# Tilt: 0.010 deg  TiltPlanRot: 0.010 deg
#
# Detector Detector	 Spline= None	 PixelSize= 7.500e-05, 7.500e-05 m
#    Detector has a mask: False
#    Detector has a dark current: False
#    detector has a flat field: False
#
# Wavelength: 6.888e-11 m
# Mask applied: user provided
# Dark current applied: False
# Flat field applied: False
# Polarization factor: 0.99
# Normalization factor: 1.0
# --> /home/myspot/data/2024_07_Rosario/Ru-CGO-ex/2024-07-27_003_Ru-CGO-ex_Reaction_dwell_000023_data_000167.dat
#       q_nm^-1             I
  2.003187e-02    7.712225e-02
  5.178302e-02    1.715295e-01
  8.353417e-02    1.581455e-01
  1.152853e-01    1.126199e-01
  1.470365e-01    2.712295e-02
  1.787876e-01    4.210239e-02
  2.105388e-01    6.434748e-02
  2.422899e-01    4.815619e-02
  2.740411e-01    4.957276e-02
  3.057922e-01    2.064630e-02
  3.375433e-01    2.318640e-02
  3.692945e-01    4.185038e-02
  4.010456e-01    1.645129e-02
  4.327968e-01    5.324499e-02
  4.645479e-01    4.626974e-02
  4.962991e-01    6.034765e-02
  5.280502e-01    2.740679e-02
  5.598014e-01    5.287687e-02
  5.915525e-01    1.505586e-02
  6.233037e-01    3.208079e-02
  6.550548e-01    3.789865e-02
  6.868060e-01    4.139456e-02
  7.185571e-01    3.682001e-02
  7.503083e-01    7.149784e-02
  7.820594e-01    1.085077e-01
  8.138106e-01    2.146415e-01
  8.455617e-01    3.675472e-01
  8.773129e-01    3.776072e-01
  9.090640e-01    6.335878e-01
  9.408152e-01    8.577577e-01
  9.725663e-01    1.008827e+00
  1.004317e+00    1.138010e+00
  1.036069e+00    1.293490e+00
  1.067820e+00    1.477234e+00
  1.099571e+00    1.564791e+00
  1.131322e+00    1.694808e+00
  1.163073e+00    1.725869e+00
  1.194824e+00    1.724134e+00
  1.226575e+00    2.206158e+00
  1.258327e+00    2.572556e+00
  1.290078e+00    2.665026e+00
  1.321829e+00    2.759685e+00
  1.353580e+00    2.972760e+00
  1.385331e+00    2.845066e+00
  1.417082e+00    2.819736e+00
  1.448834e+00    2.889215e+00
  1.480585e+00    3.027254e+00
  1.512336e+00    3.164799e+00
  1.544087e+00    3.140531e+00
  1.575838e+00    3.058038e+00
  1.607589e+00    3.182494e+00
  1.639340e+00    3.254524e+00
  1.671092e+00    3.084874e+00
  1.702843e+00    3.078233e+00
  1.734594e+00    3.001435e+00
  1.766345e+00    3.062828e+00
  1.798096e+00    3.101417e+00
  1.829847e+00    3.089348e+00
  1.861598e+00    3.126910e+00
  1.893350e+00    3.128398e+00
  1.925101e+00    3.027097e+00
  1.956852e+00    3.022491e+00
  1.988603e+00    3.038017e+00
  2.020354e+00    3.033592e+00
  2.052105e+00    3.027886e+00
  2.083856e+00    3.030894e+00
  2.115608e+00    3.077655e+00
  2.147359e+00    3.069788e+00
  2.179110e+00    3.100432e+00
  2.210861e+00    3.010827e+00
  2.242612e+00    3.014375e+00
  2.274363e+00    3.126759e+00
  2.306115e+00    3.000065e+00
  2.337866e+00    3.174119e+00
  2.369617e+00    3.150890e+00
  2.401368e+00    3.177096e+00
  2.433119e+00    3.097166e+00
  2.464870e+00    3.176807e+00
  2.496621e+00    3.082570e+00
  2.528373e+00    3.067778e+00
  2.560124e+00    3.312170e+00
  2.591875e+00    3.159471e+00
  2.623626e+00    3.259125e+00
  2.655377e+00    3.241379e+00
  2.687128e+00    3.230496e+00
  2.718879e+00    3.236629e+00
  2.750631e+00    3.219806e+00
  2.782382e+00    3.142460e+00
  2.814133e+00    3.335309e+00
  2.845884e+00    3.273709e+00
  2.877635e+00    3.154624e+00
  2.909386e+00    3.234493e+00
  2.941137e+00    3.406037e+00
  2.972889e+00    3.235280e+00
  3.004640e+00    3.288659e+00
  3.036391e+00    3.319805e+00
  3.068142e+00    3.302222e+00
  3.099893e+00    3.351961e+00
  3.131644e+00    3.391773e+00
  3.163395e+00    3.321625e+00
  3.195147e+00    3.440425e+00
  3.226898e+00    3.350265e+00
  3.258649e+00    3.363218e+00
  3.290400e+00    3.342240e+00
  3.322151e+00    3.354313e+00
  3.353902e+00    3.344090e+00
  3.385654e+00    3.430221e+00
  3.417405e+00    3.403177e+00
  3.449156e+00    3.295590e+00
  3.480907e+00    3.357662e+00
  3.512658e+00    3.350070e+00
  3.544409e+00    3.413211e+00
  3.576160e+00    3.307952e+00
  3.607912e+00    3.439195e+00
  3.639663e+00    3.395604e+00
  3.671414e+00    3.392975e+00
  3.703165e+00    3.524879e+00
  3.734916e+00    3.432677e+00
  3.766667e+00    3.393119e+00
  3.798418e+00    3.404735e+00
  3.830170e+00    3.500381e+00
  3.861921e+00    3.541986e+00
  3.893672e+00    3.458364e+00
  3.925423e+00    3.543208e+00
  3.957174e+00    3.435665e+00
  3.988925e+00    3.497961e+00
  4.020676e+00    3.609411e+00
  4.052428e+00    3.543413e+00
  4.084179e+00    3.427476e+00
  4.115930e+00    3.590262e+00
  4.147681e+00    3.593073e+00
  4.179432e+00    3.505768e+00
  4.211183e+00    3.541497e+00
  4.242935e+00    3.476975e+00
  4.274686e+00    3.525700e+00
  4.306437e+00    3.497482e+00
  4.338188e+00    3.549394e+00
  4.369939e+00    3.551135e+00
  4.401690e+00    3.446438e+00
  4.433441e+00    3.596804e+00
  4.465193e+00    3.521386e+00
  4.496944e+00    3.479610e+00
  4.528695e+00    3.610262e+00
  4.560446e+00    3.642576e+00
  4.592197e+00    3.587182e+00
  4.623948e+00    3.545890e+00
  4.655699e+00    3.608495e+00
  4.687451e+00    3.589165e+00
  4.719202e+00    3.548257e+00
  4.750953e+00    3.612876e+00
  4.782704e+00    3.566263e+00
  4.814455e+00    3.584540e+00
  4.846206e+00    3.602022e+00
  4.877957e+00    3.602221e+00
  4.909709e+00    3.581559e+00
  4.941460e+00    3.700125e+00
  4.973211e+00    3.621200e+00
  5.004962e+00    3.645819e+00
  5.036713e+00    3.582227e+00
  5.068464e+00    3.676092e+00
  5.100216e+00    3.534847e+00
  5.131967e+00    3.560477e+00
  5.163718e+00    3.578365e+00
  5.195469e+00    3.649935e+00
  5.227220e+00    3.604575e+00
  5.258971e+00    3.646863e+00
  5.290722e+00    3.653832e+00
  5.322474e+00    3.713376e+00
  5.354225e+00    3.645223e+00
  5.385976e+00    3.543915e+00
  5.417727e+00    3.482162e+00
  5.449478e+00    3.611572e+00
  5.481229e+00    3.553612e+00
  5.512980e+00    3.529630e+00
  5.544732e+00    3.572645e+00
  5.576483e+00    3.525830e+00
  5.608234e+00    3.558171e+00
  5.639985e+00    3.562369e+00
  5.671736e+00    3.518373e+00
  5.703487e+00    3.463457e+00
  5.735238e+00    3.457207e+00
  5.766990e+00    3.549826e+00
  5.798741e+00    3.647840e+00
  5.830492e+00    3.536405e+00
  5.862243e+00    3.533130e+00
  5.893994e+00    3.529565e+00
  5.925745e+00    3.546879e+00
  5.957497e+00    3.489969e+00
  5.989248e+00    3.501676e+00
  6.020999e+00    3.594355e+00
  6.052750e+00    3.559818e+00
  6.084501e+00    3.533612e+00
  6.116252e+00    3.504932e+00
  6.148003e+00    3.617499e+00
  6.179755e+00    3.572588e+00
  6.211506e+00    3.524202e+00
  6.243257e+00    3.527202e+00
  6.275008e+00    3.549709e+00
  6.306759e+00    3.566885e+00
  6.338510e+00    3.502852e+00
  6.370261e+00    3.617461e+00
  6.402013e+00    3.405667e+00
  6.433764e+00    3.425479e+00
  6.465515e+00    3.468846e+00
  6.497266e+00    3.463033e+00
  6.529017e+00    3.554125e+00
  6.560768e+00    3.496212e+00
  6.592519e+00    3.517787e+00
  6.624271e+00    3.504014e+00
  6.656022e+00    3.580304e+00
  6.687773e+00    3.488298e+00
  6.719524e+00    3.514714e+00
  6.751275e+00    3.537335e+00
  6.783026e+00    3.501071e+00
  6.814777e+00    3.567700e+00
  6.846529e+00    3.491100e+00
  6.878280e+00    3.487964e+00
  6.910031e+00    3.488417e+00
  6.941782e+00    3.579086e+00
  6.973533e+00    3.567392e+00
  7.005284e+00    3.525482e+00
  7.037036e+00    3.548755e+00
  7.068787e+00    3.490963e+00
  7.100538e+00    3.489328e+00
  7.132289e+00    3.455042e+00
  7.164040e+00    3.506403e+00
  7.195791e+00    3.433404e+00
  7.227542e+00    3.469887e+00
  7.259294e+00    3.437400e+00
  7.291045e+00    3.445898e+00
  7.322796e+00    3.535133e+00
  7.354547e+00    3.499657e+00
  7.386298e+00    3.488848e+00
  7.418049e+00    3.437352e+00
  7.449800e+00    3.509924e+00
  7.481552e+00    3.463710e+00
  7.513303e+00    3.455825e+00
  7.545054e+00    3.411029e+00
  7.576805e+00    3.429727e+00
  7.608556e+00    3.426613e+00
  7.640307e+00    3.370525e+00
  7.672058e+00    3.428559e+00
  7.703810e+00    3.488439e+00
  7.735561e+00    3.460822e+00
  7.767312e+00    3.461074e+00
  7.799063e+00    3.404169e+00
  7.830814e+00    3.383068e+00
  7.862565e+00    3.428407e+00
  7.894317e+00    3.336851e+00
  7.926068e+00    3.441172e+00
  7.957819e+00    3.370728e+00
  7.989570e+00    3.358695e+00
  8.021321e+00    3.358486e+00
  8.053072e+00    3.347674e+00
  8.084823e+00    3.455819e+00
  8.116575e+00    3.467287e+00
  8.148326e+00    3.433163e+00
  8.180077e+00    3.464887e+00
  8.211828e+00    3.483415e+00
  8.243579e+00    3.438021e+00
  8.275330e+00    3.418487e+00
  8.307081e+00    3.339260e+00
  8.338833e+00    3.362343e+00
  8.370584e+00    3.403839e+00
  8.402335e+00    3.365553e+00
  8.434086e+00    3.291196e+00
  8.465837e+00    3.242721e+00
  8.497588e+00    3.330797e+00
  8.529339e+00    3.304960e+00
  8.561091e+00    3.359995e+00
  8.592842e+00    3.308153e+00
  8.624593e+00    3.307985e+00
  8.656344e+00    3.315822e+00
  8.688095e+00    3.319913e+00
  8.719846e+00    3.292366e+00
  8.751598e+00    3.305978e+00
  8.783349e+00    3.316554e+00
  8.815100e+00    3.317128e+00
  8.846851e+00    3.340780e+00
  8.878602e+00    3.245441e+00
  8.910353e+00    3.320845e+00
  8.942104e+00    3.243744e+00
  8.973856e+00    3.282812e+00
  9.005607e+00    3.192185e+00
  9.037358e+00    3.247971e+00
  9.069109e+00    3.312751e+00
  9.100860e+00    3.249535e+00
  9.132611e+00    3.246767e+00
  9.164362e+00    3.199778e+00
  9.196114e+00    3.261597e+00
  9.227865e+00    3.177535e+00
  9.259616e+00    3.225739e+00
  9.291367e+00    3.207812e+00
  9.323118e+00    3.186695e+00
  9.354869e+00    3.203484e+00
  9.386620e+00    3.243964e+00
  9.418372e+00    3.206734e+00
  9.450123e+00    3.112394e+00
  9.481874e+00    3.132069e+00
  9.513625e+00    3.206183e+00
  9.545376e+00    3.194887e+00
  9.577127e+00    3.188722e+00
  9.608878e+00    3.215941e+00
  9.640630e+00    3.190980e+00
  9.672381e+00    3.168608e+00
  9.704132e+00    3.141202e+00
  9.735883e+00    3.135344e+00
  9.767634e+00    3.192585e+00
  9.799385e+00    3.118175e+00
  9.831137e+00    3.155965e+00
  9.862888e+00    3.104012e+00
  9.894639e+00    3.069572e+00
  9.926390e+00    3.130145e+00
  9.958141e+00    3.114555e+00
  9.989892e+00    3.087348e+00
  1.002164e+01    3.108278e+00
  1.005339e+01    3.091408e+00
  1.008515e+01    3.064999e+00
  1.011690e+01    3.112284e+00
  1.014865e+01    3.037320e+00
  1.018040e+01    3.037869e+00
  1.021215e+01    3.036946e+00
  1.024390e+01    3.066011e+00
  1.027565e+01    3.001703e+00
  1.030740e+01    3.057426e+00
  1.033915e+01    3.000535e+00
  1.037091e+01    3.023087e+00
  1.040266e+01    2.974195e+00
  1.043441e+01    3.013500e+00
  1.046616e+01    3.029808e+00
  1.049791e+01    2.995636e+00
  1.052966e+01    3.020957e+00
  1.056141e+01    2.922994e+00
  1.059316e+01    2.959781e+00
  1.062492e+01    2.943652e+00
  1.065667e+01    2.987188e+00
  1.068842e+01    2.970125e+00
  1.072017e+01    2.878027e+00
  1.075192e+01    2.931399e+00
  1.078367e+01    2.940188e+00
  1.081542e+01    2.896862e+00
  1.084717e+01    2.902431e+00
  1.087892e+01    2.847899e+00
  1.091068e+01    2.908016e+00
  1.094243e+01    2.892613e+00
  1.097418e+01    2.847245e+00
  1.100593e+01    2.909109e+00
  1.103768e+01    2.903809e+00
  1.106943e+01    2.819840e+00
  1.110118e+01    2.855932e+00
  1.113293e+01    2.890234e+00
  1.116468e+01    2.891034e+00
  1.119644e+01    2.863259e+00
  1.122819e+01    2.845345e+00
  1.125994e+01    2.788812e+00
  1.129169e+01    2.783406e+00
  1.132344e+01    2.816659e+00
  1.135519e+01    2.798115e+00
  1.138694e+01    2.768312e+00
  1.141869e+01    2.779051e+00
  1.145045e+01    2.798391e+00
  1.148220e+01    2.795797e+00
  1.151395e+01    2.802393e+00
  1.154570e+01    2.836876e+00
  1.157745e+01    2.741897e+00
  1.160920e+01    2.711144e+00
  1.164095e+01    2.715296e+00
  1.167270e+01    2.724336e+00
  1.170445e+01    2.714179e+00
  1.173621e+01    2.722292e+00
  1.176796e+01    2.710993e+00
  1.179971e+01    2.713403e+00
  1.183146e+01    2.727128e+00
  1.186321e+01    2.731761e+00
  1.189496e+01    2.730891e+00
  1.192671e+01    2.717602e+00
  1.195846e+01    2.723754e+00
  1.199021e+01    2.713307e+00
  1.202197e+01    2.658131e+00
  1.205372e+01    2.719209e+00
  1.208547e+01    2.660845e+00
  1.211722e+01    2.651040e+00
  1.214897e+01    2.675919e+00
  1.218072e+01    2.645839e+00
  1.221247e+01    2.657466e+00
  1.224422e+01    2.618468e+00
  1.227597e+01    2.694907e+00
  1.230773e+01    2.707052e+00
  1.233948e+01    2.681261e+00
  1.237123e+01    2.623039e+00
  1.240298e+01    2.685713e+00
  1.243473e+01    2.654558e+00
  1.246648e+01    2.711931e+00
  1.249823e+01    2.741518e+00
  1.252998e+01    2.691142e+00
  1.256174e+01    2.706523e+00
  1.259349e+01    2.713346e+00
  1.262524e+01    2.706260e+00
  1.265699e+01    2.775896e+00
  1.268874e+01    2.774085e+00
  1.272049e+01    2.773165e+00
  1.275224e+01    2.883809e+00
  1.278399e+01    2.962742e+00
  1.281574e+01    3.018849e+00
  1.284750e+01    3.162814e+00
  1.287925e+01    3.356233e+00
  1.291100e+01    3.599792e+00
  1.294275e+01    4.010504e+00
  1.297450e+01    4.684378e+00
  1.300625e+01    5.807086e+00
  1.303800e+01    7.572323e+00
  1.306975e+01    9.982436e+00
  1.310150e+01    1.251918e+01
  1.313326e+01    1.456578e+01
  1.316501e+01    1.608418e+01
  1.319676e+01    1.554821e+01
  1.322851e+01    1.241613e+01
  1.326026e+01    9.049415e+00
  1.329201e+01    6.652939e+00
  1.332376e+01    5.262128e+00
  1.335551e+01    4.429873e+00
  1.338727e+01    3.846107e+00
  1.341902e+01    3.437910e+00
  1.345077e+01    3.184789e+00
  1.348252e+01    2.953188e+00
  1.351427e+01    2.855289e+00
  1.354602e+01    2.826232e+00
  1.357777e+01    2.707387e+00
  1.360952e+01    2.684218e+00
  1.364127e+01    2.662852e+00
  1.367303e+01    2.526184e+00
  1.370478e+01    2.534873e+00
  1.373653e+01    2.512292e+00
  1.376828e+01    2.469519e+00
  1.380003e+01    2.434921e+00
  1.383178e+01    2.451278e+00
  1.386353e+01    2.402842e+00
  1.389528e+01    2.416193e+00
  1.392703e+01    2.395681e+00
  1.395879e+01    2.358456e+00
  1.399054e+01    2.351686e+00
  1.402229e+01    2.339360e+00
  1.405404e+01    2.342666e+00
  1.408579e+01    2.339957e+00
  1.411754e+01    2.346951e+00
  1.414929e+01    2.305970e+00
  1.418104e+01    2.268267e+00
  1.421279e+01    2.289949e+00
  1.424455e+01    2.283879e+00
  1.427630e+01    2.281813e+00
  1.430805e+01    2.242486e+00
  1.433980e+01    2.213944e+00
  1.437155e+01    2.217593e+00
  1.440330e+01    2.196122e+00
  1.443505e+01    2.207495e+00
  1.446680e+01    2.218189e+00
  1.449856e+01    2.148736e+00
  1.453031e+01    2.203622e+00
  1.456206e+01    2.210715e+00
  1.459381e+01    2.193476e+00
  1.462556e+01    2.167878e+00
  1.465731e+01    2.187192e+00
  1.468906e+01    2.193750e+00
  1.472081e+01    2.219587e+00
  1.475256e+01    2.158125e+00
  1.478432e+01    2.154967e+00
  1.481607e+01    2.211920e+00
  1.484782e+01    2.185534e+00
  1.487957e+01    2.193533e+00
  1.491132e+01    2.284423e+00
  1.494307e+01    2.286025e+00
  1.497482e+01    2.353361e+00
  1.500657e+01    2.403604e+00
  1.503832e+01    2.564490e+00
  1.507008e+01    2.834150e+00
  1.510183e+01    3.157859e+00
  1.513358e+01    3.719487e+00
  1.516533e+01    4.523065e+00
  1.519708e+01    5.117665e+00
  1.522883e+01    5.525135e+00
  1.526058e+01    5.643777e+00
  1.529233e+01    5.384567e+00
  1.532409e+01    4.634648e+00
  1.535584e+01    3.752119e+00
  1.538759e+01    3.091325e+00
  1.541934e+01    2.709757e+00
  1.545109e+01    2.493264e+00
  1.548284e+01    2.312816e+00
  1.551459e+01    2.203505e+00
  1.554634e+01    2.155026e+00
  1.557809e+01    2.136345e+00
  1.560985e+01    2.055581e+00
  1.564160e+01    2.063191e+00
  1.567335e+01    2.009050e+00
  1.570510e+01    1.963781e+00
  1.573685e+01    1.910083e+00
  1.576860e+01    1.977728e+00
  1.580035e+01    1.916435e+00
  1.583210e+01    1.921314e+00
  1.586385e+01    1.883722e+00
  1.589561e+01    1.939632e+00
  1.592736e+01    1.851238e+00
  1.595911e+01    1.829292e+00
  1.599086e+01    1.858325e+00
  1.602261e+01    1.842285e+00
  1.605436e+01    1.860025e+00
  1.608611e+01    1.827013e+00
  1.611786e+01    1.797308e+00
  1.614961e+01    1.811111e+00
  1.618137e+01    1.822798e+00
  1.621312e+01    1.811401e+00
  1.624487e+01    1.751149e+00
  1.627662e+01    1.819965e+00
  1.630837e+01    1.799979e+00
  1.634012e+01    1.758539e+00
  1.637187e+01    1.764592e+00
  1.640362e+01    1.798560e+00
  1.643538e+01    1.770471e+00
  1.646713e+01    1.741785e+00
  1.649888e+01    1.741173e+00
  1.653063e+01    1.718801e+00
  1.656238e+01    1.755541e+00
  1.659413e+01    1.727325e+00
  1.662588e+01    1.688069e+00
  1.665763e+01    1.703607e+00
  1.668938e+01    1.727813e+00
  1.672114e+01    1.714174e+00
  1.675289e+01    1.694517e+00
  1.678464e+01    1.694865e+00
  1.681639e+01    1.668867e+00
  1.684814e+01    1.655294e+00
  1.687989e+01    1.660221e+00
  1.691164e+01    1.690438e+00
  1.694339e+01    1.670179e+00
  1.697514e+01    1.696154e+00
  1.700690e+01    1.670581e+00
  1.703865e+01    1.612739e+00
  1.707040e+01    1.630455e+00
  1.710215e+01    1.637592e+00
  1.713390e+01    1.638346e+00
  1.716565e+01    1.644497e+00
  1.719740e+01    1.643724e+00
  1.722915e+01    1.629364e+00
  1.726091e+01    1.628747e+00
  1.729266e+01    1.579201e+00
  1.732441e+01    1.594794e+00
  1.735616e+01    1.571019e+00
  1.738791e+01    1.613895e+00
  1.741966e+01    1.592032e+00
  1.745141e+01    1.533131e+00
  1.748316e+01    1.547229e+00
  1.751491e+01    1.542157e+00
  1.754667e+01    1.541898e+00
  1.757842e+01    1.536778e+00
  1.761017e+01    1.569298e+00
  1.764192e+01    1.587105e+00
  1.767367e+01    1.535320e+00
  1.770542e+01    1.536143e+00
  1.773717e+01    1.524236e+00
  1.776892e+01    1.549278e+00
  1.780067e+01    1.537789e+00
  1.783243e+01    1.519765e+00
  1.786418e+01    1.505197e+00
  1.789593e+01    1.529602e+00
  1.792768e+01    1.525184e+00
  1.795943e+01    1.517052e+00
  1.799118e+01    1.528282e+00
  1.802293e+01    1.516556e+00
  1.805468e+01    1.500149e+00
  1.808643e+01    1.487937e+00
  1.811819e+01    1.492559e+00
  1.814994e+01    1.476682e+00
  1.818169e+01    1.482674e+00
  1.821344e+01    1.464942e+00
  1.824519e+01    1.447143e+00
  1.827694e+01    1.465204e+00
  1.830869e+01    1.472035e+00
  1.834044e+01    1.469455e+00
  1.837220e+01    1.458290e+00
  1.840395e+01    1.458262e+00
  1.843570e+01    1.422612e+00
  1.846745e+01    1.474651e+00
  1.849920e+01    1.428195e+00
  1.853095e+01    1.423742e+00
  1.856270e+01    1.408765e+00
  1.859445e+01    1.441912e+00
  1.862620e+01    1.398177e+00
  1.865796e+01    1.409334e+00
  1.868971e+01    1.399220e+00
  1.872146e+01    1.393879e+00
  1.875321e+01    1.386691e+00
  1.878496e+01    1.379773e+00
  1.881671e+01    1.376242e+00
  1.884846e+01    1.393444e+00
  1.888021e+01    1.379217e+00
  1.891196e+01    1.411341e+00
  1.894372e+01    1.422915e+00
  1.897547e+01    1.392558e+00
  1.900722e+01    1.356513e+00
  1.903897e+01    1.346950e+00
  1.907072e+01    1.379098e+00
  1.910247e+01    1.359344e+00
  1.913422e+01    1.357751e+00
  1.916597e+01    1.325199e+00
  1.919773e+01    1.347052e+00
  1.922948e+01    1.346929e+00
  1.926123e+01    1.357284e+00
  1.929298e+01    1.318140e+00
  1.932473e+01    1.363860e+00
  1.935648e+01    1.336564e+00
  1.938823e+01    1.310880e+00
  1.941998e+01    1.315351e+00
  1.945173e+01    1.326431e+00
  1.948349e+01    1.310150e+00
  1.951524e+01    1.332566e+00
  1.954699e+01    1.309582e+00
  1.957874e+01    1.306621e+00
  1.961049e+01    1.314997e+00
  1.964224e+01    1.305467e+00
  1.967399e+01    1.295628e+00
  1.970574e+01    1.301080e+00
  1.973749e+01    1.290030e+00
  1.976925e+01    1.305766e+00
  1.980100e+01    1.297051e+00
  1.983275e+01    1.292074e+00
  1.986450e+01    1.311599e+00
  1.989625e+01    1.303145e+00
  1.992800e+01    1.270324e+00
  1.995975e+01    1.242437e+00
  1.999150e+01    1.248798e+00
  2.002325e+01    1.264070e+00
  2.005501e+01    1.267390e+00
  2.008676e+01    1.269258e+00
  2.011851e+01    1.262569e+00
  2.015026e+01    1.259141e+00
  2.018201e+01    1.225366e+00
  2.021376e+01    1.259394e+00
  2.024551e+01    1.216119e+00
  2.027726e+01    1.239720e+00
  2.030902e+01    1.240005e+00
  2.034077e+01    1.226635e+00
  2.037252e+01    1.234086e+00
  2.040427e+01    1.219920e+00
  2.043602e+01    1.238138e+00
  2.046777e+01    1.232210e+00
  2.049952e+01    1.210589e+00
  2.053127e+01    1.228990e+00
  2.056302e+01    1.205204e+00
  2.059478e+01    1.231647e+00
  2.062653e+01    1.230256e+00
  2.065828e+01    1.221075e+00
  2.069003e+01    1.239712e+00
  2.072178e+01    1.226142e+00
  2.075353e+01    1.217126e+00
  2.078528e+01    1.215237e+00
  2.081703e+01    1.226322e+00
  2.084878e+01    1.203464e+00
  2.088054e+01    1.242853e+00
  2.091229e+01    1.216101e+00
  2.094404e+01    1.221159e+00
  2.097579e+01    1.233317e+00
  2.100754e+01    1.210574e+00
  2.103929e+01    1.227185e+00
  2.107104e+01    1.206245e+00
  2.110279e+01    1.212444e+00
  2.113455e+01    1.239275e+00
  2.116630e+01    1.220769e+00
  2.119805e+01    1.253061e+00
  2.122980e+01    1.204169e+00
  2.126155e+01    1.239480e+00
  2.129330e+01    1.260586e+00
  2.132505e+01    1.282207e+00
  2.135680e+01    1.298035e+00
  2.138855e+01    1.277352e+00
  2.142031e+01    1.313048e+00
  2.145206e+01    1.332499e+00
  2.148381e+01    1.372816e+00
  2.151556e+01    1.402626e+00
  2.154731e+01    1.493643e+00
  2.157906e+01    1.594895e+00
  2.161081e+01    1.720077e+00
  2.164256e+01    1.948091e+00
  2.167431e+01    2.263088e+00
  2.170607e+01    2.719420e+00
  2.173782e+01    3.448295e+00
  2.176957e+01    4.513162e+00
  2.180132e+01    5.643758e+00
  2.183307e+01    7.071244e+00
  2.186482e+01    8.235377e+00
  2.189657e+01    8.751506e+00
  2.192832e+01    8.191218e+00
  2.196007e+01    6.542292e+00
  2.199183e+01    4.814767e+00
  2.202358e+01    3.560888e+00
  2.205533e+01    2.845778e+00
  2.208708e+01    2.305485e+00
  2.211883e+01    1.985663e+00
  2.215058e+01    1.754608e+00
  2.218233e+01    1.601149e+00
  2.221408e+01    1.475744e+00
  2.224584e+01    1.414874e+00
  2.227759e+01    1.333024e+00
  2.230934e+01    1.310321e+00
  2.234109e+01    1.225730e+00
  2.237284e+01    1.207985e+00
  2.240459e+01    1.190681e+00
  2.243634e+01    1.168004e+00
  2.246809e+01    1.148034e+00
  2.249984e+01    1.174932e+00
  2.253160e+01    1.136508e+00
  2.256335e+01    1.146059e+00
  2.259510e+01    1.092368e+00
  2.262685e+01    1.101923e+00
  2.265860e+01    1.095860e+00
  2.269035e+01    1.047202e+00
  2.272210e+01    1.045920e+00
  2.275385e+01    1.044419e+00
  2.278560e+01    1.055841e+00
  2.281736e+01    1.032179e+00
  2.284911e+01    1.031983e+00
  2.288086e+01    1.042779e+00
  2.291261e+01    1.017991e+00
  2.294436e+01    1.018273e+00
  2.297611e+01    1.019321e+00
  2.300786e+01    1.009864e+00
  2.303961e+01    9.974399e-01
  2.307137e+01    1.012914e+00
  2.310312e+01    1.002631e+00
  2.313487e+01    9.930474e-01
  2.316662e+01    1.002117e+00
  2.319837e+01    9.913819e-01
  2.323012e+01    9.586720e-01
  2.326187e+01    1.005310e+00
  2.329362e+01    9.780122e-01
  2.332537e+01    9.693678e-01
  2.335713e+01    9.885752e-01
  2.338888e+01    9.583892e-01
  2.342063e+01    9.816921e-01
  2.345238e+01    9.534698e-01
  2.348413e+01    9.801399e-01
  2.351588e+01    9.724790e-01
  2.354763e+01    9.486178e-01
  2.357938e+01    9.468645e-01
  2.361113e+01    9.588187e-01
  2.364289e+01    9.604774e-01
  2.367464e+01    9.317068e-01
  2.370639e+01    9.267943e-01
  2.373814e+01    9.204481e-01
  2.376989e+01    9.439655e-01
  2.380164e+01    9.171633e-01
  2.383339e+01    8.935193e-01
  2.386514e+01    9.130577e-01
  2.389689e+01    8.681037e-01
  2.392865e+01    9.125379e-01
  2.396040e+01    8.883760e-01
  2.399215e+01    8.832566e-01
  2.402390e+01    8.796763e-01
  2.405565e+01    8.952107e-01
  2.408740e+01    8.857949e-01
  2.411915e+01    8.848684e-01
  2.415090e+01    8.616583e-01
  2.418266e+01    8.662214e-01
  2.421441e+01    8.766934e-01
  2.424616e+01    8.676665e-01
  2.427791e+01    8.885788e-01
  2.430966e+01    8.707486e-01
  2.434141e+01    8.840158e-01
  2.437316e+01    8.807806e-01
  2.440491e+01    8.683535e-01
  2.443666e+01    9.012579e-01
  2.446842e+01    9.209458e-01
  2.450017e+01    8.635781e-01
  2.453192e+01    8.966483e-01
  2.456367e+01    8.797340e-01
  2.459542e+01    8.816279e-01
  2.462717e+01    8.782437e-01
  2.465892e+01    8.909020e-01
  2.469067e+01    8.683420e-01
  2.472242e+01    8.882961e-01
  2.475418e+01    8.690363e-01
  2.478593e+01    8.776062e-01
  2.481768e+01    8.900681e-01
  2.484943e+01    8.847723e-01
  2.488118e+01    8.842576e-01
  2.491293e+01    8.717214e-01
  2.494468e+01    8.730549e-01
  2.497643e+01    8.878754e-01
  2.500819e+01    8.805985e-01
  2.503994e+01    8.944772e-01
  2.507169e+01    8.882788e-01
  2.510344e+01    8.988501e-01
  2.513519e+01    8.854772e-01
  2.516694e+01    8.911961e-01
  2.519869e+01    9.115121e-01
  2.523044e+01    9.246051e-01
  2.526219e+01    9.304000e-01
  2.529395e+01    9.343671e-01
  2.532570e+01    9.544089e-01
  2.535745e+01    9.747579e-01
  2.538920e+01    9.800413e-01
  2.542095e+01    9.847391e-01
  2.545270e+01    1.004506e+00
  2.548445e+01    1.032890e+00
  2.551620e+01    1.056532e+00
  2.554795e+01    1.090241e+00
  2.557971e+01    1.143393e+00
  2.561146e+01    1.205574e+00
  2.564321e+01    1.292900e+00
  2.567496e+01    1.385134e+00
  2.570671e+01    1.580011e+00
  2.573846e+01    1.811116e+00
  2.577021e+01    2.198347e+00
  2.580196e+01    2.750794e+00
  2.583371e+01    3.595045e+00
  2.586547e+01    4.592179e+00
  2.589722e+01    5.717942e+00
  2.592897e+01    6.690811e+00
  2.596072e+01    6.995106e+00
  2.599247e+01    6.499920e+00
  2.602422e+01    5.280535e+00
  2.605597e+01    3.902596e+00
  2.608772e+01    2.974906e+00
  2.611948e+01    2.341702e+00
  2.615123e+01    1.930757e+00
  2.618298e+01    1.640901e+00
  2.621473e+01    1.499250e+00
  2.624648e+01    1.334594e+00
  2.627823e+01    1.233387e+00
  2.630998e+01    1.162345e+00
  2.634173e+01    1.115371e+00
  2.637348e+01    1.056610e+00
  2.640524e+01    1.022434e+00
  2.643699e+01    9.934189e-01
  2.646874e+01    9.860739e-01
  2.650049e+01    9.888517e-01
  2.653224e+01    9.827806e-01
  2.656399e+01    9.701656e-01
  2.659574e+01    9.728190e-01
  2.662749e+01    9.835758e-01
  2.665924e+01    9.689298e-01
  2.669100e+01    9.535162e-01
  2.672275e+01    9.342582e-01
  2.675450e+01    9.640318e-01
  2.678625e+01    9.622477e-01
  2.681800e+01    9.677137e-01
  2.684975e+01    9.550473e-01
  2.688150e+01    9.767225e-01
  2.691325e+01    9.775210e-01
  2.694501e+01    1.033540e+00
  2.697676e+01    1.050238e+00
  2.700851e+01    1.100954e+00
  2.704026e+01    1.192394e+00
  2.707201e+01    1.293509e+00
  2.710376e+01    1.453028e+00
  2.713551e+01    1.675099e+00
  2.716726e+01    1.931839e+00
  2.719901e+01    2.163682e+00
  2.723077e+01    2.111880e+00
  2.726252e+01    1.900717e+00
  2.729427e+01    1.651117e+00
  2.732602e+01    1.443407e+00
  2.735777e+01    1.267161e+00
  2.738952e+01    1.145153e+00
  2.742127e+01    1.065136e+00
  2.745302e+01    1.027065e+00
  2.748477e+01    9.922605e-01
  2.751653e+01    9.947353e-01
  2.754828e+01    9.536211e-01
  2.758003e+01    9.364150e-01
  2.761178e+01    9.003283e-01
  2.764353e+01    9.087526e-01
  2.767528e+01    8.896974e-01
  2.770703e+01    8.923320e-01
  2.773878e+01    9.010593e-01
  2.777054e+01    8.736007e-01
  2.780229e+01    8.910195e-01
  2.783404e+01    8.616000e-01
  2.786579e+01    8.817176e-01
  2.789754e+01    8.591976e-01
  2.792929e+01    8.771287e-01
  2.796104e+01    8.530392e-01
  2.799279e+01    8.562825e-01
  2.802454e+01    8.632404e-01
  2.805630e+01    8.646967e-01
  2.808805e+01    8.404943e-01
  2.811980e+01    8.409259e-01
  2.815155e+01    8.560949e-01
  2.818330e+01    8.459372e-01
  2.821505e+01    8.426273e-01
  2.824680e+01    8.591406e-01
  2.827855e+01    8.623929e-01
  2.831030e+01    8.261623e-01
  2.834206e+01    8.207225e-01
  2.837381e+01    8.500662e-01
  2.840556e+01    8.379400e-01
  2.843731e+01    8.365154e-01
  2.846906e+01    8.472149e-01
  2.850081e+01    8.345684e-01
  2.853256e+01    8.308578e-01
  2.856431e+01    8.279876e-01
  2.859606e+01    8.420466e-01
  2.862782e+01    8.311538e-01
  2.865957e+01    8.177493e-01
  2.869132e+01    8.195272e-01
  2.872307e+01    8.234625e-01
  2.875482e+01    8.253636e-01
  2.878657e+01    8.211037e-01
  2.881832e+01    8.166376e-01
  2.885007e+01    8.050487e-01
  2.888183e+01    8.239765e-01
  2.891358e+01    8.276896e-01
  2.894533e+01    8.186667e-01
  2.897708e+01    8.237262e-01
  2.900883e+01    8.145997e-01
  2.904058e+01    8.048060e-01
  2.907233e+01    8.173507e-01
  2.910408e+01    7.996187e-01
  2.913583e+01    8.097759e-01
  2.916759e+01    8.137184e-01
  2.919934e+01    8.128228e-01
  2.923109e+01    8.200871e-01
  2.926284e+01    8.064535e-01
  2.929459e+01    7.793397e-01
  2.932634e+01    7.954298e-01
  2.935809e+01    8.138200e-01
  2.938984e+01    8.111879e-01
  2.942159e+01    7.910967e-01
  2.945335e+01    7.998354e-01
  2.948510e+01    8.194705e-01
  2.951685e+01    7.838240e-01
  2.954860e+01    7.916343e-01
  2.958035e+01    7.776890e-01
  2.961210e+01    7.791917e-01
  2.964385e+01    7.764128e-01
  2.967560e+01    7.694761e-01
  2.970736e+01    7.697975e-01
  2.973911e+01    8.063470e-01
  2.977086e+01    7.742988e-01
  2.980261e+01    8.153331e-01
  2.983436e+01    7.865033e-01
  2.986611e+01    7.964338e-01
  2.989786e+01    7.875333e-01
  2.992961e+01    7.925501e-01
  2.996136e+01    8.069176e-01
  2.999312e+01    8.046921e-01
  3.002487e+01    8.024971e-01
  3.005662e+01    8.006824e-01
  3.008837e+01    7.965478e-01
  3.012012e+01    7.845533e-01
  3.015187e+01    7.928296e-01
  3.018362e+01    7.839559e-01
  3.021537e+01    7.976491e-01
  3.024712e+01    7.806318e-01
  3.027888e+01    7.777565e-01
  3.031063e+01    7.656651e-01
  3.034238e+01    7.775289e-01
  3.037413e+01    7.722701e-01
  3.040588e+01    7.929971e-01
  3.043763e+01    7.809493e-01
  3.046938e+01    7.840956e-01
  3.050113e+01    7.756076e-01
  3.053288e+01    7.651260e-01
  3.056464e+01    7.881391e-01
  3.059639e+01    7.791911e-01
  3.062814e+01    7.770373e-01
  3.065989e+01    8.025866e-01
  3.069164e+01    7.773356e-01
  3.072339e+01    7.831246e-01
  3.075514e+01    7.665107e-01
  3.078689e+01    7.733876e-01
  3.081865e+01    7.866274e-01
  3.085040e+01    7.954752e-01
  3.088215e+01    7.861565e-01
  3.091390e+01    7.753299e-01
  3.094565e+01    7.941398e-01
  3.097740e+01    7.764496e-01
  3.100915e+01    7.778060e-01
  3.104090e+01    7.917780e-01
  3.107265e+01    7.779123e-01
  3.110441e+01    7.802876e-01
  3.113616e+01    7.636259e-01
  3.116791e+01    7.679483e-01
  3.119966e+01    7.643953e-01
  3.123141e+01    7.868388e-01
  3.126316e+01    7.901001e-01
  3.129491e+01    7.729754e-01
  3.132666e+01    7.971137e-01
  3.135841e+01    7.815651e-01
  3.139017e+01    7.791719e-01
  3.142192e+01    7.668978e-01
  3.145367e+01    8.025633e-01
  3.148542e+01    8.238937e-01
  3.151717e+01    7.939718e-01
  3.154892e+01    8.506042e-01
  3.158067e+01    8.505948e-01
  3.161242e+01    8.655785e-01
  3.164418e+01    9.016671e-01
  3.167593e+01    9.235647e-01
  3.170768e+01    1.028243e+00
  3.173943e+01    1.117923e+00
  3.177118e+01    1.250384e+00
  3.180293e+01    1.450694e+00
  3.183468e+01    1.648704e+00
  3.186643e+01    1.919605e+00
  3.189818e+01    2.047497e+00
  3.192994e+01    2.035457e+00
  3.196169e+01    1.814013e+00
  3.199344e+01    1.558328e+00
  3.202519e+01    1.302908e+00
  3.205694e+01    1.162145e+00
  3.208869e+01    1.046593e+00
  3.212044e+01    9.777952e-01
  3.215219e+01    8.822978e-01
  3.218394e+01    8.850240e-01
  3.221570e+01    8.682942e-01
  3.224745e+01    8.251830e-01
  3.227920e+01    8.079070e-01
  3.231095e+01    7.915588e-01
  3.234270e+01    8.152792e-01
  3.237445e+01    7.651164e-01
  3.240620e+01    7.662376e-01
  3.243795e+01    7.859396e-01
  3.246970e+01    7.633918e-01
  3.250146e+01    7.571378e-01
  3.253321e+01    7.581586e-01
  3.254908e+01    7.746300e-01