File: XRD/Reaction conditions/2024-07-27_003_Ru-CGO-ex_Reaction_dwell_000023_data_000187.dat
# == pyFAI calibration ==
# Distance Sample to Detector: 0.4 m
# PONI: 9.750e-02, 1.135e-01 m
# Rotations: -0.000175 0.000000 -0.000000 rad
#
# == Fit2d calibration ==
# Distance Sample-beamCenter: 400.000 mm
# Center: x=1514.000, y=1300.000 pix
# Tilt: 0.010 deg  TiltPlanRot: 0.010 deg
#
# Detector Detector	 Spline= None	 PixelSize= 7.500e-05, 7.500e-05 m
#    Detector has a mask: False
#    Detector has a dark current: False
#    detector has a flat field: False
#
# Wavelength: 6.888e-11 m
# Mask applied: user provided
# Dark current applied: False
# Flat field applied: False
# Polarization factor: 0.99
# Normalization factor: 1.0
# --> /home/myspot/data/2024_07_Rosario/Ru-CGO-ex/2024-07-27_003_Ru-CGO-ex_Reaction_dwell_000023_data_000187.dat
#       q_nm^-1             I
  2.003187e-02    7.712225e-02
  5.178302e-02    1.949198e-01
  8.353417e-02    8.128595e-02
  1.152853e-01    7.594995e-02
  1.470365e-01    3.447823e-03
  1.787876e-01    2.996064e-02
  2.105388e-01    7.316191e-02
  2.422899e-01    4.728591e-02
  2.740411e-01    3.496042e-02
  3.057922e-01    2.998959e-02
  3.375433e-01    3.868604e-02
  3.692945e-01    6.079312e-02
  4.010456e-01    3.750492e-02
  4.327968e-01    1.536855e-02
  4.645479e-01    3.263868e-02
  4.962991e-01    3.186197e-02
  5.280502e-01    2.460289e-02
  5.598014e-01    4.588677e-02
  5.915525e-01    3.420626e-02
  6.233037e-01    1.801048e-02
  6.550548e-01    3.214257e-02
  6.868060e-01    5.670682e-02
  7.185571e-01    3.348217e-02
  7.503083e-01    4.062660e-02
  7.820594e-01    8.593891e-02
  8.138106e-01    2.024904e-01
  8.455617e-01    3.376415e-01
  8.773129e-01    5.649611e-01
  9.090640e-01    6.498894e-01
  9.408152e-01    8.069931e-01
  9.725663e-01    9.940407e-01
  1.004317e+00    1.157242e+00
  1.036069e+00    1.340796e+00
  1.067820e+00    1.495643e+00
  1.099571e+00    1.536946e+00
  1.131322e+00    1.567751e+00
  1.163073e+00    1.815280e+00
  1.194824e+00    1.770971e+00
  1.226575e+00    2.136326e+00
  1.258327e+00    2.466349e+00
  1.290078e+00    2.754747e+00
  1.321829e+00    2.765617e+00
  1.353580e+00    2.698557e+00
  1.385331e+00    2.716891e+00
  1.417082e+00    3.031485e+00
  1.448834e+00    2.899276e+00
  1.480585e+00    2.968750e+00
  1.512336e+00    3.186252e+00
  1.544087e+00    3.308025e+00
  1.575838e+00    3.239388e+00
  1.607589e+00    3.086991e+00
  1.639340e+00    3.002913e+00
  1.671092e+00    3.083791e+00
  1.702843e+00    3.044760e+00
  1.734594e+00    2.978150e+00
  1.766345e+00    2.965742e+00
  1.798096e+00    3.052394e+00
  1.829847e+00    3.042683e+00
  1.861598e+00    3.093786e+00
  1.893350e+00    2.943366e+00
  1.925101e+00    2.930839e+00
  1.956852e+00    3.117854e+00
  1.988603e+00    3.063641e+00
  2.020354e+00    3.141062e+00
  2.052105e+00    3.150352e+00
  2.083856e+00    3.104692e+00
  2.115608e+00    2.958664e+00
  2.147359e+00    2.903183e+00
  2.179110e+00    3.059195e+00
  2.210861e+00    3.072695e+00
  2.242612e+00    2.946779e+00
  2.274363e+00    3.059780e+00
  2.306115e+00    3.227478e+00
  2.337866e+00    3.067110e+00
  2.369617e+00    3.084040e+00
  2.401368e+00    3.106099e+00
  2.433119e+00    3.009054e+00
  2.464870e+00    3.213166e+00
  2.496621e+00    3.225544e+00
  2.528373e+00    3.192487e+00
  2.560124e+00    3.124588e+00
  2.591875e+00    3.179523e+00
  2.623626e+00    3.106996e+00
  2.655377e+00    3.201806e+00
  2.687128e+00    3.140006e+00
  2.718879e+00    3.187216e+00
  2.750631e+00    3.243273e+00
  2.782382e+00    3.172815e+00
  2.814133e+00    3.204260e+00
  2.845884e+00    3.166186e+00
  2.877635e+00    3.178506e+00
  2.909386e+00    3.227368e+00
  2.941137e+00    3.253677e+00
  2.972889e+00    3.252919e+00
  3.004640e+00    3.202031e+00
  3.036391e+00    3.319960e+00
  3.068142e+00    3.334379e+00
  3.099893e+00    3.335650e+00
  3.131644e+00    3.301565e+00
  3.163395e+00    3.358665e+00
  3.195147e+00    3.270591e+00
  3.226898e+00    3.337622e+00
  3.258649e+00    3.303359e+00
  3.290400e+00    3.342309e+00
  3.322151e+00    3.351621e+00
  3.353902e+00    3.345926e+00
  3.385654e+00    3.311948e+00
  3.417405e+00    3.347495e+00
  3.449156e+00    3.422801e+00
  3.480907e+00    3.435777e+00
  3.512658e+00    3.414241e+00
  3.544409e+00    3.308879e+00
  3.576160e+00    3.444839e+00
  3.607912e+00    3.377226e+00
  3.639663e+00    3.433994e+00
  3.671414e+00    3.431415e+00
  3.703165e+00    3.349866e+00
  3.734916e+00    3.356194e+00
  3.766667e+00    3.440808e+00
  3.798418e+00    3.479287e+00
  3.830170e+00    3.480255e+00
  3.861921e+00    3.413735e+00
  3.893672e+00    3.400844e+00
  3.925423e+00    3.419062e+00
  3.957174e+00    3.456373e+00
  3.988925e+00    3.428686e+00
  4.020676e+00    3.521540e+00
  4.052428e+00    3.463124e+00
  4.084179e+00    3.473221e+00
  4.115930e+00    3.491415e+00
  4.147681e+00    3.446896e+00
  4.179432e+00    3.570322e+00
  4.211183e+00    3.451221e+00
  4.242935e+00    3.542615e+00
  4.274686e+00    3.544699e+00
  4.306437e+00    3.519466e+00
  4.338188e+00    3.565394e+00
  4.369939e+00    3.489438e+00
  4.401690e+00    3.516078e+00
  4.433441e+00    3.567072e+00
  4.465193e+00    3.571767e+00
  4.496944e+00    3.533967e+00
  4.528695e+00    3.513458e+00
  4.560446e+00    3.562931e+00
  4.592197e+00    3.530482e+00
  4.623948e+00    3.513256e+00
  4.655699e+00    3.582032e+00
  4.687451e+00    3.555568e+00
  4.719202e+00    3.519479e+00
  4.750953e+00    3.618121e+00
  4.782704e+00    3.576665e+00
  4.814455e+00    3.594201e+00
  4.846206e+00    3.571022e+00
  4.877957e+00    3.576688e+00
  4.909709e+00    3.608977e+00
  4.941460e+00    3.542530e+00
  4.973211e+00    3.617583e+00
  5.004962e+00    3.552552e+00
  5.036713e+00    3.538179e+00
  5.068464e+00    3.601595e+00
  5.100216e+00    3.624786e+00
  5.131967e+00    3.576052e+00
  5.163718e+00    3.583586e+00
  5.195469e+00    3.624047e+00
  5.227220e+00    3.614117e+00
  5.258971e+00    3.544050e+00
  5.290722e+00    3.625172e+00
  5.322474e+00    3.551942e+00
  5.354225e+00    3.642738e+00
  5.385976e+00    3.637517e+00
  5.417727e+00    3.692445e+00
  5.449478e+00    3.501920e+00
  5.481229e+00    3.540584e+00
  5.512980e+00    3.620485e+00
  5.544732e+00    3.523228e+00
  5.576483e+00    3.509711e+00
  5.608234e+00    3.457008e+00
  5.639985e+00    3.518920e+00
  5.671736e+00    3.493091e+00
  5.703487e+00    3.571295e+00
  5.735238e+00    3.550212e+00
  5.766990e+00    3.444386e+00
  5.798741e+00    3.513450e+00
  5.830492e+00    3.487602e+00
  5.862243e+00    3.493028e+00
  5.893994e+00    3.457873e+00
  5.925745e+00    3.485851e+00
  5.957497e+00    3.509470e+00
  5.989248e+00    3.437570e+00
  6.020999e+00    3.525356e+00
  6.052750e+00    3.464438e+00
  6.084501e+00    3.451860e+00
  6.116252e+00    3.527474e+00
  6.148003e+00    3.564608e+00
  6.179755e+00    3.571906e+00
  6.211506e+00    3.524855e+00
  6.243257e+00    3.519267e+00
  6.275008e+00    3.569117e+00
  6.306759e+00    3.414389e+00
  6.338510e+00    3.537308e+00
  6.370261e+00    3.477386e+00
  6.402013e+00    3.385597e+00
  6.433764e+00    3.504708e+00
  6.465515e+00    3.478944e+00
  6.497266e+00    3.493639e+00
  6.529017e+00    3.573260e+00
  6.560768e+00    3.514311e+00
  6.592519e+00    3.420736e+00
  6.624271e+00    3.478524e+00
  6.656022e+00    3.476954e+00
  6.687773e+00    3.459166e+00
  6.719524e+00    3.515569e+00
  6.751275e+00    3.544139e+00
  6.783026e+00    3.477950e+00
  6.814777e+00    3.581189e+00
  6.846529e+00    3.498886e+00
  6.878280e+00    3.535603e+00
  6.910031e+00    3.406844e+00
  6.941782e+00    3.487485e+00
  6.973533e+00    3.467287e+00
  7.005284e+00    3.545264e+00
  7.037036e+00    3.435217e+00
  7.068787e+00    3.506358e+00
  7.100538e+00    3.420398e+00
  7.132289e+00    3.460253e+00
  7.164040e+00    3.388767e+00
  7.195791e+00    3.400105e+00
  7.227542e+00    3.434210e+00
  7.259294e+00    3.497279e+00
  7.291045e+00    3.415005e+00
  7.322796e+00    3.418394e+00
  7.354547e+00    3.467881e+00
  7.386298e+00    3.464267e+00
  7.418049e+00    3.428532e+00
  7.449800e+00    3.474957e+00
  7.481552e+00    3.475143e+00
  7.513303e+00    3.320446e+00
  7.545054e+00    3.424644e+00
  7.576805e+00    3.410488e+00
  7.608556e+00    3.461442e+00
  7.640307e+00    3.421479e+00
  7.672058e+00    3.370898e+00
  7.703810e+00    3.371095e+00
  7.735561e+00    3.390610e+00
  7.767312e+00    3.388359e+00
  7.799063e+00    3.404602e+00
  7.830814e+00    3.413568e+00
  7.862565e+00    3.427849e+00
  7.894317e+00    3.369620e+00
  7.926068e+00    3.405450e+00
  7.957819e+00    3.372264e+00
  7.989570e+00    3.378038e+00
  8.021321e+00    3.364778e+00
  8.053072e+00    3.492754e+00
  8.084823e+00    3.360302e+00
  8.116575e+00    3.392939e+00
  8.148326e+00    3.397626e+00
  8.180077e+00    3.322139e+00
  8.211828e+00    3.399354e+00
  8.243579e+00    3.399943e+00
  8.275330e+00    3.381737e+00
  8.307081e+00    3.281291e+00
  8.338833e+00    3.331902e+00
  8.370584e+00    3.314121e+00
  8.402335e+00    3.294215e+00
  8.434086e+00    3.297785e+00
  8.465837e+00    3.372724e+00
  8.497588e+00    3.368137e+00
  8.529339e+00    3.306016e+00
  8.561091e+00    3.341438e+00
  8.592842e+00    3.320921e+00
  8.624593e+00    3.287776e+00
  8.656344e+00    3.265370e+00
  8.688095e+00    3.300855e+00
  8.719846e+00    3.284821e+00
  8.751598e+00    3.321881e+00
  8.783349e+00    3.290912e+00
  8.815100e+00    3.302922e+00
  8.846851e+00    3.248955e+00
  8.878602e+00    3.221458e+00
  8.910353e+00    3.270574e+00
  8.942104e+00    3.223845e+00
  8.973856e+00    3.261720e+00
  9.005607e+00    3.204649e+00
  9.037358e+00    3.272715e+00
  9.069109e+00    3.191053e+00
  9.100860e+00    3.180077e+00
  9.132611e+00    3.159242e+00
  9.164362e+00    3.219043e+00
  9.196114e+00    3.159683e+00
  9.227865e+00    3.254755e+00
  9.259616e+00    3.184238e+00
  9.291367e+00    3.213396e+00
  9.323118e+00    3.164485e+00
  9.354869e+00    3.204582e+00
  9.386620e+00    3.153419e+00
  9.418372e+00    3.188169e+00
  9.450123e+00    3.143443e+00
  9.481874e+00    3.152372e+00
  9.513625e+00    3.120704e+00
  9.545376e+00    3.238232e+00
  9.577127e+00    3.107944e+00
  9.608878e+00    3.155588e+00
  9.640630e+00    3.148274e+00
  9.672381e+00    3.138869e+00
  9.704132e+00    3.112449e+00
  9.735883e+00    3.120389e+00
  9.767634e+00    3.033764e+00
  9.799385e+00    3.068618e+00
  9.831137e+00    3.102117e+00
  9.862888e+00    3.123421e+00
  9.894639e+00    3.063616e+00
  9.926390e+00    3.030774e+00
  9.958141e+00    3.089015e+00
  9.989892e+00    3.005104e+00
  1.002164e+01    3.016287e+00
  1.005339e+01    3.055268e+00
  1.008515e+01    3.024576e+00
  1.011690e+01    3.097987e+00
  1.014865e+01    3.024909e+00
  1.018040e+01    3.015247e+00
  1.021215e+01    3.007578e+00
  1.024390e+01    3.026568e+00
  1.027565e+01    2.977382e+00
  1.030740e+01    3.008689e+00
  1.033915e+01    3.006701e+00
  1.037091e+01    2.988548e+00
  1.040266e+01    2.993285e+00
  1.043441e+01    2.993149e+00
  1.046616e+01    3.021307e+00
  1.049791e+01    2.975109e+00
  1.052966e+01    2.980201e+00
  1.056141e+01    2.978217e+00
  1.059316e+01    2.968483e+00
  1.062492e+01    2.995960e+00
  1.065667e+01    2.879182e+00
  1.068842e+01    2.893569e+00
  1.072017e+01    2.943052e+00
  1.075192e+01    2.974431e+00
  1.078367e+01    2.908904e+00
  1.081542e+01    2.900722e+00
  1.084717e+01    2.886391e+00
  1.087892e+01    2.892067e+00
  1.091068e+01    2.917214e+00
  1.094243e+01    2.836905e+00
  1.097418e+01    2.873921e+00
  1.100593e+01    2.899127e+00
  1.103768e+01    2.836965e+00
  1.106943e+01    2.888000e+00
  1.110118e+01    2.839471e+00
  1.113293e+01    2.855530e+00
  1.116468e+01    2.863296e+00
  1.119644e+01    2.805470e+00
  1.122819e+01    2.816231e+00
  1.125994e+01    2.804042e+00
  1.129169e+01    2.787425e+00
  1.132344e+01    2.794165e+00
  1.135519e+01    2.791296e+00
  1.138694e+01    2.784531e+00
  1.141869e+01    2.769951e+00
  1.145045e+01    2.767389e+00
  1.148220e+01    2.756488e+00
  1.151395e+01    2.766771e+00
  1.154570e+01    2.754265e+00
  1.157745e+01    2.767379e+00
  1.160920e+01    2.764944e+00
  1.164095e+01    2.740609e+00
  1.167270e+01    2.771927e+00
  1.170445e+01    2.688992e+00
  1.173621e+01    2.662341e+00
  1.176796e+01    2.737222e+00
  1.179971e+01    2.713993e+00
  1.183146e+01    2.698105e+00
  1.186321e+01    2.669202e+00
  1.189496e+01    2.696433e+00
  1.192671e+01    2.721703e+00
  1.195846e+01    2.667538e+00
  1.199021e+01    2.705963e+00
  1.202197e+01    2.626624e+00
  1.205372e+01    2.642573e+00
  1.208547e+01    2.689344e+00
  1.211722e+01    2.693322e+00
  1.214897e+01    2.648542e+00
  1.218072e+01    2.689360e+00
  1.221247e+01    2.673228e+00
  1.224422e+01    2.627937e+00
  1.227597e+01    2.705176e+00
  1.230773e+01    2.639544e+00
  1.233948e+01    2.648875e+00
  1.237123e+01    2.655931e+00
  1.240298e+01    2.639534e+00
  1.243473e+01    2.584028e+00
  1.246648e+01    2.666209e+00
  1.249823e+01    2.639449e+00
  1.252998e+01    2.696398e+00
  1.256174e+01    2.694678e+00
  1.259349e+01    2.697745e+00
  1.262524e+01    2.681633e+00
  1.265699e+01    2.646173e+00
  1.268874e+01    2.732762e+00
  1.272049e+01    2.765035e+00
  1.275224e+01    2.884853e+00
  1.278399e+01    2.925438e+00
  1.281574e+01    3.035748e+00
  1.284750e+01    3.187912e+00
  1.287925e+01    3.392065e+00
  1.291100e+01    3.639776e+00
  1.294275e+01    4.024746e+00
  1.297450e+01    4.770034e+00
  1.300625e+01    5.812699e+00
  1.303800e+01    7.656120e+00
  1.306975e+01    9.999321e+00
  1.310150e+01    1.253934e+01
  1.313326e+01    1.454854e+01
  1.316501e+01    1.598000e+01
  1.319676e+01    1.542311e+01
  1.322851e+01    1.224142e+01
  1.326026e+01    8.907679e+00
  1.329201e+01    6.673361e+00
  1.332376e+01    5.247534e+00
  1.335551e+01    4.348470e+00
  1.338727e+01    3.821780e+00
  1.341902e+01    3.405009e+00
  1.345077e+01    3.182943e+00
  1.348252e+01    3.004786e+00
  1.351427e+01    2.914118e+00
  1.354602e+01    2.746825e+00
  1.357777e+01    2.701564e+00
  1.360952e+01    2.625623e+00
  1.364127e+01    2.569409e+00
  1.367303e+01    2.573900e+00
  1.370478e+01    2.539193e+00
  1.373653e+01    2.448534e+00
  1.376828e+01    2.465524e+00
  1.380003e+01    2.439471e+00
  1.383178e+01    2.387161e+00
  1.386353e+01    2.381524e+00
  1.389528e+01    2.355283e+00
  1.392703e+01    2.368204e+00
  1.395879e+01    2.360385e+00
  1.399054e+01    2.309363e+00
  1.402229e+01    2.324051e+00
  1.405404e+01    2.325614e+00
  1.408579e+01    2.280943e+00
  1.411754e+01    2.336863e+00
  1.414929e+01    2.259610e+00
  1.418104e+01    2.280311e+00
  1.421279e+01    2.274252e+00
  1.424455e+01    2.283357e+00
  1.427630e+01    2.213448e+00
  1.430805e+01    2.234920e+00
  1.433980e+01    2.165419e+00
  1.437155e+01    2.246639e+00
  1.440330e+01    2.219520e+00
  1.443505e+01    2.196802e+00
  1.446680e+01    2.192873e+00
  1.449856e+01    2.177208e+00
  1.453031e+01    2.149994e+00
  1.456206e+01    2.161501e+00
  1.459381e+01    2.216156e+00
  1.462556e+01    2.199386e+00
  1.465731e+01    2.176223e+00
  1.468906e+01    2.144994e+00
  1.472081e+01    2.142623e+00
  1.475256e+01    2.177561e+00
  1.478432e+01    2.157739e+00
  1.481607e+01    2.169402e+00
  1.484782e+01    2.166888e+00
  1.487957e+01    2.162054e+00
  1.491132e+01    2.204433e+00
  1.494307e+01    2.242526e+00
  1.497482e+01    2.289232e+00
  1.500657e+01    2.400025e+00
  1.503832e+01    2.520500e+00
  1.507008e+01    2.788530e+00
  1.510183e+01    3.090242e+00
  1.513358e+01    3.769989e+00
  1.516533e+01    4.470057e+00
  1.519708e+01    5.104941e+00
  1.522883e+01    5.545432e+00
  1.526058e+01    5.676812e+00
  1.529233e+01    5.310563e+00
  1.532409e+01    4.584137e+00
  1.535584e+01    3.711201e+00
  1.538759e+01    3.132473e+00
  1.541934e+01    2.730633e+00
  1.545109e+01    2.447079e+00
  1.548284e+01    2.306079e+00
  1.551459e+01    2.184141e+00
  1.554634e+01    2.140411e+00
  1.557809e+01    2.122660e+00
  1.560985e+01    2.046308e+00
  1.564160e+01    2.012613e+00
  1.567335e+01    2.015794e+00
  1.570510e+01    1.963515e+00
  1.573685e+01    1.957696e+00
  1.576860e+01    1.946466e+00
  1.580035e+01    1.912085e+00
  1.583210e+01    1.915633e+00
  1.586385e+01    1.883633e+00
  1.589561e+01    1.896156e+00
  1.592736e+01    1.844086e+00
  1.595911e+01    1.857278e+00
  1.599086e+01    1.872399e+00
  1.602261e+01    1.840568e+00
  1.605436e+01    1.873130e+00
  1.608611e+01    1.784354e+00
  1.611786e+01    1.804193e+00
  1.614961e+01    1.804720e+00
  1.618137e+01    1.794192e+00
  1.621312e+01    1.841084e+00
  1.624487e+01    1.769190e+00
  1.627662e+01    1.764839e+00
  1.630837e+01    1.767658e+00
  1.634012e+01    1.781572e+00
  1.637187e+01    1.782619e+00
  1.640362e+01    1.729131e+00
  1.643538e+01    1.725000e+00
  1.646713e+01    1.763622e+00
  1.649888e+01    1.751820e+00
  1.653063e+01    1.721530e+00
  1.656238e+01    1.736729e+00
  1.659413e+01    1.672850e+00
  1.662588e+01    1.694714e+00
  1.665763e+01    1.700756e+00
  1.668938e+01    1.668307e+00
  1.672114e+01    1.687539e+00
  1.675289e+01    1.707724e+00
  1.678464e+01    1.673700e+00
  1.681639e+01    1.701093e+00
  1.684814e+01    1.689521e+00
  1.687989e+01    1.645269e+00
  1.691164e+01    1.649181e+00
  1.694339e+01    1.686390e+00
  1.697514e+01    1.619782e+00
  1.700690e+01    1.622611e+00
  1.703865e+01    1.685081e+00
  1.707040e+01    1.633938e+00
  1.710215e+01    1.610782e+00
  1.713390e+01    1.620239e+00
  1.716565e+01    1.625985e+00
  1.719740e+01    1.640606e+00
  1.722915e+01    1.633713e+00
  1.726091e+01    1.570196e+00
  1.729266e+01    1.574779e+00
  1.732441e+01    1.596997e+00
  1.735616e+01    1.548811e+00
  1.738791e+01    1.592273e+00
  1.741966e+01    1.574232e+00
  1.745141e+01    1.566907e+00
  1.748316e+01    1.557348e+00
  1.751491e+01    1.553944e+00
  1.754667e+01    1.557071e+00
  1.757842e+01    1.550474e+00
  1.761017e+01    1.550649e+00
  1.764192e+01    1.531228e+00
  1.767367e+01    1.539160e+00
  1.770542e+01    1.488120e+00
  1.773717e+01    1.532850e+00
  1.776892e+01    1.517628e+00
  1.780067e+01    1.531374e+00
  1.783243e+01    1.507946e+00
  1.786418e+01    1.505857e+00
  1.789593e+01    1.489581e+00
  1.792768e+01    1.503077e+00
  1.795943e+01    1.499037e+00
  1.799118e+01    1.481297e+00
  1.802293e+01    1.469692e+00
  1.805468e+01    1.456256e+00
  1.808643e+01    1.468130e+00
  1.811819e+01    1.444992e+00
  1.814994e+01    1.461586e+00
  1.818169e+01    1.445983e+00
  1.821344e+01    1.460907e+00
  1.824519e+01    1.478895e+00
  1.827694e+01    1.460018e+00
  1.830869e+01    1.455244e+00
  1.834044e+01    1.450886e+00
  1.837220e+01    1.445255e+00
  1.840395e+01    1.418988e+00
  1.843570e+01    1.426435e+00
  1.846745e+01    1.432221e+00
  1.849920e+01    1.404989e+00
  1.853095e+01    1.436660e+00
  1.856270e+01    1.384730e+00
  1.859445e+01    1.444968e+00
  1.862620e+01    1.420589e+00
  1.865796e+01    1.424948e+00
  1.868971e+01    1.396453e+00
  1.872146e+01    1.376451e+00
  1.875321e+01    1.398817e+00
  1.878496e+01    1.379059e+00
  1.881671e+01    1.375450e+00
  1.884846e+01    1.351132e+00
  1.888021e+01    1.368953e+00
  1.891196e+01    1.393555e+00
  1.894372e+01    1.400259e+00
  1.897547e+01    1.343530e+00
  1.900722e+01    1.339969e+00
  1.903897e+01    1.406501e+00
  1.907072e+01    1.303533e+00
  1.910247e+01    1.334560e+00
  1.913422e+01    1.335973e+00
  1.916597e+01    1.364027e+00
  1.919773e+01    1.348660e+00
  1.922948e+01    1.362298e+00
  1.926123e+01    1.335348e+00
  1.929298e+01    1.341600e+00
  1.932473e+01    1.315831e+00
  1.935648e+01    1.329953e+00
  1.938823e+01    1.317643e+00
  1.941998e+01    1.338780e+00
  1.945173e+01    1.306287e+00
  1.948349e+01    1.305935e+00
  1.951524e+01    1.301262e+00
  1.954699e+01    1.306197e+00
  1.957874e+01    1.325366e+00
  1.961049e+01    1.318896e+00
  1.964224e+01    1.279834e+00
  1.967399e+01    1.309781e+00
  1.970574e+01    1.281103e+00
  1.973749e+01    1.321794e+00
  1.976925e+01    1.289210e+00
  1.980100e+01    1.284104e+00
  1.983275e+01    1.287886e+00
  1.986450e+01    1.269078e+00
  1.989625e+01    1.272779e+00
  1.992800e+01    1.276515e+00
  1.995975e+01    1.294464e+00
  1.999150e+01    1.238585e+00
  2.002325e+01    1.291011e+00
  2.005501e+01    1.264283e+00
  2.008676e+01    1.225577e+00
  2.011851e+01    1.227916e+00
  2.015026e+01    1.254585e+00
  2.018201e+01    1.231206e+00
  2.021376e+01    1.257004e+00
  2.024551e+01    1.223679e+00
  2.027726e+01    1.249286e+00
  2.030902e+01    1.239134e+00
  2.034077e+01    1.237833e+00
  2.037252e+01    1.210550e+00
  2.040427e+01    1.229312e+00
  2.043602e+01    1.226503e+00
  2.046777e+01    1.213768e+00
  2.049952e+01    1.235336e+00
  2.053127e+01    1.201934e+00
  2.056302e+01    1.225720e+00
  2.059478e+01    1.236924e+00
  2.062653e+01    1.174951e+00
  2.065828e+01    1.208714e+00
  2.069003e+01    1.211288e+00
  2.072178e+01    1.184478e+00
  2.075353e+01    1.197341e+00
  2.078528e+01    1.218723e+00
  2.081703e+01    1.188802e+00
  2.084878e+01    1.226460e+00
  2.088054e+01    1.205344e+00
  2.091229e+01    1.217311e+00
  2.094404e+01    1.213382e+00
  2.097579e+01    1.231481e+00
  2.100754e+01    1.198111e+00
  2.103929e+01    1.195020e+00
  2.107104e+01    1.237255e+00
  2.110279e+01    1.202248e+00
  2.113455e+01    1.226050e+00
  2.116630e+01    1.223378e+00
  2.119805e+01    1.238887e+00
  2.122980e+01    1.220166e+00
  2.126155e+01    1.217104e+00
  2.129330e+01    1.227681e+00
  2.132505e+01    1.246796e+00
  2.135680e+01    1.285534e+00
  2.138855e+01    1.250876e+00
  2.142031e+01    1.296296e+00
  2.145206e+01    1.297506e+00
  2.148381e+01    1.379686e+00
  2.151556e+01    1.431483e+00
  2.154731e+01    1.482907e+00
  2.157906e+01    1.583608e+00
  2.161081e+01    1.727693e+00
  2.164256e+01    1.956474e+00
  2.167431e+01    2.269031e+00
  2.170607e+01    2.757637e+00
  2.173782e+01    3.502888e+00
  2.176957e+01    4.521238e+00
  2.180132e+01    5.739804e+00
  2.183307e+01    7.044225e+00
  2.186482e+01    8.267245e+00
  2.189657e+01    8.731141e+00
  2.192832e+01    8.157801e+00
  2.196007e+01    6.459644e+00
  2.199183e+01    4.775555e+00
  2.202358e+01    3.579093e+00
  2.205533e+01    2.791287e+00
  2.208708e+01    2.315195e+00
  2.211883e+01    1.956120e+00
  2.215058e+01    1.730656e+00
  2.218233e+01    1.580437e+00
  2.221408e+01    1.480374e+00
  2.224584e+01    1.374457e+00
  2.227759e+01    1.310707e+00
  2.230934e+01    1.268596e+00
  2.234109e+01    1.249301e+00
  2.237284e+01    1.179572e+00
  2.240459e+01    1.187384e+00
  2.243634e+01    1.165140e+00
  2.246809e+01    1.121307e+00
  2.249984e+01    1.085631e+00
  2.253160e+01    1.101812e+00
  2.256335e+01    1.127546e+00
  2.259510e+01    1.112184e+00
  2.262685e+01    1.084875e+00
  2.265860e+01    1.059824e+00
  2.269035e+01    1.068423e+00
  2.272210e+01    1.072438e+00
  2.275385e+01    1.055613e+00
  2.278560e+01    1.049564e+00
  2.281736e+01    1.038548e+00
  2.284911e+01    1.046197e+00
  2.288086e+01    1.034094e+00
  2.291261e+01    1.022366e+00
  2.294436e+01    9.922488e-01
  2.297611e+01    1.023890e+00
  2.300786e+01    1.025069e+00
  2.303961e+01    1.000212e+00
  2.307137e+01    9.869283e-01
  2.310312e+01    9.810970e-01
  2.313487e+01    1.000647e+00
  2.316662e+01    9.885499e-01
  2.319837e+01    9.723808e-01
  2.323012e+01    9.710200e-01
  2.326187e+01    9.523249e-01
  2.329362e+01    9.307962e-01
  2.332537e+01    9.571551e-01
  2.335713e+01    9.498207e-01
  2.338888e+01    9.728266e-01
  2.342063e+01    9.830710e-01
  2.345238e+01    9.591490e-01
  2.348413e+01    9.375116e-01
  2.351588e+01    9.616388e-01
  2.354763e+01    9.469001e-01
  2.357938e+01    9.328737e-01
  2.361113e+01    9.709839e-01
  2.364289e+01    9.392548e-01
  2.367464e+01    9.360337e-01
  2.370639e+01    9.264418e-01
  2.373814e+01    9.124419e-01
  2.376989e+01    9.159129e-01
  2.380164e+01    8.897089e-01
  2.383339e+01    8.776967e-01
  2.386514e+01    9.030431e-01
  2.389689e+01    8.886184e-01
  2.392865e+01    8.767433e-01
  2.396040e+01    8.872368e-01
  2.399215e+01    8.969656e-01
  2.402390e+01    8.732196e-01
  2.405565e+01    8.866186e-01
  2.408740e+01    8.718866e-01
  2.411915e+01    8.856474e-01
  2.415090e+01    8.812101e-01
  2.418266e+01    8.520885e-01
  2.421441e+01    8.647872e-01
  2.424616e+01    8.733923e-01
  2.427791e+01    8.963578e-01
  2.430966e+01    8.903014e-01
  2.434141e+01    8.718645e-01
  2.437316e+01    8.748471e-01
  2.440491e+01    8.658572e-01
  2.443666e+01    8.935107e-01
  2.446842e+01    8.784692e-01
  2.450017e+01    8.786470e-01
  2.453192e+01    8.624701e-01
  2.456367e+01    8.697398e-01
  2.459542e+01    8.741845e-01
  2.462717e+01    8.447064e-01
  2.465892e+01    8.739399e-01
  2.469067e+01    8.788794e-01
  2.472242e+01    8.737858e-01
  2.475418e+01    8.651801e-01
  2.478593e+01    8.648448e-01
  2.481768e+01    8.695811e-01
  2.484943e+01    8.708398e-01
  2.488118e+01    8.752822e-01
  2.491293e+01    8.510857e-01
  2.494468e+01    8.808283e-01
  2.497643e+01    8.837209e-01
  2.500819e+01    8.800970e-01
  2.503994e+01    8.844783e-01
  2.507169e+01    8.691140e-01
  2.510344e+01    8.916606e-01
  2.513519e+01    8.953075e-01
  2.516694e+01    8.921585e-01
  2.519869e+01    9.098414e-01
  2.523044e+01    9.350905e-01
  2.526219e+01    9.179316e-01
  2.529395e+01    9.588900e-01
  2.532570e+01    9.494210e-01
  2.535745e+01    9.557650e-01
  2.538920e+01    9.671611e-01
  2.542095e+01    9.826681e-01
  2.545270e+01    9.944824e-01
  2.548445e+01    1.022469e+00
  2.551620e+01    1.062323e+00
  2.554795e+01    1.105606e+00
  2.557971e+01    1.141128e+00
  2.561146e+01    1.212653e+00
  2.564321e+01    1.274498e+00
  2.567496e+01    1.376975e+00
  2.570671e+01    1.542177e+00
  2.573846e+01    1.836277e+00
  2.577021e+01    2.209729e+00
  2.580196e+01    2.760492e+00
  2.583371e+01    3.587128e+00
  2.586547e+01    4.605382e+00
  2.589722e+01    5.721835e+00
  2.592897e+01    6.657889e+00
  2.596072e+01    7.045362e+00
  2.599247e+01    6.435482e+00
  2.602422e+01    5.167011e+00
  2.605597e+01    3.840091e+00
  2.608772e+01    2.918225e+00
  2.611948e+01    2.337766e+00
  2.615123e+01    1.906705e+00
  2.618298e+01    1.614624e+00
  2.621473e+01    1.459450e+00
  2.624648e+01    1.316310e+00
  2.627823e+01    1.211199e+00
  2.630998e+01    1.168177e+00
  2.634173e+01    1.108599e+00
  2.637348e+01    1.091664e+00
  2.640524e+01    1.034518e+00
  2.643699e+01    1.045997e+00
  2.646874e+01    1.002744e+00
  2.650049e+01    9.727002e-01
  2.653224e+01    9.922780e-01
  2.656399e+01    9.722364e-01
  2.659574e+01    9.801227e-01
  2.662749e+01    9.614739e-01
  2.665924e+01    9.731436e-01
  2.669100e+01    9.481639e-01
  2.672275e+01    9.635945e-01
  2.675450e+01    9.501432e-01
  2.678625e+01    9.642342e-01
  2.681800e+01    9.461137e-01
  2.684975e+01    9.339738e-01
  2.688150e+01    9.792929e-01
  2.691325e+01    9.949989e-01
  2.694501e+01    1.024918e+00
  2.697676e+01    1.034184e+00
  2.700851e+01    1.105309e+00
  2.704026e+01    1.161910e+00
  2.707201e+01    1.319770e+00
  2.710376e+01    1.455933e+00
  2.713551e+01    1.696195e+00
  2.716726e+01    1.958652e+00
  2.719901e+01    2.100350e+00
  2.723077e+01    2.112776e+00
  2.726252e+01    1.941036e+00
  2.729427e+01    1.661919e+00
  2.732602e+01    1.418450e+00
  2.735777e+01    1.251320e+00
  2.738952e+01    1.160248e+00
  2.742127e+01    1.096124e+00
  2.745302e+01    1.020315e+00
  2.748477e+01    9.977049e-01
  2.751653e+01    9.905116e-01
  2.754828e+01    9.439119e-01
  2.758003e+01    9.120990e-01
  2.761178e+01    8.892778e-01
  2.764353e+01    9.090989e-01
  2.767528e+01    8.782394e-01
  2.770703e+01    9.019216e-01
  2.773878e+01    8.995801e-01
  2.777054e+01    8.734852e-01
  2.780229e+01    9.007177e-01
  2.783404e+01    8.599238e-01
  2.786579e+01    8.932857e-01
  2.789754e+01    8.797444e-01
  2.792929e+01    8.788109e-01
  2.796104e+01    8.571724e-01
  2.799279e+01    8.720227e-01
  2.802454e+01    8.576642e-01
  2.805630e+01    8.470895e-01
  2.808805e+01    8.430887e-01
  2.811980e+01    8.741462e-01
  2.815155e+01    8.250911e-01
  2.818330e+01    8.239054e-01
  2.821505e+01    8.257366e-01
  2.824680e+01    8.299973e-01
  2.827855e+01    8.428966e-01
  2.831030e+01    8.391010e-01
  2.834206e+01    8.236762e-01
  2.837381e+01    8.229614e-01
  2.840556e+01    8.258023e-01
  2.843731e+01    8.130431e-01
  2.846906e+01    8.086388e-01
  2.850081e+01    8.366085e-01
  2.853256e+01    8.395913e-01
  2.856431e+01    8.170314e-01
  2.859606e+01    8.149983e-01
  2.862782e+01    8.104022e-01
  2.865957e+01    8.202871e-01
  2.869132e+01    8.248213e-01
  2.872307e+01    8.088713e-01
  2.875482e+01    8.131695e-01
  2.878657e+01    8.052320e-01
  2.881832e+01    8.340626e-01
  2.885007e+01    8.096902e-01
  2.888183e+01    8.257827e-01
  2.891358e+01    7.938498e-01
  2.894533e+01    7.971321e-01
  2.897708e+01    8.123070e-01
  2.900883e+01    8.147979e-01
  2.904058e+01    8.113945e-01
  2.907233e+01    8.147271e-01
  2.910408e+01    8.155141e-01
  2.913583e+01    8.015370e-01
  2.916759e+01    7.846268e-01
  2.919934e+01    8.114816e-01
  2.923109e+01    8.103767e-01
  2.926284e+01    7.902743e-01
  2.929459e+01    8.101323e-01
  2.932634e+01    8.031178e-01
  2.935809e+01    7.875298e-01
  2.938984e+01    7.928972e-01
  2.942159e+01    7.941385e-01
  2.945335e+01    7.851947e-01
  2.948510e+01    8.094956e-01
  2.951685e+01    8.021179e-01
  2.954860e+01    7.886497e-01
  2.958035e+01    7.736688e-01
  2.961210e+01    8.213589e-01
  2.964385e+01    8.163249e-01
  2.967560e+01    7.735024e-01
  2.970736e+01    7.759662e-01
  2.973911e+01    7.575187e-01
  2.977086e+01    7.804780e-01
  2.980261e+01    7.582244e-01
  2.983436e+01    7.924914e-01
  2.986611e+01    8.132084e-01
  2.989786e+01    7.731961e-01
  2.992961e+01    7.960067e-01
  2.996136e+01    7.734005e-01
  2.999312e+01    7.704633e-01
  3.002487e+01    8.064665e-01
  3.005662e+01    7.937891e-01
  3.008837e+01    8.108092e-01
  3.012012e+01    7.867225e-01
  3.015187e+01    7.755401e-01
  3.018362e+01    7.842258e-01
  3.021537e+01    7.823040e-01
  3.024712e+01    7.683762e-01
  3.027888e+01    7.521275e-01
  3.031063e+01    7.874641e-01
  3.034238e+01    7.719753e-01
  3.037413e+01    7.693352e-01
  3.040588e+01    7.761250e-01
  3.043763e+01    7.658584e-01
  3.046938e+01    7.798910e-01
  3.050113e+01    7.806756e-01
  3.053288e+01    7.679851e-01
  3.056464e+01    7.917116e-01
  3.059639e+01    7.772713e-01
  3.062814e+01    7.928464e-01
  3.065989e+01    7.725559e-01
  3.069164e+01    7.717559e-01
  3.072339e+01    7.851001e-01
  3.075514e+01    7.717293e-01
  3.078689e+01    7.777435e-01
  3.081865e+01    7.595391e-01
  3.085040e+01    7.577564e-01
  3.088215e+01    7.817560e-01
  3.091390e+01    7.835742e-01
  3.094565e+01    7.972065e-01
  3.097740e+01    7.612677e-01
  3.100915e+01    7.671234e-01
  3.104090e+01    7.824444e-01
  3.107265e+01    7.596107e-01
  3.110441e+01    7.634870e-01
  3.113616e+01    7.979395e-01
  3.116791e+01    7.729554e-01
  3.119966e+01    7.789627e-01
  3.123141e+01    7.770975e-01
  3.126316e+01    7.748658e-01
  3.129491e+01    7.899623e-01
  3.132666e+01    7.749110e-01
  3.135841e+01    7.965242e-01
  3.139017e+01    7.920724e-01
  3.142192e+01    7.975417e-01
  3.145367e+01    7.949370e-01
  3.148542e+01    8.205686e-01
  3.151717e+01    8.120289e-01
  3.154892e+01    8.103123e-01
  3.158067e+01    8.591318e-01
  3.161242e+01    8.628424e-01
  3.164418e+01    8.857535e-01
  3.167593e+01    9.499493e-01
  3.170768e+01    1.008629e+00
  3.173943e+01    1.099435e+00
  3.177118e+01    1.243642e+00
  3.180293e+01    1.411814e+00
  3.183468e+01    1.708794e+00
  3.186643e+01    1.936850e+00
  3.189818e+01    2.036625e+00
  3.192994e+01    1.987302e+00
  3.196169e+01    1.806660e+00
  3.199344e+01    1.523254e+00
  3.202519e+01    1.305957e+00
  3.205694e+01    1.132505e+00
  3.208869e+01    1.036547e+00
  3.212044e+01    9.556510e-01
  3.215219e+01    9.160454e-01
  3.218394e+01    8.657556e-01
  3.221570e+01    8.368962e-01
  3.224745e+01    8.068140e-01
  3.227920e+01    7.790340e-01
  3.231095e+01    8.068049e-01
  3.234270e+01    7.597333e-01
  3.237445e+01    7.907479e-01
  3.240620e+01    7.627230e-01
  3.243795e+01    7.795280e-01
  3.246970e+01    7.758452e-01
  3.250146e+01    7.395629e-01
  3.253321e+01    7.708759e-01
  3.254908e+01    7.631558e-01