File: XRD/Reaction conditions/2024-07-27_003_Ru-CGO-ex_Reaction_dwell_000023_data_000044.dat
# == pyFAI calibration ==
# Distance Sample to Detector: 0.4 m
# PONI: 9.750e-02, 1.135e-01 m
# Rotations: -0.000175 0.000000 -0.000000 rad
#
# == Fit2d calibration ==
# Distance Sample-beamCenter: 400.000 mm
# Center: x=1514.000, y=1300.000 pix
# Tilt: 0.010 deg  TiltPlanRot: 0.010 deg
#
# Detector Detector	 Spline= None	 PixelSize= 7.500e-05, 7.500e-05 m
#    Detector has a mask: False
#    Detector has a dark current: False
#    detector has a flat field: False
#
# Wavelength: 6.888e-11 m
# Mask applied: user provided
# Dark current applied: False
# Flat field applied: False
# Polarization factor: 0.99
# Normalization factor: 1.0
# --> /home/myspot/data/2024_07_Rosario/Ru-CGO-ex/2024-07-27_003_Ru-CGO-ex_Reaction_dwell_000023_data_000044.dat
#       q_nm^-1             I
  2.003187e-02    4.454093e-02
  5.178302e-02    3.284388e-01
  8.353417e-02    1.886470e-01
  1.152853e-01    4.401365e-02
  1.470365e-01    8.488648e-02
  1.787876e-01    8.255994e-03
  2.105388e-01    2.741816e-02
  2.422899e-01    4.344592e-02
  2.740411e-01    8.933361e-03
  3.057922e-01    1.389998e-02
  3.375433e-01    6.434189e-02
  3.692945e-01    2.900840e-02
  4.010456e-01    6.376288e-02
  4.327968e-01    2.370135e-02
  4.645479e-01    3.495631e-02
  4.962991e-01    6.599780e-02
  5.280502e-01    4.390883e-02
  5.598014e-01    6.730829e-02
  5.915525e-01    5.142435e-02
  6.233037e-01    4.391665e-02
  6.550548e-01    2.385795e-02
  6.868060e-01    3.585304e-02
  7.185571e-01    5.725262e-02
  7.503083e-01    5.052468e-02
  7.820594e-01    1.345285e-01
  8.138106e-01    1.871783e-01
  8.455617e-01    3.880701e-01
  8.773129e-01    4.945677e-01
  9.090640e-01    6.761392e-01
  9.408152e-01    8.759480e-01
  9.725663e-01    9.872974e-01
  1.004317e+00    1.174069e+00
  1.036069e+00    1.472811e+00
  1.067820e+00    1.516283e+00
  1.099571e+00    1.518385e+00
  1.131322e+00    1.588415e+00
  1.163073e+00    1.676088e+00
  1.194824e+00    1.772663e+00
  1.226575e+00    2.237655e+00
  1.258327e+00    2.432762e+00
  1.290078e+00    2.589307e+00
  1.321829e+00    2.676418e+00
  1.353580e+00    2.660959e+00
  1.385331e+00    2.891903e+00
  1.417082e+00    2.785700e+00
  1.448834e+00    2.948008e+00
  1.480585e+00    3.000370e+00
  1.512336e+00    3.208840e+00
  1.544087e+00    3.209660e+00
  1.575838e+00    3.273314e+00
  1.607589e+00    3.205634e+00
  1.639340e+00    3.117500e+00
  1.671092e+00    3.159463e+00
  1.702843e+00    3.099216e+00
  1.734594e+00    3.054859e+00
  1.766345e+00    3.165111e+00
  1.798096e+00    3.066899e+00
  1.829847e+00    3.109455e+00
  1.861598e+00    3.060686e+00
  1.893350e+00    3.106773e+00
  1.925101e+00    2.937655e+00
  1.956852e+00    3.075533e+00
  1.988603e+00    3.079720e+00
  2.020354e+00    3.170361e+00
  2.052105e+00    3.194793e+00
  2.083856e+00    3.255323e+00
  2.115608e+00    3.202800e+00
  2.147359e+00    3.158062e+00
  2.179110e+00    3.140370e+00
  2.210861e+00    3.159465e+00
  2.242612e+00    3.143372e+00
  2.274363e+00    3.151630e+00
  2.306115e+00    3.157457e+00
  2.337866e+00    3.248820e+00
  2.369617e+00    3.186160e+00
  2.401368e+00    3.251093e+00
  2.433119e+00    3.257318e+00
  2.464870e+00    3.202861e+00
  2.496621e+00    3.113094e+00
  2.528373e+00    3.255048e+00
  2.560124e+00    3.196107e+00
  2.591875e+00    3.165822e+00
  2.623626e+00    3.258260e+00
  2.655377e+00    3.163587e+00
  2.687128e+00    3.373008e+00
  2.718879e+00    3.204783e+00
  2.750631e+00    3.356791e+00
  2.782382e+00    3.246054e+00
  2.814133e+00    3.311655e+00
  2.845884e+00    3.356992e+00
  2.877635e+00    3.290736e+00
  2.909386e+00    3.308524e+00
  2.941137e+00    3.323314e+00
  2.972889e+00    3.445492e+00
  3.004640e+00    3.328860e+00
  3.036391e+00    3.382308e+00
  3.068142e+00    3.472558e+00
  3.099893e+00    3.302393e+00
  3.131644e+00    3.387226e+00
  3.163395e+00    3.343901e+00
  3.195147e+00    3.409809e+00
  3.226898e+00    3.461341e+00
  3.258649e+00    3.461039e+00
  3.290400e+00    3.279186e+00
  3.322151e+00    3.401134e+00
  3.353902e+00    3.412730e+00
  3.385654e+00    3.461659e+00
  3.417405e+00    3.490674e+00
  3.449156e+00    3.399112e+00
  3.480907e+00    3.490628e+00
  3.512658e+00    3.506822e+00
  3.544409e+00    3.471168e+00
  3.576160e+00    3.507999e+00
  3.607912e+00    3.515093e+00
  3.639663e+00    3.496689e+00
  3.671414e+00    3.458511e+00
  3.703165e+00    3.409216e+00
  3.734916e+00    3.506273e+00
  3.766667e+00    3.499101e+00
  3.798418e+00    3.510303e+00
  3.830170e+00    3.552326e+00
  3.861921e+00    3.482615e+00
  3.893672e+00    3.527138e+00
  3.925423e+00    3.504223e+00
  3.957174e+00    3.577219e+00
  3.988925e+00    3.530909e+00
  4.020676e+00    3.492436e+00
  4.052428e+00    3.617878e+00
  4.084179e+00    3.575841e+00
  4.115930e+00    3.614570e+00
  4.147681e+00    3.597923e+00
  4.179432e+00    3.554015e+00
  4.211183e+00    3.455263e+00
  4.242935e+00    3.626362e+00
  4.274686e+00    3.571757e+00
  4.306437e+00    3.553447e+00
  4.338188e+00    3.544761e+00
  4.369939e+00    3.596568e+00
  4.401690e+00    3.671538e+00
  4.433441e+00    3.595561e+00
  4.465193e+00    3.665647e+00
  4.496944e+00    3.617850e+00
  4.528695e+00    3.691665e+00
  4.560446e+00    3.663736e+00
  4.592197e+00    3.631188e+00
  4.623948e+00    3.576900e+00
  4.655699e+00    3.583913e+00
  4.687451e+00    3.581086e+00
  4.719202e+00    3.672005e+00
  4.750953e+00    3.595640e+00
  4.782704e+00    3.582798e+00
  4.814455e+00    3.717229e+00
  4.846206e+00    3.663708e+00
  4.877957e+00    3.682121e+00
  4.909709e+00    3.645191e+00
  4.941460e+00    3.626406e+00
  4.973211e+00    3.675003e+00
  5.004962e+00    3.708584e+00
  5.036713e+00    3.636655e+00
  5.068464e+00    3.706414e+00
  5.100216e+00    3.632957e+00
  5.131967e+00    3.657240e+00
  5.163718e+00    3.591352e+00
  5.195469e+00    3.707566e+00
  5.227220e+00    3.662468e+00
  5.258971e+00    3.640187e+00
  5.290722e+00    3.665294e+00
  5.322474e+00    3.631117e+00
  5.354225e+00    3.603023e+00
  5.385976e+00    3.695667e+00
  5.417727e+00    3.612790e+00
  5.449478e+00    3.741741e+00
  5.481229e+00    3.628014e+00
  5.512980e+00    3.652473e+00
  5.544732e+00    3.605367e+00
  5.576483e+00    3.544234e+00
  5.608234e+00    3.701959e+00
  5.639985e+00    3.561848e+00
  5.671736e+00    3.577653e+00
  5.703487e+00    3.573805e+00
  5.735238e+00    3.637288e+00
  5.766990e+00    3.496002e+00
  5.798741e+00    3.679141e+00
  5.830492e+00    3.614293e+00
  5.862243e+00    3.574004e+00
  5.893994e+00    3.562676e+00
  5.925745e+00    3.558272e+00
  5.957497e+00    3.633191e+00
  5.989248e+00    3.562066e+00
  6.020999e+00    3.533108e+00
  6.052750e+00    3.604023e+00
  6.084501e+00    3.717425e+00
  6.116252e+00    3.623588e+00
  6.148003e+00    3.609145e+00
  6.179755e+00    3.632415e+00
  6.211506e+00    3.498273e+00
  6.243257e+00    3.595650e+00
  6.275008e+00    3.572135e+00
  6.306759e+00    3.498060e+00
  6.338510e+00    3.626916e+00
  6.370261e+00    3.614227e+00
  6.402013e+00    3.515374e+00
  6.433764e+00    3.617800e+00
  6.465515e+00    3.573299e+00
  6.497266e+00    3.517972e+00
  6.529017e+00    3.602368e+00
  6.560768e+00    3.606699e+00
  6.592519e+00    3.652482e+00
  6.624271e+00    3.524874e+00
  6.656022e+00    3.516785e+00
  6.687773e+00    3.569586e+00
  6.719524e+00    3.519461e+00
  6.751275e+00    3.588422e+00
  6.783026e+00    3.525193e+00
  6.814777e+00    3.577731e+00
  6.846529e+00    3.575527e+00
  6.878280e+00    3.552532e+00
  6.910031e+00    3.513846e+00
  6.941782e+00    3.528521e+00
  6.973533e+00    3.483905e+00
  7.005284e+00    3.577233e+00
  7.037036e+00    3.568278e+00
  7.068787e+00    3.592973e+00
  7.100538e+00    3.507797e+00
  7.132289e+00    3.570023e+00
  7.164040e+00    3.519998e+00
  7.195791e+00    3.553712e+00
  7.227542e+00    3.540340e+00
  7.259294e+00    3.612318e+00
  7.291045e+00    3.505474e+00
  7.322796e+00    3.549741e+00
  7.354547e+00    3.539219e+00
  7.386298e+00    3.472440e+00
  7.418049e+00    3.552420e+00
  7.449800e+00    3.555169e+00
  7.481552e+00    3.514804e+00
  7.513303e+00    3.486752e+00
  7.545054e+00    3.474627e+00
  7.576805e+00    3.495452e+00
  7.608556e+00    3.544853e+00
  7.640307e+00    3.485560e+00
  7.672058e+00    3.430487e+00
  7.703810e+00    3.512075e+00
  7.735561e+00    3.432053e+00
  7.767312e+00    3.431458e+00
  7.799063e+00    3.455580e+00
  7.830814e+00    3.517011e+00
  7.862565e+00    3.467125e+00
  7.894317e+00    3.477864e+00
  7.926068e+00    3.471042e+00
  7.957819e+00    3.410456e+00
  7.989570e+00    3.543751e+00
  8.021321e+00    3.404170e+00
  8.053072e+00    3.461635e+00
  8.084823e+00    3.385091e+00
  8.116575e+00    3.541101e+00
  8.148326e+00    3.517804e+00
  8.180077e+00    3.564795e+00
  8.211828e+00    3.474041e+00
  8.243579e+00    3.409189e+00
  8.275330e+00    3.438650e+00
  8.307081e+00    3.409762e+00
  8.338833e+00    3.474635e+00
  8.370584e+00    3.442896e+00
  8.402335e+00    3.397838e+00
  8.434086e+00    3.411414e+00
  8.465837e+00    3.414645e+00
  8.497588e+00    3.398286e+00
  8.529339e+00    3.378197e+00
  8.561091e+00    3.388042e+00
  8.592842e+00    3.396626e+00
  8.624593e+00    3.317496e+00
  8.656344e+00    3.362863e+00
  8.688095e+00    3.364839e+00
  8.719846e+00    3.446946e+00
  8.751598e+00    3.375046e+00
  8.783349e+00    3.333115e+00
  8.815100e+00    3.363114e+00
  8.846851e+00    3.331590e+00
  8.878602e+00    3.353016e+00
  8.910353e+00    3.338824e+00
  8.942104e+00    3.334461e+00
  8.973856e+00    3.346532e+00
  9.005607e+00    3.325163e+00
  9.037358e+00    3.284495e+00
  9.069109e+00    3.261104e+00
  9.100860e+00    3.213652e+00
  9.132611e+00    3.323704e+00
  9.164362e+00    3.281148e+00
  9.196114e+00    3.272867e+00
  9.227865e+00    3.336053e+00
  9.259616e+00    3.305029e+00
  9.291367e+00    3.232011e+00
  9.323118e+00    3.235478e+00
  9.354869e+00    3.184052e+00
  9.386620e+00    3.244086e+00
  9.418372e+00    3.279505e+00
  9.450123e+00    3.251816e+00
  9.481874e+00    3.194128e+00
  9.513625e+00    3.186316e+00
  9.545376e+00    3.183979e+00
  9.577127e+00    3.211022e+00
  9.608878e+00    3.177224e+00
  9.640630e+00    3.192142e+00
  9.672381e+00    3.177098e+00
  9.704132e+00    3.208632e+00
  9.735883e+00    3.174397e+00
  9.767634e+00    3.202698e+00
  9.799385e+00    3.182802e+00
  9.831137e+00    3.187938e+00
  9.862888e+00    3.177499e+00
  9.894639e+00    3.113281e+00
  9.926390e+00    3.093446e+00
  9.958141e+00    3.077579e+00
  9.989892e+00    3.204459e+00
  1.002164e+01    3.083921e+00
  1.005339e+01    3.093374e+00
  1.008515e+01    3.115602e+00
  1.011690e+01    3.140657e+00
  1.014865e+01    3.150278e+00
  1.018040e+01    3.129490e+00
  1.021215e+01    3.093323e+00
  1.024390e+01    3.046247e+00
  1.027565e+01    3.046016e+00
  1.030740e+01    3.041407e+00
  1.033915e+01    3.021881e+00
  1.037091e+01    3.109520e+00
  1.040266e+01    3.057787e+00
  1.043441e+01    3.048870e+00
  1.046616e+01    3.019776e+00
  1.049791e+01    2.997722e+00
  1.052966e+01    3.059880e+00
  1.056141e+01    3.018933e+00
  1.059316e+01    2.991972e+00
  1.062492e+01    3.021480e+00
  1.065667e+01    2.947208e+00
  1.068842e+01    2.971463e+00
  1.072017e+01    2.960525e+00
  1.075192e+01    3.049124e+00
  1.078367e+01    2.962997e+00
  1.081542e+01    2.923632e+00
  1.084717e+01    2.966718e+00
  1.087892e+01    2.951780e+00
  1.091068e+01    2.940257e+00
  1.094243e+01    2.932863e+00
  1.097418e+01    2.921726e+00
  1.100593e+01    2.920827e+00
  1.103768e+01    2.936500e+00
  1.106943e+01    2.804751e+00
  1.110118e+01    2.885404e+00
  1.113293e+01    2.925631e+00
  1.116468e+01    2.872504e+00
  1.119644e+01    2.879194e+00
  1.122819e+01    2.853267e+00
  1.125994e+01    2.856161e+00
  1.129169e+01    2.910155e+00
  1.132344e+01    2.842602e+00
  1.135519e+01    2.871344e+00
  1.138694e+01    2.853580e+00
  1.141869e+01    2.844702e+00
  1.145045e+01    2.801548e+00
  1.148220e+01    2.778533e+00
  1.151395e+01    2.794118e+00
  1.154570e+01    2.831370e+00
  1.157745e+01    2.768164e+00
  1.160920e+01    2.754727e+00
  1.164095e+01    2.822483e+00
  1.167270e+01    2.816236e+00
  1.170445e+01    2.846587e+00
  1.173621e+01    2.793042e+00
  1.176796e+01    2.786333e+00
  1.179971e+01    2.767517e+00
  1.183146e+01    2.730464e+00
  1.186321e+01    2.760189e+00
  1.189496e+01    2.756721e+00
  1.192671e+01    2.765904e+00
  1.195846e+01    2.729694e+00
  1.199021e+01    2.722519e+00
  1.202197e+01    2.699382e+00
  1.205372e+01    2.711029e+00
  1.208547e+01    2.729541e+00
  1.211722e+01    2.786823e+00
  1.214897e+01    2.693402e+00
  1.218072e+01    2.750432e+00
  1.221247e+01    2.686691e+00
  1.224422e+01    2.691365e+00
  1.227597e+01    2.736208e+00
  1.230773e+01    2.651283e+00
  1.233948e+01    2.654260e+00
  1.237123e+01    2.703553e+00
  1.240298e+01    2.702690e+00
  1.243473e+01    2.705460e+00
  1.246648e+01    2.703291e+00
  1.249823e+01    2.734908e+00
  1.252998e+01    2.749738e+00
  1.256174e+01    2.757240e+00
  1.259349e+01    2.744606e+00
  1.262524e+01    2.743440e+00
  1.265699e+01    2.811018e+00
  1.268874e+01    2.802468e+00
  1.272049e+01    2.853297e+00
  1.275224e+01    2.889889e+00
  1.278399e+01    3.000434e+00
  1.281574e+01    3.039767e+00
  1.284750e+01    3.175886e+00
  1.287925e+01    3.374825e+00
  1.291100e+01    3.653790e+00
  1.294275e+01    4.078255e+00
  1.297450e+01    4.782447e+00
  1.300625e+01    5.825011e+00
  1.303800e+01    7.712849e+00
  1.306975e+01    1.008597e+01
  1.310150e+01    1.272716e+01
  1.313326e+01    1.483799e+01
  1.316501e+01    1.636986e+01
  1.319676e+01    1.560071e+01
  1.322851e+01    1.248211e+01
  1.326026e+01    9.203560e+00
  1.329201e+01    6.801626e+00
  1.332376e+01    5.386898e+00
  1.335551e+01    4.492059e+00
  1.338727e+01    3.914835e+00
  1.341902e+01    3.468282e+00
  1.345077e+01    3.206963e+00
  1.348252e+01    3.044809e+00
  1.351427e+01    2.924861e+00
  1.354602e+01    2.818862e+00
  1.357777e+01    2.734552e+00
  1.360952e+01    2.674389e+00
  1.364127e+01    2.655672e+00
  1.367303e+01    2.589753e+00
  1.370478e+01    2.504734e+00
  1.373653e+01    2.544385e+00
  1.376828e+01    2.529892e+00
  1.380003e+01    2.493046e+00
  1.383178e+01    2.472948e+00
  1.386353e+01    2.435147e+00
  1.389528e+01    2.419658e+00
  1.392703e+01    2.413795e+00
  1.395879e+01    2.356975e+00
  1.399054e+01    2.370857e+00
  1.402229e+01    2.377418e+00
  1.405404e+01    2.347380e+00
  1.408579e+01    2.380811e+00
  1.411754e+01    2.403247e+00
  1.414929e+01    2.334398e+00
  1.418104e+01    2.366853e+00
  1.421279e+01    2.339696e+00
  1.424455e+01    2.327666e+00
  1.427630e+01    2.335508e+00
  1.430805e+01    2.284426e+00
  1.433980e+01    2.267746e+00
  1.437155e+01    2.278847e+00
  1.440330e+01    2.273167e+00
  1.443505e+01    2.256809e+00
  1.446680e+01    2.254899e+00
  1.449856e+01    2.221903e+00
  1.453031e+01    2.243024e+00
  1.456206e+01    2.237737e+00
  1.459381e+01    2.213547e+00
  1.462556e+01    2.228970e+00
  1.465731e+01    2.191069e+00
  1.468906e+01    2.211496e+00
  1.472081e+01    2.222121e+00
  1.475256e+01    2.195727e+00
  1.478432e+01    2.236030e+00
  1.481607e+01    2.201513e+00
  1.484782e+01    2.223140e+00
  1.487957e+01    2.211921e+00
  1.491132e+01    2.283961e+00
  1.494307e+01    2.303469e+00
  1.497482e+01    2.354823e+00
  1.500657e+01    2.407676e+00
  1.503832e+01    2.594803e+00
  1.507008e+01    2.871485e+00
  1.510183e+01    3.227703e+00
  1.513358e+01    3.742666e+00
  1.516533e+01    4.580186e+00
  1.519708e+01    5.180002e+00
  1.522883e+01    5.607855e+00
  1.526058e+01    5.800093e+00
  1.529233e+01    5.511111e+00
  1.532409e+01    4.698769e+00
  1.535584e+01    3.819534e+00
  1.538759e+01    3.145834e+00
  1.541934e+01    2.750767e+00
  1.545109e+01    2.503160e+00
  1.548284e+01    2.357548e+00
  1.551459e+01    2.290450e+00
  1.554634e+01    2.222401e+00
  1.557809e+01    2.098962e+00
  1.560985e+01    2.090838e+00
  1.564160e+01    2.066904e+00
  1.567335e+01    2.029197e+00
  1.570510e+01    2.009189e+00
  1.573685e+01    1.994996e+00
  1.576860e+01    1.978498e+00
  1.580035e+01    1.946486e+00
  1.583210e+01    1.980309e+00
  1.586385e+01    1.915974e+00
  1.589561e+01    1.906978e+00
  1.592736e+01    1.898679e+00
  1.595911e+01    1.878300e+00
  1.599086e+01    1.864917e+00
  1.602261e+01    1.879331e+00
  1.605436e+01    1.917719e+00
  1.608611e+01    1.849099e+00
  1.611786e+01    1.855974e+00
  1.614961e+01    1.857641e+00
  1.618137e+01    1.834685e+00
  1.621312e+01    1.821984e+00
  1.624487e+01    1.795893e+00
  1.627662e+01    1.830878e+00
  1.630837e+01    1.842208e+00
  1.634012e+01    1.810442e+00
  1.637187e+01    1.792411e+00
  1.640362e+01    1.770002e+00
  1.643538e+01    1.779229e+00
  1.646713e+01    1.776998e+00
  1.649888e+01    1.767189e+00
  1.653063e+01    1.763302e+00
  1.656238e+01    1.748005e+00
  1.659413e+01    1.741475e+00
  1.662588e+01    1.745711e+00
  1.665763e+01    1.738177e+00
  1.668938e+01    1.684096e+00
  1.672114e+01    1.727879e+00
  1.675289e+01    1.734992e+00
  1.678464e+01    1.743094e+00
  1.681639e+01    1.690158e+00
  1.684814e+01    1.701416e+00
  1.687989e+01    1.695891e+00
  1.691164e+01    1.722643e+00
  1.694339e+01    1.679083e+00
  1.697514e+01    1.674440e+00
  1.700690e+01    1.659223e+00
  1.703865e+01    1.677537e+00
  1.707040e+01    1.658208e+00
  1.710215e+01    1.697069e+00
  1.713390e+01    1.659979e+00
  1.716565e+01    1.674294e+00
  1.719740e+01    1.619608e+00
  1.722915e+01    1.630551e+00
  1.726091e+01    1.637529e+00
  1.729266e+01    1.618909e+00
  1.732441e+01    1.620600e+00
  1.735616e+01    1.607781e+00
  1.738791e+01    1.615792e+00
  1.741966e+01    1.584970e+00
  1.745141e+01    1.593318e+00
  1.748316e+01    1.576225e+00
  1.751491e+01    1.595967e+00
  1.754667e+01    1.605858e+00
  1.757842e+01    1.602263e+00
  1.761017e+01    1.589729e+00
  1.764192e+01    1.575991e+00
  1.767367e+01    1.581382e+00
  1.770542e+01    1.552638e+00
  1.773717e+01    1.568862e+00
  1.776892e+01    1.536820e+00
  1.780067e+01    1.542094e+00
  1.783243e+01    1.516391e+00
  1.786418e+01    1.527985e+00
  1.789593e+01    1.583104e+00
  1.792768e+01    1.552254e+00
  1.795943e+01    1.531397e+00
  1.799118e+01    1.480771e+00
  1.802293e+01    1.512575e+00
  1.805468e+01    1.485813e+00
  1.808643e+01    1.494079e+00
  1.811819e+01    1.510966e+00
  1.814994e+01    1.506861e+00
  1.818169e+01    1.532493e+00
  1.821344e+01    1.500895e+00
  1.824519e+01    1.491323e+00
  1.827694e+01    1.499550e+00
  1.830869e+01    1.473864e+00
  1.834044e+01    1.483891e+00
  1.837220e+01    1.479807e+00
  1.840395e+01    1.483299e+00
  1.843570e+01    1.414314e+00
  1.846745e+01    1.452870e+00
  1.849920e+01    1.455972e+00
  1.853095e+01    1.418327e+00
  1.856270e+01    1.456444e+00
  1.859445e+01    1.436630e+00
  1.862620e+01    1.439829e+00
  1.865796e+01    1.446816e+00
  1.868971e+01    1.443006e+00
  1.872146e+01    1.427728e+00
  1.875321e+01    1.434283e+00
  1.878496e+01    1.438318e+00
  1.881671e+01    1.432041e+00
  1.884846e+01    1.447109e+00
  1.888021e+01    1.397531e+00
  1.891196e+01    1.402194e+00
  1.894372e+01    1.375845e+00
  1.897547e+01    1.381696e+00
  1.900722e+01    1.390267e+00
  1.903897e+01    1.402447e+00
  1.907072e+01    1.389127e+00
  1.910247e+01    1.370397e+00
  1.913422e+01    1.348886e+00
  1.916597e+01    1.378831e+00
  1.919773e+01    1.355043e+00
  1.922948e+01    1.383883e+00
  1.926123e+01    1.360681e+00
  1.929298e+01    1.373889e+00
  1.932473e+01    1.325637e+00
  1.935648e+01    1.332441e+00
  1.938823e+01    1.356146e+00
  1.941998e+01    1.352682e+00
  1.945173e+01    1.339039e+00
  1.948349e+01    1.342951e+00
  1.951524e+01    1.352524e+00
  1.954699e+01    1.362384e+00
  1.957874e+01    1.343933e+00
  1.961049e+01    1.347548e+00
  1.964224e+01    1.356228e+00
  1.967399e+01    1.351589e+00
  1.970574e+01    1.331940e+00
  1.973749e+01    1.307378e+00
  1.976925e+01    1.328128e+00
  1.980100e+01    1.303969e+00
  1.983275e+01    1.283190e+00
  1.986450e+01    1.293403e+00
  1.989625e+01    1.296498e+00
  1.992800e+01    1.302306e+00
  1.995975e+01    1.294268e+00
  1.999150e+01    1.277726e+00
  2.002325e+01    1.287012e+00
  2.005501e+01    1.286361e+00
  2.008676e+01    1.300332e+00
  2.011851e+01    1.286043e+00
  2.015026e+01    1.276856e+00
  2.018201e+01    1.254852e+00
  2.021376e+01    1.279382e+00
  2.024551e+01    1.274611e+00
  2.027726e+01    1.273871e+00
  2.030902e+01    1.301022e+00
  2.034077e+01    1.246273e+00
  2.037252e+01    1.262043e+00
  2.040427e+01    1.221140e+00
  2.043602e+01    1.257119e+00
  2.046777e+01    1.259275e+00
  2.049952e+01    1.220829e+00
  2.053127e+01    1.222682e+00
  2.056302e+01    1.251058e+00
  2.059478e+01    1.253283e+00
  2.062653e+01    1.234824e+00
  2.065828e+01    1.237668e+00
  2.069003e+01    1.221905e+00
  2.072178e+01    1.233036e+00
  2.075353e+01    1.225452e+00
  2.078528e+01    1.241045e+00
  2.081703e+01    1.242891e+00
  2.084878e+01    1.215241e+00
  2.088054e+01    1.240756e+00
  2.091229e+01    1.252425e+00
  2.094404e+01    1.255877e+00
  2.097579e+01    1.230934e+00
  2.100754e+01    1.222778e+00
  2.103929e+01    1.218610e+00
  2.107104e+01    1.227526e+00
  2.110279e+01    1.229957e+00
  2.113455e+01    1.220492e+00
  2.116630e+01    1.219317e+00
  2.119805e+01    1.241533e+00
  2.122980e+01    1.256432e+00
  2.126155e+01    1.268704e+00
  2.129330e+01    1.260299e+00
  2.132505e+01    1.263075e+00
  2.135680e+01    1.316323e+00
  2.138855e+01    1.295987e+00
  2.142031e+01    1.308451e+00
  2.145206e+01    1.362267e+00
  2.148381e+01    1.380265e+00
  2.151556e+01    1.443713e+00
  2.154731e+01    1.515650e+00
  2.157906e+01    1.612518e+00
  2.161081e+01    1.763956e+00
  2.164256e+01    1.954877e+00
  2.167431e+01    2.293749e+00
  2.170607e+01    2.777366e+00
  2.173782e+01    3.525727e+00
  2.176957e+01    4.569574e+00
  2.180132e+01    5.804295e+00
  2.183307e+01    7.166222e+00
  2.186482e+01    8.337982e+00
  2.189657e+01    8.981126e+00
  2.192832e+01    8.277279e+00
  2.196007e+01    6.685658e+00
  2.199183e+01    4.926243e+00
  2.202358e+01    3.663140e+00
  2.205533e+01    2.827755e+00
  2.208708e+01    2.368891e+00
  2.211883e+01    2.000381e+00
  2.215058e+01    1.790164e+00
  2.218233e+01    1.644465e+00
  2.221408e+01    1.534124e+00
  2.224584e+01    1.417552e+00
  2.227759e+01    1.351378e+00
  2.230934e+01    1.286872e+00
  2.234109e+01    1.260605e+00
  2.237284e+01    1.247966e+00
  2.240459e+01    1.209017e+00
  2.243634e+01    1.207709e+00
  2.246809e+01    1.178535e+00
  2.249984e+01    1.174241e+00
  2.253160e+01    1.127782e+00
  2.256335e+01    1.128290e+00
  2.259510e+01    1.112606e+00
  2.262685e+01    1.091026e+00
  2.265860e+01    1.078514e+00
  2.269035e+01    1.090953e+00
  2.272210e+01    1.066934e+00
  2.275385e+01    1.073395e+00
  2.278560e+01    1.058778e+00
  2.281736e+01    1.052581e+00
  2.284911e+01    1.059348e+00
  2.288086e+01    1.064113e+00
  2.291261e+01    1.028839e+00
  2.294436e+01    1.035653e+00
  2.297611e+01    1.025432e+00
  2.300786e+01    1.017107e+00
  2.303961e+01    1.041331e+00
  2.307137e+01    1.004897e+00
  2.310312e+01    9.827823e-01
  2.313487e+01    9.947329e-01
  2.316662e+01    9.918752e-01
  2.319837e+01    1.010980e+00
  2.323012e+01    9.937160e-01
  2.326187e+01    1.004572e+00
  2.329362e+01    1.009721e+00
  2.332537e+01    9.789401e-01
  2.335713e+01    1.000197e+00
  2.338888e+01    9.808442e-01
  2.342063e+01    9.872659e-01
  2.345238e+01    9.760317e-01
  2.348413e+01    9.613661e-01
  2.351588e+01    9.905622e-01
  2.354763e+01    1.000162e+00
  2.357938e+01    9.707138e-01
  2.361113e+01    9.738446e-01
  2.364289e+01    9.493400e-01
  2.367464e+01    9.428596e-01
  2.370639e+01    9.465494e-01
  2.373814e+01    9.345698e-01
  2.376989e+01    9.256969e-01
  2.380164e+01    9.493418e-01
  2.383339e+01    9.173277e-01
  2.386514e+01    9.139130e-01
  2.389689e+01    9.008356e-01
  2.392865e+01    9.175646e-01
  2.396040e+01    8.680899e-01
  2.399215e+01    8.859235e-01
  2.402390e+01    8.960458e-01
  2.405565e+01    8.911644e-01
  2.408740e+01    8.927877e-01
  2.411915e+01    9.059054e-01
  2.415090e+01    9.010865e-01
  2.418266e+01    8.851438e-01
  2.421441e+01    8.917189e-01
  2.424616e+01    9.023983e-01
  2.427791e+01    8.991098e-01
  2.430966e+01    8.967211e-01
  2.434141e+01    8.984570e-01
  2.437316e+01    9.023740e-01
  2.440491e+01    9.065391e-01
  2.443666e+01    8.811291e-01
  2.446842e+01    8.986356e-01
  2.450017e+01    8.928286e-01
  2.453192e+01    9.105367e-01
  2.456367e+01    8.973515e-01
  2.459542e+01    9.161116e-01
  2.462717e+01    8.860012e-01
  2.465892e+01    9.089721e-01
  2.469067e+01    8.830973e-01
  2.472242e+01    9.127651e-01
  2.475418e+01    9.057965e-01
  2.478593e+01    8.871067e-01
  2.481768e+01    8.844668e-01
  2.484943e+01    8.816538e-01
  2.488118e+01    8.914465e-01
  2.491293e+01    9.007964e-01
  2.494468e+01    9.002030e-01
  2.497643e+01    8.897275e-01
  2.500819e+01    9.104735e-01
  2.503994e+01    9.235486e-01
  2.507169e+01    9.110999e-01
  2.510344e+01    9.230378e-01
  2.513519e+01    8.980672e-01
  2.516694e+01    9.380997e-01
  2.519869e+01    9.019399e-01
  2.523044e+01    9.262756e-01
  2.526219e+01    9.296031e-01
  2.529395e+01    9.411385e-01
  2.532570e+01    9.859916e-01
  2.535745e+01    9.802219e-01
  2.538920e+01    9.957717e-01
  2.542095e+01    1.006712e+00
  2.545270e+01    1.027689e+00
  2.548445e+01    1.043738e+00
  2.551620e+01    1.086208e+00
  2.554795e+01    1.117521e+00
  2.557971e+01    1.155191e+00
  2.561146e+01    1.206853e+00
  2.564321e+01    1.302276e+00
  2.567496e+01    1.394065e+00
  2.570671e+01    1.584599e+00
  2.573846e+01    1.871139e+00
  2.577021e+01    2.194275e+00
  2.580196e+01    2.798632e+00
  2.583371e+01    3.597124e+00
  2.586547e+01    4.650849e+00
  2.589722e+01    5.790281e+00
  2.592897e+01    6.741963e+00
  2.596072e+01    7.118508e+00
  2.599247e+01    6.608208e+00
  2.602422e+01    5.294839e+00
  2.605597e+01    4.028242e+00
  2.608772e+01    3.018013e+00
  2.611948e+01    2.398248e+00
  2.615123e+01    1.966181e+00
  2.618298e+01    1.696374e+00
  2.621473e+01    1.503831e+00
  2.624648e+01    1.326328e+00
  2.627823e+01    1.258804e+00
  2.630998e+01    1.197022e+00
  2.634173e+01    1.131453e+00
  2.637348e+01    1.062188e+00
  2.640524e+01    1.033675e+00
  2.643699e+01    1.024624e+00
  2.646874e+01    1.040917e+00
  2.650049e+01    1.020422e+00
  2.653224e+01    1.021370e+00
  2.656399e+01    9.997085e-01
  2.659574e+01    9.722122e-01
  2.662749e+01    9.852101e-01
  2.665924e+01    9.640397e-01
  2.669100e+01    9.739777e-01
  2.672275e+01    9.810781e-01
  2.675450e+01    9.724646e-01
  2.678625e+01    9.809552e-01
  2.681800e+01    9.954849e-01
  2.684975e+01    9.807676e-01
  2.688150e+01    9.948322e-01
  2.691325e+01    1.019082e+00
  2.694501e+01    1.043645e+00
  2.697676e+01    1.057718e+00
  2.700851e+01    1.134758e+00
  2.704026e+01    1.198749e+00
  2.707201e+01    1.301613e+00
  2.710376e+01    1.456069e+00
  2.713551e+01    1.718742e+00
  2.716726e+01    1.961049e+00
  2.719901e+01    2.156044e+00
  2.723077e+01    2.140714e+00
  2.726252e+01    1.991171e+00
  2.729427e+01    1.674833e+00
  2.732602e+01    1.503486e+00
  2.735777e+01    1.270458e+00
  2.738952e+01    1.130249e+00
  2.742127e+01    1.099043e+00
  2.745302e+01    1.052139e+00
  2.748477e+01    1.018132e+00
  2.751653e+01    9.911143e-01
  2.754828e+01    9.637941e-01
  2.758003e+01    9.512964e-01
  2.761178e+01    9.362591e-01
  2.764353e+01    9.062893e-01
  2.767528e+01    9.136467e-01
  2.770703e+01    9.298753e-01
  2.773878e+01    8.995443e-01
  2.777054e+01    9.141244e-01
  2.780229e+01    8.982893e-01
  2.783404e+01    8.791652e-01
  2.786579e+01    9.043928e-01
  2.789754e+01    8.882068e-01
  2.792929e+01    8.893426e-01
  2.796104e+01    8.661875e-01
  2.799279e+01    8.692794e-01
  2.802454e+01    8.674456e-01
  2.805630e+01    8.724380e-01
  2.808805e+01    8.363165e-01
  2.811980e+01    8.624621e-01
  2.815155e+01    8.519921e-01
  2.818330e+01    8.664260e-01
  2.821505e+01    8.623562e-01
  2.824680e+01    8.592350e-01
  2.827855e+01    8.618307e-01
  2.831030e+01    8.608299e-01
  2.834206e+01    8.643879e-01
  2.837381e+01    8.446410e-01
  2.840556e+01    8.293129e-01
  2.843731e+01    8.352181e-01
  2.846906e+01    8.360407e-01
  2.850081e+01    8.659699e-01
  2.853256e+01    8.369808e-01
  2.856431e+01    8.471410e-01
  2.859606e+01    8.488856e-01
  2.862782e+01    8.571724e-01
  2.865957e+01    8.346318e-01
  2.869132e+01    8.358721e-01
  2.872307e+01    8.244708e-01
  2.875482e+01    8.369368e-01
  2.878657e+01    8.313817e-01
  2.881832e+01    8.319746e-01
  2.885007e+01    8.303484e-01
  2.888183e+01    8.410590e-01
  2.891358e+01    8.472998e-01
  2.894533e+01    8.436875e-01
  2.897708e+01    8.245326e-01
  2.900883e+01    8.378118e-01
  2.904058e+01    8.302321e-01
  2.907233e+01    8.292197e-01
  2.910408e+01    8.178608e-01
  2.913583e+01    8.188770e-01
  2.916759e+01    7.934937e-01
  2.919934e+01    8.177719e-01
  2.923109e+01    8.385547e-01
  2.926284e+01    8.291718e-01
  2.929459e+01    8.035813e-01
  2.932634e+01    8.482372e-01
  2.935809e+01    8.244773e-01
  2.938984e+01    7.970355e-01
  2.942159e+01    7.901537e-01
  2.945335e+01    8.140920e-01
  2.948510e+01    8.189224e-01
  2.951685e+01    8.133782e-01
  2.954860e+01    7.882086e-01
  2.958035e+01    8.146459e-01
  2.961210e+01    7.888690e-01
  2.964385e+01    8.101879e-01
  2.967560e+01    8.016968e-01
  2.970736e+01    7.867069e-01
  2.973911e+01    7.887781e-01
  2.977086e+01    7.838454e-01
  2.980261e+01    7.898400e-01
  2.983436e+01    8.033820e-01
  2.986611e+01    7.944087e-01
  2.989786e+01    8.231109e-01
  2.992961e+01    8.137678e-01
  2.996136e+01    7.914112e-01
  2.999312e+01    8.259321e-01
  3.002487e+01    7.866824e-01
  3.005662e+01    8.110966e-01
  3.008837e+01    8.073714e-01
  3.012012e+01    8.054330e-01
  3.015187e+01    7.888930e-01
  3.018362e+01    8.000596e-01
  3.021537e+01    8.009519e-01
  3.024712e+01    7.893847e-01
  3.027888e+01    7.877961e-01
  3.031063e+01    7.846702e-01
  3.034238e+01    7.644492e-01
  3.037413e+01    8.129849e-01
  3.040588e+01    7.706497e-01
  3.043763e+01    7.879905e-01
  3.046938e+01    8.125934e-01
  3.050113e+01    7.674328e-01
  3.053288e+01    7.827074e-01
  3.056464e+01    7.743421e-01
  3.059639e+01    7.927778e-01
  3.062814e+01    7.788730e-01
  3.065989e+01    7.887942e-01
  3.069164e+01    7.898789e-01
  3.072339e+01    7.688301e-01
  3.075514e+01    7.659354e-01
  3.078689e+01    8.049446e-01
  3.081865e+01    8.006653e-01
  3.085040e+01    7.853776e-01
  3.088215e+01    7.899240e-01
  3.091390e+01    7.621542e-01
  3.094565e+01    7.896155e-01
  3.097740e+01    7.904368e-01
  3.100915e+01    8.026422e-01
  3.104090e+01    7.952825e-01
  3.107265e+01    7.794713e-01
  3.110441e+01    7.976729e-01
  3.113616e+01    8.001460e-01
  3.116791e+01    8.264102e-01
  3.119966e+01    7.804216e-01
  3.123141e+01    7.947658e-01
  3.126316e+01    8.077945e-01
  3.129491e+01    8.228044e-01
  3.132666e+01    8.006994e-01
  3.135841e+01    7.968875e-01
  3.139017e+01    7.813035e-01
  3.142192e+01    8.168877e-01
  3.145367e+01    7.946137e-01
  3.148542e+01    8.237759e-01
  3.151717e+01    8.414246e-01
  3.154892e+01    8.412710e-01
  3.158067e+01    8.446364e-01
  3.161242e+01    8.869601e-01
  3.164418e+01    8.921430e-01
  3.167593e+01    9.653246e-01
  3.170768e+01    9.940863e-01
  3.173943e+01    1.132870e+00
  3.177118e+01    1.236160e+00
  3.180293e+01    1.444691e+00
  3.183468e+01    1.677145e+00
  3.186643e+01    1.926335e+00
  3.189818e+01    2.085127e+00
  3.192994e+01    2.019297e+00
  3.196169e+01    1.853047e+00
  3.199344e+01    1.567589e+00
  3.202519e+01    1.347356e+00
  3.205694e+01    1.163578e+00
  3.208869e+01    1.046473e+00
  3.212044e+01    1.012445e+00
  3.215219e+01    9.376083e-01
  3.218394e+01    8.676007e-01
  3.221570e+01    8.355103e-01
  3.224745e+01    8.482656e-01
  3.227920e+01    8.131927e-01
  3.231095e+01    8.104286e-01
  3.234270e+01    7.937898e-01
  3.237445e+01    7.876499e-01
  3.240620e+01    7.955582e-01
  3.243795e+01    7.941074e-01
  3.246970e+01    7.860361e-01
  3.250146e+01    7.882636e-01
  3.253321e+01    7.832190e-01
  3.254908e+01    7.797900e-01