File: XRD/2024-07-27_002_Ru-CGO-ex_Activtation_ramp_000002_data_000184.dat
# == pyFAI calibration ==
# Distance Sample to Detector: 0.4 m
# PONI: 9.750e-02, 1.135e-01 m
# Rotations: -0.000175 0.000000 -0.000000 rad
#
# == Fit2d calibration ==
# Distance Sample-beamCenter: 400.000 mm
# Center: x=1514.000, y=1300.000 pix
# Tilt: 0.010 deg  TiltPlanRot: 0.010 deg
#
# Detector Detector	 Spline= None	 PixelSize= 7.500e-05, 7.500e-05 m
#    Detector has a mask: False
#    Detector has a dark current: False
#    detector has a flat field: False
#
# Wavelength: 6.888e-11 m
# Mask applied: user provided
# Dark current applied: False
# Flat field applied: False
# Polarization factor: 0.99
# Normalization factor: 1.0
# --> /home/myspot/data/2024_07_Rosario/Ru-CGO-ex/2024-07-27_002_Ru-CGO-ex_Activtation_ramp_000002_data_000184.dat
#       q_nm^-1             I
  2.003187e-02    0.000000e+00
  5.178302e-02    6.857958e-02
  8.353417e-02    1.640855e-02
  1.152853e-01    4.397778e-03
  1.470365e-01    2.886473e-02
  1.787876e-01    6.898311e-02
  2.105388e-01    5.108497e-02
  2.422899e-01    2.305469e-02
  2.740411e-01    1.114115e-02
  3.057922e-01    2.511032e-02
  3.375433e-01    2.678012e-02
  3.692945e-01    3.610883e-02
  4.010456e-01    3.469123e-02
  4.327968e-01    3.851267e-02
  4.645479e-01    4.162116e-02
  4.962991e-01    4.182555e-02
  5.280502e-01    2.200780e-02
  5.598014e-01    2.718147e-02
  5.915525e-01    6.306067e-02
  6.233037e-01    5.428663e-02
  6.550548e-01    4.011913e-02
  6.868060e-01    3.097040e-02
  7.185571e-01    3.353068e-02
  7.503083e-01    6.780275e-02
  7.820594e-01    7.973566e-02
  8.138106e-01    1.750858e-01
  8.455617e-01    3.765298e-01
  8.773129e-01    3.975525e-01
  9.090640e-01    5.900113e-01
  9.408152e-01    7.496886e-01
  9.725663e-01    9.648063e-01
  1.004317e+00    1.044403e+00
  1.036069e+00    1.100420e+00
  1.067820e+00    1.255304e+00
  1.099571e+00    1.358165e+00
  1.131322e+00    1.481410e+00
  1.163073e+00    1.510170e+00
  1.194824e+00    1.689839e+00
  1.226575e+00    1.903526e+00
  1.258327e+00    2.364174e+00
  1.290078e+00    2.388731e+00
  1.321829e+00    2.322659e+00
  1.353580e+00    2.558366e+00
  1.385331e+00    2.459589e+00
  1.417082e+00    2.587916e+00
  1.448834e+00    2.493147e+00
  1.480585e+00    2.827327e+00
  1.512336e+00    2.863049e+00
  1.544087e+00    2.763544e+00
  1.575838e+00    2.797885e+00
  1.607589e+00    2.896800e+00
  1.639340e+00    2.710377e+00
  1.671092e+00    2.748963e+00
  1.702843e+00    2.719392e+00
  1.734594e+00    2.765674e+00
  1.766345e+00    2.810459e+00
  1.798096e+00    2.760583e+00
  1.829847e+00    2.818734e+00
  1.861598e+00    2.737711e+00
  1.893350e+00    2.653705e+00
  1.925101e+00    2.792956e+00
  1.956852e+00    2.678033e+00
  1.988603e+00    2.696990e+00
  2.020354e+00    2.686393e+00
  2.052105e+00    2.558223e+00
  2.083856e+00    2.689940e+00
  2.115608e+00    2.591588e+00
  2.147359e+00    2.701496e+00
  2.179110e+00    2.660605e+00
  2.210861e+00    2.661828e+00
  2.242612e+00    2.481827e+00
  2.274363e+00    2.678621e+00
  2.306115e+00    2.769509e+00
  2.337866e+00    2.731358e+00
  2.369617e+00    2.768739e+00
  2.401368e+00    2.637455e+00
  2.433119e+00    2.761927e+00
  2.464870e+00    2.747851e+00
  2.496621e+00    2.769519e+00
  2.528373e+00    2.786381e+00
  2.560124e+00    2.760509e+00
  2.591875e+00    2.807116e+00
  2.623626e+00    2.802519e+00
  2.655377e+00    2.763398e+00
  2.687128e+00    2.721506e+00
  2.718879e+00    2.896971e+00
  2.750631e+00    2.757367e+00
  2.782382e+00    2.778439e+00
  2.814133e+00    2.797194e+00
  2.845884e+00    2.815426e+00
  2.877635e+00    2.933857e+00
  2.909386e+00    2.893197e+00
  2.941137e+00    2.899891e+00
  2.972889e+00    2.841133e+00
  3.004640e+00    2.922686e+00
  3.036391e+00    2.807569e+00
  3.068142e+00    2.894325e+00
  3.099893e+00    2.901232e+00
  3.131644e+00    2.891661e+00
  3.163395e+00    2.939014e+00
  3.195147e+00    2.879058e+00
  3.226898e+00    2.878953e+00
  3.258649e+00    2.858006e+00
  3.290400e+00    2.928335e+00
  3.322151e+00    2.950304e+00
  3.353902e+00    2.913821e+00
  3.385654e+00    2.888180e+00
  3.417405e+00    2.989900e+00
  3.449156e+00    2.956596e+00
  3.480907e+00    2.851138e+00
  3.512658e+00    2.925917e+00
  3.544409e+00    3.024487e+00
  3.576160e+00    2.969738e+00
  3.607912e+00    2.936643e+00
  3.639663e+00    2.934249e+00
  3.671414e+00    2.967160e+00
  3.703165e+00    2.976157e+00
  3.734916e+00    2.998236e+00
  3.766667e+00    3.069215e+00
  3.798418e+00    2.972672e+00
  3.830170e+00    2.995537e+00
  3.861921e+00    3.026388e+00
  3.893672e+00    2.958294e+00
  3.925423e+00    2.991145e+00
  3.957174e+00    3.009016e+00
  3.988925e+00    3.131188e+00
  4.020676e+00    2.933723e+00
  4.052428e+00    3.017118e+00
  4.084179e+00    2.989910e+00
  4.115930e+00    2.994517e+00
  4.147681e+00    2.980563e+00
  4.179432e+00    2.993953e+00
  4.211183e+00    3.010702e+00
  4.242935e+00    3.113774e+00
  4.274686e+00    3.068341e+00
  4.306437e+00    3.087043e+00
  4.338188e+00    3.063999e+00
  4.369939e+00    3.145775e+00
  4.401690e+00    3.087570e+00
  4.433441e+00    3.100007e+00
  4.465193e+00    3.071856e+00
  4.496944e+00    3.048278e+00
  4.528695e+00    3.085973e+00
  4.560446e+00    3.123322e+00
  4.592197e+00    3.135294e+00
  4.623948e+00    3.108480e+00
  4.655699e+00    3.084478e+00
  4.687451e+00    3.115507e+00
  4.719202e+00    3.116001e+00
  4.750953e+00    3.261342e+00
  4.782704e+00    3.199279e+00
  4.814455e+00    3.093675e+00
  4.846206e+00    3.096457e+00
  4.877957e+00    3.198093e+00
  4.909709e+00    3.053423e+00
  4.941460e+00    3.157508e+00
  4.973211e+00    3.198743e+00
  5.004962e+00    3.112567e+00
  5.036713e+00    3.190253e+00
  5.068464e+00    3.071086e+00
  5.100216e+00    3.084545e+00
  5.131967e+00    3.191553e+00
  5.163718e+00    3.317599e+00
  5.195469e+00    3.133831e+00
  5.227220e+00    3.101151e+00
  5.258971e+00    3.133356e+00
  5.290722e+00    3.128507e+00
  5.322474e+00    3.138158e+00
  5.354225e+00    3.163127e+00
  5.385976e+00    3.101959e+00
  5.417727e+00    3.137063e+00
  5.449478e+00    3.105142e+00
  5.481229e+00    3.067972e+00
  5.512980e+00    3.085407e+00
  5.544732e+00    3.200525e+00
  5.576483e+00    3.021975e+00
  5.608234e+00    3.088846e+00
  5.639985e+00    3.034115e+00
  5.671736e+00    3.096271e+00
  5.703487e+00    3.073933e+00
  5.735238e+00    3.044004e+00
  5.766990e+00    3.026666e+00
  5.798741e+00    3.088140e+00
  5.830492e+00    3.103380e+00
  5.862243e+00    3.019531e+00
  5.893994e+00    3.030840e+00
  5.925745e+00    3.041783e+00
  5.957497e+00    3.005229e+00
  5.989248e+00    3.137812e+00
  6.020999e+00    3.027083e+00
  6.052750e+00    2.977631e+00
  6.084501e+00    3.049756e+00
  6.116252e+00    3.125269e+00
  6.148003e+00    3.030992e+00
  6.179755e+00    3.140841e+00
  6.211506e+00    3.004737e+00
  6.243257e+00    3.079722e+00
  6.275008e+00    2.989496e+00
  6.306759e+00    3.039644e+00
  6.338510e+00    3.113131e+00
  6.370261e+00    3.080195e+00
  6.402013e+00    3.144395e+00
  6.433764e+00    2.965275e+00
  6.465515e+00    3.076295e+00
  6.497266e+00    3.096430e+00
  6.529017e+00    3.065407e+00
  6.560768e+00    3.096984e+00
  6.592519e+00    3.054081e+00
  6.624271e+00    3.100817e+00
  6.656022e+00    3.045215e+00
  6.687773e+00    3.024858e+00
  6.719524e+00    3.040108e+00
  6.751275e+00    3.043810e+00
  6.783026e+00    3.004599e+00
  6.814777e+00    3.002746e+00
  6.846529e+00    3.082236e+00
  6.878280e+00    3.059565e+00
  6.910031e+00    2.970672e+00
  6.941782e+00    3.070947e+00
  6.973533e+00    3.020999e+00
  7.005284e+00    2.987997e+00
  7.037036e+00    3.105130e+00
  7.068787e+00    2.941222e+00
  7.100538e+00    3.014743e+00
  7.132289e+00    3.074179e+00
  7.164040e+00    3.074352e+00
  7.195791e+00    3.002219e+00
  7.227542e+00    3.074133e+00
  7.259294e+00    2.974348e+00
  7.291045e+00    2.979781e+00
  7.322796e+00    2.928513e+00
  7.354547e+00    2.993349e+00
  7.386298e+00    3.060728e+00
  7.418049e+00    2.978585e+00
  7.449800e+00    2.988227e+00
  7.481552e+00    2.972483e+00
  7.513303e+00    2.998813e+00
  7.545054e+00    2.973025e+00
  7.576805e+00    2.991253e+00
  7.608556e+00    2.980838e+00
  7.640307e+00    2.936636e+00
  7.672058e+00    2.976822e+00
  7.703810e+00    3.000041e+00
  7.735561e+00    2.928753e+00
  7.767312e+00    2.917096e+00
  7.799063e+00    2.933168e+00
  7.830814e+00    2.932513e+00
  7.862565e+00    2.984089e+00
  7.894317e+00    2.974342e+00
  7.926068e+00    2.927380e+00
  7.957819e+00    2.980257e+00
  7.989570e+00    2.963921e+00
  8.021321e+00    2.883497e+00
  8.053072e+00    2.942157e+00
  8.084823e+00    2.868875e+00
  8.116575e+00    2.886341e+00
  8.148326e+00    2.926507e+00
  8.180077e+00    2.966512e+00
  8.211828e+00    3.003370e+00
  8.243579e+00    2.953869e+00
  8.275330e+00    2.938169e+00
  8.307081e+00    2.940598e+00
  8.338833e+00    2.958964e+00
  8.370584e+00    2.912812e+00
  8.402335e+00    2.886412e+00
  8.434086e+00    2.905118e+00
  8.465837e+00    2.874402e+00
  8.497588e+00    2.883883e+00
  8.529339e+00    2.889083e+00
  8.561091e+00    2.908120e+00
  8.592842e+00    2.885783e+00
  8.624593e+00    2.927434e+00
  8.656344e+00    2.871112e+00
  8.688095e+00    2.930450e+00
  8.719846e+00    2.831156e+00
  8.751598e+00    2.813524e+00
  8.783349e+00    2.863916e+00
  8.815100e+00    2.852011e+00
  8.846851e+00    2.847194e+00
  8.878602e+00    2.870433e+00
  8.910353e+00    2.865309e+00
  8.942104e+00    2.846761e+00
  8.973856e+00    2.835888e+00
  9.005607e+00    2.772210e+00
  9.037358e+00    2.767307e+00
  9.069109e+00    2.801196e+00
  9.100860e+00    2.776557e+00
  9.132611e+00    2.809908e+00
  9.164362e+00    2.779761e+00
  9.196114e+00    2.761770e+00
  9.227865e+00    2.770843e+00
  9.259616e+00    2.800266e+00
  9.291367e+00    2.777630e+00
  9.323118e+00    2.740019e+00
  9.354869e+00    2.794270e+00
  9.386620e+00    2.751331e+00
  9.418372e+00    2.734401e+00
  9.450123e+00    2.769460e+00
  9.481874e+00    2.770575e+00
  9.513625e+00    2.820449e+00
  9.545376e+00    2.817843e+00
  9.577127e+00    2.784185e+00
  9.608878e+00    2.760104e+00
  9.640630e+00    2.761334e+00
  9.672381e+00    2.715878e+00
  9.704132e+00    2.764883e+00
  9.735883e+00    2.748142e+00
  9.767634e+00    2.730513e+00
  9.799385e+00    2.708472e+00
  9.831137e+00    2.675773e+00
  9.862888e+00    2.735707e+00
  9.894639e+00    2.689642e+00
  9.926390e+00    2.723010e+00
  9.958141e+00    2.672880e+00
  9.989892e+00    2.652774e+00
  1.002164e+01    2.624913e+00
  1.005339e+01    2.706877e+00
  1.008515e+01    2.661754e+00
  1.011690e+01    2.615840e+00
  1.014865e+01    2.633672e+00
  1.018040e+01    2.702149e+00
  1.021215e+01    2.669109e+00
  1.024390e+01    2.678859e+00
  1.027565e+01    2.625462e+00
  1.030740e+01    2.623003e+00
  1.033915e+01    2.643329e+00
  1.037091e+01    2.679343e+00
  1.040266e+01    2.591128e+00
  1.043441e+01    2.651127e+00
  1.046616e+01    2.630410e+00
  1.049791e+01    2.578013e+00
  1.052966e+01    2.541312e+00
  1.056141e+01    2.575807e+00
  1.059316e+01    2.551313e+00
  1.062492e+01    2.592761e+00
  1.065667e+01    2.485211e+00
  1.068842e+01    2.541051e+00
  1.072017e+01    2.530908e+00
  1.075192e+01    2.615617e+00
  1.078367e+01    2.621292e+00
  1.081542e+01    2.539248e+00
  1.084717e+01    2.484043e+00
  1.087892e+01    2.466856e+00
  1.091068e+01    2.507855e+00
  1.094243e+01    2.502654e+00
  1.097418e+01    2.465184e+00
  1.100593e+01    2.498980e+00
  1.103768e+01    2.529824e+00
  1.106943e+01    2.492446e+00
  1.110118e+01    2.499326e+00
  1.113293e+01    2.472542e+00
  1.116468e+01    2.445637e+00
  1.119644e+01    2.487450e+00
  1.122819e+01    2.487543e+00
  1.125994e+01    2.459070e+00
  1.129169e+01    2.430684e+00
  1.132344e+01    2.401177e+00
  1.135519e+01    2.406327e+00
  1.138694e+01    2.472304e+00
  1.141869e+01    2.399145e+00
  1.145045e+01    2.444082e+00
  1.148220e+01    2.378504e+00
  1.151395e+01    2.444738e+00
  1.154570e+01    2.351728e+00
  1.157745e+01    2.404097e+00
  1.160920e+01    2.392050e+00
  1.164095e+01    2.390155e+00
  1.167270e+01    2.387194e+00
  1.170445e+01    2.403895e+00
  1.173621e+01    2.370293e+00
  1.176796e+01    2.400461e+00
  1.179971e+01    2.380531e+00
  1.183146e+01    2.358379e+00
  1.186321e+01    2.325295e+00
  1.189496e+01    2.357014e+00
  1.192671e+01    2.324905e+00
  1.195846e+01    2.357294e+00
  1.199021e+01    2.317489e+00
  1.202197e+01    2.324435e+00
  1.205372e+01    2.333710e+00
  1.208547e+01    2.332369e+00
  1.211722e+01    2.325814e+00
  1.214897e+01    2.288436e+00
  1.218072e+01    2.309772e+00
  1.221247e+01    2.337554e+00
  1.224422e+01    2.296391e+00
  1.227597e+01    2.276587e+00
  1.230773e+01    2.336773e+00
  1.233948e+01    2.366503e+00
  1.237123e+01    2.368120e+00
  1.240298e+01    2.349171e+00
  1.243473e+01    2.295173e+00
  1.246648e+01    2.347375e+00
  1.249823e+01    2.320112e+00
  1.252998e+01    2.336766e+00
  1.256174e+01    2.341981e+00
  1.259349e+01    2.386650e+00
  1.262524e+01    2.379620e+00
  1.265699e+01    2.424143e+00
  1.268874e+01    2.435198e+00
  1.272049e+01    2.470773e+00
  1.275224e+01    2.530353e+00
  1.278399e+01    2.649357e+00
  1.281574e+01    2.706153e+00
  1.284750e+01    2.810262e+00
  1.287925e+01    3.030538e+00
  1.291100e+01    3.286549e+00
  1.294275e+01    3.635522e+00
  1.297450e+01    4.308823e+00
  1.300625e+01    5.279636e+00
  1.303800e+01    7.016683e+00
  1.306975e+01    9.261363e+00
  1.310150e+01    1.180920e+01
  1.313326e+01    1.380852e+01
  1.316501e+01    1.563661e+01
  1.319676e+01    1.524914e+01
  1.322851e+01    1.221567e+01
  1.326026e+01    8.813850e+00
  1.329201e+01    6.411314e+00
  1.332376e+01    4.929553e+00
  1.335551e+01    4.061990e+00
  1.338727e+01    3.597483e+00
  1.341902e+01    3.071932e+00
  1.345077e+01    2.894582e+00
  1.348252e+01    2.699282e+00
  1.351427e+01    2.570976e+00
  1.354602e+01    2.462683e+00
  1.357777e+01    2.364593e+00
  1.360952e+01    2.350418e+00
  1.364127e+01    2.286030e+00
  1.367303e+01    2.271554e+00
  1.370478e+01    2.245657e+00
  1.373653e+01    2.160427e+00
  1.376828e+01    2.141150e+00
  1.380003e+01    2.130140e+00
  1.383178e+01    2.138853e+00
  1.386353e+01    2.112648e+00
  1.389528e+01    2.090833e+00
  1.392703e+01    2.106853e+00
  1.395879e+01    2.015429e+00
  1.399054e+01    2.019168e+00
  1.402229e+01    2.050474e+00
  1.405404e+01    2.052166e+00
  1.408579e+01    2.034605e+00
  1.411754e+01    2.034178e+00
  1.414929e+01    1.984124e+00
  1.418104e+01    1.981094e+00
  1.421279e+01    1.947545e+00
  1.424455e+01    1.976151e+00
  1.427630e+01    1.986346e+00
  1.430805e+01    1.939023e+00
  1.433980e+01    1.963269e+00
  1.437155e+01    1.957924e+00
  1.440330e+01    1.973893e+00
  1.443505e+01    1.954332e+00
  1.446680e+01    1.951760e+00
  1.449856e+01    1.889071e+00
  1.453031e+01    1.933842e+00
  1.456206e+01    1.899788e+00
  1.459381e+01    1.928553e+00
  1.462556e+01    1.921977e+00
  1.465731e+01    1.938799e+00
  1.468906e+01    1.923130e+00
  1.472081e+01    1.877936e+00
  1.475256e+01    1.923795e+00
  1.478432e+01    1.933353e+00
  1.481607e+01    1.949067e+00
  1.484782e+01    1.936416e+00
  1.487957e+01    1.969368e+00
  1.491132e+01    1.937095e+00
  1.494307e+01    2.012918e+00
  1.497482e+01    2.044284e+00
  1.500657e+01    2.126752e+00
  1.503832e+01    2.245337e+00
  1.507008e+01    2.510493e+00
  1.510183e+01    2.857531e+00
  1.513358e+01    3.406663e+00
  1.516533e+01    4.161224e+00
  1.519708e+01    4.707238e+00
  1.522883e+01    5.212146e+00
  1.526058e+01    5.478223e+00
  1.529233e+01    5.274180e+00
  1.532409e+01    4.472102e+00
  1.535584e+01    3.534455e+00
  1.538759e+01    2.852854e+00
  1.541934e+01    2.437436e+00
  1.545109e+01    2.223878e+00
  1.548284e+01    2.037185e+00
  1.551459e+01    1.967192e+00
  1.554634e+01    1.888147e+00
  1.557809e+01    1.863610e+00
  1.560985e+01    1.796947e+00
  1.564160e+01    1.797946e+00
  1.567335e+01    1.759009e+00
  1.570510e+01    1.721959e+00
  1.573685e+01    1.700010e+00
  1.576860e+01    1.666287e+00
  1.580035e+01    1.680879e+00
  1.583210e+01    1.656744e+00
  1.586385e+01    1.652103e+00
  1.589561e+01    1.646502e+00
  1.592736e+01    1.599378e+00
  1.595911e+01    1.640573e+00
  1.599086e+01    1.613649e+00
  1.602261e+01    1.593736e+00
  1.605436e+01    1.623441e+00
  1.608611e+01    1.600541e+00
  1.611786e+01    1.607030e+00
  1.614961e+01    1.570467e+00
  1.618137e+01    1.570128e+00
  1.621312e+01    1.554962e+00
  1.624487e+01    1.588568e+00
  1.627662e+01    1.565823e+00
  1.630837e+01    1.568462e+00
  1.634012e+01    1.585508e+00
  1.637187e+01    1.524482e+00
  1.640362e+01    1.516957e+00
  1.643538e+01    1.557302e+00
  1.646713e+01    1.509436e+00
  1.649888e+01    1.524515e+00
  1.653063e+01    1.520488e+00
  1.656238e+01    1.539417e+00
  1.659413e+01    1.520314e+00
  1.662588e+01    1.472651e+00
  1.665763e+01    1.515091e+00
  1.668938e+01    1.467010e+00
  1.672114e+01    1.495608e+00
  1.675289e+01    1.485006e+00
  1.678464e+01    1.452172e+00
  1.681639e+01    1.485936e+00
  1.684814e+01    1.435390e+00
  1.687989e+01    1.457899e+00
  1.691164e+01    1.448539e+00
  1.694339e+01    1.451133e+00
  1.697514e+01    1.445126e+00
  1.700690e+01    1.423169e+00
  1.703865e+01    1.424911e+00
  1.707040e+01    1.438962e+00
  1.710215e+01    1.398034e+00
  1.713390e+01    1.406425e+00
  1.716565e+01    1.394005e+00
  1.719740e+01    1.435743e+00
  1.722915e+01    1.433429e+00
  1.726091e+01    1.380974e+00
  1.729266e+01    1.417664e+00
  1.732441e+01    1.408287e+00
  1.735616e+01    1.391657e+00
  1.738791e+01    1.392040e+00
  1.741966e+01    1.381597e+00
  1.745141e+01    1.346646e+00
  1.748316e+01    1.387597e+00
  1.751491e+01    1.364596e+00
  1.754667e+01    1.398115e+00
  1.757842e+01    1.357020e+00
  1.761017e+01    1.349432e+00
  1.764192e+01    1.352056e+00
  1.767367e+01    1.352788e+00
  1.770542e+01    1.332135e+00
  1.773717e+01    1.346937e+00
  1.776892e+01    1.330553e+00
  1.780067e+01    1.321599e+00
  1.783243e+01    1.314864e+00
  1.786418e+01    1.333511e+00
  1.789593e+01    1.333699e+00
  1.792768e+01    1.314475e+00
  1.795943e+01    1.307125e+00
  1.799118e+01    1.310810e+00
  1.802293e+01    1.305873e+00
  1.805468e+01    1.303772e+00
  1.808643e+01    1.294868e+00
  1.811819e+01    1.272628e+00
  1.814994e+01    1.278691e+00
  1.818169e+01    1.293060e+00
  1.821344e+01    1.297160e+00
  1.824519e+01    1.288462e+00
  1.827694e+01    1.271790e+00
  1.830869e+01    1.259898e+00
  1.834044e+01    1.262057e+00
  1.837220e+01    1.274993e+00
  1.840395e+01    1.264503e+00
  1.843570e+01    1.255082e+00
  1.846745e+01    1.252419e+00
  1.849920e+01    1.250029e+00
  1.853095e+01    1.255760e+00
  1.856270e+01    1.252978e+00
  1.859445e+01    1.267004e+00
  1.862620e+01    1.239885e+00
  1.865796e+01    1.214775e+00
  1.868971e+01    1.220668e+00
  1.872146e+01    1.235612e+00
  1.875321e+01    1.215548e+00
  1.878496e+01    1.224193e+00
  1.881671e+01    1.224218e+00
  1.884846e+01    1.233417e+00
  1.888021e+01    1.225162e+00
  1.891196e+01    1.194728e+00
  1.894372e+01    1.222637e+00
  1.897547e+01    1.208535e+00
  1.900722e+01    1.191350e+00
  1.903897e+01    1.222007e+00
  1.907072e+01    1.199746e+00
  1.910247e+01    1.218524e+00
  1.913422e+01    1.181571e+00
  1.916597e+01    1.196412e+00
  1.919773e+01    1.188428e+00
  1.922948e+01    1.186919e+00
  1.926123e+01    1.164400e+00
  1.929298e+01    1.195666e+00
  1.932473e+01    1.220352e+00
  1.935648e+01    1.167928e+00
  1.938823e+01    1.185088e+00
  1.941998e+01    1.175560e+00
  1.945173e+01    1.160821e+00
  1.948349e+01    1.145634e+00
  1.951524e+01    1.149464e+00
  1.954699e+01    1.149418e+00
  1.957874e+01    1.170493e+00
  1.961049e+01    1.141763e+00
  1.964224e+01    1.154789e+00
  1.967399e+01    1.145455e+00
  1.970574e+01    1.131690e+00
  1.973749e+01    1.146873e+00
  1.976925e+01    1.133813e+00
  1.980100e+01    1.139877e+00
  1.983275e+01    1.143893e+00
  1.986450e+01    1.132053e+00
  1.989625e+01    1.110497e+00
  1.992800e+01    1.117414e+00
  1.995975e+01    1.118964e+00
  1.999150e+01    1.136499e+00
  2.002325e+01    1.109020e+00
  2.005501e+01    1.106749e+00
  2.008676e+01    1.107396e+00
  2.011851e+01    1.127970e+00
  2.015026e+01    1.120637e+00
  2.018201e+01    1.087970e+00
  2.021376e+01    1.109490e+00
  2.024551e+01    1.092956e+00
  2.027726e+01    1.092352e+00
  2.030902e+01    1.085793e+00
  2.034077e+01    1.098498e+00
  2.037252e+01    1.110231e+00
  2.040427e+01    1.106360e+00
  2.043602e+01    1.099019e+00
  2.046777e+01    1.079634e+00
  2.049952e+01    1.083974e+00
  2.053127e+01    1.090842e+00
  2.056302e+01    1.110913e+00
  2.059478e+01    1.069979e+00
  2.062653e+01    1.078046e+00
  2.065828e+01    1.087491e+00
  2.069003e+01    1.089445e+00
  2.072178e+01    1.079200e+00
  2.075353e+01    1.094472e+00
  2.078528e+01    1.051910e+00
  2.081703e+01    1.060681e+00
  2.084878e+01    1.067392e+00
  2.088054e+01    1.080717e+00
  2.091229e+01    1.065869e+00
  2.094404e+01    1.065002e+00
  2.097579e+01    1.072841e+00
  2.100754e+01    1.079684e+00
  2.103929e+01    1.059614e+00
  2.107104e+01    1.070862e+00
  2.110279e+01    1.090367e+00
  2.113455e+01    1.110505e+00
  2.116630e+01    1.088909e+00
  2.119805e+01    1.106113e+00
  2.122980e+01    1.106091e+00
  2.126155e+01    1.079100e+00
  2.129330e+01    1.129565e+00
  2.132505e+01    1.111214e+00
  2.135680e+01    1.152534e+00
  2.138855e+01    1.159455e+00
  2.142031e+01    1.167207e+00
  2.145206e+01    1.191478e+00
  2.148381e+01    1.251993e+00
  2.151556e+01    1.296719e+00
  2.154731e+01    1.356974e+00
  2.157906e+01    1.441607e+00
  2.161081e+01    1.591371e+00
  2.164256e+01    1.791399e+00
  2.167431e+01    2.120938e+00
  2.170607e+01    2.541180e+00
  2.173782e+01    3.196471e+00
  2.176957e+01    4.259828e+00
  2.180132e+01    5.435901e+00
  2.183307e+01    6.845924e+00
  2.186482e+01    8.005584e+00
  2.189657e+01    8.749353e+00
  2.192832e+01    8.215892e+00
  2.196007e+01    6.541718e+00
  2.199183e+01    4.805462e+00
  2.202358e+01    3.509856e+00
  2.205533e+01    2.700432e+00
  2.208708e+01    2.148972e+00
  2.211883e+01    1.873313e+00
  2.215058e+01    1.638647e+00
  2.218233e+01    1.463092e+00
  2.221408e+01    1.340480e+00
  2.224584e+01    1.271455e+00
  2.227759e+01    1.180451e+00
  2.230934e+01    1.138554e+00
  2.234109e+01    1.132338e+00
  2.237284e+01    1.096526e+00
  2.240459e+01    1.061419e+00
  2.243634e+01    1.043919e+00
  2.246809e+01    1.032667e+00
  2.249984e+01    1.018350e+00
  2.253160e+01    9.660438e-01
  2.256335e+01    9.842780e-01
  2.259510e+01    9.857348e-01
  2.262685e+01    9.712374e-01
  2.265860e+01    9.635981e-01
  2.269035e+01    9.468651e-01
  2.272210e+01    9.449103e-01
  2.275385e+01    9.462392e-01
  2.278560e+01    9.193304e-01
  2.281736e+01    9.292848e-01
  2.284911e+01    9.198421e-01
  2.288086e+01    9.113507e-01
  2.291261e+01    8.994852e-01
  2.294436e+01    8.937940e-01
  2.297611e+01    9.106366e-01
  2.300786e+01    8.983270e-01
  2.303961e+01    8.794023e-01
  2.307137e+01    8.826877e-01
  2.310312e+01    8.574712e-01
  2.313487e+01    8.867468e-01
  2.316662e+01    8.508846e-01
  2.319837e+01    8.604006e-01
  2.323012e+01    8.474396e-01
  2.326187e+01    8.466335e-01
  2.329362e+01    8.535062e-01
  2.332537e+01    8.590862e-01
  2.335713e+01    8.420528e-01
  2.338888e+01    8.435032e-01
  2.342063e+01    8.614294e-01
  2.345238e+01    8.528644e-01
  2.348413e+01    8.160756e-01
  2.351588e+01    8.368288e-01
  2.354763e+01    8.511060e-01
  2.357938e+01    8.375676e-01
  2.361113e+01    8.355302e-01
  2.364289e+01    8.176900e-01
  2.367464e+01    8.288357e-01
  2.370639e+01    8.268343e-01
  2.373814e+01    8.168917e-01
  2.376989e+01    8.106893e-01
  2.380164e+01    8.248093e-01
  2.383339e+01    8.140934e-01
  2.386514e+01    8.027877e-01
  2.389689e+01    8.019636e-01
  2.392865e+01    7.838557e-01
  2.396040e+01    7.931304e-01
  2.399215e+01    7.757543e-01
  2.402390e+01    7.931385e-01
  2.405565e+01    7.872986e-01
  2.408740e+01    7.823356e-01
  2.411915e+01    7.722270e-01
  2.415090e+01    7.814585e-01
  2.418266e+01    7.705668e-01
  2.421441e+01    7.593238e-01
  2.424616e+01    7.736375e-01
  2.427791e+01    7.748098e-01
  2.430966e+01    7.992461e-01
  2.434141e+01    7.955369e-01
  2.437316e+01    7.911021e-01
  2.440491e+01    7.824559e-01
  2.443666e+01    7.712878e-01
  2.446842e+01    7.741323e-01
  2.450017e+01    7.738366e-01
  2.453192e+01    7.965414e-01
  2.456367e+01    7.767074e-01
  2.459542e+01    7.695183e-01
  2.462717e+01    7.861184e-01
  2.465892e+01    7.708672e-01
  2.469067e+01    7.961894e-01
  2.472242e+01    7.908225e-01
  2.475418e+01    7.823248e-01
  2.478593e+01    7.687995e-01
  2.481768e+01    8.005218e-01
  2.484943e+01    7.868353e-01
  2.488118e+01    7.850782e-01
  2.491293e+01    7.949833e-01
  2.494468e+01    7.835004e-01
  2.497643e+01    8.125734e-01
  2.500819e+01    7.883526e-01
  2.503994e+01    7.912403e-01
  2.507169e+01    8.109538e-01
  2.510344e+01    8.164860e-01
  2.513519e+01    8.048943e-01
  2.516694e+01    7.985682e-01
  2.519869e+01    8.360077e-01
  2.523044e+01    8.422763e-01
  2.526219e+01    8.550411e-01
  2.529395e+01    8.846141e-01
  2.532570e+01    8.900367e-01
  2.535745e+01    8.837972e-01
  2.538920e+01    8.850766e-01
  2.542095e+01    9.013635e-01
  2.545270e+01    9.083308e-01
  2.548445e+01    9.310043e-01
  2.551620e+01    9.878240e-01
  2.554795e+01    1.021183e+00
  2.557971e+01    1.027829e+00
  2.561146e+01    1.135074e+00
  2.564321e+01    1.210769e+00
  2.567496e+01    1.316635e+00
  2.570671e+01    1.492993e+00
  2.573846e+01    1.704433e+00
  2.577021e+01    2.074055e+00
  2.580196e+01    2.633692e+00
  2.583371e+01    3.424999e+00
  2.586547e+01    4.376089e+00
  2.589722e+01    5.557542e+00
  2.592897e+01    6.569864e+00
  2.596072e+01    7.100509e+00
  2.599247e+01    6.602442e+00
  2.602422e+01    5.318897e+00
  2.605597e+01    3.933723e+00
  2.608772e+01    2.977914e+00
  2.611948e+01    2.293933e+00
  2.615123e+01    1.851804e+00
  2.618298e+01    1.583369e+00
  2.621473e+01    1.381040e+00
  2.624648e+01    1.258808e+00
  2.627823e+01    1.167618e+00
  2.630998e+01    1.085116e+00
  2.634173e+01    1.030407e+00
  2.637348e+01    9.952008e-01
  2.640524e+01    9.413663e-01
  2.643699e+01    9.207645e-01
  2.646874e+01    9.231642e-01
  2.650049e+01    9.112242e-01
  2.653224e+01    9.073325e-01
  2.656399e+01    8.919466e-01
  2.659574e+01    8.945943e-01
  2.662749e+01    8.749719e-01
  2.665924e+01    8.756276e-01
  2.669100e+01    8.794795e-01
  2.672275e+01    8.793166e-01
  2.675450e+01    8.482909e-01
  2.678625e+01    8.605028e-01
  2.681800e+01    8.742375e-01
  2.684975e+01    8.798028e-01
  2.688150e+01    8.684787e-01
  2.691325e+01    9.155097e-01
  2.694501e+01    9.256563e-01
  2.697676e+01    9.669885e-01
  2.700851e+01    1.025253e+00
  2.704026e+01    1.089270e+00
  2.707201e+01    1.221715e+00
  2.710376e+01    1.359208e+00
  2.713551e+01    1.583787e+00
  2.716726e+01    1.852029e+00
  2.719901e+01    2.066946e+00
  2.723077e+01    2.084905e+00
  2.726252e+01    1.931987e+00
  2.729427e+01    1.700306e+00
  2.732602e+01    1.382259e+00
  2.735777e+01    1.187615e+00
  2.738952e+01    1.091902e+00
  2.742127e+01    1.005047e+00
  2.745302e+01    9.354004e-01
  2.748477e+01    8.968012e-01
  2.751653e+01    9.002053e-01
  2.754828e+01    8.723620e-01
  2.758003e+01    8.579221e-01
  2.761178e+01    8.509149e-01
  2.764353e+01    8.306717e-01
  2.767528e+01    8.428469e-01
  2.770703e+01    8.197398e-01
  2.773878e+01    8.044783e-01
  2.777054e+01    7.927358e-01
  2.780229e+01    7.933810e-01
  2.783404e+01    7.850788e-01
  2.786579e+01    8.059511e-01
  2.789754e+01    8.006902e-01
  2.792929e+01    7.819488e-01
  2.796104e+01    8.171692e-01
  2.799279e+01    7.727647e-01
  2.802454e+01    7.711210e-01
  2.805630e+01    7.679191e-01
  2.808805e+01    7.767167e-01
  2.811980e+01    7.522796e-01
  2.815155e+01    7.822100e-01
  2.818330e+01    7.644272e-01
  2.821505e+01    7.899634e-01
  2.824680e+01    7.696913e-01
  2.827855e+01    7.659391e-01
  2.831030e+01    7.674963e-01
  2.834206e+01    7.476112e-01
  2.837381e+01    7.552639e-01
  2.840556e+01    7.325580e-01
  2.843731e+01    7.486803e-01
  2.846906e+01    7.354533e-01
  2.850081e+01    7.777350e-01
  2.853256e+01    7.484632e-01
  2.856431e+01    7.318249e-01
  2.859606e+01    7.515464e-01
  2.862782e+01    7.382281e-01
  2.865957e+01    7.530522e-01
  2.869132e+01    7.783698e-01
  2.872307e+01    7.453587e-01
  2.875482e+01    7.476836e-01
  2.878657e+01    7.185501e-01
  2.881832e+01    7.299559e-01
  2.885007e+01    7.308480e-01
  2.888183e+01    7.267010e-01
  2.891358e+01    7.221367e-01
  2.894533e+01    7.279269e-01
  2.897708e+01    7.335855e-01
  2.900883e+01    7.406574e-01
  2.904058e+01    7.360927e-01
  2.907233e+01    7.517511e-01
  2.910408e+01    7.226738e-01
  2.913583e+01    7.213042e-01
  2.916759e+01    7.209751e-01
  2.919934e+01    7.329123e-01
  2.923109e+01    7.098831e-01
  2.926284e+01    7.219003e-01
  2.929459e+01    7.251851e-01
  2.932634e+01    7.239747e-01
  2.935809e+01    7.239445e-01
  2.938984e+01    7.151568e-01
  2.942159e+01    7.125392e-01
  2.945335e+01    7.130575e-01
  2.948510e+01    7.148077e-01
  2.951685e+01    7.365144e-01
  2.954860e+01    7.141914e-01
  2.958035e+01    7.287731e-01
  2.961210e+01    7.175481e-01
  2.964385e+01    7.105854e-01
  2.967560e+01    7.053266e-01
  2.970736e+01    7.255577e-01
  2.973911e+01    7.303870e-01
  2.977086e+01    7.280271e-01
  2.980261e+01    7.232570e-01
  2.983436e+01    6.948135e-01
  2.986611e+01    7.159403e-01
  2.989786e+01    7.126099e-01
  2.992961e+01    7.141330e-01
  2.996136e+01    6.902688e-01
  2.999312e+01    7.328563e-01
  3.002487e+01    7.191337e-01
  3.005662e+01    7.402729e-01
  3.008837e+01    7.298967e-01
  3.012012e+01    7.225613e-01
  3.015187e+01    6.984094e-01
  3.018362e+01    7.197162e-01
  3.021537e+01    6.930582e-01
  3.024712e+01    7.172445e-01
  3.027888e+01    7.081639e-01
  3.031063e+01    6.881151e-01
  3.034238e+01    7.144123e-01
  3.037413e+01    7.183707e-01
  3.040588e+01    7.169982e-01
  3.043763e+01    7.160671e-01
  3.046938e+01    7.025900e-01
  3.050113e+01    6.878178e-01
  3.053288e+01    6.857214e-01
  3.056464e+01    6.992891e-01
  3.059639e+01    7.083481e-01
  3.062814e+01    7.003300e-01
  3.065989e+01    6.997756e-01
  3.069164e+01    7.016336e-01
  3.072339e+01    7.229877e-01
  3.075514e+01    6.990041e-01
  3.078689e+01    6.931040e-01
  3.081865e+01    6.992061e-01
  3.085040e+01    6.947598e-01
  3.088215e+01    7.135353e-01
  3.091390e+01    7.080711e-01
  3.094565e+01    6.876795e-01
  3.097740e+01    7.045599e-01
  3.100915e+01    7.150050e-01
  3.104090e+01    7.293307e-01
  3.107265e+01    7.075724e-01
  3.110441e+01    7.141858e-01
  3.113616e+01    7.280896e-01
  3.116791e+01    7.304443e-01
  3.119966e+01    6.952941e-01
  3.123141e+01    7.519409e-01
  3.126316e+01    7.139660e-01
  3.129491e+01    7.277936e-01
  3.132666e+01    6.983466e-01
  3.135841e+01    7.467043e-01
  3.139017e+01    7.565584e-01
  3.142192e+01    7.174519e-01
  3.145367e+01    7.624719e-01
  3.148542e+01    7.670092e-01
  3.151717e+01    7.675872e-01
  3.154892e+01    7.769885e-01
  3.158067e+01    7.956532e-01
  3.161242e+01    8.124180e-01
  3.164418e+01    8.654236e-01
  3.167593e+01    8.859940e-01
  3.170768e+01    9.740556e-01
  3.173943e+01    1.033236e+00
  3.177118e+01    1.172617e+00
  3.180293e+01    1.390723e+00
  3.183468e+01    1.617435e+00
  3.186643e+01    1.909807e+00
  3.189818e+01    2.063674e+00
  3.192994e+01    2.056488e+00
  3.196169e+01    1.826723e+00
  3.199344e+01    1.532379e+00
  3.202519e+01    1.301955e+00
  3.205694e+01    1.132100e+00
  3.208869e+01    9.724599e-01
  3.212044e+01    9.165763e-01
  3.215219e+01    8.604059e-01
  3.218394e+01    8.132665e-01
  3.221570e+01    7.706521e-01
  3.224745e+01    7.639261e-01
  3.227920e+01    7.709248e-01
  3.231095e+01    7.494272e-01
  3.234270e+01    7.287605e-01
  3.237445e+01    7.362269e-01
  3.240620e+01    7.063407e-01
  3.243795e+01    7.203566e-01
  3.246970e+01    7.078875e-01
  3.250146e+01    6.935127e-01
  3.253321e+01    6.875531e-01
  3.254908e+01    7.128012e-01