File: XRD/2024-07-27_002_Ru-CGO-ex_Activtation_ramp_000002_data_000153.dat
# == pyFAI calibration ==
# Distance Sample to Detector: 0.4 m
# PONI: 9.750e-02, 1.135e-01 m
# Rotations: -0.000175 0.000000 -0.000000 rad
#
# == Fit2d calibration ==
# Distance Sample-beamCenter: 400.000 mm
# Center: x=1514.000, y=1300.000 pix
# Tilt: 0.010 deg  TiltPlanRot: 0.010 deg
#
# Detector Detector	 Spline= None	 PixelSize= 7.500e-05, 7.500e-05 m
#    Detector has a mask: False
#    Detector has a dark current: False
#    detector has a flat field: False
#
# Wavelength: 6.888e-11 m
# Mask applied: user provided
# Dark current applied: False
# Flat field applied: False
# Polarization factor: 0.99
# Normalization factor: 1.0
# --> /home/myspot/data/2024_07_Rosario/Ru-CGO-ex/2024-07-27_002_Ru-CGO-ex_Activtation_ramp_000002_data_000153.dat
#       q_nm^-1             I
  2.003187e-02    0.000000e+00
  5.178302e-02    2.671360e-02
  8.353417e-02    2.996368e-02
  1.152853e-01    2.774936e-02
  1.470365e-01    2.487534e-02
  1.787876e-01    4.020789e-02
  2.105388e-01    5.367757e-02
  2.422899e-01    6.925289e-02
  2.740411e-01    1.399856e-02
  3.057922e-01    4.768490e-02
  3.375433e-01    3.594613e-02
  3.692945e-01    2.240490e-02
  4.010456e-01    3.772499e-02
  4.327968e-01    2.286803e-02
  4.645479e-01    3.278487e-02
  4.962991e-01    1.672429e-02
  5.280502e-01    1.915654e-02
  5.598014e-01    7.279190e-02
  5.915525e-01    4.120624e-02
  6.233037e-01    1.653191e-02
  6.550548e-01    1.209004e-02
  6.868060e-01    2.989309e-02
  7.185571e-01    4.913224e-02
  7.503083e-01    2.840829e-02
  7.820594e-01    1.010477e-01
  8.138106e-01    2.321509e-01
  8.455617e-01    2.587275e-01
  8.773129e-01    4.195323e-01
  9.090640e-01    6.145903e-01
  9.408152e-01    7.105500e-01
  9.725663e-01    8.339791e-01
  1.004317e+00    1.044310e+00
  1.036069e+00    1.170052e+00
  1.067820e+00    1.325794e+00
  1.099571e+00    1.435388e+00
  1.131322e+00    1.412779e+00
  1.163073e+00    1.450722e+00
  1.194824e+00    1.699517e+00
  1.226575e+00    2.042461e+00
  1.258327e+00    2.300283e+00
  1.290078e+00    2.428824e+00
  1.321829e+00    2.463581e+00
  1.353580e+00    2.606075e+00
  1.385331e+00    2.476417e+00
  1.417082e+00    2.578995e+00
  1.448834e+00    2.744875e+00
  1.480585e+00    2.772866e+00
  1.512336e+00    2.839961e+00
  1.544087e+00    2.834955e+00
  1.575838e+00    2.821454e+00
  1.607589e+00    2.798792e+00
  1.639340e+00    3.011268e+00
  1.671092e+00    2.843993e+00
  1.702843e+00    2.969426e+00
  1.734594e+00    2.923100e+00
  1.766345e+00    2.717442e+00
  1.798096e+00    2.702734e+00
  1.829847e+00    2.738332e+00
  1.861598e+00    2.807067e+00
  1.893350e+00    2.881688e+00
  1.925101e+00    2.757854e+00
  1.956852e+00    2.699691e+00
  1.988603e+00    2.631945e+00
  2.020354e+00    2.699569e+00
  2.052105e+00    2.645528e+00
  2.083856e+00    2.708942e+00
  2.115608e+00    2.767276e+00
  2.147359e+00    2.688917e+00
  2.179110e+00    2.682548e+00
  2.210861e+00    2.743613e+00
  2.242612e+00    2.795321e+00
  2.274363e+00    2.695317e+00
  2.306115e+00    2.795268e+00
  2.337866e+00    2.818450e+00
  2.369617e+00    2.796674e+00
  2.401368e+00    2.697585e+00
  2.433119e+00    2.855564e+00
  2.464870e+00    2.759270e+00
  2.496621e+00    2.713891e+00
  2.528373e+00    2.775529e+00
  2.560124e+00    2.766684e+00
  2.591875e+00    2.829390e+00
  2.623626e+00    2.759510e+00
  2.655377e+00    2.798346e+00
  2.687128e+00    2.845004e+00
  2.718879e+00    2.749099e+00
  2.750631e+00    2.952347e+00
  2.782382e+00    2.819113e+00
  2.814133e+00    2.801043e+00
  2.845884e+00    2.876187e+00
  2.877635e+00    2.954872e+00
  2.909386e+00    2.823849e+00
  2.941137e+00    2.898704e+00
  2.972889e+00    2.824020e+00
  3.004640e+00    2.981741e+00
  3.036391e+00    2.862735e+00
  3.068142e+00    3.058832e+00
  3.099893e+00    2.932453e+00
  3.131644e+00    2.834621e+00
  3.163395e+00    2.908764e+00
  3.195147e+00    2.975937e+00
  3.226898e+00    2.855256e+00
  3.258649e+00    3.027238e+00
  3.290400e+00    2.957768e+00
  3.322151e+00    2.958351e+00
  3.353902e+00    2.939831e+00
  3.385654e+00    2.982574e+00
  3.417405e+00    2.910372e+00
  3.449156e+00    3.006202e+00
  3.480907e+00    2.988158e+00
  3.512658e+00    2.997704e+00
  3.544409e+00    2.949643e+00
  3.576160e+00    2.976708e+00
  3.607912e+00    2.995173e+00
  3.639663e+00    2.993835e+00
  3.671414e+00    2.950799e+00
  3.703165e+00    3.066442e+00
  3.734916e+00    2.891110e+00
  3.766667e+00    3.012058e+00
  3.798418e+00    3.025352e+00
  3.830170e+00    2.967526e+00
  3.861921e+00    3.062665e+00
  3.893672e+00    2.942101e+00
  3.925423e+00    3.108028e+00
  3.957174e+00    3.005573e+00
  3.988925e+00    3.039734e+00
  4.020676e+00    3.054279e+00
  4.052428e+00    3.046016e+00
  4.084179e+00    3.136514e+00
  4.115930e+00    3.055482e+00
  4.147681e+00    3.061167e+00
  4.179432e+00    3.046348e+00
  4.211183e+00    2.959146e+00
  4.242935e+00    2.986885e+00
  4.274686e+00    2.971170e+00
  4.306437e+00    3.063287e+00
  4.338188e+00    3.122684e+00
  4.369939e+00    3.106523e+00
  4.401690e+00    3.071937e+00
  4.433441e+00    3.064075e+00
  4.465193e+00    3.057147e+00
  4.496944e+00    3.111242e+00
  4.528695e+00    3.059701e+00
  4.560446e+00    3.122251e+00
  4.592197e+00    3.095833e+00
  4.623948e+00    3.013709e+00
  4.655699e+00    3.118284e+00
  4.687451e+00    3.073194e+00
  4.719202e+00    3.163081e+00
  4.750953e+00    3.063637e+00
  4.782704e+00    3.139719e+00
  4.814455e+00    3.078557e+00
  4.846206e+00    3.115359e+00
  4.877957e+00    3.108623e+00
  4.909709e+00    3.124495e+00
  4.941460e+00    3.146546e+00
  4.973211e+00    3.094286e+00
  5.004962e+00    3.066813e+00
  5.036713e+00    3.126719e+00
  5.068464e+00    3.097967e+00
  5.100216e+00    3.125419e+00
  5.131967e+00    3.137335e+00
  5.163718e+00    3.200165e+00
  5.195469e+00    3.080712e+00
  5.227220e+00    3.101287e+00
  5.258971e+00    3.127792e+00
  5.290722e+00    3.136292e+00
  5.322474e+00    3.188784e+00
  5.354225e+00    3.125677e+00
  5.385976e+00    3.151923e+00
  5.417727e+00    3.112947e+00
  5.449478e+00    3.108177e+00
  5.481229e+00    3.096804e+00
  5.512980e+00    3.115840e+00
  5.544732e+00    3.137006e+00
  5.576483e+00    3.219251e+00
  5.608234e+00    3.065890e+00
  5.639985e+00    3.104628e+00
  5.671736e+00    3.119405e+00
  5.703487e+00    3.200829e+00
  5.735238e+00    3.047050e+00
  5.766990e+00    3.082655e+00
  5.798741e+00    3.108785e+00
  5.830492e+00    3.038428e+00
  5.862243e+00    3.018946e+00
  5.893994e+00    2.996429e+00
  5.925745e+00    3.044730e+00
  5.957497e+00    3.031710e+00
  5.989248e+00    3.082783e+00
  6.020999e+00    2.944699e+00
  6.052750e+00    3.035893e+00
  6.084501e+00    3.102888e+00
  6.116252e+00    3.187744e+00
  6.148003e+00    3.008838e+00
  6.179755e+00    3.114088e+00
  6.211506e+00    3.067394e+00
  6.243257e+00    3.056062e+00
  6.275008e+00    3.118699e+00
  6.306759e+00    3.051635e+00
  6.338510e+00    3.051603e+00
  6.370261e+00    3.094259e+00
  6.402013e+00    3.049937e+00
  6.433764e+00    3.090441e+00
  6.465515e+00    3.084968e+00
  6.497266e+00    3.054571e+00
  6.529017e+00    2.986998e+00
  6.560768e+00    3.078083e+00
  6.592519e+00    3.127069e+00
  6.624271e+00    3.006700e+00
  6.656022e+00    2.943787e+00
  6.687773e+00    3.093662e+00
  6.719524e+00    3.053225e+00
  6.751275e+00    3.137661e+00
  6.783026e+00    3.065543e+00
  6.814777e+00    3.082286e+00
  6.846529e+00    3.051016e+00
  6.878280e+00    3.061554e+00
  6.910031e+00    3.120063e+00
  6.941782e+00    3.046420e+00
  6.973533e+00    2.961921e+00
  7.005284e+00    3.017055e+00
  7.037036e+00    3.052540e+00
  7.068787e+00    2.970007e+00
  7.100538e+00    3.026879e+00
  7.132289e+00    3.034598e+00
  7.164040e+00    3.063962e+00
  7.195791e+00    3.000544e+00
  7.227542e+00    3.071258e+00
  7.259294e+00    3.061345e+00
  7.291045e+00    3.075870e+00
  7.322796e+00    3.059268e+00
  7.354547e+00    3.034051e+00
  7.386298e+00    3.039135e+00
  7.418049e+00    3.068951e+00
  7.449800e+00    2.964030e+00
  7.481552e+00    2.988885e+00
  7.513303e+00    3.038530e+00
  7.545054e+00    3.026735e+00
  7.576805e+00    3.012030e+00
  7.608556e+00    3.050968e+00
  7.640307e+00    2.956621e+00
  7.672058e+00    2.995315e+00
  7.703810e+00    3.058488e+00
  7.735561e+00    2.958678e+00
  7.767312e+00    2.910817e+00
  7.799063e+00    3.030302e+00
  7.830814e+00    2.935132e+00
  7.862565e+00    2.915229e+00
  7.894317e+00    2.986107e+00
  7.926068e+00    2.942769e+00
  7.957819e+00    2.949167e+00
  7.989570e+00    2.981465e+00
  8.021321e+00    2.954358e+00
  8.053072e+00    2.931196e+00
  8.084823e+00    2.874022e+00
  8.116575e+00    2.950191e+00
  8.148326e+00    3.028111e+00
  8.180077e+00    3.022410e+00
  8.211828e+00    2.935985e+00
  8.243579e+00    3.024250e+00
  8.275330e+00    2.906706e+00
  8.307081e+00    2.961228e+00
  8.338833e+00    2.906875e+00
  8.370584e+00    2.861942e+00
  8.402335e+00    2.852626e+00
  8.434086e+00    2.878967e+00
  8.465837e+00    2.893426e+00
  8.497588e+00    2.883868e+00
  8.529339e+00    2.889058e+00
  8.561091e+00    2.910039e+00
  8.592842e+00    2.923494e+00
  8.624593e+00    2.826933e+00
  8.656344e+00    2.862589e+00
  8.688095e+00    2.869254e+00
  8.719846e+00    2.919456e+00
  8.751598e+00    2.892028e+00
  8.783349e+00    2.880571e+00
  8.815100e+00    2.893487e+00
  8.846851e+00    2.892674e+00
  8.878602e+00    2.817367e+00
  8.910353e+00    2.871952e+00
  8.942104e+00    2.855467e+00
  8.973856e+00    2.782394e+00
  9.005607e+00    2.852517e+00
  9.037358e+00    2.859508e+00
  9.069109e+00    2.799117e+00
  9.100860e+00    2.806606e+00
  9.132611e+00    2.794326e+00
  9.164362e+00    2.813381e+00
  9.196114e+00    2.811136e+00
  9.227865e+00    2.864460e+00
  9.259616e+00    2.781278e+00
  9.291367e+00    2.800555e+00
  9.323118e+00    2.783615e+00
  9.354869e+00    2.816876e+00
  9.386620e+00    2.767643e+00
  9.418372e+00    2.794719e+00
  9.450123e+00    2.794374e+00
  9.481874e+00    2.728543e+00
  9.513625e+00    2.799607e+00
  9.545376e+00    2.758826e+00
  9.577127e+00    2.784875e+00
  9.608878e+00    2.773292e+00
  9.640630e+00    2.800328e+00
  9.672381e+00    2.761370e+00
  9.704132e+00    2.737669e+00
  9.735883e+00    2.709287e+00
  9.767634e+00    2.712965e+00
  9.799385e+00    2.698542e+00
  9.831137e+00    2.696552e+00
  9.862888e+00    2.713400e+00
  9.894639e+00    2.723901e+00
  9.926390e+00    2.665999e+00
  9.958141e+00    2.693405e+00
  9.989892e+00    2.658034e+00
  1.002164e+01    2.705407e+00
  1.005339e+01    2.693079e+00
  1.008515e+01    2.694025e+00
  1.011690e+01    2.635061e+00
  1.014865e+01    2.614077e+00
  1.018040e+01    2.647645e+00
  1.021215e+01    2.624730e+00
  1.024390e+01    2.644327e+00
  1.027565e+01    2.654119e+00
  1.030740e+01    2.624294e+00
  1.033915e+01    2.652710e+00
  1.037091e+01    2.592595e+00
  1.040266e+01    2.574265e+00
  1.043441e+01    2.632661e+00
  1.046616e+01    2.589475e+00
  1.049791e+01    2.646043e+00
  1.052966e+01    2.617026e+00
  1.056141e+01    2.579685e+00
  1.059316e+01    2.594407e+00
  1.062492e+01    2.574893e+00
  1.065667e+01    2.567352e+00
  1.068842e+01    2.623609e+00
  1.072017e+01    2.558625e+00
  1.075192e+01    2.555388e+00
  1.078367e+01    2.530446e+00
  1.081542e+01    2.558045e+00
  1.084717e+01    2.526104e+00
  1.087892e+01    2.532440e+00
  1.091068e+01    2.540604e+00
  1.094243e+01    2.515040e+00
  1.097418e+01    2.518295e+00
  1.100593e+01    2.537445e+00
  1.103768e+01    2.506547e+00
  1.106943e+01    2.488220e+00
  1.110118e+01    2.462502e+00
  1.113293e+01    2.488287e+00
  1.116468e+01    2.468102e+00
  1.119644e+01    2.432625e+00
  1.122819e+01    2.514282e+00
  1.125994e+01    2.508075e+00
  1.129169e+01    2.466183e+00
  1.132344e+01    2.446048e+00
  1.135519e+01    2.512273e+00
  1.138694e+01    2.425306e+00
  1.141869e+01    2.443892e+00
  1.145045e+01    2.394087e+00
  1.148220e+01    2.405610e+00
  1.151395e+01    2.401747e+00
  1.154570e+01    2.417204e+00
  1.157745e+01    2.391663e+00
  1.160920e+01    2.375970e+00
  1.164095e+01    2.417107e+00
  1.167270e+01    2.386185e+00
  1.170445e+01    2.346300e+00
  1.173621e+01    2.333258e+00
  1.176796e+01    2.434829e+00
  1.179971e+01    2.405548e+00
  1.183146e+01    2.344599e+00
  1.186321e+01    2.330890e+00
  1.189496e+01    2.395452e+00
  1.192671e+01    2.374962e+00
  1.195846e+01    2.366315e+00
  1.199021e+01    2.320336e+00
  1.202197e+01    2.338390e+00
  1.205372e+01    2.317643e+00
  1.208547e+01    2.346162e+00
  1.211722e+01    2.343385e+00
  1.214897e+01    2.343289e+00
  1.218072e+01    2.368048e+00
  1.221247e+01    2.360627e+00
  1.224422e+01    2.364982e+00
  1.227597e+01    2.301557e+00
  1.230773e+01    2.355390e+00
  1.233948e+01    2.322480e+00
  1.237123e+01    2.364240e+00
  1.240298e+01    2.331496e+00
  1.243473e+01    2.333913e+00
  1.246648e+01    2.339510e+00
  1.249823e+01    2.327653e+00
  1.252998e+01    2.367392e+00
  1.256174e+01    2.429155e+00
  1.259349e+01    2.414698e+00
  1.262524e+01    2.400455e+00
  1.265699e+01    2.453070e+00
  1.268874e+01    2.462395e+00
  1.272049e+01    2.517457e+00
  1.275224e+01    2.537025e+00
  1.278399e+01    2.597737e+00
  1.281574e+01    2.766713e+00
  1.284750e+01    2.863521e+00
  1.287925e+01    3.055189e+00
  1.291100e+01    3.286038e+00
  1.294275e+01    3.755562e+00
  1.297450e+01    4.465403e+00
  1.300625e+01    5.500546e+00
  1.303800e+01    7.186192e+00
  1.306975e+01    9.512096e+00
  1.310150e+01    1.213538e+01
  1.313326e+01    1.449415e+01
  1.316501e+01    1.640261e+01
  1.319676e+01    1.625095e+01
  1.322851e+01    1.329672e+01
  1.326026e+01    9.475774e+00
  1.329201e+01    6.831166e+00
  1.332376e+01    5.218477e+00
  1.335551e+01    4.232138e+00
  1.338727e+01    3.619251e+00
  1.341902e+01    3.244872e+00
  1.345077e+01    2.974744e+00
  1.348252e+01    2.749756e+00
  1.351427e+01    2.620685e+00
  1.354602e+01    2.484632e+00
  1.357777e+01    2.440584e+00
  1.360952e+01    2.361502e+00
  1.364127e+01    2.321248e+00
  1.367303e+01    2.290908e+00
  1.370478e+01    2.253081e+00
  1.373653e+01    2.197392e+00
  1.376828e+01    2.211355e+00
  1.380003e+01    2.160415e+00
  1.383178e+01    2.128664e+00
  1.386353e+01    2.140348e+00
  1.389528e+01    2.112670e+00
  1.392703e+01    2.133181e+00
  1.395879e+01    2.081160e+00
  1.399054e+01    2.056553e+00
  1.402229e+01    2.068760e+00
  1.405404e+01    2.052616e+00
  1.408579e+01    2.009537e+00
  1.411754e+01    2.038151e+00
  1.414929e+01    1.987010e+00
  1.418104e+01    2.007160e+00
  1.421279e+01    1.976692e+00
  1.424455e+01    1.995849e+00
  1.427630e+01    1.980319e+00
  1.430805e+01    1.952405e+00
  1.433980e+01    1.956779e+00
  1.437155e+01    1.924276e+00
  1.440330e+01    1.974281e+00
  1.443505e+01    1.937451e+00
  1.446680e+01    1.964953e+00
  1.449856e+01    1.921796e+00
  1.453031e+01    1.916057e+00
  1.456206e+01    1.894459e+00
  1.459381e+01    1.934839e+00
  1.462556e+01    1.895980e+00
  1.465731e+01    1.892377e+00
  1.468906e+01    1.898258e+00
  1.472081e+01    1.932697e+00
  1.475256e+01    1.928930e+00
  1.478432e+01    1.926362e+00
  1.481607e+01    1.939335e+00
  1.484782e+01    1.909624e+00
  1.487957e+01    1.975210e+00
  1.491132e+01    1.982515e+00
  1.494307e+01    1.976104e+00
  1.497482e+01    2.073072e+00
  1.500657e+01    2.178408e+00
  1.503832e+01    2.310733e+00
  1.507008e+01    2.554113e+00
  1.510183e+01    2.915001e+00
  1.513358e+01    3.470095e+00
  1.516533e+01    4.204807e+00
  1.519708e+01    4.900750e+00
  1.522883e+01    5.320473e+00
  1.526058e+01    5.768384e+00
  1.529233e+01    5.522431e+00
  1.532409e+01    4.737651e+00
  1.535584e+01    3.701235e+00
  1.538759e+01    2.980867e+00
  1.541934e+01    2.595482e+00
  1.545109e+01    2.336404e+00
  1.548284e+01    2.093345e+00
  1.551459e+01    1.979358e+00
  1.554634e+01    1.897519e+00
  1.557809e+01    1.812681e+00
  1.560985e+01    1.820633e+00
  1.564160e+01    1.791228e+00
  1.567335e+01    1.773132e+00
  1.570510e+01    1.754848e+00
  1.573685e+01    1.724797e+00
  1.576860e+01    1.715103e+00
  1.580035e+01    1.696560e+00
  1.583210e+01    1.690265e+00
  1.586385e+01    1.690821e+00
  1.589561e+01    1.670853e+00
  1.592736e+01    1.651658e+00
  1.595911e+01    1.635868e+00
  1.599086e+01    1.643763e+00
  1.602261e+01    1.629908e+00
  1.605436e+01    1.598761e+00
  1.608611e+01    1.590907e+00
  1.611786e+01    1.630996e+00
  1.614961e+01    1.563307e+00
  1.618137e+01    1.650607e+00
  1.621312e+01    1.553735e+00
  1.624487e+01    1.589951e+00
  1.627662e+01    1.573946e+00
  1.630837e+01    1.552994e+00
  1.634012e+01    1.541052e+00
  1.637187e+01    1.515538e+00
  1.640362e+01    1.518211e+00
  1.643538e+01    1.548719e+00
  1.646713e+01    1.481300e+00
  1.649888e+01    1.575365e+00
  1.653063e+01    1.533582e+00
  1.656238e+01    1.522457e+00
  1.659413e+01    1.529727e+00
  1.662588e+01    1.508297e+00
  1.665763e+01    1.483975e+00
  1.668938e+01    1.474906e+00
  1.672114e+01    1.468595e+00
  1.675289e+01    1.457886e+00
  1.678464e+01    1.501092e+00
  1.681639e+01    1.451585e+00
  1.684814e+01    1.440733e+00
  1.687989e+01    1.459433e+00
  1.691164e+01    1.419841e+00
  1.694339e+01    1.462227e+00
  1.697514e+01    1.447685e+00
  1.700690e+01    1.433430e+00
  1.703865e+01    1.452012e+00
  1.707040e+01    1.426626e+00
  1.710215e+01    1.443670e+00
  1.713390e+01    1.457677e+00
  1.716565e+01    1.425644e+00
  1.719740e+01    1.410409e+00
  1.722915e+01    1.422606e+00
  1.726091e+01    1.444321e+00
  1.729266e+01    1.421254e+00
  1.732441e+01    1.400871e+00
  1.735616e+01    1.430808e+00
  1.738791e+01    1.397385e+00
  1.741966e+01    1.378782e+00
  1.745141e+01    1.385310e+00
  1.748316e+01    1.393615e+00
  1.751491e+01    1.354095e+00
  1.754667e+01    1.393079e+00
  1.757842e+01    1.347851e+00
  1.761017e+01    1.363640e+00
  1.764192e+01    1.354833e+00
  1.767367e+01    1.335331e+00
  1.770542e+01    1.330521e+00
  1.773717e+01    1.327089e+00
  1.776892e+01    1.338209e+00
  1.780067e+01    1.327408e+00
  1.783243e+01    1.348300e+00
  1.786418e+01    1.324328e+00
  1.789593e+01    1.317857e+00
  1.792768e+01    1.305652e+00
  1.795943e+01    1.287945e+00
  1.799118e+01    1.354027e+00
  1.802293e+01    1.308435e+00
  1.805468e+01    1.301849e+00
  1.808643e+01    1.276105e+00
  1.811819e+01    1.296364e+00
  1.814994e+01    1.288523e+00
  1.818169e+01    1.304293e+00
  1.821344e+01    1.286596e+00
  1.824519e+01    1.276409e+00
  1.827694e+01    1.267369e+00
  1.830869e+01    1.266614e+00
  1.834044e+01    1.265678e+00
  1.837220e+01    1.284544e+00
  1.840395e+01    1.270030e+00
  1.843570e+01    1.250908e+00
  1.846745e+01    1.259018e+00
  1.849920e+01    1.250237e+00
  1.853095e+01    1.241094e+00
  1.856270e+01    1.235834e+00
  1.859445e+01    1.248317e+00
  1.862620e+01    1.228702e+00
  1.865796e+01    1.256505e+00
  1.868971e+01    1.229103e+00
  1.872146e+01    1.261469e+00
  1.875321e+01    1.220589e+00
  1.878496e+01    1.244532e+00
  1.881671e+01    1.216442e+00
  1.884846e+01    1.226932e+00
  1.888021e+01    1.221487e+00
  1.891196e+01    1.230536e+00
  1.894372e+01    1.233835e+00
  1.897547e+01    1.201765e+00
  1.900722e+01    1.215264e+00
  1.903897e+01    1.207477e+00
  1.907072e+01    1.213439e+00
  1.910247e+01    1.194168e+00
  1.913422e+01    1.190363e+00
  1.916597e+01    1.206135e+00
  1.919773e+01    1.184157e+00
  1.922948e+01    1.211492e+00
  1.926123e+01    1.171030e+00
  1.929298e+01    1.185207e+00
  1.932473e+01    1.185413e+00
  1.935648e+01    1.205319e+00
  1.938823e+01    1.167684e+00
  1.941998e+01    1.194922e+00
  1.945173e+01    1.175312e+00
  1.948349e+01    1.165963e+00
  1.951524e+01    1.165959e+00
  1.954699e+01    1.138888e+00
  1.957874e+01    1.166312e+00
  1.961049e+01    1.156638e+00
  1.964224e+01    1.149078e+00
  1.967399e+01    1.171486e+00
  1.970574e+01    1.173533e+00
  1.973749e+01    1.139365e+00
  1.976925e+01    1.152877e+00
  1.980100e+01    1.136407e+00
  1.983275e+01    1.152084e+00
  1.986450e+01    1.126004e+00
  1.989625e+01    1.127949e+00
  1.992800e+01    1.118115e+00
  1.995975e+01    1.150559e+00
  1.999150e+01    1.086766e+00
  2.002325e+01    1.107572e+00
  2.005501e+01    1.113129e+00
  2.008676e+01    1.117760e+00
  2.011851e+01    1.129767e+00
  2.015026e+01    1.100365e+00
  2.018201e+01    1.142633e+00
  2.021376e+01    1.112388e+00
  2.024551e+01    1.093217e+00
  2.027726e+01    1.095396e+00
  2.030902e+01    1.105825e+00
  2.034077e+01    1.096683e+00
  2.037252e+01    1.107602e+00
  2.040427e+01    1.090133e+00
  2.043602e+01    1.096627e+00
  2.046777e+01    1.078312e+00
  2.049952e+01    1.101829e+00
  2.053127e+01    1.086825e+00
  2.056302e+01    1.081690e+00
  2.059478e+01    1.097587e+00
  2.062653e+01    1.095724e+00
  2.065828e+01    1.099952e+00
  2.069003e+01    1.077753e+00
  2.072178e+01    1.088619e+00
  2.075353e+01    1.105163e+00
  2.078528e+01    1.078162e+00
  2.081703e+01    1.068099e+00
  2.084878e+01    1.094672e+00
  2.088054e+01    1.089318e+00
  2.091229e+01    1.087190e+00
  2.094404e+01    1.082314e+00
  2.097579e+01    1.072889e+00
  2.100754e+01    1.082324e+00
  2.103929e+01    1.074682e+00
  2.107104e+01    1.069006e+00
  2.110279e+01    1.091933e+00
  2.113455e+01    1.112598e+00
  2.116630e+01    1.083855e+00
  2.119805e+01    1.096473e+00
  2.122980e+01    1.123343e+00
  2.126155e+01    1.108890e+00
  2.129330e+01    1.126696e+00
  2.132505e+01    1.129260e+00
  2.135680e+01    1.142217e+00
  2.138855e+01    1.163949e+00
  2.142031e+01    1.174837e+00
  2.145206e+01    1.231339e+00
  2.148381e+01    1.261874e+00
  2.151556e+01    1.311347e+00
  2.154731e+01    1.379929e+00
  2.157906e+01    1.472581e+00
  2.161081e+01    1.623441e+00
  2.164256e+01    1.835325e+00
  2.167431e+01    2.155338e+00
  2.170607e+01    2.637012e+00
  2.173782e+01    3.297632e+00
  2.176957e+01    4.361040e+00
  2.180132e+01    5.586592e+00
  2.183307e+01    6.940251e+00
  2.186482e+01    8.288801e+00
  2.189657e+01    9.166720e+00
  2.192832e+01    8.659225e+00
  2.196007e+01    6.973858e+00
  2.199183e+01    5.111485e+00
  2.202358e+01    3.668201e+00
  2.205533e+01    2.801768e+00
  2.208708e+01    2.258333e+00
  2.211883e+01    1.925394e+00
  2.215058e+01    1.665025e+00
  2.218233e+01    1.515711e+00
  2.221408e+01    1.381231e+00
  2.224584e+01    1.303606e+00
  2.227759e+01    1.217719e+00
  2.230934e+01    1.182231e+00
  2.234109e+01    1.155553e+00
  2.237284e+01    1.098723e+00
  2.240459e+01    1.057981e+00
  2.243634e+01    1.063768e+00
  2.246809e+01    1.044368e+00
  2.249984e+01    1.014176e+00
  2.253160e+01    1.038478e+00
  2.256335e+01    1.012423e+00
  2.259510e+01    9.870526e-01
  2.262685e+01    9.777614e-01
  2.265860e+01    9.698760e-01
  2.269035e+01    9.436307e-01
  2.272210e+01    9.468812e-01
  2.275385e+01    9.396275e-01
  2.278560e+01    9.220089e-01
  2.281736e+01    9.154568e-01
  2.284911e+01    9.275665e-01
  2.288086e+01    9.199187e-01
  2.291261e+01    9.299798e-01
  2.294436e+01    9.128774e-01
  2.297611e+01    8.867229e-01
  2.300786e+01    9.259206e-01
  2.303961e+01    9.071938e-01
  2.307137e+01    9.072363e-01
  2.310312e+01    8.748818e-01
  2.313487e+01    8.822427e-01
  2.316662e+01    8.663602e-01
  2.319837e+01    8.715250e-01
  2.323012e+01    8.797603e-01
  2.326187e+01    8.881565e-01
  2.329362e+01    8.569112e-01
  2.332537e+01    8.795921e-01
  2.335713e+01    8.625875e-01
  2.338888e+01    8.392438e-01
  2.342063e+01    8.348140e-01
  2.345238e+01    8.586363e-01
  2.348413e+01    8.544748e-01
  2.351588e+01    8.730825e-01
  2.354763e+01    8.436925e-01
  2.357938e+01    8.656395e-01
  2.361113e+01    8.289780e-01
  2.364289e+01    8.407060e-01
  2.367464e+01    8.287182e-01
  2.370639e+01    8.344038e-01
  2.373814e+01    8.450468e-01
  2.376989e+01    8.106600e-01
  2.380164e+01    8.247114e-01
  2.383339e+01    8.180987e-01
  2.386514e+01    7.891553e-01
  2.389689e+01    7.964402e-01
  2.392865e+01    8.148208e-01
  2.396040e+01    8.204489e-01
  2.399215e+01    7.878894e-01
  2.402390e+01    7.914923e-01
  2.405565e+01    8.007051e-01
  2.408740e+01    7.971881e-01
  2.411915e+01    7.747472e-01
  2.415090e+01    7.853091e-01
  2.418266e+01    7.839710e-01
  2.421441e+01    7.790580e-01
  2.424616e+01    7.884303e-01
  2.427791e+01    7.994668e-01
  2.430966e+01    7.822837e-01
  2.434141e+01    7.857543e-01
  2.437316e+01    7.756704e-01
  2.440491e+01    8.028530e-01
  2.443666e+01    7.878198e-01
  2.446842e+01    7.966585e-01
  2.450017e+01    7.951557e-01
  2.453192e+01    7.821948e-01
  2.456367e+01    7.812400e-01
  2.459542e+01    7.819476e-01
  2.462717e+01    8.044756e-01
  2.465892e+01    7.835681e-01
  2.469067e+01    7.865784e-01
  2.472242e+01    7.994161e-01
  2.475418e+01    8.021544e-01
  2.478593e+01    7.994453e-01
  2.481768e+01    8.004758e-01
  2.484943e+01    8.041469e-01
  2.488118e+01    7.980081e-01
  2.491293e+01    7.950135e-01
  2.494468e+01    7.913213e-01
  2.497643e+01    7.941091e-01
  2.500819e+01    8.032225e-01
  2.503994e+01    8.300188e-01
  2.507169e+01    8.068218e-01
  2.510344e+01    8.049760e-01
  2.513519e+01    8.197546e-01
  2.516694e+01    8.115662e-01
  2.519869e+01    8.225786e-01
  2.523044e+01    8.379396e-01
  2.526219e+01    8.682512e-01
  2.529395e+01    8.657393e-01
  2.532570e+01    8.626316e-01
  2.535745e+01    8.747898e-01
  2.538920e+01    8.880727e-01
  2.542095e+01    9.107456e-01
  2.545270e+01    9.369040e-01
  2.548445e+01    9.688352e-01
  2.551620e+01    9.866543e-01
  2.554795e+01    1.028347e+00
  2.557971e+01    1.058091e+00
  2.561146e+01    1.151693e+00
  2.564321e+01    1.224098e+00
  2.567496e+01    1.335644e+00
  2.570671e+01    1.481253e+00
  2.573846e+01    1.770593e+00
  2.577021e+01    2.120107e+00
  2.580196e+01    2.671475e+00
  2.583371e+01    3.432568e+00
  2.586547e+01    4.496259e+00
  2.589722e+01    5.699732e+00
  2.592897e+01    6.835024e+00
  2.596072e+01    7.525949e+00
  2.599247e+01    7.108765e+00
  2.602422e+01    5.850698e+00
  2.605597e+01    4.320744e+00
  2.608772e+01    3.202556e+00
  2.611948e+01    2.447362e+00
  2.615123e+01    1.945318e+00
  2.618298e+01    1.655967e+00
  2.621473e+01    1.444562e+00
  2.624648e+01    1.313462e+00
  2.627823e+01    1.163882e+00
  2.630998e+01    1.138592e+00
  2.634173e+01    1.071784e+00
  2.637348e+01    1.026024e+00
  2.640524e+01    9.803061e-01
  2.643699e+01    9.538311e-01
  2.646874e+01    9.287737e-01
  2.650049e+01    9.257065e-01
  2.653224e+01    9.303139e-01
  2.656399e+01    9.160694e-01
  2.659574e+01    8.892504e-01
  2.662749e+01    9.063063e-01
  2.665924e+01    9.005411e-01
  2.669100e+01    9.084920e-01
  2.672275e+01    8.944053e-01
  2.675450e+01    8.678483e-01
  2.678625e+01    8.848612e-01
  2.681800e+01    8.918197e-01
  2.684975e+01    9.188654e-01
  2.688150e+01    9.241933e-01
  2.691325e+01    8.970215e-01
  2.694501e+01    9.668806e-01
  2.697676e+01    9.849949e-01
  2.700851e+01    1.040895e+00
  2.704026e+01    1.091664e+00
  2.707201e+01    1.237152e+00
  2.710376e+01    1.376945e+00
  2.713551e+01    1.635571e+00
  2.716726e+01    1.933830e+00
  2.719901e+01    2.162413e+00
  2.723077e+01    2.244679e+00
  2.726252e+01    2.050118e+00
  2.729427e+01    1.775333e+00
  2.732602e+01    1.473717e+00
  2.735777e+01    1.265297e+00
  2.738952e+01    1.143111e+00
  2.742127e+01    1.035451e+00
  2.745302e+01    9.696544e-01
  2.748477e+01    9.336744e-01
  2.751653e+01    9.057662e-01
  2.754828e+01    8.781081e-01
  2.758003e+01    8.585956e-01
  2.761178e+01    8.644782e-01
  2.764353e+01    8.288988e-01
  2.767528e+01    8.469320e-01
  2.770703e+01    8.465956e-01
  2.773878e+01    8.275204e-01
  2.777054e+01    8.246759e-01
  2.780229e+01    8.225024e-01
  2.783404e+01    7.976038e-01
  2.786579e+01    7.997894e-01
  2.789754e+01    8.131007e-01
  2.792929e+01    8.072366e-01
  2.796104e+01    7.961755e-01
  2.799279e+01    7.945291e-01
  2.802454e+01    7.993240e-01
  2.805630e+01    7.852532e-01
  2.808805e+01    7.481894e-01
  2.811980e+01    7.848490e-01
  2.815155e+01    7.653755e-01
  2.818330e+01    7.594804e-01
  2.821505e+01    7.864850e-01
  2.824680e+01    7.740675e-01
  2.827855e+01    7.878367e-01
  2.831030e+01    7.565871e-01
  2.834206e+01    7.638711e-01
  2.837381e+01    7.704995e-01
  2.840556e+01    7.713559e-01
  2.843731e+01    7.687136e-01
  2.846906e+01    7.685537e-01
  2.850081e+01    7.366060e-01
  2.853256e+01    7.411728e-01
  2.856431e+01    7.496502e-01
  2.859606e+01    7.973815e-01
  2.862782e+01    7.631528e-01
  2.865957e+01    7.716848e-01
  2.869132e+01    7.387457e-01
  2.872307e+01    7.529463e-01
  2.875482e+01    7.527761e-01
  2.878657e+01    7.488728e-01
  2.881832e+01    7.354329e-01
  2.885007e+01    7.338635e-01
  2.888183e+01    7.378225e-01
  2.891358e+01    7.489477e-01
  2.894533e+01    7.332789e-01
  2.897708e+01    7.582228e-01
  2.900883e+01    7.429056e-01
  2.904058e+01    7.305945e-01
  2.907233e+01    7.655937e-01
  2.910408e+01    7.328959e-01
  2.913583e+01    7.262192e-01
  2.916759e+01    7.602933e-01
  2.919934e+01    7.406140e-01
  2.923109e+01    7.191283e-01
  2.926284e+01    7.291498e-01
  2.929459e+01    7.467971e-01
  2.932634e+01    7.357991e-01
  2.935809e+01    7.291622e-01
  2.938984e+01    7.390905e-01
  2.942159e+01    7.178847e-01
  2.945335e+01    7.146280e-01
  2.948510e+01    7.175415e-01
  2.951685e+01    7.252808e-01
  2.954860e+01    7.184014e-01
  2.958035e+01    7.119973e-01
  2.961210e+01    7.486553e-01
  2.964385e+01    7.412283e-01
  2.967560e+01    7.192947e-01
  2.970736e+01    7.282240e-01
  2.973911e+01    7.028141e-01
  2.977086e+01    7.292198e-01
  2.980261e+01    7.242314e-01
  2.983436e+01    7.081355e-01
  2.986611e+01    7.104080e-01
  2.989786e+01    7.260175e-01
  2.992961e+01    7.316266e-01
  2.996136e+01    7.147991e-01
  2.999312e+01    7.162326e-01
  3.002487e+01    7.446748e-01
  3.005662e+01    7.659675e-01
  3.008837e+01    7.534074e-01
  3.012012e+01    7.195795e-01
  3.015187e+01    7.205405e-01
  3.018362e+01    7.160782e-01
  3.021537e+01    7.293621e-01
  3.024712e+01    7.014455e-01
  3.027888e+01    7.172903e-01
  3.031063e+01    7.147059e-01
  3.034238e+01    7.160594e-01
  3.037413e+01    7.079303e-01
  3.040588e+01    7.306524e-01
  3.043763e+01    7.328570e-01
  3.046938e+01    7.067671e-01
  3.050113e+01    7.244074e-01
  3.053288e+01    7.171937e-01
  3.056464e+01    7.124643e-01
  3.059639e+01    7.064399e-01
  3.062814e+01    7.266462e-01
  3.065989e+01    7.061900e-01
  3.069164e+01    6.909990e-01
  3.072339e+01    7.205896e-01
  3.075514e+01    7.096244e-01
  3.078689e+01    6.954536e-01
  3.081865e+01    7.336429e-01
  3.085040e+01    7.301794e-01
  3.088215e+01    7.236308e-01
  3.091390e+01    7.259237e-01
  3.094565e+01    7.297454e-01
  3.097740e+01    7.214248e-01
  3.100915e+01    7.357437e-01
  3.104090e+01    7.087758e-01
  3.107265e+01    7.091397e-01
  3.110441e+01    7.187849e-01
  3.113616e+01    7.360603e-01
  3.116791e+01    7.340524e-01
  3.119966e+01    7.186670e-01
  3.123141e+01    7.210000e-01
  3.126316e+01    7.094955e-01
  3.129491e+01    7.354138e-01
  3.132666e+01    7.739975e-01
  3.135841e+01    7.479877e-01
  3.139017e+01    7.493131e-01
  3.142192e+01    7.432528e-01
  3.145367e+01    7.578933e-01
  3.148542e+01    7.759207e-01
  3.151717e+01    7.766368e-01
  3.154892e+01    7.765794e-01
  3.158067e+01    8.270260e-01
  3.161242e+01    8.333622e-01
  3.164418e+01    8.931903e-01
  3.167593e+01    9.312724e-01
  3.170768e+01    9.491684e-01
  3.173943e+01    1.082350e+00
  3.177118e+01    1.225015e+00
  3.180293e+01    1.381450e+00
  3.183468e+01    1.688719e+00
  3.186643e+01    1.956727e+00
  3.189818e+01    2.156350e+00
  3.192994e+01    2.189867e+00
  3.196169e+01    1.974696e+00
  3.199344e+01    1.633384e+00
  3.202519e+01    1.357993e+00
  3.205694e+01    1.149470e+00
  3.208869e+01    1.031672e+00
  3.212044e+01    9.624889e-01
  3.215219e+01    8.675729e-01
  3.218394e+01    8.251075e-01
  3.221570e+01    8.200654e-01
  3.224745e+01    7.943443e-01
  3.227920e+01    7.711380e-01
  3.231095e+01    7.265286e-01
  3.234270e+01    7.268206e-01
  3.237445e+01    7.559503e-01
  3.240620e+01    7.135220e-01
  3.243795e+01    7.024117e-01
  3.246970e+01    7.428770e-01
  3.250146e+01    7.404739e-01
  3.253321e+01    7.200979e-01
  3.254908e+01    7.068998e-01