File: XRD/2024-07-27_002_Ru-CGO-ex_Activtation_ramp_000002_data_000087.dat
# == pyFAI calibration ==
# Distance Sample to Detector: 0.4 m
# PONI: 9.750e-02, 1.135e-01 m
# Rotations: -0.000175 0.000000 -0.000000 rad
#
# == Fit2d calibration ==
# Distance Sample-beamCenter: 400.000 mm
# Center: x=1514.000, y=1300.000 pix
# Tilt: 0.010 deg  TiltPlanRot: 0.010 deg
#
# Detector Detector	 Spline= None	 PixelSize= 7.500e-05, 7.500e-05 m
#    Detector has a mask: False
#    Detector has a dark current: False
#    detector has a flat field: False
#
# Wavelength: 6.888e-11 m
# Mask applied: user provided
# Dark current applied: False
# Flat field applied: False
# Polarization factor: 0.99
# Normalization factor: 1.0
# --> /home/myspot/data/2024_07_Rosario/Ru-CGO-ex/2024-07-27_002_Ru-CGO-ex_Activtation_ramp_000002_data_000087.dat
#       q_nm^-1             I
  2.003187e-02    0.000000e+00
  5.178302e-02    4.781393e-02
  8.353417e-02    2.239874e-01
  1.152853e-01    1.388217e-01
  1.470365e-01    2.282057e-02
  1.787876e-01    7.178192e-03
  2.105388e-01    1.796605e-02
  2.422899e-01    3.637737e-02
  2.740411e-01    3.581588e-02
  3.057922e-01    3.023915e-02
  3.375433e-01    6.226837e-02
  3.692945e-01    4.876276e-02
  4.010456e-01    3.093467e-02
  4.327968e-01    9.686848e-03
  4.645479e-01    3.027703e-02
  4.962991e-01    4.164874e-02
  5.280502e-01    2.859522e-02
  5.598014e-01    3.764278e-02
  5.915525e-01    2.807850e-02
  6.233037e-01    5.123224e-02
  6.550548e-01    5.315969e-02
  6.868060e-01    3.040478e-02
  7.185571e-01    5.282127e-02
  7.503083e-01    3.802055e-02
  7.820594e-01    7.379385e-02
  8.138106e-01    2.139746e-01
  8.455617e-01    2.979841e-01
  8.773129e-01    4.099263e-01
  9.090640e-01    5.918837e-01
  9.408152e-01    7.525832e-01
  9.725663e-01    8.207538e-01
  1.004317e+00    9.767672e-01
  1.036069e+00    1.115272e+00
  1.067820e+00    1.279788e+00
  1.099571e+00    1.280480e+00
  1.131322e+00    1.429324e+00
  1.163073e+00    1.392570e+00
  1.194824e+00    1.595154e+00
  1.226575e+00    2.048569e+00
  1.258327e+00    2.275633e+00
  1.290078e+00    2.473056e+00
  1.321829e+00    2.600336e+00
  1.353580e+00    2.575598e+00
  1.385331e+00    2.539683e+00
  1.417082e+00    2.684618e+00
  1.448834e+00    2.676657e+00
  1.480585e+00    2.775678e+00
  1.512336e+00    2.769039e+00
  1.544087e+00    2.889185e+00
  1.575838e+00    3.033260e+00
  1.607589e+00    2.994900e+00
  1.639340e+00    2.865598e+00
  1.671092e+00    2.804093e+00
  1.702843e+00    2.843418e+00
  1.734594e+00    2.799279e+00
  1.766345e+00    2.761822e+00
  1.798096e+00    2.799920e+00
  1.829847e+00    2.756190e+00
  1.861598e+00    2.884863e+00
  1.893350e+00    2.727752e+00
  1.925101e+00    2.803437e+00
  1.956852e+00    2.645980e+00
  1.988603e+00    2.654072e+00
  2.020354e+00    2.642559e+00
  2.052105e+00    2.773185e+00
  2.083856e+00    2.685401e+00
  2.115608e+00    2.818375e+00
  2.147359e+00    2.735586e+00
  2.179110e+00    2.762743e+00
  2.210861e+00    2.676929e+00
  2.242612e+00    2.692271e+00
  2.274363e+00    2.806117e+00
  2.306115e+00    2.722713e+00
  2.337866e+00    2.776242e+00
  2.369617e+00    2.720027e+00
  2.401368e+00    2.702284e+00
  2.433119e+00    2.673677e+00
  2.464870e+00    2.823349e+00
  2.496621e+00    2.855840e+00
  2.528373e+00    2.745836e+00
  2.560124e+00    2.799059e+00
  2.591875e+00    2.795385e+00
  2.623626e+00    2.767032e+00
  2.655377e+00    2.835593e+00
  2.687128e+00    2.808315e+00
  2.718879e+00    2.834094e+00
  2.750631e+00    2.895747e+00
  2.782382e+00    2.790836e+00
  2.814133e+00    2.830425e+00
  2.845884e+00    2.731313e+00
  2.877635e+00    2.883352e+00
  2.909386e+00    2.794683e+00
  2.941137e+00    2.774111e+00
  2.972889e+00    2.858188e+00
  3.004640e+00    2.827441e+00
  3.036391e+00    2.857724e+00
  3.068142e+00    2.950149e+00
  3.099893e+00    2.928845e+00
  3.131644e+00    2.964789e+00
  3.163395e+00    2.889086e+00
  3.195147e+00    2.782644e+00
  3.226898e+00    2.925462e+00
  3.258649e+00    3.035575e+00
  3.290400e+00    2.867057e+00
  3.322151e+00    2.802797e+00
  3.353902e+00    2.945581e+00
  3.385654e+00    2.932395e+00
  3.417405e+00    2.826009e+00
  3.449156e+00    2.860633e+00
  3.480907e+00    2.919943e+00
  3.512658e+00    2.985729e+00
  3.544409e+00    2.840243e+00
  3.576160e+00    2.886440e+00
  3.607912e+00    2.926842e+00
  3.639663e+00    2.933262e+00
  3.671414e+00    3.010916e+00
  3.703165e+00    2.967385e+00
  3.734916e+00    2.950444e+00
  3.766667e+00    2.934850e+00
  3.798418e+00    2.895901e+00
  3.830170e+00    2.948585e+00
  3.861921e+00    2.983632e+00
  3.893672e+00    3.021916e+00
  3.925423e+00    2.918782e+00
  3.957174e+00    2.995249e+00
  3.988925e+00    3.088532e+00
  4.020676e+00    2.965156e+00
  4.052428e+00    2.986063e+00
  4.084179e+00    2.973697e+00
  4.115930e+00    2.918163e+00
  4.147681e+00    2.924157e+00
  4.179432e+00    2.972746e+00
  4.211183e+00    2.988736e+00
  4.242935e+00    2.999160e+00
  4.274686e+00    2.957500e+00
  4.306437e+00    2.988001e+00
  4.338188e+00    3.028672e+00
  4.369939e+00    3.056515e+00
  4.401690e+00    3.058269e+00
  4.433441e+00    2.994065e+00
  4.465193e+00    2.982153e+00
  4.496944e+00    3.073239e+00
  4.528695e+00    2.990387e+00
  4.560446e+00    3.051982e+00
  4.592197e+00    3.008443e+00
  4.623948e+00    3.017020e+00
  4.655699e+00    3.157688e+00
  4.687451e+00    3.048037e+00
  4.719202e+00    3.077458e+00
  4.750953e+00    3.050017e+00
  4.782704e+00    3.063634e+00
  4.814455e+00    3.081742e+00
  4.846206e+00    3.051592e+00
  4.877957e+00    3.063778e+00
  4.909709e+00    2.996906e+00
  4.941460e+00    3.120244e+00
  4.973211e+00    3.046585e+00
  5.004962e+00    3.106581e+00
  5.036713e+00    3.047617e+00
  5.068464e+00    3.065501e+00
  5.100216e+00    3.103214e+00
  5.131967e+00    3.155358e+00
  5.163718e+00    3.082858e+00
  5.195469e+00    3.040905e+00
  5.227220e+00    3.048514e+00
  5.258971e+00    3.082564e+00
  5.290722e+00    3.050056e+00
  5.322474e+00    3.101900e+00
  5.354225e+00    3.016247e+00
  5.385976e+00    3.035904e+00
  5.417727e+00    3.008324e+00
  5.449478e+00    3.098096e+00
  5.481229e+00    3.067731e+00
  5.512980e+00    3.037901e+00
  5.544732e+00    2.983040e+00
  5.576483e+00    3.068040e+00
  5.608234e+00    3.139383e+00
  5.639985e+00    3.072740e+00
  5.671736e+00    3.042428e+00
  5.703487e+00    3.071103e+00
  5.735238e+00    2.959616e+00
  5.766990e+00    3.029259e+00
  5.798741e+00    3.038236e+00
  5.830492e+00    3.001853e+00
  5.862243e+00    3.001083e+00
  5.893994e+00    2.950994e+00
  5.925745e+00    3.045751e+00
  5.957497e+00    2.913182e+00
  5.989248e+00    3.047507e+00
  6.020999e+00    2.960948e+00
  6.052750e+00    2.992332e+00
  6.084501e+00    3.063085e+00
  6.116252e+00    3.057192e+00
  6.148003e+00    3.049102e+00
  6.179755e+00    3.019052e+00
  6.211506e+00    2.973314e+00
  6.243257e+00    3.026521e+00
  6.275008e+00    2.963887e+00
  6.306759e+00    2.965430e+00
  6.338510e+00    3.024942e+00
  6.370261e+00    3.018664e+00
  6.402013e+00    3.016441e+00
  6.433764e+00    3.005642e+00
  6.465515e+00    2.950350e+00
  6.497266e+00    2.977931e+00
  6.529017e+00    3.002982e+00
  6.560768e+00    3.000804e+00
  6.592519e+00    2.929407e+00
  6.624271e+00    2.994469e+00
  6.656022e+00    2.985421e+00
  6.687773e+00    3.041476e+00
  6.719524e+00    2.980671e+00
  6.751275e+00    3.026275e+00
  6.783026e+00    2.968631e+00
  6.814777e+00    2.973319e+00
  6.846529e+00    2.912307e+00
  6.878280e+00    2.983493e+00
  6.910031e+00    2.937474e+00
  6.941782e+00    2.971957e+00
  6.973533e+00    2.994725e+00
  7.005284e+00    2.970254e+00
  7.037036e+00    3.006421e+00
  7.068787e+00    2.906682e+00
  7.100538e+00    2.988542e+00
  7.132289e+00    2.930996e+00
  7.164040e+00    3.048212e+00
  7.195791e+00    2.956365e+00
  7.227542e+00    2.995053e+00
  7.259294e+00    2.926768e+00
  7.291045e+00    2.906434e+00
  7.322796e+00    2.951108e+00
  7.354547e+00    2.967273e+00
  7.386298e+00    2.894853e+00
  7.418049e+00    2.922705e+00
  7.449800e+00    2.980593e+00
  7.481552e+00    3.030027e+00
  7.513303e+00    2.960687e+00
  7.545054e+00    2.901640e+00
  7.576805e+00    2.950758e+00
  7.608556e+00    2.907444e+00
  7.640307e+00    2.869756e+00
  7.672058e+00    2.899199e+00
  7.703810e+00    2.893778e+00
  7.735561e+00    2.887805e+00
  7.767312e+00    2.954952e+00
  7.799063e+00    2.841031e+00
  7.830814e+00    2.896102e+00
  7.862565e+00    2.966345e+00
  7.894317e+00    2.970267e+00
  7.926068e+00    2.899396e+00
  7.957819e+00    2.890566e+00
  7.989570e+00    2.843103e+00
  8.021321e+00    2.921001e+00
  8.053072e+00    2.880775e+00
  8.084823e+00    2.851292e+00
  8.116575e+00    2.839851e+00
  8.148326e+00    2.869931e+00
  8.180077e+00    2.898134e+00
  8.211828e+00    2.907748e+00
  8.243579e+00    2.903544e+00
  8.275330e+00    2.872941e+00
  8.307081e+00    2.868097e+00
  8.338833e+00    2.872523e+00
  8.370584e+00    2.859176e+00
  8.402335e+00    2.792443e+00
  8.434086e+00    2.888580e+00
  8.465837e+00    2.876547e+00
  8.497588e+00    2.804288e+00
  8.529339e+00    2.819548e+00
  8.561091e+00    2.822446e+00
  8.592842e+00    2.839795e+00
  8.624593e+00    2.797539e+00
  8.656344e+00    2.796556e+00
  8.688095e+00    2.845458e+00
  8.719846e+00    2.782717e+00
  8.751598e+00    2.759329e+00
  8.783349e+00    2.805736e+00
  8.815100e+00    2.799392e+00
  8.846851e+00    2.799229e+00
  8.878602e+00    2.740953e+00
  8.910353e+00    2.738763e+00
  8.942104e+00    2.752064e+00
  8.973856e+00    2.810035e+00
  9.005607e+00    2.748924e+00
  9.037358e+00    2.786382e+00
  9.069109e+00    2.759594e+00
  9.100860e+00    2.769421e+00
  9.132611e+00    2.775043e+00
  9.164362e+00    2.735765e+00
  9.196114e+00    2.758591e+00
  9.227865e+00    2.741287e+00
  9.259616e+00    2.783936e+00
  9.291367e+00    2.766799e+00
  9.323118e+00    2.704902e+00
  9.354869e+00    2.757877e+00
  9.386620e+00    2.775213e+00
  9.418372e+00    2.729390e+00
  9.450123e+00    2.723044e+00
  9.481874e+00    2.778327e+00
  9.513625e+00    2.716069e+00
  9.545376e+00    2.677332e+00
  9.577127e+00    2.717467e+00
  9.608878e+00    2.698371e+00
  9.640630e+00    2.712920e+00
  9.672381e+00    2.726630e+00
  9.704132e+00    2.658780e+00
  9.735883e+00    2.699835e+00
  9.767634e+00    2.664822e+00
  9.799385e+00    2.693442e+00
  9.831137e+00    2.679772e+00
  9.862888e+00    2.637758e+00
  9.894639e+00    2.675986e+00
  9.926390e+00    2.675345e+00
  9.958141e+00    2.579974e+00
  9.989892e+00    2.645981e+00
  1.002164e+01    2.635318e+00
  1.005339e+01    2.651574e+00
  1.008515e+01    2.644008e+00
  1.011690e+01    2.546229e+00
  1.014865e+01    2.570687e+00
  1.018040e+01    2.628701e+00
  1.021215e+01    2.597966e+00
  1.024390e+01    2.627481e+00
  1.027565e+01    2.583301e+00
  1.030740e+01    2.615355e+00
  1.033915e+01    2.606161e+00
  1.037091e+01    2.602322e+00
  1.040266e+01    2.516341e+00
  1.043441e+01    2.624537e+00
  1.046616e+01    2.554405e+00
  1.049791e+01    2.512920e+00
  1.052966e+01    2.562896e+00
  1.056141e+01    2.557455e+00
  1.059316e+01    2.557789e+00
  1.062492e+01    2.557675e+00
  1.065667e+01    2.566376e+00
  1.068842e+01    2.512662e+00
  1.072017e+01    2.521128e+00
  1.075192e+01    2.477912e+00
  1.078367e+01    2.519201e+00
  1.081542e+01    2.498966e+00
  1.084717e+01    2.453137e+00
  1.087892e+01    2.451856e+00
  1.091068e+01    2.517821e+00
  1.094243e+01    2.526832e+00
  1.097418e+01    2.477782e+00
  1.100593e+01    2.486980e+00
  1.103768e+01    2.473745e+00
  1.106943e+01    2.480010e+00
  1.110118e+01    2.461766e+00
  1.113293e+01    2.440028e+00
  1.116468e+01    2.404858e+00
  1.119644e+01    2.389441e+00
  1.122819e+01    2.372267e+00
  1.125994e+01    2.408144e+00
  1.129169e+01    2.434594e+00
  1.132344e+01    2.387249e+00
  1.135519e+01    2.402279e+00
  1.138694e+01    2.401018e+00
  1.141869e+01    2.345503e+00
  1.145045e+01    2.407355e+00
  1.148220e+01    2.420052e+00
  1.151395e+01    2.380938e+00
  1.154570e+01    2.363146e+00
  1.157745e+01    2.354578e+00
  1.160920e+01    2.328683e+00
  1.164095e+01    2.365103e+00
  1.167270e+01    2.387568e+00
  1.170445e+01    2.333922e+00
  1.173621e+01    2.306911e+00
  1.176796e+01    2.325026e+00
  1.179971e+01    2.305527e+00
  1.183146e+01    2.337424e+00
  1.186321e+01    2.327209e+00
  1.189496e+01    2.306718e+00
  1.192671e+01    2.328212e+00
  1.195846e+01    2.311878e+00
  1.199021e+01    2.289863e+00
  1.202197e+01    2.301647e+00
  1.205372e+01    2.310920e+00
  1.208547e+01    2.229110e+00
  1.211722e+01    2.273106e+00
  1.214897e+01    2.291002e+00
  1.218072e+01    2.260884e+00
  1.221247e+01    2.267789e+00
  1.224422e+01    2.269590e+00
  1.227597e+01    2.279279e+00
  1.230773e+01    2.273051e+00
  1.233948e+01    2.270952e+00
  1.237123e+01    2.291073e+00
  1.240298e+01    2.290189e+00
  1.243473e+01    2.309575e+00
  1.246648e+01    2.289299e+00
  1.249823e+01    2.330631e+00
  1.252998e+01    2.345809e+00
  1.256174e+01    2.356025e+00
  1.259349e+01    2.314305e+00
  1.262524e+01    2.407359e+00
  1.265699e+01    2.422386e+00
  1.268874e+01    2.446389e+00
  1.272049e+01    2.460312e+00
  1.275224e+01    2.491592e+00
  1.278399e+01    2.610163e+00
  1.281574e+01    2.669596e+00
  1.284750e+01    2.804574e+00
  1.287925e+01    3.024611e+00
  1.291100e+01    3.289849e+00
  1.294275e+01    3.628760e+00
  1.297450e+01    4.239708e+00
  1.300625e+01    5.285259e+00
  1.303800e+01    6.869666e+00
  1.306975e+01    9.262217e+00
  1.310150e+01    1.212829e+01
  1.313326e+01    1.482283e+01
  1.316501e+01    1.719613e+01
  1.319676e+01    1.797343e+01
  1.322851e+01    1.565921e+01
  1.326026e+01    1.126368e+01
  1.329201e+01    8.002283e+00
  1.332376e+01    5.949096e+00
  1.335551e+01    4.705855e+00
  1.338727e+01    3.931557e+00
  1.341902e+01    3.433459e+00
  1.345077e+01    3.069952e+00
  1.348252e+01    2.843420e+00
  1.351427e+01    2.642050e+00
  1.354602e+01    2.570662e+00
  1.357777e+01    2.475978e+00
  1.360952e+01    2.366874e+00
  1.364127e+01    2.326772e+00
  1.367303e+01    2.273473e+00
  1.370478e+01    2.236033e+00
  1.373653e+01    2.225245e+00
  1.376828e+01    2.194284e+00
  1.380003e+01    2.133223e+00
  1.383178e+01    2.159272e+00
  1.386353e+01    2.123560e+00
  1.389528e+01    2.107385e+00
  1.392703e+01    2.057714e+00
  1.395879e+01    2.077993e+00
  1.399054e+01    2.042016e+00
  1.402229e+01    2.018599e+00
  1.405404e+01    2.037603e+00
  1.408579e+01    2.040892e+00
  1.411754e+01    1.987386e+00
  1.414929e+01    2.012354e+00
  1.418104e+01    1.952229e+00
  1.421279e+01    1.936720e+00
  1.424455e+01    1.955700e+00
  1.427630e+01    1.954620e+00
  1.430805e+01    1.933998e+00
  1.433980e+01    1.922731e+00
  1.437155e+01    1.926414e+00
  1.440330e+01    1.934336e+00
  1.443505e+01    1.950425e+00
  1.446680e+01    1.904842e+00
  1.449856e+01    1.912583e+00
  1.453031e+01    1.886215e+00
  1.456206e+01    1.898734e+00
  1.459381e+01    1.872556e+00
  1.462556e+01    1.886509e+00
  1.465731e+01    1.906775e+00
  1.468906e+01    1.893583e+00
  1.472081e+01    1.886682e+00
  1.475256e+01    1.883456e+00
  1.478432e+01    1.877746e+00
  1.481607e+01    1.887104e+00
  1.484782e+01    1.927795e+00
  1.487957e+01    1.954956e+00
  1.491132e+01    1.893795e+00
  1.494307e+01    1.999887e+00
  1.497482e+01    2.032358e+00
  1.500657e+01    2.110023e+00
  1.503832e+01    2.272774e+00
  1.507008e+01    2.451997e+00
  1.510183e+01    2.758108e+00
  1.513358e+01    3.289789e+00
  1.516533e+01    4.005148e+00
  1.519708e+01    4.876097e+00
  1.522883e+01    5.505452e+00
  1.526058e+01    6.000634e+00
  1.529233e+01    6.058758e+00
  1.532409e+01    5.362937e+00
  1.535584e+01    4.199381e+00
  1.538759e+01    3.342796e+00
  1.541934e+01    2.800861e+00
  1.545109e+01    2.430810e+00
  1.548284e+01    2.161556e+00
  1.551459e+01    2.009921e+00
  1.554634e+01    1.893173e+00
  1.557809e+01    1.905558e+00
  1.560985e+01    1.832937e+00
  1.564160e+01    1.785581e+00
  1.567335e+01    1.764989e+00
  1.570510e+01    1.750630e+00
  1.573685e+01    1.725550e+00
  1.576860e+01    1.693961e+00
  1.580035e+01    1.668290e+00
  1.583210e+01    1.664555e+00
  1.586385e+01    1.647425e+00
  1.589561e+01    1.631659e+00
  1.592736e+01    1.600958e+00
  1.595911e+01    1.595680e+00
  1.599086e+01    1.592686e+00
  1.602261e+01    1.610679e+00
  1.605436e+01    1.567585e+00
  1.608611e+01    1.571510e+00
  1.611786e+01    1.591335e+00
  1.614961e+01    1.542914e+00
  1.618137e+01    1.582841e+00
  1.621312e+01    1.557117e+00
  1.624487e+01    1.527730e+00
  1.627662e+01    1.545001e+00
  1.630837e+01    1.515391e+00
  1.634012e+01    1.537498e+00
  1.637187e+01    1.508457e+00
  1.640362e+01    1.483129e+00
  1.643538e+01    1.512432e+00
  1.646713e+01    1.485856e+00
  1.649888e+01    1.478889e+00
  1.653063e+01    1.517805e+00
  1.656238e+01    1.493406e+00
  1.659413e+01    1.457293e+00
  1.662588e+01    1.471213e+00
  1.665763e+01    1.462378e+00
  1.668938e+01    1.459027e+00
  1.672114e+01    1.457538e+00
  1.675289e+01    1.480955e+00
  1.678464e+01    1.440061e+00
  1.681639e+01    1.449373e+00
  1.684814e+01    1.433873e+00
  1.687989e+01    1.452842e+00
  1.691164e+01    1.420846e+00
  1.694339e+01    1.433566e+00
  1.697514e+01    1.426706e+00
  1.700690e+01    1.414966e+00
  1.703865e+01    1.404002e+00
  1.707040e+01    1.367468e+00
  1.710215e+01    1.393086e+00
  1.713390e+01    1.342218e+00
  1.716565e+01    1.407199e+00
  1.719740e+01    1.388954e+00
  1.722915e+01    1.382483e+00
  1.726091e+01    1.381259e+00
  1.729266e+01    1.339537e+00
  1.732441e+01    1.373825e+00
  1.735616e+01    1.377098e+00
  1.738791e+01    1.367642e+00
  1.741966e+01    1.377009e+00
  1.745141e+01    1.359083e+00
  1.748316e+01    1.354825e+00
  1.751491e+01    1.332581e+00
  1.754667e+01    1.367270e+00
  1.757842e+01    1.355116e+00
  1.761017e+01    1.328588e+00
  1.764192e+01    1.317535e+00
  1.767367e+01    1.333466e+00
  1.770542e+01    1.374137e+00
  1.773717e+01    1.336507e+00
  1.776892e+01    1.300782e+00
  1.780067e+01    1.304879e+00
  1.783243e+01    1.307545e+00
  1.786418e+01    1.305734e+00
  1.789593e+01    1.319621e+00
  1.792768e+01    1.299270e+00
  1.795943e+01    1.298384e+00
  1.799118e+01    1.286023e+00
  1.802293e+01    1.274905e+00
  1.805468e+01    1.288013e+00
  1.808643e+01    1.259483e+00
  1.811819e+01    1.307975e+00
  1.814994e+01    1.269448e+00
  1.818169e+01    1.274889e+00
  1.821344e+01    1.259314e+00
  1.824519e+01    1.276382e+00
  1.827694e+01    1.243096e+00
  1.830869e+01    1.225498e+00
  1.834044e+01    1.244557e+00
  1.837220e+01    1.240895e+00
  1.840395e+01    1.218610e+00
  1.843570e+01    1.265369e+00
  1.846745e+01    1.234445e+00
  1.849920e+01    1.225072e+00
  1.853095e+01    1.239722e+00
  1.856270e+01    1.236179e+00
  1.859445e+01    1.230141e+00
  1.862620e+01    1.219412e+00
  1.865796e+01    1.222346e+00
  1.868971e+01    1.191738e+00
  1.872146e+01    1.211508e+00
  1.875321e+01    1.220218e+00
  1.878496e+01    1.206185e+00
  1.881671e+01    1.193946e+00
  1.884846e+01    1.171622e+00
  1.888021e+01    1.178088e+00
  1.891196e+01    1.176525e+00
  1.894372e+01    1.177282e+00
  1.897547e+01    1.182286e+00
  1.900722e+01    1.163288e+00
  1.903897e+01    1.176805e+00
  1.907072e+01    1.164940e+00
  1.910247e+01    1.191331e+00
  1.913422e+01    1.176752e+00
  1.916597e+01    1.172337e+00
  1.919773e+01    1.170483e+00
  1.922948e+01    1.174417e+00
  1.926123e+01    1.161285e+00
  1.929298e+01    1.215213e+00
  1.932473e+01    1.183681e+00
  1.935648e+01    1.160054e+00
  1.938823e+01    1.188432e+00
  1.941998e+01    1.144715e+00
  1.945173e+01    1.160152e+00
  1.948349e+01    1.168494e+00
  1.951524e+01    1.172628e+00
  1.954699e+01    1.146702e+00
  1.957874e+01    1.151847e+00
  1.961049e+01    1.135305e+00
  1.964224e+01    1.152977e+00
  1.967399e+01    1.151986e+00
  1.970574e+01    1.136541e+00
  1.973749e+01    1.132634e+00
  1.976925e+01    1.098288e+00
  1.980100e+01    1.132275e+00
  1.983275e+01    1.133098e+00
  1.986450e+01    1.095166e+00
  1.989625e+01    1.118725e+00
  1.992800e+01    1.110886e+00
  1.995975e+01    1.104088e+00
  1.999150e+01    1.124806e+00
  2.002325e+01    1.106062e+00
  2.005501e+01    1.098037e+00
  2.008676e+01    1.096491e+00
  2.011851e+01    1.083195e+00
  2.015026e+01    1.079488e+00
  2.018201e+01    1.073108e+00
  2.021376e+01    1.134774e+00
  2.024551e+01    1.096717e+00
  2.027726e+01    1.092686e+00
  2.030902e+01    1.084232e+00
  2.034077e+01    1.123541e+00
  2.037252e+01    1.088367e+00
  2.040427e+01    1.083038e+00
  2.043602e+01    1.095811e+00
  2.046777e+01    1.081651e+00
  2.049952e+01    1.066492e+00
  2.053127e+01    1.039083e+00
  2.056302e+01    1.039390e+00
  2.059478e+01    1.057436e+00
  2.062653e+01    1.060421e+00
  2.065828e+01    1.075498e+00
  2.069003e+01    1.067341e+00
  2.072178e+01    1.072860e+00
  2.075353e+01    1.092857e+00
  2.078528e+01    1.060821e+00
  2.081703e+01    1.050008e+00
  2.084878e+01    1.073116e+00
  2.088054e+01    1.070561e+00
  2.091229e+01    1.080477e+00
  2.094404e+01    1.090100e+00
  2.097579e+01    1.079298e+00
  2.100754e+01    1.033041e+00
  2.103929e+01    1.098760e+00
  2.107104e+01    1.077483e+00
  2.110279e+01    1.060335e+00
  2.113455e+01    1.063254e+00
  2.116630e+01    1.063444e+00
  2.119805e+01    1.079598e+00
  2.122980e+01    1.091690e+00
  2.126155e+01    1.091029e+00
  2.129330e+01    1.117909e+00
  2.132505e+01    1.151514e+00
  2.135680e+01    1.126680e+00
  2.138855e+01    1.144677e+00
  2.142031e+01    1.149419e+00
  2.145206e+01    1.197587e+00
  2.148381e+01    1.227505e+00
  2.151556e+01    1.277494e+00
  2.154731e+01    1.376209e+00
  2.157906e+01    1.402987e+00
  2.161081e+01    1.544677e+00
  2.164256e+01    1.724300e+00
  2.167431e+01    2.029203e+00
  2.170607e+01    2.397979e+00
  2.173782e+01    3.015590e+00
  2.176957e+01    3.959017e+00
  2.180132e+01    5.225510e+00
  2.183307e+01    6.647945e+00
  2.186482e+01    8.177088e+00
  2.189657e+01    9.658174e+00
  2.192832e+01    9.872703e+00
  2.196007e+01    8.553905e+00
  2.199183e+01    6.488844e+00
  2.202358e+01    4.645213e+00
  2.205533e+01    3.473392e+00
  2.208708e+01    2.628752e+00
  2.211883e+01    2.173767e+00
  2.215058e+01    1.866978e+00
  2.218233e+01    1.637787e+00
  2.221408e+01    1.479896e+00
  2.224584e+01    1.359107e+00
  2.227759e+01    1.260029e+00
  2.230934e+01    1.206058e+00
  2.234109e+01    1.160110e+00
  2.237284e+01    1.147141e+00
  2.240459e+01    1.098627e+00
  2.243634e+01    1.071433e+00
  2.246809e+01    1.065800e+00
  2.249984e+01    1.030289e+00
  2.253160e+01    1.013641e+00
  2.256335e+01    9.843915e-01
  2.259510e+01    9.917415e-01
  2.262685e+01    9.648087e-01
  2.265860e+01    9.436408e-01
  2.269035e+01    9.411677e-01
  2.272210e+01    9.489887e-01
  2.275385e+01    9.301387e-01
  2.278560e+01    9.340490e-01
  2.281736e+01    9.484736e-01
  2.284911e+01    9.149974e-01
  2.288086e+01    9.185467e-01
  2.291261e+01    9.081203e-01
  2.294436e+01    9.198425e-01
  2.297611e+01    8.943695e-01
  2.300786e+01    8.984071e-01
  2.303961e+01    8.804486e-01
  2.307137e+01    8.724366e-01
  2.310312e+01    8.579237e-01
  2.313487e+01    8.584271e-01
  2.316662e+01    8.779629e-01
  2.319837e+01    8.822817e-01
  2.323012e+01    8.633345e-01
  2.326187e+01    8.703411e-01
  2.329362e+01    8.651890e-01
  2.332537e+01    8.494039e-01
  2.335713e+01    8.505365e-01
  2.338888e+01    8.618999e-01
  2.342063e+01    8.575781e-01
  2.345238e+01    8.392324e-01
  2.348413e+01    8.565418e-01
  2.351588e+01    8.339801e-01
  2.354763e+01    8.451088e-01
  2.357938e+01    8.334804e-01
  2.361113e+01    8.350762e-01
  2.364289e+01    8.357206e-01
  2.367464e+01    8.429050e-01
  2.370639e+01    8.318015e-01
  2.373814e+01    8.067960e-01
  2.376989e+01    8.221262e-01
  2.380164e+01    8.139705e-01
  2.383339e+01    7.907376e-01
  2.386514e+01    8.084964e-01
  2.389689e+01    8.222828e-01
  2.392865e+01    7.898438e-01
  2.396040e+01    8.118712e-01
  2.399215e+01    7.794755e-01
  2.402390e+01    7.720622e-01
  2.405565e+01    7.814860e-01
  2.408740e+01    7.829143e-01
  2.411915e+01    7.729084e-01
  2.415090e+01    7.813159e-01
  2.418266e+01    7.550658e-01
  2.421441e+01    7.605509e-01
  2.424616e+01    7.738757e-01
  2.427791e+01    7.795030e-01
  2.430966e+01    7.912890e-01
  2.434141e+01    7.994400e-01
  2.437316e+01    7.920243e-01
  2.440491e+01    7.687224e-01
  2.443666e+01    7.811684e-01
  2.446842e+01    7.823058e-01
  2.450017e+01    7.884614e-01
  2.453192e+01    7.995033e-01
  2.456367e+01    8.002670e-01
  2.459542e+01    7.894213e-01
  2.462717e+01    7.672954e-01
  2.465892e+01    7.770448e-01
  2.469067e+01    7.849066e-01
  2.472242e+01    7.781783e-01
  2.475418e+01    7.936003e-01
  2.478593e+01    7.821872e-01
  2.481768e+01    7.752978e-01
  2.484943e+01    7.915407e-01
  2.488118e+01    8.096793e-01
  2.491293e+01    7.778267e-01
  2.494468e+01    7.891627e-01
  2.497643e+01    7.970206e-01
  2.500819e+01    7.849090e-01
  2.503994e+01    7.808853e-01
  2.507169e+01    8.083938e-01
  2.510344e+01    8.000381e-01
  2.513519e+01    7.974945e-01
  2.516694e+01    8.086860e-01
  2.519869e+01    8.422888e-01
  2.523044e+01    8.361899e-01
  2.526219e+01    8.334266e-01
  2.529395e+01    8.368593e-01
  2.532570e+01    8.691198e-01
  2.535745e+01    8.700370e-01
  2.538920e+01    9.020157e-01
  2.542095e+01    9.012886e-01
  2.545270e+01    9.414434e-01
  2.548445e+01    9.524675e-01
  2.551620e+01    9.627270e-01
  2.554795e+01    1.028554e+00
  2.557971e+01    1.044353e+00
  2.561146e+01    1.103735e+00
  2.564321e+01    1.182267e+00
  2.567496e+01    1.293909e+00
  2.570671e+01    1.446535e+00
  2.573846e+01    1.629683e+00
  2.577021e+01    1.934013e+00
  2.580196e+01    2.422182e+00
  2.583371e+01    3.075486e+00
  2.586547e+01    4.009420e+00
  2.589722e+01    5.248188e+00
  2.592897e+01    6.622578e+00
  2.596072e+01    7.931602e+00
  2.599247e+01    8.204287e+00
  2.602422e+01    7.339851e+00
  2.605597e+01    5.728709e+00
  2.608772e+01    4.109630e+00
  2.611948e+01    3.087630e+00
  2.615123e+01    2.411541e+00
  2.618298e+01    1.956180e+00
  2.621473e+01    1.640031e+00
  2.624648e+01    1.444475e+00
  2.627823e+01    1.323636e+00
  2.630998e+01    1.203086e+00
  2.634173e+01    1.122989e+00
  2.637348e+01    1.062077e+00
  2.640524e+01    1.028141e+00
  2.643699e+01    9.847202e-01
  2.646874e+01    9.876553e-01
  2.650049e+01    9.366633e-01
  2.653224e+01    9.317501e-01
  2.656399e+01    9.433821e-01
  2.659574e+01    9.072686e-01
  2.662749e+01    9.011022e-01
  2.665924e+01    9.134109e-01
  2.669100e+01    9.022508e-01
  2.672275e+01    8.998595e-01
  2.675450e+01    9.107537e-01
  2.678625e+01    8.925298e-01
  2.681800e+01    8.831169e-01
  2.684975e+01    9.091359e-01
  2.688150e+01    9.268824e-01
  2.691325e+01    9.140556e-01
  2.694501e+01    9.368238e-01
  2.697676e+01    9.579874e-01
  2.700851e+01    1.017257e+00
  2.704026e+01    1.087544e+00
  2.707201e+01    1.149862e+00
  2.710376e+01    1.313135e+00
  2.713551e+01    1.541581e+00
  2.716726e+01    1.817115e+00
  2.719901e+01    2.112273e+00
  2.723077e+01    2.371796e+00
  2.726252e+01    2.389267e+00
  2.729427e+01    2.074518e+00
  2.732602e+01    1.756707e+00
  2.735777e+01    1.431581e+00
  2.738952e+01    1.282086e+00
  2.742127e+01    1.111013e+00
  2.745302e+01    1.018462e+00
  2.748477e+01    9.960381e-01
  2.751653e+01    9.465674e-01
  2.754828e+01    8.938967e-01
  2.758003e+01    8.790185e-01
  2.761178e+01    8.459421e-01
  2.764353e+01    8.443739e-01
  2.767528e+01    8.308640e-01
  2.770703e+01    8.275990e-01
  2.773878e+01    8.121731e-01
  2.777054e+01    8.322737e-01
  2.780229e+01    8.180000e-01
  2.783404e+01    7.978573e-01
  2.786579e+01    7.906433e-01
  2.789754e+01    8.071799e-01
  2.792929e+01    7.973372e-01
  2.796104e+01    7.685424e-01
  2.799279e+01    7.832320e-01
  2.802454e+01    7.758293e-01
  2.805630e+01    7.938280e-01
  2.808805e+01    7.718991e-01
  2.811980e+01    7.591735e-01
  2.815155e+01    7.810662e-01
  2.818330e+01    7.944452e-01
  2.821505e+01    7.659791e-01
  2.824680e+01    7.702578e-01
  2.827855e+01    7.623439e-01
  2.831030e+01    7.737020e-01
  2.834206e+01    7.486072e-01
  2.837381e+01    7.674908e-01
  2.840556e+01    7.575753e-01
  2.843731e+01    7.676924e-01
  2.846906e+01    7.602444e-01
  2.850081e+01    7.515634e-01
  2.853256e+01    7.580392e-01
  2.856431e+01    7.337743e-01
  2.859606e+01    7.563891e-01
  2.862782e+01    7.560477e-01
  2.865957e+01    7.525278e-01
  2.869132e+01    7.484403e-01
  2.872307e+01    7.299612e-01
  2.875482e+01    7.392510e-01
  2.878657e+01    7.303035e-01
  2.881832e+01    7.297295e-01
  2.885007e+01    7.216352e-01
  2.888183e+01    7.539570e-01
  2.891358e+01    7.436032e-01
  2.894533e+01    7.279858e-01
  2.897708e+01    7.342140e-01
  2.900883e+01    7.651826e-01
  2.904058e+01    7.344233e-01
  2.907233e+01    7.462459e-01
  2.910408e+01    7.590882e-01
  2.913583e+01    7.254874e-01
  2.916759e+01    7.402637e-01
  2.919934e+01    7.381413e-01
  2.923109e+01    7.242041e-01
  2.926284e+01    7.190900e-01
  2.929459e+01    7.326052e-01
  2.932634e+01    7.187658e-01
  2.935809e+01    7.395636e-01
  2.938984e+01    7.399490e-01
  2.942159e+01    7.281896e-01
  2.945335e+01    7.339781e-01
  2.948510e+01    7.187563e-01
  2.951685e+01    7.145007e-01
  2.954860e+01    7.238870e-01
  2.958035e+01    7.303391e-01
  2.961210e+01    7.256408e-01
  2.964385e+01    7.255259e-01
  2.967560e+01    6.966607e-01
  2.970736e+01    7.242556e-01
  2.973911e+01    7.178472e-01
  2.977086e+01    7.159085e-01
  2.980261e+01    7.430476e-01
  2.983436e+01    7.226920e-01
  2.986611e+01    7.068279e-01
  2.989786e+01    7.137164e-01
  2.992961e+01    7.331802e-01
  2.996136e+01    7.310481e-01
  2.999312e+01    7.426381e-01
  3.002487e+01    7.265170e-01
  3.005662e+01    7.285112e-01
  3.008837e+01    7.146277e-01
  3.012012e+01    7.351013e-01
  3.015187e+01    7.268689e-01
  3.018362e+01    7.022251e-01
  3.021537e+01    7.021483e-01
  3.024712e+01    7.077687e-01
  3.027888e+01    7.283123e-01
  3.031063e+01    7.071528e-01
  3.034238e+01    6.948375e-01
  3.037413e+01    7.238264e-01
  3.040588e+01    7.074260e-01
  3.043763e+01    7.207861e-01
  3.046938e+01    7.233974e-01
  3.050113e+01    7.061141e-01
  3.053288e+01    7.091451e-01
  3.056464e+01    6.940471e-01
  3.059639e+01    7.129175e-01
  3.062814e+01    7.143793e-01
  3.065989e+01    7.226083e-01
  3.069164e+01    6.918583e-01
  3.072339e+01    7.501200e-01
  3.075514e+01    7.060723e-01
  3.078689e+01    7.245727e-01
  3.081865e+01    6.864333e-01
  3.085040e+01    6.992251e-01
  3.088215e+01    7.096418e-01
  3.091390e+01    7.161084e-01
  3.094565e+01    7.006082e-01
  3.097740e+01    7.142771e-01
  3.100915e+01    7.170663e-01
  3.104090e+01    7.158778e-01
  3.107265e+01    7.193325e-01
  3.110441e+01    7.155067e-01
  3.113616e+01    7.169701e-01
  3.116791e+01    7.195260e-01
  3.119966e+01    7.221453e-01
  3.123141e+01    7.166631e-01
  3.126316e+01    7.315748e-01
  3.129491e+01    7.275331e-01
  3.132666e+01    7.460313e-01
  3.135841e+01    7.202965e-01
  3.139017e+01    7.247847e-01
  3.142192e+01    7.446893e-01
  3.145367e+01    7.722250e-01
  3.148542e+01    7.439365e-01
  3.151717e+01    7.671456e-01
  3.154892e+01    7.831650e-01
  3.158067e+01    8.014606e-01
  3.161242e+01    8.198843e-01
  3.164418e+01    8.086742e-01
  3.167593e+01    8.915051e-01
  3.170768e+01    8.858023e-01
  3.173943e+01    9.859844e-01
  3.177118e+01    1.123110e+00
  3.180293e+01    1.274976e+00
  3.183468e+01    1.550943e+00
  3.186643e+01    1.858507e+00
  3.189818e+01    2.218160e+00
  3.192994e+01    2.366979e+00
  3.196169e+01    2.294347e+00
  3.199344e+01    2.043501e+00
  3.202519e+01    1.650177e+00
  3.205694e+01    1.394583e+00
  3.208869e+01    1.154186e+00
  3.212044e+01    1.040290e+00
  3.215219e+01    9.217549e-01
  3.218394e+01    8.979980e-01
  3.221570e+01    8.426348e-01
  3.224745e+01    8.046990e-01
  3.227920e+01    7.733214e-01
  3.231095e+01    7.799289e-01
  3.234270e+01    7.500376e-01
  3.237445e+01    7.525996e-01
  3.240620e+01    7.438093e-01
  3.243795e+01    7.489297e-01
  3.246970e+01    7.019510e-01
  3.250146e+01    7.248693e-01
  3.253321e+01    7.296247e-01
  3.254908e+01    7.118054e-01