File: XRD/2024-07-27_002_Ru-CGO-ex_Activtation_ramp_000002_data_000005.dat
# == pyFAI calibration ==
# Distance Sample to Detector: 0.4 m
# PONI: 9.750e-02, 1.135e-01 m
# Rotations: -0.000175 0.000000 -0.000000 rad
#
# == Fit2d calibration ==
# Distance Sample-beamCenter: 400.000 mm
# Center: x=1514.000, y=1300.000 pix
# Tilt: 0.010 deg  TiltPlanRot: 0.010 deg
#
# Detector Detector	 Spline= None	 PixelSize= 7.500e-05, 7.500e-05 m
#    Detector has a mask: False
#    Detector has a dark current: False
#    detector has a flat field: False
#
# Wavelength: 6.888e-11 m
# Mask applied: user provided
# Dark current applied: False
# Flat field applied: False
# Polarization factor: 0.99
# Normalization factor: 1.0
# --> /home/myspot/data/2024_07_Rosario/Ru-CGO-ex/2024-07-27_002_Ru-CGO-ex_Activtation_ramp_000002_data_000005.dat
#       q_nm^-1             I
  2.003187e-02    0.000000e+00
  5.178302e-02    9.699228e-02
  8.353417e-02    1.640855e-02
  1.152853e-01    4.397778e-03
  1.470365e-01    3.046532e-02
  1.787876e-01    2.446977e-02
  2.105388e-01    0.000000e+00
  2.422899e-01    4.238021e-02
  2.740411e-01    2.620075e-02
  3.057922e-01    2.210723e-02
  3.375433e-01    1.360139e-02
  3.692945e-01    1.956828e-02
  4.010456e-01    3.754717e-02
  4.327968e-01    3.122024e-02
  4.645479e-01    9.781254e-03
  4.962991e-01    4.186745e-02
  5.280502e-01    2.500667e-02
  5.598014e-01    1.748022e-02
  5.915525e-01    2.479738e-02
  6.233037e-01    3.564067e-02
  6.550548e-01    1.352550e-02
  6.868060e-01    7.324327e-02
  7.185571e-01    4.409949e-02
  7.503083e-01    3.746543e-02
  7.820594e-01    1.215801e-01
  8.138106e-01    1.745645e-01
  8.455617e-01    2.853744e-01
  8.773129e-01    4.405486e-01
  9.090640e-01    5.618439e-01
  9.408152e-01    7.411582e-01
  9.725663e-01    8.289320e-01
  1.004317e+00    1.007950e+00
  1.036069e+00    1.083052e+00
  1.067820e+00    1.352680e+00
  1.099571e+00    1.400584e+00
  1.131322e+00    1.529206e+00
  1.163073e+00    1.571426e+00
  1.194824e+00    1.580162e+00
  1.226575e+00    2.175395e+00
  1.258327e+00    2.418317e+00
  1.290078e+00    2.564297e+00
  1.321829e+00    2.565010e+00
  1.353580e+00    2.751574e+00
  1.385331e+00    2.607594e+00
  1.417082e+00    2.718846e+00
  1.448834e+00    2.777847e+00
  1.480585e+00    2.914100e+00
  1.512336e+00    2.974796e+00
  1.544087e+00    3.085261e+00
  1.575838e+00    3.046332e+00
  1.607589e+00    3.051829e+00
  1.639340e+00    2.955299e+00
  1.671092e+00    3.013399e+00
  1.702843e+00    2.939488e+00
  1.734594e+00    2.853871e+00
  1.766345e+00    2.882804e+00
  1.798096e+00    2.796393e+00
  1.829847e+00    2.937320e+00
  1.861598e+00    2.954642e+00
  1.893350e+00    2.997586e+00
  1.925101e+00    2.661454e+00
  1.956852e+00    2.898525e+00
  1.988603e+00    2.766545e+00
  2.020354e+00    2.725504e+00
  2.052105e+00    2.893616e+00
  2.083856e+00    2.692049e+00
  2.115608e+00    2.768591e+00
  2.147359e+00    2.753658e+00
  2.179110e+00    2.914123e+00
  2.210861e+00    2.677421e+00
  2.242612e+00    2.809066e+00
  2.274363e+00    2.811073e+00
  2.306115e+00    2.661388e+00
  2.337866e+00    2.881684e+00
  2.369617e+00    2.802624e+00
  2.401368e+00    2.707767e+00
  2.433119e+00    2.813767e+00
  2.464870e+00    2.838867e+00
  2.496621e+00    2.865578e+00
  2.528373e+00    2.829891e+00
  2.560124e+00    2.803776e+00
  2.591875e+00    2.936313e+00
  2.623626e+00    3.005652e+00
  2.655377e+00    2.869976e+00
  2.687128e+00    2.867261e+00
  2.718879e+00    2.846984e+00
  2.750631e+00    2.767565e+00
  2.782382e+00    2.886262e+00
  2.814133e+00    2.918483e+00
  2.845884e+00    2.930296e+00
  2.877635e+00    2.899839e+00
  2.909386e+00    2.946740e+00
  2.941137e+00    2.934623e+00
  2.972889e+00    2.946670e+00
  3.004640e+00    2.896997e+00
  3.036391e+00    2.979226e+00
  3.068142e+00    2.923186e+00
  3.099893e+00    2.880943e+00
  3.131644e+00    3.002933e+00
  3.163395e+00    2.949518e+00
  3.195147e+00    2.950854e+00
  3.226898e+00    2.886448e+00
  3.258649e+00    2.917590e+00
  3.290400e+00    2.949839e+00
  3.322151e+00    2.879466e+00
  3.353902e+00    2.964244e+00
  3.385654e+00    2.968863e+00
  3.417405e+00    2.990774e+00
  3.449156e+00    2.965872e+00
  3.480907e+00    3.053216e+00
  3.512658e+00    2.920116e+00
  3.544409e+00    2.932186e+00
  3.576160e+00    2.953366e+00
  3.607912e+00    3.047436e+00
  3.639663e+00    3.086193e+00
  3.671414e+00    3.075083e+00
  3.703165e+00    3.006564e+00
  3.734916e+00    2.945345e+00
  3.766667e+00    3.133504e+00
  3.798418e+00    3.026365e+00
  3.830170e+00    2.964913e+00
  3.861921e+00    2.989701e+00
  3.893672e+00    2.986047e+00
  3.925423e+00    3.062903e+00
  3.957174e+00    3.041853e+00
  3.988925e+00    3.033638e+00
  4.020676e+00    3.065401e+00
  4.052428e+00    2.941470e+00
  4.084179e+00    3.030877e+00
  4.115930e+00    3.034149e+00
  4.147681e+00    3.131694e+00
  4.179432e+00    3.085850e+00
  4.211183e+00    3.149634e+00
  4.242935e+00    3.024583e+00
  4.274686e+00    3.098455e+00
  4.306437e+00    3.087603e+00
  4.338188e+00    3.068250e+00
  4.369939e+00    3.048769e+00
  4.401690e+00    3.082546e+00
  4.433441e+00    3.171954e+00
  4.465193e+00    3.128174e+00
  4.496944e+00    3.127363e+00
  4.528695e+00    3.101703e+00
  4.560446e+00    3.049621e+00
  4.592197e+00    3.096769e+00
  4.623948e+00    3.213484e+00
  4.655699e+00    3.131254e+00
  4.687451e+00    3.182061e+00
  4.719202e+00    3.202845e+00
  4.750953e+00    3.199836e+00
  4.782704e+00    3.064009e+00
  4.814455e+00    3.099523e+00
  4.846206e+00    3.160421e+00
  4.877957e+00    3.112706e+00
  4.909709e+00    3.209811e+00
  4.941460e+00    3.118225e+00
  4.973211e+00    3.200241e+00
  5.004962e+00    3.112157e+00
  5.036713e+00    3.175936e+00
  5.068464e+00    3.189429e+00
  5.100216e+00    3.184127e+00
  5.131967e+00    3.116702e+00
  5.163718e+00    3.183576e+00
  5.195469e+00    3.243619e+00
  5.227220e+00    3.124160e+00
  5.258971e+00    3.182510e+00
  5.290722e+00    3.165066e+00
  5.322474e+00    3.170641e+00
  5.354225e+00    3.241478e+00
  5.385976e+00    3.220739e+00
  5.417727e+00    3.133761e+00
  5.449478e+00    3.173823e+00
  5.481229e+00    3.084859e+00
  5.512980e+00    3.190752e+00
  5.544732e+00    3.102947e+00
  5.576483e+00    3.212783e+00
  5.608234e+00    3.046676e+00
  5.639985e+00    3.175250e+00
  5.671736e+00    3.062901e+00
  5.703487e+00    3.178122e+00
  5.735238e+00    3.125456e+00
  5.766990e+00    3.076482e+00
  5.798741e+00    3.174682e+00
  5.830492e+00    3.146338e+00
  5.862243e+00    3.062991e+00
  5.893994e+00    2.993150e+00
  5.925745e+00    3.091106e+00
  5.957497e+00    3.021234e+00
  5.989248e+00    3.054096e+00
  6.020999e+00    3.131954e+00
  6.052750e+00    3.120454e+00
  6.084501e+00    3.064144e+00
  6.116252e+00    3.176219e+00
  6.148003e+00    3.142243e+00
  6.179755e+00    3.101955e+00
  6.211506e+00    3.121199e+00
  6.243257e+00    3.061824e+00
  6.275008e+00    3.080494e+00
  6.306759e+00    3.114063e+00
  6.338510e+00    3.130563e+00
  6.370261e+00    3.071528e+00
  6.402013e+00    3.080456e+00
  6.433764e+00    3.080040e+00
  6.465515e+00    3.104074e+00
  6.497266e+00    3.076617e+00
  6.529017e+00    3.080427e+00
  6.560768e+00    3.022120e+00
  6.592519e+00    3.064360e+00
  6.624271e+00    3.069365e+00
  6.656022e+00    3.048171e+00
  6.687773e+00    3.194689e+00
  6.719524e+00    3.101468e+00
  6.751275e+00    3.060201e+00
  6.783026e+00    3.060602e+00
  6.814777e+00    3.053506e+00
  6.846529e+00    3.051183e+00
  6.878280e+00    3.090971e+00
  6.910031e+00    3.081080e+00
  6.941782e+00    3.022546e+00
  6.973533e+00    3.003291e+00
  7.005284e+00    3.001498e+00
  7.037036e+00    2.969328e+00
  7.068787e+00    3.017973e+00
  7.100538e+00    3.012355e+00
  7.132289e+00    3.112146e+00
  7.164040e+00    3.094424e+00
  7.195791e+00    3.004139e+00
  7.227542e+00    3.068765e+00
  7.259294e+00    3.008457e+00
  7.291045e+00    2.997712e+00
  7.322796e+00    3.011765e+00
  7.354547e+00    2.929371e+00
  7.386298e+00    3.039061e+00
  7.418049e+00    3.052265e+00
  7.449800e+00    3.027266e+00
  7.481552e+00    2.986846e+00
  7.513303e+00    3.010535e+00
  7.545054e+00    3.049773e+00
  7.576805e+00    3.029569e+00
  7.608556e+00    2.977331e+00
  7.640307e+00    2.992764e+00
  7.672058e+00    3.027480e+00
  7.703810e+00    2.981496e+00
  7.735561e+00    3.032120e+00
  7.767312e+00    2.922446e+00
  7.799063e+00    2.930246e+00
  7.830814e+00    2.975778e+00
  7.862565e+00    2.982527e+00
  7.894317e+00    2.944652e+00
  7.926068e+00    2.949579e+00
  7.957819e+00    3.005109e+00
  7.989570e+00    2.974692e+00
  8.021321e+00    2.991147e+00
  8.053072e+00    2.975440e+00
  8.084823e+00    2.966931e+00
  8.116575e+00    2.962271e+00
  8.148326e+00    3.072562e+00
  8.180077e+00    2.981797e+00
  8.211828e+00    3.027478e+00
  8.243579e+00    2.988465e+00
  8.275330e+00    3.004485e+00
  8.307081e+00    2.969942e+00
  8.338833e+00    2.980509e+00
  8.370584e+00    2.958670e+00
  8.402335e+00    2.934674e+00
  8.434086e+00    2.947574e+00
  8.465837e+00    2.892403e+00
  8.497588e+00    2.924523e+00
  8.529339e+00    2.891084e+00
  8.561091e+00    2.968443e+00
  8.592842e+00    2.888850e+00
  8.624593e+00    2.882270e+00
  8.656344e+00    2.869729e+00
  8.688095e+00    2.945737e+00
  8.719846e+00    2.886200e+00
  8.751598e+00    2.841252e+00
  8.783349e+00    2.858543e+00
  8.815100e+00    2.849527e+00
  8.846851e+00    2.868882e+00
  8.878602e+00    2.850187e+00
  8.910353e+00    2.822568e+00
  8.942104e+00    2.957931e+00
  8.973856e+00    2.912001e+00
  9.005607e+00    2.806281e+00
  9.037358e+00    2.874949e+00
  9.069109e+00    2.844244e+00
  9.100860e+00    2.908441e+00
  9.132611e+00    2.834694e+00
  9.164362e+00    2.863441e+00
  9.196114e+00    2.839540e+00
  9.227865e+00    2.839821e+00
  9.259616e+00    2.893326e+00
  9.291367e+00    2.839391e+00
  9.323118e+00    2.865098e+00
  9.354869e+00    2.781929e+00
  9.386620e+00    2.825925e+00
  9.418372e+00    2.823852e+00
  9.450123e+00    2.741067e+00
  9.481874e+00    2.829713e+00
  9.513625e+00    2.843745e+00
  9.545376e+00    2.834796e+00
  9.577127e+00    2.771013e+00
  9.608878e+00    2.832817e+00
  9.640630e+00    2.740609e+00
  9.672381e+00    2.757397e+00
  9.704132e+00    2.742854e+00
  9.735883e+00    2.749086e+00
  9.767634e+00    2.800955e+00
  9.799385e+00    2.758316e+00
  9.831137e+00    2.723738e+00
  9.862888e+00    2.800404e+00
  9.894639e+00    2.733293e+00
  9.926390e+00    2.774250e+00
  9.958141e+00    2.736807e+00
  9.989892e+00    2.681926e+00
  1.002164e+01    2.716908e+00
  1.005339e+01    2.679559e+00
  1.008515e+01    2.719115e+00
  1.011690e+01    2.707620e+00
  1.014865e+01    2.691538e+00
  1.018040e+01    2.694903e+00
  1.021215e+01    2.628504e+00
  1.024390e+01    2.633219e+00
  1.027565e+01    2.645768e+00
  1.030740e+01    2.671864e+00
  1.033915e+01    2.717366e+00
  1.037091e+01    2.639024e+00
  1.040266e+01    2.667486e+00
  1.043441e+01    2.639500e+00
  1.046616e+01    2.651938e+00
  1.049791e+01    2.663211e+00
  1.052966e+01    2.621707e+00
  1.056141e+01    2.618147e+00
  1.059316e+01    2.621238e+00
  1.062492e+01    2.600307e+00
  1.065667e+01    2.617239e+00
  1.068842e+01    2.631642e+00
  1.072017e+01    2.590449e+00
  1.075192e+01    2.573214e+00
  1.078367e+01    2.581305e+00
  1.081542e+01    2.577832e+00
  1.084717e+01    2.526114e+00
  1.087892e+01    2.587476e+00
  1.091068e+01    2.543082e+00
  1.094243e+01    2.564662e+00
  1.097418e+01    2.515349e+00
  1.100593e+01    2.522434e+00
  1.103768e+01    2.505791e+00
  1.106943e+01    2.530085e+00
  1.110118e+01    2.533527e+00
  1.113293e+01    2.508703e+00
  1.116468e+01    2.483197e+00
  1.119644e+01    2.461719e+00
  1.122819e+01    2.516484e+00
  1.125994e+01    2.479553e+00
  1.129169e+01    2.486774e+00
  1.132344e+01    2.542427e+00
  1.135519e+01    2.437296e+00
  1.138694e+01    2.440029e+00
  1.141869e+01    2.460661e+00
  1.145045e+01    2.472435e+00
  1.148220e+01    2.480277e+00
  1.151395e+01    2.412632e+00
  1.154570e+01    2.412919e+00
  1.157745e+01    2.401987e+00
  1.160920e+01    2.403704e+00
  1.164095e+01    2.467809e+00
  1.167270e+01    2.444369e+00
  1.170445e+01    2.437864e+00
  1.173621e+01    2.388450e+00
  1.176796e+01    2.408467e+00
  1.179971e+01    2.433565e+00
  1.183146e+01    2.356941e+00
  1.186321e+01    2.369358e+00
  1.189496e+01    2.406729e+00
  1.192671e+01    2.379073e+00
  1.195846e+01    2.400753e+00
  1.199021e+01    2.413270e+00
  1.202197e+01    2.385884e+00
  1.205372e+01    2.404098e+00
  1.208547e+01    2.359123e+00
  1.211722e+01    2.351412e+00
  1.214897e+01    2.361837e+00
  1.218072e+01    2.362252e+00
  1.221247e+01    2.316186e+00
  1.224422e+01    2.364963e+00
  1.227597e+01    2.361222e+00
  1.230773e+01    2.348994e+00
  1.233948e+01    2.386856e+00
  1.237123e+01    2.370005e+00
  1.240298e+01    2.319232e+00
  1.243473e+01    2.386660e+00
  1.246648e+01    2.419091e+00
  1.249823e+01    2.399883e+00
  1.252998e+01    2.402923e+00
  1.256174e+01    2.369728e+00
  1.259349e+01    2.453111e+00
  1.262524e+01    2.434936e+00
  1.265699e+01    2.468892e+00
  1.268874e+01    2.500607e+00
  1.272049e+01    2.542579e+00
  1.275224e+01    2.522045e+00
  1.278399e+01    2.613559e+00
  1.281574e+01    2.798113e+00
  1.284750e+01    2.898278e+00
  1.287925e+01    3.067172e+00
  1.291100e+01    3.311368e+00
  1.294275e+01    3.703557e+00
  1.297450e+01    4.271715e+00
  1.300625e+01    5.226687e+00
  1.303800e+01    6.666142e+00
  1.306975e+01    8.952088e+00
  1.310150e+01    1.183969e+01
  1.313326e+01    1.494020e+01
  1.316501e+01    1.796725e+01
  1.319676e+01    2.033479e+01
  1.322851e+01    1.903496e+01
  1.326026e+01    1.456374e+01
  1.329201e+01    1.027926e+01
  1.332376e+01    7.439632e+00
  1.335551e+01    5.691585e+00
  1.338727e+01    4.605245e+00
  1.341902e+01    3.889513e+00
  1.345077e+01    3.419332e+00
  1.348252e+01    3.126899e+00
  1.351427e+01    2.946528e+00
  1.354602e+01    2.690617e+00
  1.357777e+01    2.613573e+00
  1.360952e+01    2.517466e+00
  1.364127e+01    2.472546e+00
  1.367303e+01    2.407074e+00
  1.370478e+01    2.350189e+00
  1.373653e+01    2.273422e+00
  1.376828e+01    2.232261e+00
  1.380003e+01    2.241128e+00
  1.383178e+01    2.207975e+00
  1.386353e+01    2.159871e+00
  1.389528e+01    2.175761e+00
  1.392703e+01    2.156402e+00
  1.395879e+01    2.158295e+00
  1.399054e+01    2.112218e+00
  1.402229e+01    2.105640e+00
  1.405404e+01    2.136008e+00
  1.408579e+01    2.065154e+00
  1.411754e+01    2.065549e+00
  1.414929e+01    2.106802e+00
  1.418104e+01    2.038171e+00
  1.421279e+01    2.032313e+00
  1.424455e+01    2.032302e+00
  1.427630e+01    1.995689e+00
  1.430805e+01    1.992764e+00
  1.433980e+01    2.015352e+00
  1.437155e+01    1.998020e+00
  1.440330e+01    1.999849e+00
  1.443505e+01    1.974588e+00
  1.446680e+01    1.981680e+00
  1.449856e+01    1.967187e+00
  1.453031e+01    1.977631e+00
  1.456206e+01    1.965985e+00
  1.459381e+01    2.001397e+00
  1.462556e+01    1.975912e+00
  1.465731e+01    1.940564e+00
  1.468906e+01    1.903598e+00
  1.472081e+01    1.957049e+00
  1.475256e+01    1.980603e+00
  1.478432e+01    1.937317e+00
  1.481607e+01    1.945307e+00
  1.484782e+01    1.936568e+00
  1.487957e+01    1.978677e+00
  1.491132e+01    1.984039e+00
  1.494307e+01    1.996172e+00
  1.497482e+01    2.080463e+00
  1.500657e+01    2.151116e+00
  1.503832e+01    2.287451e+00
  1.507008e+01    2.421034e+00
  1.510183e+01    2.778992e+00
  1.513358e+01    3.192871e+00
  1.516533e+01    3.912122e+00
  1.519708e+01    4.837180e+00
  1.522883e+01    5.641909e+00
  1.526058e+01    6.325490e+00
  1.529233e+01    6.736826e+00
  1.532409e+01    6.320453e+00
  1.535584e+01    5.231488e+00
  1.538759e+01    4.037673e+00
  1.541934e+01    3.199316e+00
  1.545109e+01    2.706651e+00
  1.548284e+01    2.415045e+00
  1.551459e+01    2.223278e+00
  1.554634e+01    2.056546e+00
  1.557809e+01    2.019260e+00
  1.560985e+01    1.954997e+00
  1.564160e+01    1.854356e+00
  1.567335e+01    1.828206e+00
  1.570510e+01    1.777464e+00
  1.573685e+01    1.783302e+00
  1.576860e+01    1.754483e+00
  1.580035e+01    1.732363e+00
  1.583210e+01    1.742787e+00
  1.586385e+01    1.688973e+00
  1.589561e+01    1.704387e+00
  1.592736e+01    1.681831e+00
  1.595911e+01    1.670374e+00
  1.599086e+01    1.638642e+00
  1.602261e+01    1.679600e+00
  1.605436e+01    1.652511e+00
  1.608611e+01    1.645144e+00
  1.611786e+01    1.574696e+00
  1.614961e+01    1.616868e+00
  1.618137e+01    1.613243e+00
  1.621312e+01    1.580255e+00
  1.624487e+01    1.575059e+00
  1.627662e+01    1.603603e+00
  1.630837e+01    1.622758e+00
  1.634012e+01    1.607978e+00
  1.637187e+01    1.610025e+00
  1.640362e+01    1.557240e+00
  1.643538e+01    1.538110e+00
  1.646713e+01    1.565531e+00
  1.649888e+01    1.563212e+00
  1.653063e+01    1.559950e+00
  1.656238e+01    1.530990e+00
  1.659413e+01    1.570375e+00
  1.662588e+01    1.534965e+00
  1.665763e+01    1.524454e+00
  1.668938e+01    1.510172e+00
  1.672114e+01    1.527456e+00
  1.675289e+01    1.461575e+00
  1.678464e+01    1.489282e+00
  1.681639e+01    1.511377e+00
  1.684814e+01    1.488039e+00
  1.687989e+01    1.460873e+00
  1.691164e+01    1.457535e+00
  1.694339e+01    1.479033e+00
  1.697514e+01    1.472041e+00
  1.700690e+01    1.449042e+00
  1.703865e+01    1.458656e+00
  1.707040e+01    1.445292e+00
  1.710215e+01    1.412289e+00
  1.713390e+01    1.422064e+00
  1.716565e+01    1.426833e+00
  1.719740e+01    1.418702e+00
  1.722915e+01    1.429169e+00
  1.726091e+01    1.431033e+00
  1.729266e+01    1.435260e+00
  1.732441e+01    1.421826e+00
  1.735616e+01    1.414099e+00
  1.738791e+01    1.404312e+00
  1.741966e+01    1.420046e+00
  1.745141e+01    1.405546e+00
  1.748316e+01    1.399192e+00
  1.751491e+01    1.407259e+00
  1.754667e+01    1.395722e+00
  1.757842e+01    1.359424e+00
  1.761017e+01    1.370527e+00
  1.764192e+01    1.377784e+00
  1.767367e+01    1.344223e+00
  1.770542e+01    1.378500e+00
  1.773717e+01    1.369302e+00
  1.776892e+01    1.386497e+00
  1.780067e+01    1.365780e+00
  1.783243e+01    1.355360e+00
  1.786418e+01    1.371077e+00
  1.789593e+01    1.356500e+00
  1.792768e+01    1.341104e+00
  1.795943e+01    1.311579e+00
  1.799118e+01    1.303367e+00
  1.802293e+01    1.312086e+00
  1.805468e+01    1.336663e+00
  1.808643e+01    1.309494e+00
  1.811819e+01    1.296496e+00
  1.814994e+01    1.315642e+00
  1.818169e+01    1.296708e+00
  1.821344e+01    1.306821e+00
  1.824519e+01    1.303067e+00
  1.827694e+01    1.307882e+00
  1.830869e+01    1.320536e+00
  1.834044e+01    1.281556e+00
  1.837220e+01    1.299296e+00
  1.840395e+01    1.307214e+00
  1.843570e+01    1.270208e+00
  1.846745e+01    1.281207e+00
  1.849920e+01    1.272047e+00
  1.853095e+01    1.294496e+00
  1.856270e+01    1.290443e+00
  1.859445e+01    1.249001e+00
  1.862620e+01    1.266536e+00
  1.865796e+01    1.251360e+00
  1.868971e+01    1.269995e+00
  1.872146e+01    1.258910e+00
  1.875321e+01    1.274475e+00
  1.878496e+01    1.242298e+00
  1.881671e+01    1.238652e+00
  1.884846e+01    1.259650e+00
  1.888021e+01    1.247156e+00
  1.891196e+01    1.251116e+00
  1.894372e+01    1.226592e+00
  1.897547e+01    1.241925e+00
  1.900722e+01    1.246511e+00
  1.903897e+01    1.227938e+00
  1.907072e+01    1.218749e+00
  1.910247e+01    1.221204e+00
  1.913422e+01    1.205410e+00
  1.916597e+01    1.210614e+00
  1.919773e+01    1.228666e+00
  1.922948e+01    1.200533e+00
  1.926123e+01    1.205588e+00
  1.929298e+01    1.190848e+00
  1.932473e+01    1.223168e+00
  1.935648e+01    1.213403e+00
  1.938823e+01    1.202461e+00
  1.941998e+01    1.197889e+00
  1.945173e+01    1.186729e+00
  1.948349e+01    1.191615e+00
  1.951524e+01    1.197207e+00
  1.954699e+01    1.173462e+00
  1.957874e+01    1.171231e+00
  1.961049e+01    1.178264e+00
  1.964224e+01    1.171544e+00
  1.967399e+01    1.168498e+00
  1.970574e+01    1.170363e+00
  1.973749e+01    1.185559e+00
  1.976925e+01    1.169871e+00
  1.980100e+01    1.146268e+00
  1.983275e+01    1.149118e+00
  1.986450e+01    1.164476e+00
  1.989625e+01    1.147371e+00
  1.992800e+01    1.160788e+00
  1.995975e+01    1.137909e+00
  1.999150e+01    1.152715e+00
  2.002325e+01    1.157719e+00
  2.005501e+01    1.134207e+00
  2.008676e+01    1.143761e+00
  2.011851e+01    1.123474e+00
  2.015026e+01    1.115558e+00
  2.018201e+01    1.127597e+00
  2.021376e+01    1.137059e+00
  2.024551e+01    1.115753e+00
  2.027726e+01    1.111050e+00
  2.030902e+01    1.121123e+00
  2.034077e+01    1.136529e+00
  2.037252e+01    1.112518e+00
  2.040427e+01    1.113962e+00
  2.043602e+01    1.128525e+00
  2.046777e+01    1.113045e+00
  2.049952e+01    1.118094e+00
  2.053127e+01    1.101623e+00
  2.056302e+01    1.095195e+00
  2.059478e+01    1.116560e+00
  2.062653e+01    1.106151e+00
  2.065828e+01    1.094981e+00
  2.069003e+01    1.102742e+00
  2.072178e+01    1.099801e+00
  2.075353e+01    1.112819e+00
  2.078528e+01    1.139224e+00
  2.081703e+01    1.105132e+00
  2.084878e+01    1.103247e+00
  2.088054e+01    1.132451e+00
  2.091229e+01    1.109947e+00
  2.094404e+01    1.066848e+00
  2.097579e+01    1.121063e+00
  2.100754e+01    1.087653e+00
  2.103929e+01    1.095153e+00
  2.107104e+01    1.113259e+00
  2.110279e+01    1.106681e+00
  2.113455e+01    1.102657e+00
  2.116630e+01    1.108302e+00
  2.119805e+01    1.108790e+00
  2.122980e+01    1.142488e+00
  2.126155e+01    1.151988e+00
  2.129330e+01    1.142708e+00
  2.132505e+01    1.151304e+00
  2.135680e+01    1.182491e+00
  2.138855e+01    1.184254e+00
  2.142031e+01    1.220752e+00
  2.145206e+01    1.246314e+00
  2.148381e+01    1.279035e+00
  2.151556e+01    1.289167e+00
  2.154731e+01    1.353933e+00
  2.157906e+01    1.465772e+00
  2.161081e+01    1.568835e+00
  2.164256e+01    1.677932e+00
  2.167431e+01    1.934910e+00
  2.170607e+01    2.267298e+00
  2.173782e+01    2.798898e+00
  2.176957e+01    3.582368e+00
  2.180132e+01    4.695380e+00
  2.183307e+01    6.191384e+00
  2.186482e+01    7.888475e+00
  2.189657e+01    9.782678e+00
  2.192832e+01    1.101686e+01
  2.196007e+01    1.086749e+01
  2.199183e+01    8.942524e+00
  2.202358e+01    6.519418e+00
  2.205533e+01    4.643055e+00
  2.208708e+01    3.414191e+00
  2.211883e+01    2.709826e+00
  2.215058e+01    2.238728e+00
  2.218233e+01    1.916499e+00
  2.221408e+01    1.655153e+00
  2.224584e+01    1.533984e+00
  2.227759e+01    1.426798e+00
  2.230934e+01    1.301440e+00
  2.234109e+01    1.262215e+00
  2.237284e+01    1.217960e+00
  2.240459e+01    1.198950e+00
  2.243634e+01    1.138788e+00
  2.246809e+01    1.101203e+00
  2.249984e+01    1.054489e+00
  2.253160e+01    1.065734e+00
  2.256335e+01    1.045136e+00
  2.259510e+01    1.023431e+00
  2.262685e+01    1.007699e+00
  2.265860e+01    1.019113e+00
  2.269035e+01    9.905553e-01
  2.272210e+01    9.856840e-01
  2.275385e+01    9.630725e-01
  2.278560e+01    9.541309e-01
  2.281736e+01    9.558427e-01
  2.284911e+01    9.447799e-01
  2.288086e+01    9.399251e-01
  2.291261e+01    9.525476e-01
  2.294436e+01    9.284112e-01
  2.297611e+01    9.118864e-01
  2.300786e+01    9.271892e-01
  2.303961e+01    9.227721e-01
  2.307137e+01    9.278150e-01
  2.310312e+01    9.058333e-01
  2.313487e+01    9.219667e-01
  2.316662e+01    9.076121e-01
  2.319837e+01    8.912324e-01
  2.323012e+01    9.076785e-01
  2.326187e+01    8.785560e-01
  2.329362e+01    8.963539e-01
  2.332537e+01    8.839374e-01
  2.335713e+01    8.833469e-01
  2.338888e+01    8.839454e-01
  2.342063e+01    8.591108e-01
  2.345238e+01    8.836910e-01
  2.348413e+01    8.708251e-01
  2.351588e+01    8.859772e-01
  2.354763e+01    8.540658e-01
  2.357938e+01    8.752002e-01
  2.361113e+01    8.605801e-01
  2.364289e+01    8.610125e-01
  2.367464e+01    8.291301e-01
  2.370639e+01    8.184919e-01
  2.373814e+01    8.598028e-01
  2.376989e+01    8.538035e-01
  2.380164e+01    8.249415e-01
  2.383339e+01    8.183827e-01
  2.386514e+01    8.249814e-01
  2.389689e+01    8.431164e-01
  2.392865e+01    8.265067e-01
  2.396040e+01    8.322535e-01
  2.399215e+01    8.123628e-01
  2.402390e+01    8.110263e-01
  2.405565e+01    8.113725e-01
  2.408740e+01    8.153635e-01
  2.411915e+01    8.115881e-01
  2.415090e+01    7.900276e-01
  2.418266e+01    7.836999e-01
  2.421441e+01    7.723538e-01
  2.424616e+01    8.058717e-01
  2.427791e+01    8.090583e-01
  2.430966e+01    8.160912e-01
  2.434141e+01    8.035990e-01
  2.437316e+01    8.412441e-01
  2.440491e+01    7.875277e-01
  2.443666e+01    8.251349e-01
  2.446842e+01    7.902926e-01
  2.450017e+01    8.045667e-01
  2.453192e+01    8.244210e-01
  2.456367e+01    7.915949e-01
  2.459542e+01    8.157361e-01
  2.462717e+01    7.905696e-01
  2.465892e+01    8.233440e-01
  2.469067e+01    8.181210e-01
  2.472242e+01    7.946494e-01
  2.475418e+01    7.946729e-01
  2.478593e+01    8.111315e-01
  2.481768e+01    8.316542e-01
  2.484943e+01    8.040398e-01
  2.488118e+01    7.945395e-01
  2.491293e+01    8.168299e-01
  2.494468e+01    8.210191e-01
  2.497643e+01    8.201182e-01
  2.500819e+01    8.241692e-01
  2.503994e+01    8.263519e-01
  2.507169e+01    8.231816e-01
  2.510344e+01    8.460830e-01
  2.513519e+01    8.589790e-01
  2.516694e+01    8.471994e-01
  2.519869e+01    8.513927e-01
  2.523044e+01    8.452380e-01
  2.526219e+01    8.838378e-01
  2.529395e+01    8.699228e-01
  2.532570e+01    8.979009e-01
  2.535745e+01    8.949181e-01
  2.538920e+01    9.209993e-01
  2.542095e+01    9.366401e-01
  2.545270e+01    9.523318e-01
  2.548445e+01    9.801703e-01
  2.551620e+01    9.901758e-01
  2.554795e+01    1.020133e+00
  2.557971e+01    1.045324e+00
  2.561146e+01    1.111323e+00
  2.564321e+01    1.183248e+00
  2.567496e+01    1.269960e+00
  2.570671e+01    1.376760e+00
  2.573846e+01    1.532099e+00
  2.577021e+01    1.793953e+00
  2.580196e+01    2.158158e+00
  2.583371e+01    2.711094e+00
  2.586547e+01    3.488713e+00
  2.589722e+01    4.636215e+00
  2.592897e+01    6.147325e+00
  2.596072e+01    7.793531e+00
  2.599247e+01    9.043540e+00
  2.602422e+01    9.202600e+00
  2.605597e+01    8.003312e+00
  2.608772e+01    6.226125e+00
  2.611948e+01    4.498726e+00
  2.615123e+01    3.332724e+00
  2.618298e+01    2.552439e+00
  2.621473e+01    2.094764e+00
  2.624648e+01    1.778383e+00
  2.627823e+01    1.528093e+00
  2.630998e+01    1.392523e+00
  2.634173e+01    1.252071e+00
  2.637348e+01    1.166985e+00
  2.640524e+01    1.095125e+00
  2.643699e+01    1.079589e+00
  2.646874e+01    1.035326e+00
  2.650049e+01    9.971545e-01
  2.653224e+01    1.000361e+00
  2.656399e+01    9.827234e-01
  2.659574e+01    9.797642e-01
  2.662749e+01    9.674692e-01
  2.665924e+01    9.204932e-01
  2.669100e+01    9.639048e-01
  2.672275e+01    9.373078e-01
  2.675450e+01    9.284366e-01
  2.678625e+01    9.230518e-01
  2.681800e+01    9.196092e-01
  2.684975e+01    9.463288e-01
  2.688150e+01    9.311255e-01
  2.691325e+01    9.530132e-01
  2.694501e+01    9.845979e-01
  2.697676e+01    9.847627e-01
  2.700851e+01    1.032699e+00
  2.704026e+01    1.051937e+00
  2.707201e+01    1.158052e+00
  2.710376e+01    1.225734e+00
  2.713551e+01    1.434766e+00
  2.716726e+01    1.690002e+00
  2.719901e+01    2.029925e+00
  2.723077e+01    2.394374e+00
  2.726252e+01    2.621974e+00
  2.729427e+01    2.618276e+00
  2.732602e+01    2.292113e+00
  2.735777e+01    1.886047e+00
  2.738952e+01    1.561485e+00
  2.742127e+01    1.337658e+00
  2.745302e+01    1.203802e+00
  2.748477e+01    1.093299e+00
  2.751653e+01    1.036327e+00
  2.754828e+01    1.005976e+00
  2.758003e+01    9.483081e-01
  2.761178e+01    9.204096e-01
  2.764353e+01    8.830464e-01
  2.767528e+01    8.861551e-01
  2.770703e+01    8.688840e-01
  2.773878e+01    8.525953e-01
  2.777054e+01    8.550232e-01
  2.780229e+01    8.473636e-01
  2.783404e+01    8.621525e-01
  2.786579e+01    8.291653e-01
  2.789754e+01    8.284332e-01
  2.792929e+01    8.093805e-01
  2.796104e+01    8.204544e-01
  2.799279e+01    8.283069e-01
  2.802454e+01    8.347040e-01
  2.805630e+01    8.084416e-01
  2.808805e+01    8.177577e-01
  2.811980e+01    8.286992e-01
  2.815155e+01    8.005317e-01
  2.818330e+01    7.924896e-01
  2.821505e+01    8.002107e-01
  2.824680e+01    7.804322e-01
  2.827855e+01    7.964094e-01
  2.831030e+01    8.000653e-01
  2.834206e+01    7.879112e-01
  2.837381e+01    7.809435e-01
  2.840556e+01    7.801471e-01
  2.843731e+01    8.019320e-01
  2.846906e+01    7.715366e-01
  2.850081e+01    8.004266e-01
  2.853256e+01    7.770799e-01
  2.856431e+01    7.836765e-01
  2.859606e+01    7.749558e-01
  2.862782e+01    7.802426e-01
  2.865957e+01    7.890508e-01
  2.869132e+01    7.773587e-01
  2.872307e+01    7.737998e-01
  2.875482e+01    7.742666e-01
  2.878657e+01    7.990480e-01
  2.881832e+01    7.815880e-01
  2.885007e+01    7.721766e-01
  2.888183e+01    7.852055e-01
  2.891358e+01    7.616303e-01
  2.894533e+01    7.636006e-01
  2.897708e+01    7.462527e-01
  2.900883e+01    7.851208e-01
  2.904058e+01    7.797342e-01
  2.907233e+01    7.609082e-01
  2.910408e+01    7.660106e-01
  2.913583e+01    7.567798e-01
  2.916759e+01    7.656180e-01
  2.919934e+01    7.690924e-01
  2.923109e+01    7.862388e-01
  2.926284e+01    7.482736e-01
  2.929459e+01    7.449421e-01
  2.932634e+01    7.433758e-01
  2.935809e+01    7.441005e-01
  2.938984e+01    7.440645e-01
  2.942159e+01    7.529345e-01
  2.945335e+01    7.541211e-01
  2.948510e+01    7.545075e-01
  2.951685e+01    7.481021e-01
  2.954860e+01    7.538227e-01
  2.958035e+01    7.507889e-01
  2.961210e+01    7.572907e-01
  2.964385e+01    7.314958e-01
  2.967560e+01    7.354190e-01
  2.970736e+01    7.303761e-01
  2.973911e+01    7.414901e-01
  2.977086e+01    7.320719e-01
  2.980261e+01    7.213134e-01
  2.983436e+01    7.349691e-01
  2.986611e+01    7.258274e-01
  2.989786e+01    7.425297e-01
  2.992961e+01    7.434987e-01
  2.996136e+01    7.427153e-01
  2.999312e+01    7.469864e-01
  3.002487e+01    7.494325e-01
  3.005662e+01    7.822968e-01
  3.008837e+01    7.522844e-01
  3.012012e+01    7.416281e-01
  3.015187e+01    7.400016e-01
  3.018362e+01    7.290264e-01
  3.021537e+01    7.488403e-01
  3.024712e+01    7.251846e-01
  3.027888e+01    7.504536e-01
  3.031063e+01    7.306525e-01
  3.034238e+01    7.330041e-01
  3.037413e+01    7.257652e-01
  3.040588e+01    7.267529e-01
  3.043763e+01    7.343050e-01
  3.046938e+01    7.196243e-01
  3.050113e+01    7.285361e-01
  3.053288e+01    7.418351e-01
  3.056464e+01    7.196960e-01
  3.059639e+01    7.231289e-01
  3.062814e+01    7.393230e-01
  3.065989e+01    7.225878e-01
  3.069164e+01    7.253422e-01
  3.072339e+01    7.391466e-01
  3.075514e+01    7.510368e-01
  3.078689e+01    7.194813e-01
  3.081865e+01    7.219582e-01
  3.085040e+01    7.089319e-01
  3.088215e+01    7.319158e-01
  3.091390e+01    7.299891e-01
  3.094565e+01    7.219806e-01
  3.097740e+01    7.418559e-01
  3.100915e+01    7.299228e-01
  3.104090e+01    7.492800e-01
  3.107265e+01    7.309784e-01
  3.110441e+01    7.371398e-01
  3.113616e+01    7.435212e-01
  3.116791e+01    7.684536e-01
  3.119966e+01    7.383426e-01
  3.123141e+01    7.506399e-01
  3.126316e+01    7.446762e-01
  3.129491e+01    7.404361e-01
  3.132666e+01    7.572386e-01
  3.135841e+01    7.536767e-01
  3.139017e+01    7.722362e-01
  3.142192e+01    7.708025e-01
  3.145367e+01    7.665381e-01
  3.148542e+01    7.752870e-01
  3.151717e+01    7.883565e-01
  3.154892e+01    8.102257e-01
  3.158067e+01    7.932145e-01
  3.161242e+01    8.188818e-01
  3.164418e+01    8.495170e-01
  3.167593e+01    8.873678e-01
  3.170768e+01    9.025996e-01
  3.173943e+01    9.777687e-01
  3.177118e+01    1.053362e+00
  3.180293e+01    1.173282e+00
  3.183468e+01    1.383509e+00
  3.186643e+01    1.615246e+00
  3.189818e+01    1.989501e+00
  3.192994e+01    2.349058e+00
  3.196169e+01    2.593186e+00
  3.199344e+01    2.539032e+00
  3.202519e+01    2.278218e+00
  3.205694e+01    1.905294e+00
  3.208869e+01    1.489114e+00
  3.212044e+01    1.294194e+00
  3.215219e+01    1.114864e+00
  3.218394e+01    1.031599e+00
  3.221570e+01    9.179209e-01
  3.224745e+01    8.975056e-01
  3.227920e+01    8.583096e-01
  3.231095e+01    8.386047e-01
  3.234270e+01    7.975975e-01
  3.237445e+01    7.978542e-01
  3.240620e+01    7.950947e-01
  3.243795e+01    7.667143e-01
  3.246970e+01    7.557644e-01
  3.250146e+01    7.348081e-01
  3.253321e+01    7.513935e-01
  3.254908e+01    7.470537e-01