File: XRD/2024-07-27_002_Ru-CGO-ex_Activtation_ramp_000002_data_000022.dat
# == pyFAI calibration ==
# Distance Sample to Detector: 0.4 m
# PONI: 9.750e-02, 1.135e-01 m
# Rotations: -0.000175 0.000000 -0.000000 rad
#
# == Fit2d calibration ==
# Distance Sample-beamCenter: 400.000 mm
# Center: x=1514.000, y=1300.000 pix
# Tilt: 0.010 deg  TiltPlanRot: 0.010 deg
#
# Detector Detector	 Spline= None	 PixelSize= 7.500e-05, 7.500e-05 m
#    Detector has a mask: False
#    Detector has a dark current: False
#    detector has a flat field: False
#
# Wavelength: 6.888e-11 m
# Mask applied: user provided
# Dark current applied: False
# Flat field applied: False
# Polarization factor: 0.99
# Normalization factor: 1.0
# --> /home/myspot/data/2024_07_Rosario/Ru-CGO-ex/2024-07-27_002_Ru-CGO-ex_Activtation_ramp_000002_data_000022.dat
#       q_nm^-1             I
  2.003187e-02    0.000000e+00
  5.178302e-02    1.468228e-01
  8.353417e-02    1.832796e-01
  1.152853e-01    9.015574e-02
  1.470365e-01    5.639377e-02
  1.787876e-01    2.446095e-02
  2.105388e-01    2.418817e-02
  2.422899e-01    4.015121e-02
  2.740411e-01    1.485702e-02
  3.057922e-01    4.176353e-02
  3.375433e-01    5.696462e-02
  3.692945e-01    5.111467e-02
  4.010456e-01    1.463460e-02
  4.327968e-01    4.997339e-02
  4.645479e-01    4.794788e-02
  4.962991e-01    3.119979e-02
  5.280502e-01    3.139519e-02
  5.598014e-01    2.663938e-02
  5.915525e-01    4.026034e-02
  6.233037e-01    3.122484e-02
  6.550548e-01    3.646520e-02
  6.868060e-01    1.890171e-02
  7.185571e-01    4.516299e-02
  7.503083e-01    5.430795e-02
  7.820594e-01    8.094205e-02
  8.138106e-01    1.602673e-01
  8.455617e-01    3.135493e-01
  8.773129e-01    4.300133e-01
  9.090640e-01    6.377197e-01
  9.408152e-01    6.877365e-01
  9.725663e-01    8.874075e-01
  1.004317e+00    9.927524e-01
  1.036069e+00    1.134274e+00
  1.067820e+00    1.284544e+00
  1.099571e+00    1.473905e+00
  1.131322e+00    1.518199e+00
  1.163073e+00    1.552774e+00
  1.194824e+00    1.732357e+00
  1.226575e+00    2.072685e+00
  1.258327e+00    2.512833e+00
  1.290078e+00    2.524633e+00
  1.321829e+00    2.665346e+00
  1.353580e+00    2.640409e+00
  1.385331e+00    2.740357e+00
  1.417082e+00    2.606413e+00
  1.448834e+00    2.855340e+00
  1.480585e+00    2.966997e+00
  1.512336e+00    2.850074e+00
  1.544087e+00    3.109401e+00
  1.575838e+00    2.910780e+00
  1.607589e+00    2.967546e+00
  1.639340e+00    2.985543e+00
  1.671092e+00    3.018895e+00
  1.702843e+00    2.934261e+00
  1.734594e+00    2.854002e+00
  1.766345e+00    2.978807e+00
  1.798096e+00    2.755152e+00
  1.829847e+00    2.993722e+00
  1.861598e+00    2.844559e+00
  1.893350e+00    2.792886e+00
  1.925101e+00    2.760912e+00
  1.956852e+00    2.837957e+00
  1.988603e+00    2.815889e+00
  2.020354e+00    2.785714e+00
  2.052105e+00    2.834764e+00
  2.083856e+00    2.919758e+00
  2.115608e+00    2.659883e+00
  2.147359e+00    2.739816e+00
  2.179110e+00    2.773766e+00
  2.210861e+00    2.754426e+00
  2.242612e+00    2.770001e+00
  2.274363e+00    2.927922e+00
  2.306115e+00    2.822731e+00
  2.337866e+00    2.870222e+00
  2.369617e+00    2.862928e+00
  2.401368e+00    2.896559e+00
  2.433119e+00    2.891669e+00
  2.464870e+00    2.715390e+00
  2.496621e+00    2.836505e+00
  2.528373e+00    2.767995e+00
  2.560124e+00    2.739281e+00
  2.591875e+00    2.784896e+00
  2.623626e+00    2.907010e+00
  2.655377e+00    2.825862e+00
  2.687128e+00    2.854587e+00
  2.718879e+00    2.852034e+00
  2.750631e+00    2.843088e+00
  2.782382e+00    2.838774e+00
  2.814133e+00    2.883587e+00
  2.845884e+00    2.892075e+00
  2.877635e+00    2.875087e+00
  2.909386e+00    2.813609e+00
  2.941137e+00    2.900609e+00
  2.972889e+00    2.981027e+00
  3.004640e+00    2.914646e+00
  3.036391e+00    2.964369e+00
  3.068142e+00    2.994134e+00
  3.099893e+00    2.865442e+00
  3.131644e+00    2.893661e+00
  3.163395e+00    2.921277e+00
  3.195147e+00    2.952174e+00
  3.226898e+00    2.830061e+00
  3.258649e+00    3.060271e+00
  3.290400e+00    2.945645e+00
  3.322151e+00    2.968236e+00
  3.353902e+00    2.846802e+00
  3.385654e+00    3.079391e+00
  3.417405e+00    2.914066e+00
  3.449156e+00    2.970059e+00
  3.480907e+00    2.916369e+00
  3.512658e+00    2.958304e+00
  3.544409e+00    2.905405e+00
  3.576160e+00    3.029793e+00
  3.607912e+00    2.976832e+00
  3.639663e+00    3.036983e+00
  3.671414e+00    3.057766e+00
  3.703165e+00    2.978709e+00
  3.734916e+00    3.027633e+00
  3.766667e+00    3.001640e+00
  3.798418e+00    2.990958e+00
  3.830170e+00    3.003450e+00
  3.861921e+00    2.973282e+00
  3.893672e+00    3.017544e+00
  3.925423e+00    3.020703e+00
  3.957174e+00    3.068170e+00
  3.988925e+00    3.030196e+00
  4.020676e+00    3.010727e+00
  4.052428e+00    3.017184e+00
  4.084179e+00    3.145885e+00
  4.115930e+00    3.064190e+00
  4.147681e+00    3.089612e+00
  4.179432e+00    3.087564e+00
  4.211183e+00    3.057550e+00
  4.242935e+00    3.032395e+00
  4.274686e+00    3.038430e+00
  4.306437e+00    3.046062e+00
  4.338188e+00    3.093302e+00
  4.369939e+00    3.006636e+00
  4.401690e+00    3.048995e+00
  4.433441e+00    3.085969e+00
  4.465193e+00    3.156628e+00
  4.496944e+00    3.069670e+00
  4.528695e+00    3.073927e+00
  4.560446e+00    3.135782e+00
  4.592197e+00    3.077486e+00
  4.623948e+00    3.074713e+00
  4.655699e+00    3.043613e+00
  4.687451e+00    3.187740e+00
  4.719202e+00    3.162150e+00
  4.750953e+00    3.148615e+00
  4.782704e+00    3.130576e+00
  4.814455e+00    3.121895e+00
  4.846206e+00    3.121297e+00
  4.877957e+00    3.124020e+00
  4.909709e+00    3.070638e+00
  4.941460e+00    3.238529e+00
  4.973211e+00    3.110229e+00
  5.004962e+00    3.155865e+00
  5.036713e+00    3.139374e+00
  5.068464e+00    3.099504e+00
  5.100216e+00    3.168647e+00
  5.131967e+00    3.135613e+00
  5.163718e+00    3.150888e+00
  5.195469e+00    3.054744e+00
  5.227220e+00    3.078762e+00
  5.258971e+00    3.049320e+00
  5.290722e+00    3.120545e+00
  5.322474e+00    3.124994e+00
  5.354225e+00    3.140539e+00
  5.385976e+00    3.201609e+00
  5.417727e+00    3.170710e+00
  5.449478e+00    3.188248e+00
  5.481229e+00    3.106893e+00
  5.512980e+00    3.139214e+00
  5.544732e+00    3.107337e+00
  5.576483e+00    3.177758e+00
  5.608234e+00    3.110842e+00
  5.639985e+00    3.094484e+00
  5.671736e+00    3.127753e+00
  5.703487e+00    3.150888e+00
  5.735238e+00    3.082450e+00
  5.766990e+00    3.200595e+00
  5.798741e+00    3.134842e+00
  5.830492e+00    3.019950e+00
  5.862243e+00    3.090693e+00
  5.893994e+00    3.036892e+00
  5.925745e+00    3.075186e+00
  5.957497e+00    2.983843e+00
  5.989248e+00    3.006464e+00
  6.020999e+00    3.047265e+00
  6.052750e+00    2.975774e+00
  6.084501e+00    3.051394e+00
  6.116252e+00    3.040357e+00
  6.148003e+00    3.160948e+00
  6.179755e+00    3.019149e+00
  6.211506e+00    3.045991e+00
  6.243257e+00    3.037536e+00
  6.275008e+00    3.098922e+00
  6.306759e+00    3.074269e+00
  6.338510e+00    3.069767e+00
  6.370261e+00    3.061810e+00
  6.402013e+00    3.029842e+00
  6.433764e+00    3.048974e+00
  6.465515e+00    3.005003e+00
  6.497266e+00    3.058428e+00
  6.529017e+00    3.081324e+00
  6.560768e+00    3.071956e+00
  6.592519e+00    2.985378e+00
  6.624271e+00    3.013495e+00
  6.656022e+00    3.067035e+00
  6.687773e+00    3.113343e+00
  6.719524e+00    3.053627e+00
  6.751275e+00    3.019673e+00
  6.783026e+00    3.047343e+00
  6.814777e+00    3.003672e+00
  6.846529e+00    3.022930e+00
  6.878280e+00    3.024484e+00
  6.910031e+00    3.047742e+00
  6.941782e+00    2.960320e+00
  6.973533e+00    3.068207e+00
  7.005284e+00    2.989565e+00
  7.037036e+00    3.073104e+00
  7.068787e+00    3.014919e+00
  7.100538e+00    2.994796e+00
  7.132289e+00    2.987668e+00
  7.164040e+00    3.093742e+00
  7.195791e+00    3.004384e+00
  7.227542e+00    2.988426e+00
  7.259294e+00    2.990166e+00
  7.291045e+00    3.035350e+00
  7.322796e+00    2.991430e+00
  7.354547e+00    2.996186e+00
  7.386298e+00    2.991585e+00
  7.418049e+00    2.939415e+00
  7.449800e+00    2.975360e+00
  7.481552e+00    3.037640e+00
  7.513303e+00    3.007027e+00
  7.545054e+00    2.981588e+00
  7.576805e+00    3.021096e+00
  7.608556e+00    2.946375e+00
  7.640307e+00    3.049739e+00
  7.672058e+00    2.953861e+00
  7.703810e+00    3.033315e+00
  7.735561e+00    2.959032e+00
  7.767312e+00    2.947120e+00
  7.799063e+00    2.901284e+00
  7.830814e+00    2.941937e+00
  7.862565e+00    3.000337e+00
  7.894317e+00    2.991233e+00
  7.926068e+00    2.976036e+00
  7.957819e+00    2.909705e+00
  7.989570e+00    2.870157e+00
  8.021321e+00    2.992942e+00
  8.053072e+00    2.939418e+00
  8.084823e+00    2.946229e+00
  8.116575e+00    2.937858e+00
  8.148326e+00    2.981770e+00
  8.180077e+00    2.945790e+00
  8.211828e+00    3.071679e+00
  8.243579e+00    2.927786e+00
  8.275330e+00    2.932326e+00
  8.307081e+00    2.950564e+00
  8.338833e+00    2.961380e+00
  8.370584e+00    2.953056e+00
  8.402335e+00    2.899456e+00
  8.434086e+00    2.870781e+00
  8.465837e+00    2.889851e+00
  8.497588e+00    2.946915e+00
  8.529339e+00    2.865552e+00
  8.561091e+00    2.869145e+00
  8.592842e+00    2.919542e+00
  8.624593e+00    2.949104e+00
  8.656344e+00    2.856786e+00
  8.688095e+00    2.847080e+00
  8.719846e+00    2.884325e+00
  8.751598e+00    2.844958e+00
  8.783349e+00    2.883200e+00
  8.815100e+00    2.885078e+00
  8.846851e+00    2.857719e+00
  8.878602e+00    2.865057e+00
  8.910353e+00    2.871825e+00
  8.942104e+00    2.873654e+00
  8.973856e+00    2.893107e+00
  9.005607e+00    2.825144e+00
  9.037358e+00    2.811783e+00
  9.069109e+00    2.808767e+00
  9.100860e+00    2.786634e+00
  9.132611e+00    2.831610e+00
  9.164362e+00    2.797846e+00
  9.196114e+00    2.832320e+00
  9.227865e+00    2.803139e+00
  9.259616e+00    2.799307e+00
  9.291367e+00    2.834392e+00
  9.323118e+00    2.846702e+00
  9.354869e+00    2.735302e+00
  9.386620e+00    2.780244e+00
  9.418372e+00    2.787294e+00
  9.450123e+00    2.788154e+00
  9.481874e+00    2.809425e+00
  9.513625e+00    2.773371e+00
  9.545376e+00    2.782258e+00
  9.577127e+00    2.795645e+00
  9.608878e+00    2.759149e+00
  9.640630e+00    2.791170e+00
  9.672381e+00    2.738467e+00
  9.704132e+00    2.796964e+00
  9.735883e+00    2.714437e+00
  9.767634e+00    2.683895e+00
  9.799385e+00    2.765514e+00
  9.831137e+00    2.771354e+00
  9.862888e+00    2.707422e+00
  9.894639e+00    2.707809e+00
  9.926390e+00    2.796306e+00
  9.958141e+00    2.742507e+00
  9.989892e+00    2.639957e+00
  1.002164e+01    2.640468e+00
  1.005339e+01    2.676519e+00
  1.008515e+01    2.662899e+00
  1.011690e+01    2.667862e+00
  1.014865e+01    2.630176e+00
  1.018040e+01    2.646810e+00
  1.021215e+01    2.638691e+00
  1.024390e+01    2.711984e+00
  1.027565e+01    2.613352e+00
  1.030740e+01    2.679600e+00
  1.033915e+01    2.665767e+00
  1.037091e+01    2.620544e+00
  1.040266e+01    2.584796e+00
  1.043441e+01    2.620930e+00
  1.046616e+01    2.594521e+00
  1.049791e+01    2.613874e+00
  1.052966e+01    2.623872e+00
  1.056141e+01    2.601979e+00
  1.059316e+01    2.622723e+00
  1.062492e+01    2.602633e+00
  1.065667e+01    2.595556e+00
  1.068842e+01    2.540913e+00
  1.072017e+01    2.538629e+00
  1.075192e+01    2.599689e+00
  1.078367e+01    2.561895e+00
  1.081542e+01    2.524930e+00
  1.084717e+01    2.539911e+00
  1.087892e+01    2.513148e+00
  1.091068e+01    2.564068e+00
  1.094243e+01    2.586232e+00
  1.097418e+01    2.502207e+00
  1.100593e+01    2.522781e+00
  1.103768e+01    2.535665e+00
  1.106943e+01    2.521124e+00
  1.110118e+01    2.485727e+00
  1.113293e+01    2.504994e+00
  1.116468e+01    2.503509e+00
  1.119644e+01    2.454271e+00
  1.122819e+01    2.442098e+00
  1.125994e+01    2.456290e+00
  1.129169e+01    2.496412e+00
  1.132344e+01    2.511216e+00
  1.135519e+01    2.405493e+00
  1.138694e+01    2.432890e+00
  1.141869e+01    2.428769e+00
  1.145045e+01    2.374596e+00
  1.148220e+01    2.453551e+00
  1.151395e+01    2.388485e+00
  1.154570e+01    2.428309e+00
  1.157745e+01    2.414716e+00
  1.160920e+01    2.393232e+00
  1.164095e+01    2.390908e+00
  1.167270e+01    2.391054e+00
  1.170445e+01    2.372127e+00
  1.173621e+01    2.386317e+00
  1.176796e+01    2.349553e+00
  1.179971e+01    2.399220e+00
  1.183146e+01    2.360712e+00
  1.186321e+01    2.337765e+00
  1.189496e+01    2.335631e+00
  1.192671e+01    2.415748e+00
  1.195846e+01    2.411008e+00
  1.199021e+01    2.324284e+00
  1.202197e+01    2.330942e+00
  1.205372e+01    2.313813e+00
  1.208547e+01    2.329736e+00
  1.211722e+01    2.377201e+00
  1.214897e+01    2.334650e+00
  1.218072e+01    2.315738e+00
  1.221247e+01    2.348757e+00
  1.224422e+01    2.356960e+00
  1.227597e+01    2.299509e+00
  1.230773e+01    2.331017e+00
  1.233948e+01    2.340939e+00
  1.237123e+01    2.370103e+00
  1.240298e+01    2.363053e+00
  1.243473e+01    2.373357e+00
  1.246648e+01    2.347208e+00
  1.249823e+01    2.396399e+00
  1.252998e+01    2.372525e+00
  1.256174e+01    2.385849e+00
  1.259349e+01    2.375124e+00
  1.262524e+01    2.444013e+00
  1.265699e+01    2.432289e+00
  1.268874e+01    2.514246e+00
  1.272049e+01    2.522557e+00
  1.275224e+01    2.596729e+00
  1.278399e+01    2.622592e+00
  1.281574e+01    2.762375e+00
  1.284750e+01    2.839326e+00
  1.287925e+01    3.046732e+00
  1.291100e+01    3.319317e+00
  1.294275e+01    3.669797e+00
  1.297450e+01    4.254866e+00
  1.300625e+01    5.159750e+00
  1.303800e+01    6.640665e+00
  1.306975e+01    9.086589e+00
  1.310150e+01    1.211752e+01
  1.313326e+01    1.510152e+01
  1.316501e+01    1.793283e+01
  1.319676e+01    1.974762e+01
  1.322851e+01    1.826554e+01
  1.326026e+01    1.377340e+01
  1.329201e+01    9.721021e+00
  1.332376e+01    7.094953e+00
  1.335551e+01    5.447190e+00
  1.338727e+01    4.415703e+00
  1.341902e+01    3.750512e+00
  1.345077e+01    3.332607e+00
  1.348252e+01    3.001604e+00
  1.351427e+01    2.834684e+00
  1.354602e+01    2.693292e+00
  1.357777e+01    2.555268e+00
  1.360952e+01    2.471374e+00
  1.364127e+01    2.474648e+00
  1.367303e+01    2.360679e+00
  1.370478e+01    2.298334e+00
  1.373653e+01    2.281333e+00
  1.376828e+01    2.242372e+00
  1.380003e+01    2.222944e+00
  1.383178e+01    2.198194e+00
  1.386353e+01    2.156719e+00
  1.389528e+01    2.117565e+00
  1.392703e+01    2.140670e+00
  1.395879e+01    2.139168e+00
  1.399054e+01    2.119347e+00
  1.402229e+01    2.078023e+00
  1.405404e+01    2.025546e+00
  1.408579e+01    2.037723e+00
  1.411754e+01    1.998822e+00
  1.414929e+01    2.041382e+00
  1.418104e+01    2.022880e+00
  1.421279e+01    2.004752e+00
  1.424455e+01    2.037326e+00
  1.427630e+01    1.966377e+00
  1.430805e+01    1.997714e+00
  1.433980e+01    1.978122e+00
  1.437155e+01    1.948187e+00
  1.440330e+01    1.977934e+00
  1.443505e+01    1.987353e+00
  1.446680e+01    1.943577e+00
  1.449856e+01    1.917701e+00
  1.453031e+01    1.886309e+00
  1.456206e+01    1.924899e+00
  1.459381e+01    1.950780e+00
  1.462556e+01    1.943063e+00
  1.465731e+01    1.935739e+00
  1.468906e+01    1.934421e+00
  1.472081e+01    1.944761e+00
  1.475256e+01    1.898970e+00
  1.478432e+01    1.921633e+00
  1.481607e+01    1.906398e+00
  1.484782e+01    1.939380e+00
  1.487957e+01    1.982402e+00
  1.491132e+01    1.972113e+00
  1.494307e+01    1.991389e+00
  1.497482e+01    2.068089e+00
  1.500657e+01    2.128251e+00
  1.503832e+01    2.276644e+00
  1.507008e+01    2.470610e+00
  1.510183e+01    2.763247e+00
  1.513358e+01    3.283952e+00
  1.516533e+01    3.929970e+00
  1.519708e+01    4.832253e+00
  1.522883e+01    5.674263e+00
  1.526058e+01    6.378541e+00
  1.529233e+01    6.564495e+00
  1.532409e+01    6.232306e+00
  1.535584e+01    5.023788e+00
  1.538759e+01    3.866042e+00
  1.541934e+01    3.125646e+00
  1.545109e+01    2.681572e+00
  1.548284e+01    2.379838e+00
  1.551459e+01    2.193321e+00
  1.554634e+01    2.047827e+00
  1.557809e+01    1.954246e+00
  1.560985e+01    1.889461e+00
  1.564160e+01    1.841641e+00
  1.567335e+01    1.807446e+00
  1.570510e+01    1.780222e+00
  1.573685e+01    1.749755e+00
  1.576860e+01    1.720360e+00
  1.580035e+01    1.741001e+00
  1.583210e+01    1.739441e+00
  1.586385e+01    1.683672e+00
  1.589561e+01    1.712544e+00
  1.592736e+01    1.660235e+00
  1.595911e+01    1.663034e+00
  1.599086e+01    1.651020e+00
  1.602261e+01    1.659133e+00
  1.605436e+01    1.663291e+00
  1.608611e+01    1.604722e+00
  1.611786e+01    1.635960e+00
  1.614961e+01    1.601041e+00
  1.618137e+01    1.594127e+00
  1.621312e+01    1.580976e+00
  1.624487e+01    1.600868e+00
  1.627662e+01    1.586508e+00
  1.630837e+01    1.575127e+00
  1.634012e+01    1.522689e+00
  1.637187e+01    1.566278e+00
  1.640362e+01    1.556318e+00
  1.643538e+01    1.532009e+00
  1.646713e+01    1.516733e+00
  1.649888e+01    1.529612e+00
  1.653063e+01    1.524864e+00
  1.656238e+01    1.511204e+00
  1.659413e+01    1.527527e+00
  1.662588e+01    1.474831e+00
  1.665763e+01    1.509385e+00
  1.668938e+01    1.507874e+00
  1.672114e+01    1.502661e+00
  1.675289e+01    1.489819e+00
  1.678464e+01    1.475198e+00
  1.681639e+01    1.475717e+00
  1.684814e+01    1.472062e+00
  1.687989e+01    1.471933e+00
  1.691164e+01    1.481566e+00
  1.694339e+01    1.460301e+00
  1.697514e+01    1.456502e+00
  1.700690e+01    1.472093e+00
  1.703865e+01    1.451034e+00
  1.707040e+01    1.441171e+00
  1.710215e+01    1.417255e+00
  1.713390e+01    1.430130e+00
  1.716565e+01    1.432331e+00
  1.719740e+01    1.430299e+00
  1.722915e+01    1.437023e+00
  1.726091e+01    1.372012e+00
  1.729266e+01    1.401581e+00
  1.732441e+01    1.383164e+00
  1.735616e+01    1.406580e+00
  1.738791e+01    1.401695e+00
  1.741966e+01    1.403139e+00
  1.745141e+01    1.397238e+00
  1.748316e+01    1.403400e+00
  1.751491e+01    1.376797e+00
  1.754667e+01    1.343889e+00
  1.757842e+01    1.350540e+00
  1.761017e+01    1.371832e+00
  1.764192e+01    1.405603e+00
  1.767367e+01    1.354553e+00
  1.770542e+01    1.354213e+00
  1.773717e+01    1.353402e+00
  1.776892e+01    1.329497e+00
  1.780067e+01    1.371587e+00
  1.783243e+01    1.316888e+00
  1.786418e+01    1.329323e+00
  1.789593e+01    1.347563e+00
  1.792768e+01    1.335487e+00
  1.795943e+01    1.333949e+00
  1.799118e+01    1.322745e+00
  1.802293e+01    1.321302e+00
  1.805468e+01    1.309597e+00
  1.808643e+01    1.297053e+00
  1.811819e+01    1.280247e+00
  1.814994e+01    1.302440e+00
  1.818169e+01    1.278944e+00
  1.821344e+01    1.303483e+00
  1.824519e+01    1.254610e+00
  1.827694e+01    1.267173e+00
  1.830869e+01    1.294669e+00
  1.834044e+01    1.275715e+00
  1.837220e+01    1.279144e+00
  1.840395e+01    1.267947e+00
  1.843570e+01    1.269906e+00
  1.846745e+01    1.288790e+00
  1.849920e+01    1.250222e+00
  1.853095e+01    1.275612e+00
  1.856270e+01    1.291453e+00
  1.859445e+01    1.254179e+00
  1.862620e+01    1.231865e+00
  1.865796e+01    1.253699e+00
  1.868971e+01    1.240676e+00
  1.872146e+01    1.250307e+00
  1.875321e+01    1.254227e+00
  1.878496e+01    1.241749e+00
  1.881671e+01    1.249377e+00
  1.884846e+01    1.214214e+00
  1.888021e+01    1.200783e+00
  1.891196e+01    1.224517e+00
  1.894372e+01    1.225693e+00
  1.897547e+01    1.194479e+00
  1.900722e+01    1.219246e+00
  1.903897e+01    1.208756e+00
  1.907072e+01    1.237413e+00
  1.910247e+01    1.186554e+00
  1.913422e+01    1.214845e+00
  1.916597e+01    1.195549e+00
  1.919773e+01    1.201520e+00
  1.922948e+01    1.205728e+00
  1.926123e+01    1.200423e+00
  1.929298e+01    1.158083e+00
  1.932473e+01    1.186587e+00
  1.935648e+01    1.180793e+00
  1.938823e+01    1.184255e+00
  1.941998e+01    1.198924e+00
  1.945173e+01    1.178993e+00
  1.948349e+01    1.191244e+00
  1.951524e+01    1.153616e+00
  1.954699e+01    1.169511e+00
  1.957874e+01    1.145006e+00
  1.961049e+01    1.187782e+00
  1.964224e+01    1.157333e+00
  1.967399e+01    1.184471e+00
  1.970574e+01    1.157754e+00
  1.973749e+01    1.129793e+00
  1.976925e+01    1.151912e+00
  1.980100e+01    1.135468e+00
  1.983275e+01    1.125744e+00
  1.986450e+01    1.139546e+00
  1.989625e+01    1.135319e+00
  1.992800e+01    1.149427e+00
  1.995975e+01    1.165439e+00
  1.999150e+01    1.162342e+00
  2.002325e+01    1.154855e+00
  2.005501e+01    1.124505e+00
  2.008676e+01    1.141999e+00
  2.011851e+01    1.123612e+00
  2.015026e+01    1.114936e+00
  2.018201e+01    1.124562e+00
  2.021376e+01    1.107694e+00
  2.024551e+01    1.110454e+00
  2.027726e+01    1.122796e+00
  2.030902e+01    1.125811e+00
  2.034077e+01    1.128931e+00
  2.037252e+01    1.089097e+00
  2.040427e+01    1.106425e+00
  2.043602e+01    1.099757e+00
  2.046777e+01    1.109313e+00
  2.049952e+01    1.149253e+00
  2.053127e+01    1.122420e+00
  2.056302e+01    1.084063e+00
  2.059478e+01    1.095410e+00
  2.062653e+01    1.101366e+00
  2.065828e+01    1.102832e+00
  2.069003e+01    1.090394e+00
  2.072178e+01    1.097803e+00
  2.075353e+01    1.088257e+00
  2.078528e+01    1.111828e+00
  2.081703e+01    1.081641e+00
  2.084878e+01    1.103842e+00
  2.088054e+01    1.092593e+00
  2.091229e+01    1.085642e+00
  2.094404e+01    1.077703e+00
  2.097579e+01    1.104437e+00
  2.100754e+01    1.101920e+00
  2.103929e+01    1.091098e+00
  2.107104e+01    1.115351e+00
  2.110279e+01    1.088969e+00
  2.113455e+01    1.124015e+00
  2.116630e+01    1.112289e+00
  2.119805e+01    1.103685e+00
  2.122980e+01    1.113512e+00
  2.126155e+01    1.134608e+00
  2.129330e+01    1.134918e+00
  2.132505e+01    1.141633e+00
  2.135680e+01    1.152861e+00
  2.138855e+01    1.172449e+00
  2.142031e+01    1.194198e+00
  2.145206e+01    1.237726e+00
  2.148381e+01    1.288039e+00
  2.151556e+01    1.303565e+00
  2.154731e+01    1.339543e+00
  2.157906e+01    1.455254e+00
  2.161081e+01    1.553904e+00
  2.164256e+01    1.687272e+00
  2.167431e+01    1.973154e+00
  2.170607e+01    2.337386e+00
  2.173782e+01    2.854710e+00
  2.176957e+01    3.647392e+00
  2.180132e+01    4.869095e+00
  2.183307e+01    6.358474e+00
  2.186482e+01    8.075550e+00
  2.189657e+01    9.860929e+00
  2.192832e+01    1.097360e+01
  2.196007e+01    1.045656e+01
  2.199183e+01    8.438432e+00
  2.202358e+01    6.037788e+00
  2.205533e+01    4.414557e+00
  2.208708e+01    3.246728e+00
  2.211883e+01    2.585189e+00
  2.215058e+01    2.148106e+00
  2.218233e+01    1.838862e+00
  2.221408e+01    1.608827e+00
  2.224584e+01    1.487505e+00
  2.227759e+01    1.379486e+00
  2.230934e+01    1.296987e+00
  2.234109e+01    1.249714e+00
  2.237284e+01    1.178616e+00
  2.240459e+01    1.143482e+00
  2.243634e+01    1.122011e+00
  2.246809e+01    1.103628e+00
  2.249984e+01    1.075161e+00
  2.253160e+01    1.028595e+00
  2.256335e+01    1.015859e+00
  2.259510e+01    1.010636e+00
  2.262685e+01    1.015781e+00
  2.265860e+01    9.835364e-01
  2.269035e+01    9.962169e-01
  2.272210e+01    9.530205e-01
  2.275385e+01    9.655573e-01
  2.278560e+01    9.495375e-01
  2.281736e+01    9.689285e-01
  2.284911e+01    9.495910e-01
  2.288086e+01    9.433357e-01
  2.291261e+01    9.613854e-01
  2.294436e+01    9.308400e-01
  2.297611e+01    9.179494e-01
  2.300786e+01    9.140236e-01
  2.303961e+01    9.032626e-01
  2.307137e+01    9.007791e-01
  2.310312e+01    9.036267e-01
  2.313487e+01    9.306366e-01
  2.316662e+01    9.038568e-01
  2.319837e+01    8.855428e-01
  2.323012e+01    8.833108e-01
  2.326187e+01    9.053631e-01
  2.329362e+01    8.987760e-01
  2.332537e+01    8.758450e-01
  2.335713e+01    8.702673e-01
  2.338888e+01    8.918505e-01
  2.342063e+01    8.720019e-01
  2.345238e+01    8.894426e-01
  2.348413e+01    8.637205e-01
  2.351588e+01    8.536776e-01
  2.354763e+01    8.425095e-01
  2.357938e+01    8.672429e-01
  2.361113e+01    8.624589e-01
  2.364289e+01    8.494830e-01
  2.367464e+01    8.426360e-01
  2.370639e+01    8.629428e-01
  2.373814e+01    8.325598e-01
  2.376989e+01    8.275371e-01
  2.380164e+01    8.372142e-01
  2.383339e+01    8.241983e-01
  2.386514e+01    8.089046e-01
  2.389689e+01    8.111810e-01
  2.392865e+01    8.162771e-01
  2.396040e+01    8.152536e-01
  2.399215e+01    7.939647e-01
  2.402390e+01    8.105977e-01
  2.405565e+01    8.051607e-01
  2.408740e+01    8.028727e-01
  2.411915e+01    8.050418e-01
  2.415090e+01    7.971674e-01
  2.418266e+01    7.848573e-01
  2.421441e+01    7.805609e-01
  2.424616e+01    7.830498e-01
  2.427791e+01    8.104649e-01
  2.430966e+01    8.013408e-01
  2.434141e+01    8.188739e-01
  2.437316e+01    8.221118e-01
  2.440491e+01    7.973350e-01
  2.443666e+01    8.052012e-01
  2.446842e+01    7.916446e-01
  2.450017e+01    8.085808e-01
  2.453192e+01    8.138075e-01
  2.456367e+01    7.868609e-01
  2.459542e+01    8.043616e-01
  2.462717e+01    8.109868e-01
  2.465892e+01    7.976925e-01
  2.469067e+01    8.110077e-01
  2.472242e+01    8.049032e-01
  2.475418e+01    8.082421e-01
  2.478593e+01    7.901834e-01
  2.481768e+01    8.108128e-01
  2.484943e+01    7.967083e-01
  2.488118e+01    8.045712e-01
  2.491293e+01    8.092486e-01
  2.494468e+01    8.058258e-01
  2.497643e+01    8.029393e-01
  2.500819e+01    8.099757e-01
  2.503994e+01    8.243325e-01
  2.507169e+01    8.240735e-01
  2.510344e+01    8.268113e-01
  2.513519e+01    8.273479e-01
  2.516694e+01    8.413668e-01
  2.519869e+01    8.781261e-01
  2.523044e+01    8.597603e-01
  2.526219e+01    8.431299e-01
  2.529395e+01    8.750534e-01
  2.532570e+01    8.882254e-01
  2.535745e+01    9.194478e-01
  2.538920e+01    9.339535e-01
  2.542095e+01    9.347452e-01
  2.545270e+01    9.561350e-01
  2.548445e+01    9.675084e-01
  2.551620e+01    9.833329e-01
  2.554795e+01    1.025136e+00
  2.557971e+01    1.038858e+00
  2.561146e+01    1.105316e+00
  2.564321e+01    1.175098e+00
  2.567496e+01    1.262773e+00
  2.570671e+01    1.393802e+00
  2.573846e+01    1.589230e+00
  2.577021e+01    1.819262e+00
  2.580196e+01    2.233673e+00
  2.583371e+01    2.755423e+00
  2.586547e+01    3.645740e+00
  2.589722e+01    4.806061e+00
  2.592897e+01    6.327769e+00
  2.596072e+01    7.869586e+00
  2.599247e+01    9.010835e+00
  2.602422e+01    8.923809e+00
  2.605597e+01    7.513235e+00
  2.608772e+01    5.680042e+00
  2.611948e+01    4.133982e+00
  2.615123e+01    3.122605e+00
  2.618298e+01    2.384782e+00
  2.621473e+01    1.949392e+00
  2.624648e+01    1.676280e+00
  2.627823e+01    1.495656e+00
  2.630998e+01    1.337640e+00
  2.634173e+01    1.212642e+00
  2.637348e+01    1.146034e+00
  2.640524e+01    1.068119e+00
  2.643699e+01    1.054936e+00
  2.646874e+01    1.028928e+00
  2.650049e+01    1.007019e+00
  2.653224e+01    9.628202e-01
  2.656399e+01    9.667029e-01
  2.659574e+01    9.572437e-01
  2.662749e+01    9.566036e-01
  2.665924e+01    9.269720e-01
  2.669100e+01    9.119689e-01
  2.672275e+01    9.392357e-01
  2.675450e+01    9.050635e-01
  2.678625e+01    9.199915e-01
  2.681800e+01    9.211988e-01
  2.684975e+01    9.345313e-01
  2.688150e+01    9.390381e-01
  2.691325e+01    9.546400e-01
  2.694501e+01    9.588772e-01
  2.697676e+01    9.697829e-01
  2.700851e+01    1.029341e+00
  2.704026e+01    1.072191e+00
  2.707201e+01    1.125587e+00
  2.710376e+01    1.274481e+00
  2.713551e+01    1.430011e+00
  2.716726e+01    1.695081e+00
  2.719901e+01    2.059024e+00
  2.723077e+01    2.421013e+00
  2.726252e+01    2.584269e+00
  2.729427e+01    2.515522e+00
  2.732602e+01    2.200232e+00
  2.735777e+01    1.770208e+00
  2.738952e+01    1.483694e+00
  2.742127e+01    1.295224e+00
  2.745302e+01    1.163510e+00
  2.748477e+01    1.079780e+00
  2.751653e+01    1.020285e+00
  2.754828e+01    9.530745e-01
  2.758003e+01    9.184467e-01
  2.761178e+01    9.026350e-01
  2.764353e+01    8.863571e-01
  2.767528e+01    8.522259e-01
  2.770703e+01    8.635716e-01
  2.773878e+01    8.468891e-01
  2.777054e+01    8.544319e-01
  2.780229e+01    8.328144e-01
  2.783404e+01    8.371519e-01
  2.786579e+01    8.198718e-01
  2.789754e+01    8.371471e-01
  2.792929e+01    8.003808e-01
  2.796104e+01    8.014687e-01
  2.799279e+01    8.069067e-01
  2.802454e+01    8.159723e-01
  2.805630e+01    7.979211e-01
  2.808805e+01    8.039897e-01
  2.811980e+01    8.184311e-01
  2.815155e+01    8.020648e-01
  2.818330e+01    7.842604e-01
  2.821505e+01    7.756336e-01
  2.824680e+01    7.834479e-01
  2.827855e+01    7.885548e-01
  2.831030e+01    8.027365e-01
  2.834206e+01    7.843913e-01
  2.837381e+01    8.014457e-01
  2.840556e+01    7.730758e-01
  2.843731e+01    7.746471e-01
  2.846906e+01    7.945632e-01
  2.850081e+01    7.701737e-01
  2.853256e+01    7.819566e-01
  2.856431e+01    7.621493e-01
  2.859606e+01    7.766159e-01
  2.862782e+01    7.650896e-01
  2.865957e+01    7.487824e-01
  2.869132e+01    7.768553e-01
  2.872307e+01    7.790289e-01
  2.875482e+01    7.686316e-01
  2.878657e+01    7.768772e-01
  2.881832e+01    7.838565e-01
  2.885007e+01    7.866328e-01
  2.888183e+01    7.489609e-01
  2.891358e+01    7.672465e-01
  2.894533e+01    7.562175e-01
  2.897708e+01    7.587307e-01
  2.900883e+01    7.560387e-01
  2.904058e+01    7.445288e-01
  2.907233e+01    7.806188e-01
  2.910408e+01    7.796101e-01
  2.913583e+01    7.644188e-01
  2.916759e+01    7.474530e-01
  2.919934e+01    7.240940e-01
  2.923109e+01    7.471251e-01
  2.926284e+01    7.374219e-01
  2.929459e+01    7.568922e-01
  2.932634e+01    7.262304e-01
  2.935809e+01    7.375289e-01
  2.938984e+01    7.260772e-01
  2.942159e+01    7.437370e-01
  2.945335e+01    7.533502e-01
  2.948510e+01    7.387946e-01
  2.951685e+01    7.378915e-01
  2.954860e+01    7.326564e-01
  2.958035e+01    7.359052e-01
  2.961210e+01    7.410574e-01
  2.964385e+01    7.311149e-01
  2.967560e+01    7.401577e-01
  2.970736e+01    7.254065e-01
  2.973911e+01    7.284282e-01
  2.977086e+01    7.348576e-01
  2.980261e+01    7.524297e-01
  2.983436e+01    7.351640e-01
  2.986611e+01    7.343172e-01
  2.989786e+01    7.361115e-01
  2.992961e+01    7.279390e-01
  2.996136e+01    7.170709e-01
  2.999312e+01    7.454581e-01
  3.002487e+01    7.592033e-01
  3.005662e+01    7.175567e-01
  3.008837e+01    7.331051e-01
  3.012012e+01    7.219725e-01
  3.015187e+01    7.321566e-01
  3.018362e+01    7.169313e-01
  3.021537e+01    7.578173e-01
  3.024712e+01    7.289078e-01
  3.027888e+01    7.375530e-01
  3.031063e+01    7.129288e-01
  3.034238e+01    7.504546e-01
  3.037413e+01    6.995421e-01
  3.040588e+01    7.268907e-01
  3.043763e+01    7.345477e-01
  3.046938e+01    7.161562e-01
  3.050113e+01    7.403657e-01
  3.053288e+01    7.343149e-01
  3.056464e+01    7.150997e-01
  3.059639e+01    6.882121e-01
  3.062814e+01    7.353103e-01
  3.065989e+01    7.146819e-01
  3.069164e+01    7.307857e-01
  3.072339e+01    7.376283e-01
  3.075514e+01    7.486175e-01
  3.078689e+01    7.030089e-01
  3.081865e+01    7.368086e-01
  3.085040e+01    7.321084e-01
  3.088215e+01    7.410052e-01
  3.091390e+01    7.410737e-01
  3.094565e+01    7.465229e-01
  3.097740e+01    7.418902e-01
  3.100915e+01    7.297574e-01
  3.104090e+01    7.226122e-01
  3.107265e+01    7.358456e-01
  3.110441e+01    7.233590e-01
  3.113616e+01    7.329043e-01
  3.116791e+01    7.387161e-01
  3.119966e+01    7.348231e-01
  3.123141e+01    7.378882e-01
  3.126316e+01    7.501410e-01
  3.129491e+01    7.545654e-01
  3.132666e+01    7.580880e-01
  3.135841e+01    7.619654e-01
  3.139017e+01    7.500512e-01
  3.142192e+01    7.664918e-01
  3.145367e+01    7.720888e-01
  3.148542e+01    7.735089e-01
  3.151717e+01    7.870192e-01
  3.154892e+01    7.923650e-01
  3.158067e+01    7.736943e-01
  3.161242e+01    8.273936e-01
  3.164418e+01    8.176563e-01
  3.167593e+01    8.631272e-01
  3.170768e+01    9.226123e-01
  3.173943e+01    9.840533e-01
  3.177118e+01    1.082070e+00
  3.180293e+01    1.203471e+00
  3.183468e+01    1.389987e+00
  3.186643e+01    1.693247e+00
  3.189818e+01    2.035744e+00
  3.192994e+01    2.403147e+00
  3.196169e+01    2.591054e+00
  3.199344e+01    2.463296e+00
  3.202519e+01    2.153595e+00
  3.205694e+01    1.761164e+00
  3.208869e+01    1.430576e+00
  3.212044e+01    1.181797e+00
  3.215219e+01    1.077663e+00
  3.218394e+01    9.509329e-01
  3.221570e+01    9.052785e-01
  3.224745e+01    8.539145e-01
  3.227920e+01    8.351551e-01
  3.231095e+01    8.104205e-01
  3.234270e+01    7.762463e-01
  3.237445e+01    7.651149e-01
  3.240620e+01    7.757690e-01
  3.243795e+01    7.747513e-01
  3.246970e+01    7.599046e-01
  3.250146e+01    7.637798e-01
  3.253321e+01    7.365034e-01
  3.254908e+01    7.440042e-01