File: XRD/2024-07-27_002_Ru-CGO-ex_Activtation_ramp_000002_data_000159.dat
# == pyFAI calibration ==
# Distance Sample to Detector: 0.4 m
# PONI: 9.750e-02, 1.135e-01 m
# Rotations: -0.000175 0.000000 -0.000000 rad
#
# == Fit2d calibration ==
# Distance Sample-beamCenter: 400.000 mm
# Center: x=1514.000, y=1300.000 pix
# Tilt: 0.010 deg  TiltPlanRot: 0.010 deg
#
# Detector Detector	 Spline= None	 PixelSize= 7.500e-05, 7.500e-05 m
#    Detector has a mask: False
#    Detector has a dark current: False
#    detector has a flat field: False
#
# Wavelength: 6.888e-11 m
# Mask applied: user provided
# Dark current applied: False
# Flat field applied: False
# Polarization factor: 0.99
# Normalization factor: 1.0
# --> /home/myspot/data/2024_07_Rosario/Ru-CGO-ex/2024-07-27_002_Ru-CGO-ex_Activtation_ramp_000002_data_000159.dat
#       q_nm^-1             I
  2.003187e-02    7.711873e-02
  5.178302e-02    2.670345e-02
  8.353417e-02    6.459521e-02
  1.152853e-01    1.766353e-02
  1.470365e-01    2.649570e-02
  1.787876e-01    1.797008e-03
  2.105388e-01    5.127735e-02
  2.422899e-01    9.134909e-03
  2.740411e-01    4.967195e-02
  3.057922e-01    3.501098e-02
  3.375433e-01    1.112398e-02
  3.692945e-01    2.973218e-02
  4.010456e-01    2.215310e-02
  4.327968e-01    4.000207e-02
  4.645479e-01    3.368932e-02
  4.962991e-01    3.681049e-02
  5.280502e-01    3.436960e-02
  5.598014e-01    5.218533e-02
  5.915525e-01    5.457304e-02
  6.233037e-01    4.040993e-02
  6.550548e-01    2.864044e-02
  6.868060e-01    2.512919e-02
  7.185571e-01    4.819146e-02
  7.503083e-01    6.583758e-02
  7.820594e-01    8.958849e-02
  8.138106e-01    2.237477e-01
  8.455617e-01    3.223564e-01
  8.773129e-01    4.610684e-01
  9.090640e-01    5.723758e-01
  9.408152e-01    7.565509e-01
  9.725663e-01    7.880115e-01
  1.004317e+00    9.871882e-01
  1.036069e+00    1.193018e+00
  1.067820e+00    1.307577e+00
  1.099571e+00    1.365547e+00
  1.131322e+00    1.545724e+00
  1.163073e+00    1.474460e+00
  1.194824e+00    1.629631e+00
  1.226575e+00    2.101455e+00
  1.258327e+00    2.259220e+00
  1.290078e+00    2.550846e+00
  1.321829e+00    2.419341e+00
  1.353580e+00    2.646740e+00
  1.385331e+00    2.614059e+00
  1.417082e+00    2.650135e+00
  1.448834e+00    2.655928e+00
  1.480585e+00    2.814872e+00
  1.512336e+00    2.799148e+00
  1.544087e+00    3.005098e+00
  1.575838e+00    2.938843e+00
  1.607589e+00    2.779235e+00
  1.639340e+00    2.750146e+00
  1.671092e+00    2.773720e+00
  1.702843e+00    2.891242e+00
  1.734594e+00    2.732263e+00
  1.766345e+00    2.762926e+00
  1.798096e+00    2.765108e+00
  1.829847e+00    2.849228e+00
  1.861598e+00    2.611172e+00
  1.893350e+00    2.792356e+00
  1.925101e+00    2.706022e+00
  1.956852e+00    2.637128e+00
  1.988603e+00    2.650444e+00
  2.020354e+00    2.725531e+00
  2.052105e+00    2.675305e+00
  2.083856e+00    2.814947e+00
  2.115608e+00    2.595637e+00
  2.147359e+00    2.719117e+00
  2.179110e+00    2.734607e+00
  2.210861e+00    2.755973e+00
  2.242612e+00    2.641234e+00
  2.274363e+00    2.690262e+00
  2.306115e+00    2.680824e+00
  2.337866e+00    2.839268e+00
  2.369617e+00    2.839776e+00
  2.401368e+00    2.774495e+00
  2.433119e+00    2.632153e+00
  2.464870e+00    2.723406e+00
  2.496621e+00    2.856043e+00
  2.528373e+00    2.772143e+00
  2.560124e+00    2.758049e+00
  2.591875e+00    2.882270e+00
  2.623626e+00    2.779413e+00
  2.655377e+00    2.788687e+00
  2.687128e+00    2.795341e+00
  2.718879e+00    2.759423e+00
  2.750631e+00    2.848920e+00
  2.782382e+00    2.908611e+00
  2.814133e+00    2.830989e+00
  2.845884e+00    2.849671e+00
  2.877635e+00    2.868594e+00
  2.909386e+00    2.907552e+00
  2.941137e+00    2.915536e+00
  2.972889e+00    2.882608e+00
  3.004640e+00    2.917383e+00
  3.036391e+00    2.822523e+00
  3.068142e+00    2.917499e+00
  3.099893e+00    2.933416e+00
  3.131644e+00    2.850299e+00
  3.163395e+00    2.912708e+00
  3.195147e+00    2.945785e+00
  3.226898e+00    2.965358e+00
  3.258649e+00    2.882653e+00
  3.290400e+00    3.036576e+00
  3.322151e+00    3.005117e+00
  3.353902e+00    2.908097e+00
  3.385654e+00    3.018465e+00
  3.417405e+00    2.947840e+00
  3.449156e+00    3.004212e+00
  3.480907e+00    3.034881e+00
  3.512658e+00    2.926075e+00
  3.544409e+00    2.866805e+00
  3.576160e+00    3.017879e+00
  3.607912e+00    3.064335e+00
  3.639663e+00    3.018321e+00
  3.671414e+00    2.993090e+00
  3.703165e+00    2.987983e+00
  3.734916e+00    2.999953e+00
  3.766667e+00    3.044960e+00
  3.798418e+00    2.964443e+00
  3.830170e+00    3.014833e+00
  3.861921e+00    2.989634e+00
  3.893672e+00    2.885618e+00
  3.925423e+00    3.108736e+00
  3.957174e+00    3.045000e+00
  3.988925e+00    3.007634e+00
  4.020676e+00    2.991373e+00
  4.052428e+00    3.068568e+00
  4.084179e+00    3.105941e+00
  4.115930e+00    2.953907e+00
  4.147681e+00    3.131016e+00
  4.179432e+00    3.118222e+00
  4.211183e+00    3.139617e+00
  4.242935e+00    3.031389e+00
  4.274686e+00    3.059568e+00
  4.306437e+00    3.050025e+00
  4.338188e+00    3.079908e+00
  4.369939e+00    3.057315e+00
  4.401690e+00    3.058153e+00
  4.433441e+00    3.027216e+00
  4.465193e+00    3.184197e+00
  4.496944e+00    3.047857e+00
  4.528695e+00    3.055127e+00
  4.560446e+00    3.053791e+00
  4.592197e+00    3.025976e+00
  4.623948e+00    3.113167e+00
  4.655699e+00    3.197299e+00
  4.687451e+00    3.036452e+00
  4.719202e+00    3.137764e+00
  4.750953e+00    3.128740e+00
  4.782704e+00    3.112475e+00
  4.814455e+00    3.125689e+00
  4.846206e+00    3.135793e+00
  4.877957e+00    3.189117e+00
  4.909709e+00    3.169508e+00
  4.941460e+00    3.111641e+00
  4.973211e+00    3.078710e+00
  5.004962e+00    3.212153e+00
  5.036713e+00    3.157658e+00
  5.068464e+00    3.142255e+00
  5.100216e+00    3.241633e+00
  5.131967e+00    3.112763e+00
  5.163718e+00    3.114035e+00
  5.195469e+00    3.165348e+00
  5.227220e+00    3.133056e+00
  5.258971e+00    3.090225e+00
  5.290722e+00    3.121313e+00
  5.322474e+00    3.198858e+00
  5.354225e+00    3.164852e+00
  5.385976e+00    3.139422e+00
  5.417727e+00    3.142227e+00
  5.449478e+00    3.146806e+00
  5.481229e+00    3.109630e+00
  5.512980e+00    3.145353e+00
  5.544732e+00    3.090171e+00
  5.576483e+00    3.125338e+00
  5.608234e+00    3.169899e+00
  5.639985e+00    3.120244e+00
  5.671736e+00    3.108931e+00
  5.703487e+00    3.121707e+00
  5.735238e+00    3.114430e+00
  5.766990e+00    3.108896e+00
  5.798741e+00    3.064059e+00
  5.830492e+00    2.920927e+00
  5.862243e+00    3.087328e+00
  5.893994e+00    3.012072e+00
  5.925745e+00    3.076239e+00
  5.957497e+00    3.097126e+00
  5.989248e+00    3.052055e+00
  6.020999e+00    2.999665e+00
  6.052750e+00    3.022286e+00
  6.084501e+00    3.055689e+00
  6.116252e+00    3.071682e+00
  6.148003e+00    3.057846e+00
  6.179755e+00    3.150700e+00
  6.211506e+00    3.161115e+00
  6.243257e+00    3.037461e+00
  6.275008e+00    3.013518e+00
  6.306759e+00    3.083516e+00
  6.338510e+00    3.088000e+00
  6.370261e+00    2.972932e+00
  6.402013e+00    3.103554e+00
  6.433764e+00    3.065451e+00
  6.465515e+00    3.120203e+00
  6.497266e+00    3.064171e+00
  6.529017e+00    3.178182e+00
  6.560768e+00    3.018673e+00
  6.592519e+00    3.092331e+00
  6.624271e+00    3.066379e+00
  6.656022e+00    3.055624e+00
  6.687773e+00    3.082050e+00
  6.719524e+00    3.058475e+00
  6.751275e+00    3.091476e+00
  6.783026e+00    3.041780e+00
  6.814777e+00    3.155084e+00
  6.846529e+00    3.069668e+00
  6.878280e+00    3.061174e+00
  6.910031e+00    3.030956e+00
  6.941782e+00    3.112086e+00
  6.973533e+00    3.017098e+00
  7.005284e+00    3.055428e+00
  7.037036e+00    3.023079e+00
  7.068787e+00    2.983738e+00
  7.100538e+00    2.986333e+00
  7.132289e+00    3.051065e+00
  7.164040e+00    3.012567e+00
  7.195791e+00    3.049798e+00
  7.227542e+00    3.054025e+00
  7.259294e+00    3.028795e+00
  7.291045e+00    3.045615e+00
  7.322796e+00    3.033558e+00
  7.354547e+00    3.081192e+00
  7.386298e+00    3.027040e+00
  7.418049e+00    3.026347e+00
  7.449800e+00    3.001651e+00
  7.481552e+00    2.981452e+00
  7.513303e+00    2.989538e+00
  7.545054e+00    3.051246e+00
  7.576805e+00    3.044597e+00
  7.608556e+00    2.995485e+00
  7.640307e+00    2.982140e+00
  7.672058e+00    2.993295e+00
  7.703810e+00    2.977246e+00
  7.735561e+00    2.969949e+00
  7.767312e+00    2.962639e+00
  7.799063e+00    2.981984e+00
  7.830814e+00    2.905207e+00
  7.862565e+00    2.934035e+00
  7.894317e+00    2.951021e+00
  7.926068e+00    2.915427e+00
  7.957819e+00    2.977594e+00
  7.989570e+00    2.947485e+00
  8.021321e+00    2.987148e+00
  8.053072e+00    3.024716e+00
  8.084823e+00    3.012654e+00
  8.116575e+00    2.937696e+00
  8.148326e+00    2.945892e+00
  8.180077e+00    2.933414e+00
  8.211828e+00    3.055727e+00
  8.243579e+00    3.029037e+00
  8.275330e+00    2.845440e+00
  8.307081e+00    2.883703e+00
  8.338833e+00    2.867778e+00
  8.370584e+00    2.951347e+00
  8.402335e+00    2.895686e+00
  8.434086e+00    2.948999e+00
  8.465837e+00    2.893931e+00
  8.497588e+00    2.919837e+00
  8.529339e+00    2.869337e+00
  8.561091e+00    2.897338e+00
  8.592842e+00    2.892780e+00
  8.624593e+00    2.898388e+00
  8.656344e+00    2.841433e+00
  8.688095e+00    2.868105e+00
  8.719846e+00    2.872412e+00
  8.751598e+00    2.897516e+00
  8.783349e+00    2.927396e+00
  8.815100e+00    2.900642e+00
  8.846851e+00    2.870215e+00
  8.878602e+00    2.797096e+00
  8.910353e+00    2.873096e+00
  8.942104e+00    2.822621e+00
  8.973856e+00    2.814472e+00
  9.005607e+00    2.851681e+00
  9.037358e+00    2.861517e+00
  9.069109e+00    2.840151e+00
  9.100860e+00    2.793953e+00
  9.132611e+00    2.800648e+00
  9.164362e+00    2.756085e+00
  9.196114e+00    2.811222e+00
  9.227865e+00    2.818192e+00
  9.259616e+00    2.761544e+00
  9.291367e+00    2.819960e+00
  9.323118e+00    2.833366e+00
  9.354869e+00    2.803496e+00
  9.386620e+00    2.778579e+00
  9.418372e+00    2.803907e+00
  9.450123e+00    2.834514e+00
  9.481874e+00    2.790023e+00
  9.513625e+00    2.781415e+00
  9.545376e+00    2.777792e+00
  9.577127e+00    2.745995e+00
  9.608878e+00    2.788011e+00
  9.640630e+00    2.730764e+00
  9.672381e+00    2.798244e+00
  9.704132e+00    2.741364e+00
  9.735883e+00    2.779875e+00
  9.767634e+00    2.668571e+00
  9.799385e+00    2.778468e+00
  9.831137e+00    2.716801e+00
  9.862888e+00    2.658935e+00
  9.894639e+00    2.678606e+00
  9.926390e+00    2.740499e+00
  9.958141e+00    2.678928e+00
  9.989892e+00    2.692707e+00
  1.002164e+01    2.695314e+00
  1.005339e+01    2.646111e+00
  1.008515e+01    2.681844e+00
  1.011690e+01    2.635178e+00
  1.014865e+01    2.640079e+00
  1.018040e+01    2.645763e+00
  1.021215e+01    2.577235e+00
  1.024390e+01    2.642556e+00
  1.027565e+01    2.599254e+00
  1.030740e+01    2.653910e+00
  1.033915e+01    2.612839e+00
  1.037091e+01    2.590254e+00
  1.040266e+01    2.611603e+00
  1.043441e+01    2.669344e+00
  1.046616e+01    2.601451e+00
  1.049791e+01    2.586649e+00
  1.052966e+01    2.573431e+00
  1.056141e+01    2.514582e+00
  1.059316e+01    2.634080e+00
  1.062492e+01    2.536823e+00
  1.065667e+01    2.591392e+00
  1.068842e+01    2.567299e+00
  1.072017e+01    2.591452e+00
  1.075192e+01    2.594368e+00
  1.078367e+01    2.550356e+00
  1.081542e+01    2.537328e+00
  1.084717e+01    2.519829e+00
  1.087892e+01    2.485037e+00
  1.091068e+01    2.444049e+00
  1.094243e+01    2.496971e+00
  1.097418e+01    2.517989e+00
  1.100593e+01    2.517911e+00
  1.103768e+01    2.520857e+00
  1.106943e+01    2.465455e+00
  1.110118e+01    2.508528e+00
  1.113293e+01    2.491755e+00
  1.116468e+01    2.453465e+00
  1.119644e+01    2.509218e+00
  1.122819e+01    2.494776e+00
  1.125994e+01    2.432223e+00
  1.129169e+01    2.438798e+00
  1.132344e+01    2.447129e+00
  1.135519e+01    2.465340e+00
  1.138694e+01    2.453279e+00
  1.141869e+01    2.417808e+00
  1.145045e+01    2.426322e+00
  1.148220e+01    2.474558e+00
  1.151395e+01    2.420978e+00
  1.154570e+01    2.417398e+00
  1.157745e+01    2.395144e+00
  1.160920e+01    2.404065e+00
  1.164095e+01    2.356734e+00
  1.167270e+01    2.397985e+00
  1.170445e+01    2.376424e+00
  1.173621e+01    2.360766e+00
  1.176796e+01    2.390789e+00
  1.179971e+01    2.435253e+00
  1.183146e+01    2.354178e+00
  1.186321e+01    2.319259e+00
  1.189496e+01    2.305660e+00
  1.192671e+01    2.352894e+00
  1.195846e+01    2.334827e+00
  1.199021e+01    2.378485e+00
  1.202197e+01    2.345087e+00
  1.205372e+01    2.341624e+00
  1.208547e+01    2.322379e+00
  1.211722e+01    2.320440e+00
  1.214897e+01    2.321049e+00
  1.218072e+01    2.350079e+00
  1.221247e+01    2.324734e+00
  1.224422e+01    2.330242e+00
  1.227597e+01    2.293031e+00
  1.230773e+01    2.298176e+00
  1.233948e+01    2.383899e+00
  1.237123e+01    2.323082e+00
  1.240298e+01    2.289198e+00
  1.243473e+01    2.335430e+00
  1.246648e+01    2.336751e+00
  1.249823e+01    2.341396e+00
  1.252998e+01    2.305106e+00
  1.256174e+01    2.351499e+00
  1.259349e+01    2.397417e+00
  1.262524e+01    2.403350e+00
  1.265699e+01    2.462051e+00
  1.268874e+01    2.447883e+00
  1.272049e+01    2.514685e+00
  1.275224e+01    2.534573e+00
  1.278399e+01    2.628939e+00
  1.281574e+01    2.750741e+00
  1.284750e+01    2.786222e+00
  1.287925e+01    3.048053e+00
  1.291100e+01    3.349917e+00
  1.294275e+01    3.740895e+00
  1.297450e+01    4.503840e+00
  1.300625e+01    5.490528e+00
  1.303800e+01    7.350556e+00
  1.306975e+01    9.789514e+00
  1.310150e+01    1.224786e+01
  1.313326e+01    1.443930e+01
  1.316501e+01    1.627712e+01
  1.319676e+01    1.585155e+01
  1.322851e+01    1.258594e+01
  1.326026e+01    8.970759e+00
  1.329201e+01    6.538129e+00
  1.332376e+01    5.031145e+00
  1.335551e+01    4.162672e+00
  1.338727e+01    3.531718e+00
  1.341902e+01    3.208690e+00
  1.345077e+01    2.921530e+00
  1.348252e+01    2.720679e+00
  1.351427e+01    2.598252e+00
  1.354602e+01    2.503654e+00
  1.357777e+01    2.408577e+00
  1.360952e+01    2.401519e+00
  1.364127e+01    2.294897e+00
  1.367303e+01    2.267627e+00
  1.370478e+01    2.264482e+00
  1.373653e+01    2.177108e+00
  1.376828e+01    2.157795e+00
  1.380003e+01    2.199845e+00
  1.383178e+01    2.140737e+00
  1.386353e+01    2.133730e+00
  1.389528e+01    2.121548e+00
  1.392703e+01    2.092111e+00
  1.395879e+01    2.018572e+00
  1.399054e+01    2.098267e+00
  1.402229e+01    2.056604e+00
  1.405404e+01    2.020028e+00
  1.408579e+01    2.080788e+00
  1.411754e+01    1.975188e+00
  1.414929e+01    2.017694e+00
  1.418104e+01    2.016098e+00
  1.421279e+01    2.005409e+00
  1.424455e+01    1.960964e+00
  1.427630e+01    2.018934e+00
  1.430805e+01    1.951329e+00
  1.433980e+01    1.945241e+00
  1.437155e+01    1.910016e+00
  1.440330e+01    1.954446e+00
  1.443505e+01    1.947457e+00
  1.446680e+01    1.926163e+00
  1.449856e+01    1.915829e+00
  1.453031e+01    1.959490e+00
  1.456206e+01    1.939233e+00
  1.459381e+01    1.963881e+00
  1.462556e+01    1.938517e+00
  1.465731e+01    1.923443e+00
  1.468906e+01    1.876821e+00
  1.472081e+01    1.901567e+00
  1.475256e+01    1.897859e+00
  1.478432e+01    1.927034e+00
  1.481607e+01    1.921705e+00
  1.484782e+01    1.894078e+00
  1.487957e+01    1.947771e+00
  1.491132e+01    1.926563e+00
  1.494307e+01    2.075293e+00
  1.497482e+01    2.100339e+00
  1.500657e+01    2.200519e+00
  1.503832e+01    2.334314e+00
  1.507008e+01    2.564951e+00
  1.510183e+01    2.965178e+00
  1.513358e+01    3.558381e+00
  1.516533e+01    4.217171e+00
  1.519708e+01    4.917465e+00
  1.522883e+01    5.417561e+00
  1.526058e+01    5.708398e+00
  1.529233e+01    5.386032e+00
  1.532409e+01    4.472295e+00
  1.535584e+01    3.536544e+00
  1.538759e+01    2.970534e+00
  1.541934e+01    2.525433e+00
  1.545109e+01    2.273527e+00
  1.548284e+01    2.082647e+00
  1.551459e+01    1.932257e+00
  1.554634e+01    1.928037e+00
  1.557809e+01    1.869697e+00
  1.560985e+01    1.804881e+00
  1.564160e+01    1.768827e+00
  1.567335e+01    1.739819e+00
  1.570510e+01    1.744223e+00
  1.573685e+01    1.702744e+00
  1.576860e+01    1.715947e+00
  1.580035e+01    1.706549e+00
  1.583210e+01    1.678149e+00
  1.586385e+01    1.640494e+00
  1.589561e+01    1.676389e+00
  1.592736e+01    1.627923e+00
  1.595911e+01    1.622024e+00
  1.599086e+01    1.606436e+00
  1.602261e+01    1.608436e+00
  1.605436e+01    1.605590e+00
  1.608611e+01    1.600314e+00
  1.611786e+01    1.591664e+00
  1.614961e+01    1.579167e+00
  1.618137e+01    1.542960e+00
  1.621312e+01    1.611041e+00
  1.624487e+01    1.551733e+00
  1.627662e+01    1.539528e+00
  1.630837e+01    1.563418e+00
  1.634012e+01    1.551566e+00
  1.637187e+01    1.546492e+00
  1.640362e+01    1.512167e+00
  1.643538e+01    1.540952e+00
  1.646713e+01    1.530928e+00
  1.649888e+01    1.540435e+00
  1.653063e+01    1.492714e+00
  1.656238e+01    1.513647e+00
  1.659413e+01    1.510452e+00
  1.662588e+01    1.513632e+00
  1.665763e+01    1.516621e+00
  1.668938e+01    1.486316e+00
  1.672114e+01    1.456774e+00
  1.675289e+01    1.470427e+00
  1.678464e+01    1.464851e+00
  1.681639e+01    1.471797e+00
  1.684814e+01    1.469561e+00
  1.687989e+01    1.437381e+00
  1.691164e+01    1.483789e+00
  1.694339e+01    1.426167e+00
  1.697514e+01    1.416263e+00
  1.700690e+01    1.430298e+00
  1.703865e+01    1.450355e+00
  1.707040e+01    1.431852e+00
  1.710215e+01    1.427088e+00
  1.713390e+01    1.420360e+00
  1.716565e+01    1.417507e+00
  1.719740e+01    1.419728e+00
  1.722915e+01    1.437750e+00
  1.726091e+01    1.419769e+00
  1.729266e+01    1.411248e+00
  1.732441e+01    1.398858e+00
  1.735616e+01    1.369015e+00
  1.738791e+01    1.401148e+00
  1.741966e+01    1.387789e+00
  1.745141e+01    1.353356e+00
  1.748316e+01    1.349781e+00
  1.751491e+01    1.397207e+00
  1.754667e+01    1.364023e+00
  1.757842e+01    1.398269e+00
  1.761017e+01    1.389275e+00
  1.764192e+01    1.353747e+00
  1.767367e+01    1.379654e+00
  1.770542e+01    1.358339e+00
  1.773717e+01    1.316747e+00
  1.776892e+01    1.351884e+00
  1.780067e+01    1.313248e+00
  1.783243e+01    1.355028e+00
  1.786418e+01    1.351813e+00
  1.789593e+01    1.323362e+00
  1.792768e+01    1.320735e+00
  1.795943e+01    1.314120e+00
  1.799118e+01    1.274157e+00
  1.802293e+01    1.325330e+00
  1.805468e+01    1.297395e+00
  1.808643e+01    1.278885e+00
  1.811819e+01    1.296647e+00
  1.814994e+01    1.307360e+00
  1.818169e+01    1.308344e+00
  1.821344e+01    1.279473e+00
  1.824519e+01    1.252612e+00
  1.827694e+01    1.256145e+00
  1.830869e+01    1.284006e+00
  1.834044e+01    1.285948e+00
  1.837220e+01    1.278663e+00
  1.840395e+01    1.265240e+00
  1.843570e+01    1.288803e+00
  1.846745e+01    1.262190e+00
  1.849920e+01    1.250405e+00
  1.853095e+01    1.260873e+00
  1.856270e+01    1.266008e+00
  1.859445e+01    1.256602e+00
  1.862620e+01    1.263243e+00
  1.865796e+01    1.265698e+00
  1.868971e+01    1.261045e+00
  1.872146e+01    1.217512e+00
  1.875321e+01    1.230151e+00
  1.878496e+01    1.223360e+00
  1.881671e+01    1.217855e+00
  1.884846e+01    1.231512e+00
  1.888021e+01    1.221987e+00
  1.891196e+01    1.230070e+00
  1.894372e+01    1.206132e+00
  1.897547e+01    1.210500e+00
  1.900722e+01    1.190921e+00
  1.903897e+01    1.209651e+00
  1.907072e+01    1.197296e+00
  1.910247e+01    1.184689e+00
  1.913422e+01    1.207922e+00
  1.916597e+01    1.209160e+00
  1.919773e+01    1.198149e+00
  1.922948e+01    1.183854e+00
  1.926123e+01    1.192295e+00
  1.929298e+01    1.165498e+00
  1.932473e+01    1.174488e+00
  1.935648e+01    1.181007e+00
  1.938823e+01    1.183354e+00
  1.941998e+01    1.169869e+00
  1.945173e+01    1.169222e+00
  1.948349e+01    1.179860e+00
  1.951524e+01    1.155310e+00
  1.954699e+01    1.158281e+00
  1.957874e+01    1.126410e+00
  1.961049e+01    1.158065e+00
  1.964224e+01    1.165562e+00
  1.967399e+01    1.141353e+00
  1.970574e+01    1.154572e+00
  1.973749e+01    1.134229e+00
  1.976925e+01    1.144670e+00
  1.980100e+01    1.146126e+00
  1.983275e+01    1.149140e+00
  1.986450e+01    1.156626e+00
  1.989625e+01    1.126867e+00
  1.992800e+01    1.142835e+00
  1.995975e+01    1.134963e+00
  1.999150e+01    1.127795e+00
  2.002325e+01    1.100825e+00
  2.005501e+01    1.110902e+00
  2.008676e+01    1.097613e+00
  2.011851e+01    1.094210e+00
  2.015026e+01    1.122674e+00
  2.018201e+01    1.115969e+00
  2.021376e+01    1.109093e+00
  2.024551e+01    1.089698e+00
  2.027726e+01    1.107542e+00
  2.030902e+01    1.104446e+00
  2.034077e+01    1.132667e+00
  2.037252e+01    1.103724e+00
  2.040427e+01    1.101600e+00
  2.043602e+01    1.110587e+00
  2.046777e+01    1.071982e+00
  2.049952e+01    1.096824e+00
  2.053127e+01    1.097793e+00
  2.056302e+01    1.094397e+00
  2.059478e+01    1.084114e+00
  2.062653e+01    1.079903e+00
  2.065828e+01    1.066523e+00
  2.069003e+01    1.068918e+00
  2.072178e+01    1.094072e+00
  2.075353e+01    1.087059e+00
  2.078528e+01    1.084310e+00
  2.081703e+01    1.103302e+00
  2.084878e+01    1.070985e+00
  2.088054e+01    1.098398e+00
  2.091229e+01    1.105890e+00
  2.094404e+01    1.065850e+00
  2.097579e+01    1.059297e+00
  2.100754e+01    1.091940e+00
  2.103929e+01    1.087320e+00
  2.107104e+01    1.073717e+00
  2.110279e+01    1.092157e+00
  2.113455e+01    1.116342e+00
  2.116630e+01    1.099880e+00
  2.119805e+01    1.082942e+00
  2.122980e+01    1.109026e+00
  2.126155e+01    1.094103e+00
  2.129330e+01    1.118493e+00
  2.132505e+01    1.124071e+00
  2.135680e+01    1.119054e+00
  2.138855e+01    1.186562e+00
  2.142031e+01    1.187726e+00
  2.145206e+01    1.211899e+00
  2.148381e+01    1.270817e+00
  2.151556e+01    1.342628e+00
  2.154731e+01    1.401543e+00
  2.157906e+01    1.471458e+00
  2.161081e+01    1.626201e+00
  2.164256e+01    1.858551e+00
  2.167431e+01    2.172924e+00
  2.170607e+01    2.662209e+00
  2.173782e+01    3.440714e+00
  2.176957e+01    4.474599e+00
  2.180132e+01    5.761052e+00
  2.183307e+01    7.145420e+00
  2.186482e+01    8.342759e+00
  2.189657e+01    9.091375e+00
  2.192832e+01    8.321907e+00
  2.196007e+01    6.454995e+00
  2.199183e+01    4.730107e+00
  2.202358e+01    3.431351e+00
  2.205533e+01    2.657243e+00
  2.208708e+01    2.198019e+00
  2.211883e+01    1.831384e+00
  2.215058e+01    1.641004e+00
  2.218233e+01    1.488365e+00
  2.221408e+01    1.361860e+00
  2.224584e+01    1.283448e+00
  2.227759e+01    1.199170e+00
  2.230934e+01    1.174314e+00
  2.234109e+01    1.123006e+00
  2.237284e+01    1.107351e+00
  2.240459e+01    1.043540e+00
  2.243634e+01    1.051530e+00
  2.246809e+01    1.031363e+00
  2.249984e+01    1.031227e+00
  2.253160e+01    1.012555e+00
  2.256335e+01    9.865624e-01
  2.259510e+01    9.970432e-01
  2.262685e+01    9.670010e-01
  2.265860e+01    9.628894e-01
  2.269035e+01    9.507459e-01
  2.272210e+01    9.424992e-01
  2.275385e+01    9.626025e-01
  2.278560e+01    9.499330e-01
  2.281736e+01    9.675821e-01
  2.284911e+01    9.322845e-01
  2.288086e+01    9.176398e-01
  2.291261e+01    9.316941e-01
  2.294436e+01    9.035851e-01
  2.297611e+01    9.075603e-01
  2.300786e+01    8.942971e-01
  2.303961e+01    8.952621e-01
  2.307137e+01    9.076689e-01
  2.310312e+01    8.898187e-01
  2.313487e+01    8.832570e-01
  2.316662e+01    8.813665e-01
  2.319837e+01    8.809619e-01
  2.323012e+01    8.921746e-01
  2.326187e+01    8.899050e-01
  2.329362e+01    8.728385e-01
  2.332537e+01    8.829717e-01
  2.335713e+01    8.429028e-01
  2.338888e+01    8.396206e-01
  2.342063e+01    8.649912e-01
  2.345238e+01    8.627067e-01
  2.348413e+01    8.605725e-01
  2.351588e+01    8.451083e-01
  2.354763e+01    8.412517e-01
  2.357938e+01    8.393933e-01
  2.361113e+01    8.381258e-01
  2.364289e+01    8.471350e-01
  2.367464e+01    8.363764e-01
  2.370639e+01    8.144370e-01
  2.373814e+01    8.179507e-01
  2.376989e+01    8.339096e-01
  2.380164e+01    8.163264e-01
  2.383339e+01    8.106973e-01
  2.386514e+01    8.098114e-01
  2.389689e+01    7.849213e-01
  2.392865e+01    7.965012e-01
  2.396040e+01    7.917733e-01
  2.399215e+01    7.789397e-01
  2.402390e+01    7.773457e-01
  2.405565e+01    7.810425e-01
  2.408740e+01    7.981258e-01
  2.411915e+01    7.739650e-01
  2.415090e+01    7.952165e-01
  2.418266e+01    7.566348e-01
  2.421441e+01    7.844530e-01
  2.424616e+01    7.691633e-01
  2.427791e+01    7.848380e-01
  2.430966e+01    7.984354e-01
  2.434141e+01    7.958612e-01
  2.437316e+01    7.620043e-01
  2.440491e+01    7.976298e-01
  2.443666e+01    8.037974e-01
  2.446842e+01    7.798244e-01
  2.450017e+01    7.833517e-01
  2.453192e+01    7.830492e-01
  2.456367e+01    7.980244e-01
  2.459542e+01    7.950814e-01
  2.462717e+01    8.130702e-01
  2.465892e+01    8.055575e-01
  2.469067e+01    7.898414e-01
  2.472242e+01    8.042599e-01
  2.475418e+01    7.940772e-01
  2.478593e+01    7.956719e-01
  2.481768e+01    7.912278e-01
  2.484943e+01    7.873387e-01
  2.488118e+01    7.928150e-01
  2.491293e+01    8.022972e-01
  2.494468e+01    8.015916e-01
  2.497643e+01    7.944270e-01
  2.500819e+01    8.187004e-01
  2.503994e+01    8.145679e-01
  2.507169e+01    8.067200e-01
  2.510344e+01    8.223678e-01
  2.513519e+01    8.209836e-01
  2.516694e+01    8.339130e-01
  2.519869e+01    8.521383e-01
  2.523044e+01    8.432378e-01
  2.526219e+01    8.364172e-01
  2.529395e+01    8.659255e-01
  2.532570e+01    8.783454e-01
  2.535745e+01    8.854446e-01
  2.538920e+01    8.988986e-01
  2.542095e+01    9.288546e-01
  2.545270e+01    9.253741e-01
  2.548445e+01    9.835042e-01
  2.551620e+01    9.888845e-01
  2.554795e+01    1.038013e+00
  2.557971e+01    1.068696e+00
  2.561146e+01    1.143187e+00
  2.564321e+01    1.239879e+00
  2.567496e+01    1.376736e+00
  2.570671e+01    1.553119e+00
  2.573846e+01    1.801583e+00
  2.577021e+01    2.198526e+00
  2.580196e+01    2.775520e+00
  2.583371e+01    3.590499e+00
  2.586547e+01    4.692834e+00
  2.589722e+01    5.931022e+00
  2.592897e+01    6.959583e+00
  2.596072e+01    7.325134e+00
  2.599247e+01    6.783587e+00
  2.602422e+01    5.404031e+00
  2.605597e+01    3.973841e+00
  2.608772e+01    2.927311e+00
  2.611948e+01    2.285596e+00
  2.615123e+01    1.871107e+00
  2.618298e+01    1.567269e+00
  2.621473e+01    1.410497e+00
  2.624648e+01    1.261918e+00
  2.627823e+01    1.166909e+00
  2.630998e+01    1.108591e+00
  2.634173e+01    1.025519e+00
  2.637348e+01    9.888446e-01
  2.640524e+01    9.714419e-01
  2.643699e+01    9.413518e-01
  2.646874e+01    9.309112e-01
  2.650049e+01    9.389367e-01
  2.653224e+01    9.106379e-01
  2.656399e+01    8.974221e-01
  2.659574e+01    8.861676e-01
  2.662749e+01    8.957839e-01
  2.665924e+01    8.711291e-01
  2.669100e+01    8.585556e-01
  2.672275e+01    8.760332e-01
  2.675450e+01    8.981985e-01
  2.678625e+01    8.775098e-01
  2.681800e+01    8.833662e-01
  2.684975e+01    8.969606e-01
  2.688150e+01    8.982947e-01
  2.691325e+01    9.574993e-01
  2.694501e+01    9.348189e-01
  2.697676e+01    9.864205e-01
  2.700851e+01    1.037750e+00
  2.704026e+01    1.129000e+00
  2.707201e+01    1.247806e+00
  2.710376e+01    1.441342e+00
  2.713551e+01    1.674751e+00
  2.716726e+01    1.929665e+00
  2.719901e+01    2.160631e+00
  2.723077e+01    2.215636e+00
  2.726252e+01    1.996690e+00
  2.729427e+01    1.645989e+00
  2.732602e+01    1.388249e+00
  2.735777e+01    1.208490e+00
  2.738952e+01    1.078214e+00
  2.742127e+01    1.028224e+00
  2.745302e+01    9.503847e-01
  2.748477e+01    9.466731e-01
  2.751653e+01    8.901491e-01
  2.754828e+01    8.593678e-01
  2.758003e+01    8.593254e-01
  2.761178e+01    8.207552e-01
  2.764353e+01    8.176604e-01
  2.767528e+01    8.206809e-01
  2.770703e+01    8.186021e-01
  2.773878e+01    8.025357e-01
  2.777054e+01    8.069607e-01
  2.780229e+01    7.709448e-01
  2.783404e+01    8.126540e-01
  2.786579e+01    8.228872e-01
  2.789754e+01    7.995177e-01
  2.792929e+01    7.833679e-01
  2.796104e+01    8.096626e-01
  2.799279e+01    7.932992e-01
  2.802454e+01    7.833276e-01
  2.805630e+01    7.829545e-01
  2.808805e+01    7.729017e-01
  2.811980e+01    7.917978e-01
  2.815155e+01    7.785402e-01
  2.818330e+01    7.623231e-01
  2.821505e+01    7.583107e-01
  2.824680e+01    7.766157e-01
  2.827855e+01    7.501795e-01
  2.831030e+01    7.803913e-01
  2.834206e+01    7.550037e-01
  2.837381e+01    7.654147e-01
  2.840556e+01    7.673852e-01
  2.843731e+01    7.537538e-01
  2.846906e+01    7.791620e-01
  2.850081e+01    7.476323e-01
  2.853256e+01    7.824084e-01
  2.856431e+01    7.510819e-01
  2.859606e+01    7.677073e-01
  2.862782e+01    7.645865e-01
  2.865957e+01    7.519090e-01
  2.869132e+01    7.207790e-01
  2.872307e+01    7.395055e-01
  2.875482e+01    7.485179e-01
  2.878657e+01    7.540739e-01
  2.881832e+01    7.349046e-01
  2.885007e+01    7.421663e-01
  2.888183e+01    7.487465e-01
  2.891358e+01    7.387149e-01
  2.894533e+01    7.317427e-01
  2.897708e+01    7.560375e-01
  2.900883e+01    7.294961e-01
  2.904058e+01    7.249771e-01
  2.907233e+01    7.293150e-01
  2.910408e+01    7.322466e-01
  2.913583e+01    7.351279e-01
  2.916759e+01    7.255479e-01
  2.919934e+01    7.292890e-01
  2.923109e+01    7.414535e-01
  2.926284e+01    7.064412e-01
  2.929459e+01    7.125306e-01
  2.932634e+01    7.210010e-01
  2.935809e+01    7.227573e-01
  2.938984e+01    7.141741e-01
  2.942159e+01    7.378585e-01
  2.945335e+01    7.243329e-01
  2.948510e+01    7.299389e-01
  2.951685e+01    7.226892e-01
  2.954860e+01    7.177925e-01
  2.958035e+01    7.408956e-01
  2.961210e+01    7.277796e-01
  2.964385e+01    7.315874e-01
  2.967560e+01    7.132950e-01
  2.970736e+01    7.196372e-01
  2.973911e+01    6.994782e-01
  2.977086e+01    7.196655e-01
  2.980261e+01    7.196687e-01
  2.983436e+01    7.048935e-01
  2.986611e+01    7.153065e-01
  2.989786e+01    7.202954e-01
  2.992961e+01    7.342880e-01
  2.996136e+01    7.248605e-01
  2.999312e+01    7.162481e-01
  3.002487e+01    7.338206e-01
  3.005662e+01    7.463674e-01
  3.008837e+01    7.600498e-01
  3.012012e+01    7.081131e-01
  3.015187e+01    7.279169e-01
  3.018362e+01    7.225994e-01
  3.021537e+01    7.241784e-01
  3.024712e+01    7.197057e-01
  3.027888e+01    7.199356e-01
  3.031063e+01    7.141910e-01
  3.034238e+01    6.912258e-01
  3.037413e+01    7.074300e-01
  3.040588e+01    7.193207e-01
  3.043763e+01    7.218306e-01
  3.046938e+01    7.141951e-01
  3.050113e+01    7.068648e-01
  3.053288e+01    6.931813e-01
  3.056464e+01    7.174373e-01
  3.059639e+01    7.131552e-01
  3.062814e+01    7.091414e-01
  3.065989e+01    7.186446e-01
  3.069164e+01    7.065744e-01
  3.072339e+01    7.278120e-01
  3.075514e+01    7.049160e-01
  3.078689e+01    7.135156e-01
  3.081865e+01    7.116020e-01
  3.085040e+01    7.183621e-01
  3.088215e+01    7.174466e-01
  3.091390e+01    7.226881e-01
  3.094565e+01    7.201824e-01
  3.097740e+01    7.097815e-01
  3.100915e+01    7.350106e-01
  3.104090e+01    7.238449e-01
  3.107265e+01    7.220387e-01
  3.110441e+01    7.283084e-01
  3.113616e+01    7.258007e-01
  3.116791e+01    7.188751e-01
  3.119966e+01    7.226959e-01
  3.123141e+01    7.258314e-01
  3.126316e+01    7.199444e-01
  3.129491e+01    7.285308e-01
  3.132666e+01    7.389590e-01
  3.135841e+01    7.393262e-01
  3.139017e+01    7.425234e-01
  3.142192e+01    7.492967e-01
  3.145367e+01    7.685937e-01
  3.148542e+01    7.561437e-01
  3.151717e+01    7.823104e-01
  3.154892e+01    8.079710e-01
  3.158067e+01    8.056508e-01
  3.161242e+01    8.486127e-01
  3.164418e+01    8.346854e-01
  3.167593e+01    9.311450e-01
  3.170768e+01    9.661654e-01
  3.173943e+01    1.079832e+00
  3.177118e+01    1.204732e+00
  3.180293e+01    1.414749e+00
  3.183468e+01    1.727464e+00
  3.186643e+01    1.977991e+00
  3.189818e+01    2.183838e+00
  3.192994e+01    2.140869e+00
  3.196169e+01    1.851264e+00
  3.199344e+01    1.545258e+00
  3.202519e+01    1.252377e+00
  3.205694e+01    1.103162e+00
  3.208869e+01    9.822663e-01
  3.212044e+01    9.513302e-01
  3.215219e+01    8.684350e-01
  3.218394e+01    8.025494e-01
  3.221570e+01    7.844685e-01
  3.224745e+01    8.044029e-01
  3.227920e+01    7.401257e-01
  3.231095e+01    7.463054e-01
  3.234270e+01    7.421898e-01
  3.237445e+01    7.540498e-01
  3.240620e+01    7.225019e-01
  3.243795e+01    7.541791e-01
  3.246970e+01    7.156704e-01
  3.250146e+01    7.423043e-01
  3.253321e+01    7.017705e-01
  3.254908e+01    7.200017e-01