File: XRD/2024-07-27_002_Ru-CGO-ex_Activtation_ramp_000002_data_000150.dat
# == pyFAI calibration ==
# Distance Sample to Detector: 0.4 m
# PONI: 9.750e-02, 1.135e-01 m
# Rotations: -0.000175 0.000000 -0.000000 rad
#
# == Fit2d calibration ==
# Distance Sample-beamCenter: 400.000 mm
# Center: x=1514.000, y=1300.000 pix
# Tilt: 0.010 deg  TiltPlanRot: 0.010 deg
#
# Detector Detector	 Spline= None	 PixelSize= 7.500e-05, 7.500e-05 m
#    Detector has a mask: False
#    Detector has a dark current: False
#    detector has a flat field: False
#
# Wavelength: 6.888e-11 m
# Mask applied: user provided
# Dark current applied: False
# Flat field applied: False
# Polarization factor: 0.99
# Normalization factor: 1.0
# --> /home/myspot/data/2024_07_Rosario/Ru-CGO-ex/2024-07-27_002_Ru-CGO-ex_Activtation_ramp_000002_data_000150.dat
#       q_nm^-1             I
  2.003187e-02    0.000000e+00
  5.178302e-02    1.210592e-01
  8.353417e-02    2.592503e-03
  1.152853e-01    4.858284e-02
  1.470365e-01    4.738371e-02
  1.787876e-01    4.226905e-02
  2.105388e-01    4.445216e-02
  2.422899e-01    4.637802e-02
  2.740411e-01    8.741640e-03
  3.057922e-01    2.440934e-02
  3.375433e-01    4.012853e-02
  3.692945e-01    1.897428e-02
  4.010456e-01    1.478906e-02
  4.327968e-01    3.047222e-02
  4.645479e-01    1.704769e-02
  4.962991e-01    5.466764e-02
  5.280502e-01    3.007238e-02
  5.598014e-01    6.678291e-02
  5.915525e-01    5.118584e-02
  6.233037e-01    6.405675e-02
  6.550548e-01    8.457161e-03
  6.868060e-01    4.556322e-02
  7.185571e-01    3.886211e-02
  7.503083e-01    1.473379e-02
  7.820594e-01    9.352314e-02
  8.138106e-01    2.109993e-01
  8.455617e-01    3.190714e-01
  8.773129e-01    4.979407e-01
  9.090640e-01    5.929188e-01
  9.408152e-01    7.651379e-01
  9.725663e-01    8.538471e-01
  1.004317e+00    1.044252e+00
  1.036069e+00    1.165699e+00
  1.067820e+00    1.257366e+00
  1.099571e+00    1.452849e+00
  1.131322e+00    1.420317e+00
  1.163073e+00    1.508226e+00
  1.194824e+00    1.645588e+00
  1.226575e+00    1.934801e+00
  1.258327e+00    2.344886e+00
  1.290078e+00    2.478933e+00
  1.321829e+00    2.543852e+00
  1.353580e+00    2.436090e+00
  1.385331e+00    2.568814e+00
  1.417082e+00    2.579279e+00
  1.448834e+00    2.748749e+00
  1.480585e+00    2.898948e+00
  1.512336e+00    2.931762e+00
  1.544087e+00    3.105582e+00
  1.575838e+00    2.940077e+00
  1.607589e+00    3.000701e+00
  1.639340e+00    2.878691e+00
  1.671092e+00    2.684472e+00
  1.702843e+00    2.770608e+00
  1.734594e+00    2.621884e+00
  1.766345e+00    2.892504e+00
  1.798096e+00    2.858917e+00
  1.829847e+00    2.787527e+00
  1.861598e+00    2.851405e+00
  1.893350e+00    2.703217e+00
  1.925101e+00    2.753703e+00
  1.956852e+00    2.713268e+00
  1.988603e+00    2.820857e+00
  2.020354e+00    2.733639e+00
  2.052105e+00    2.729423e+00
  2.083856e+00    2.656884e+00
  2.115608e+00    2.779154e+00
  2.147359e+00    2.778031e+00
  2.179110e+00    2.828116e+00
  2.210861e+00    2.809762e+00
  2.242612e+00    2.727496e+00
  2.274363e+00    2.781459e+00
  2.306115e+00    2.763404e+00
  2.337866e+00    2.823793e+00
  2.369617e+00    2.735499e+00
  2.401368e+00    2.763522e+00
  2.433119e+00    2.641810e+00
  2.464870e+00    2.747021e+00
  2.496621e+00    2.774800e+00
  2.528373e+00    2.870206e+00
  2.560124e+00    2.784647e+00
  2.591875e+00    2.754020e+00
  2.623626e+00    2.842434e+00
  2.655377e+00    2.804863e+00
  2.687128e+00    2.899039e+00
  2.718879e+00    2.822093e+00
  2.750631e+00    2.765234e+00
  2.782382e+00    2.816017e+00
  2.814133e+00    2.815906e+00
  2.845884e+00    2.867486e+00
  2.877635e+00    2.834296e+00
  2.909386e+00    2.892637e+00
  2.941137e+00    2.872413e+00
  2.972889e+00    2.906111e+00
  3.004640e+00    2.834924e+00
  3.036391e+00    2.859796e+00
  3.068142e+00    2.850092e+00
  3.099893e+00    2.873344e+00
  3.131644e+00    2.952254e+00
  3.163395e+00    2.826435e+00
  3.195147e+00    2.920400e+00
  3.226898e+00    2.851976e+00
  3.258649e+00    2.955660e+00
  3.290400e+00    2.906803e+00
  3.322151e+00    2.912133e+00
  3.353902e+00    2.906795e+00
  3.385654e+00    2.943353e+00
  3.417405e+00    2.953624e+00
  3.449156e+00    2.918978e+00
  3.480907e+00    2.957296e+00
  3.512658e+00    2.976514e+00
  3.544409e+00    2.957028e+00
  3.576160e+00    3.061016e+00
  3.607912e+00    2.957974e+00
  3.639663e+00    3.013116e+00
  3.671414e+00    2.995965e+00
  3.703165e+00    2.958943e+00
  3.734916e+00    2.989080e+00
  3.766667e+00    3.071276e+00
  3.798418e+00    3.005944e+00
  3.830170e+00    3.031625e+00
  3.861921e+00    3.045034e+00
  3.893672e+00    3.089218e+00
  3.925423e+00    3.021884e+00
  3.957174e+00    2.993183e+00
  3.988925e+00    3.073023e+00
  4.020676e+00    3.101638e+00
  4.052428e+00    2.933949e+00
  4.084179e+00    2.995286e+00
  4.115930e+00    3.058962e+00
  4.147681e+00    3.063216e+00
  4.179432e+00    3.093451e+00
  4.211183e+00    3.023896e+00
  4.242935e+00    3.081735e+00
  4.274686e+00    3.090083e+00
  4.306437e+00    3.060132e+00
  4.338188e+00    3.069253e+00
  4.369939e+00    2.996113e+00
  4.401690e+00    3.134860e+00
  4.433441e+00    3.089550e+00
  4.465193e+00    3.044984e+00
  4.496944e+00    3.095907e+00
  4.528695e+00    3.140744e+00
  4.560446e+00    3.041509e+00
  4.592197e+00    3.070960e+00
  4.623948e+00    3.101844e+00
  4.655699e+00    3.176961e+00
  4.687451e+00    3.082428e+00
  4.719202e+00    3.188526e+00
  4.750953e+00    3.079719e+00
  4.782704e+00    3.077862e+00
  4.814455e+00    3.095456e+00
  4.846206e+00    3.192863e+00
  4.877957e+00    3.104128e+00
  4.909709e+00    3.154155e+00
  4.941460e+00    3.161040e+00
  4.973211e+00    3.151690e+00
  5.004962e+00    3.155021e+00
  5.036713e+00    3.157072e+00
  5.068464e+00    3.091658e+00
  5.100216e+00    3.106047e+00
  5.131967e+00    3.159342e+00
  5.163718e+00    3.208911e+00
  5.195469e+00    3.121304e+00
  5.227220e+00    3.121444e+00
  5.258971e+00    3.151664e+00
  5.290722e+00    3.214112e+00
  5.322474e+00    3.089129e+00
  5.354225e+00    3.174670e+00
  5.385976e+00    3.150737e+00
  5.417727e+00    3.169635e+00
  5.449478e+00    3.086666e+00
  5.481229e+00    3.082171e+00
  5.512980e+00    3.092377e+00
  5.544732e+00    3.103222e+00
  5.576483e+00    3.057306e+00
  5.608234e+00    3.123449e+00
  5.639985e+00    3.185253e+00
  5.671736e+00    3.137294e+00
  5.703487e+00    3.067206e+00
  5.735238e+00    3.015988e+00
  5.766990e+00    3.086965e+00
  5.798741e+00    3.095414e+00
  5.830492e+00    3.107769e+00
  5.862243e+00    3.171475e+00
  5.893994e+00    3.058775e+00
  5.925745e+00    3.053148e+00
  5.957497e+00    3.027853e+00
  5.989248e+00    3.024772e+00
  6.020999e+00    3.007810e+00
  6.052750e+00    3.034004e+00
  6.084501e+00    3.102251e+00
  6.116252e+00    3.170363e+00
  6.148003e+00    3.028085e+00
  6.179755e+00    3.030504e+00
  6.211506e+00    3.098910e+00
  6.243257e+00    3.069857e+00
  6.275008e+00    3.063968e+00
  6.306759e+00    3.140931e+00
  6.338510e+00    3.115695e+00
  6.370261e+00    3.005869e+00
  6.402013e+00    3.049828e+00
  6.433764e+00    3.038970e+00
  6.465515e+00    3.023587e+00
  6.497266e+00    3.056967e+00
  6.529017e+00    3.060451e+00
  6.560768e+00    3.045933e+00
  6.592519e+00    3.077593e+00
  6.624271e+00    3.063506e+00
  6.656022e+00    3.125331e+00
  6.687773e+00    3.102760e+00
  6.719524e+00    3.106632e+00
  6.751275e+00    3.082187e+00
  6.783026e+00    3.086256e+00
  6.814777e+00    2.990935e+00
  6.846529e+00    3.024284e+00
  6.878280e+00    3.058203e+00
  6.910031e+00    3.067496e+00
  6.941782e+00    3.130793e+00
  6.973533e+00    3.089890e+00
  7.005284e+00    2.999681e+00
  7.037036e+00    3.058045e+00
  7.068787e+00    3.038574e+00
  7.100538e+00    3.001595e+00
  7.132289e+00    3.025758e+00
  7.164040e+00    3.011378e+00
  7.195791e+00    3.084222e+00
  7.227542e+00    2.974368e+00
  7.259294e+00    3.030748e+00
  7.291045e+00    3.050536e+00
  7.322796e+00    3.034986e+00
  7.354547e+00    3.012868e+00
  7.386298e+00    2.994696e+00
  7.418049e+00    2.992570e+00
  7.449800e+00    2.997834e+00
  7.481552e+00    3.022676e+00
  7.513303e+00    2.937646e+00
  7.545054e+00    3.001892e+00
  7.576805e+00    2.997322e+00
  7.608556e+00    2.982292e+00
  7.640307e+00    3.007244e+00
  7.672058e+00    3.022183e+00
  7.703810e+00    2.949911e+00
  7.735561e+00    2.983628e+00
  7.767312e+00    2.943734e+00
  7.799063e+00    2.974470e+00
  7.830814e+00    2.952385e+00
  7.862565e+00    2.961967e+00
  7.894317e+00    2.951476e+00
  7.926068e+00    2.930963e+00
  7.957819e+00    2.895277e+00
  7.989570e+00    2.924531e+00
  8.021321e+00    2.936869e+00
  8.053072e+00    2.954734e+00
  8.084823e+00    2.931821e+00
  8.116575e+00    3.012125e+00
  8.148326e+00    3.006425e+00
  8.180077e+00    2.940416e+00
  8.211828e+00    2.974620e+00
  8.243579e+00    2.936434e+00
  8.275330e+00    2.990634e+00
  8.307081e+00    2.946555e+00
  8.338833e+00    2.915951e+00
  8.370584e+00    2.952137e+00
  8.402335e+00    2.946762e+00
  8.434086e+00    2.904744e+00
  8.465837e+00    2.880439e+00
  8.497588e+00    2.917084e+00
  8.529339e+00    2.922012e+00
  8.561091e+00    2.885913e+00
  8.592842e+00    2.871125e+00
  8.624593e+00    2.845793e+00
  8.656344e+00    2.875453e+00
  8.688095e+00    2.941393e+00
  8.719846e+00    2.858373e+00
  8.751598e+00    2.825520e+00
  8.783349e+00    2.812188e+00
  8.815100e+00    2.926854e+00
  8.846851e+00    2.855566e+00
  8.878602e+00    2.807027e+00
  8.910353e+00    2.844548e+00
  8.942104e+00    2.849024e+00
  8.973856e+00    2.840086e+00
  9.005607e+00    2.852515e+00
  9.037358e+00    2.824099e+00
  9.069109e+00    2.851736e+00
  9.100860e+00    2.805752e+00
  9.132611e+00    2.788428e+00
  9.164362e+00    2.832585e+00
  9.196114e+00    2.732701e+00
  9.227865e+00    2.862212e+00
  9.259616e+00    2.821911e+00
  9.291367e+00    2.774444e+00
  9.323118e+00    2.792596e+00
  9.354869e+00    2.792108e+00
  9.386620e+00    2.785395e+00
  9.418372e+00    2.788665e+00
  9.450123e+00    2.768757e+00
  9.481874e+00    2.825557e+00
  9.513625e+00    2.760060e+00
  9.545376e+00    2.796008e+00
  9.577127e+00    2.705483e+00
  9.608878e+00    2.806125e+00
  9.640630e+00    2.711128e+00
  9.672381e+00    2.703998e+00
  9.704132e+00    2.659491e+00
  9.735883e+00    2.710674e+00
  9.767634e+00    2.729825e+00
  9.799385e+00    2.746650e+00
  9.831137e+00    2.760886e+00
  9.862888e+00    2.762575e+00
  9.894639e+00    2.686178e+00
  9.926390e+00    2.674994e+00
  9.958141e+00    2.691814e+00
  9.989892e+00    2.677442e+00
  1.002164e+01    2.696595e+00
  1.005339e+01    2.657623e+00
  1.008515e+01    2.664501e+00
  1.011690e+01    2.663674e+00
  1.014865e+01    2.652378e+00
  1.018040e+01    2.638183e+00
  1.021215e+01    2.663166e+00
  1.024390e+01    2.592130e+00
  1.027565e+01    2.623963e+00
  1.030740e+01    2.630009e+00
  1.033915e+01    2.644579e+00
  1.037091e+01    2.575355e+00
  1.040266e+01    2.667215e+00
  1.043441e+01    2.652419e+00
  1.046616e+01    2.628063e+00
  1.049791e+01    2.626091e+00
  1.052966e+01    2.574590e+00
  1.056141e+01    2.576343e+00
  1.059316e+01    2.616852e+00
  1.062492e+01    2.604454e+00
  1.065667e+01    2.550440e+00
  1.068842e+01    2.600546e+00
  1.072017e+01    2.604127e+00
  1.075192e+01    2.514981e+00
  1.078367e+01    2.596364e+00
  1.081542e+01    2.530366e+00
  1.084717e+01    2.522773e+00
  1.087892e+01    2.500870e+00
  1.091068e+01    2.551301e+00
  1.094243e+01    2.521713e+00
  1.097418e+01    2.558701e+00
  1.100593e+01    2.551260e+00
  1.103768e+01    2.533245e+00
  1.106943e+01    2.496314e+00
  1.110118e+01    2.524368e+00
  1.113293e+01    2.492488e+00
  1.116468e+01    2.466435e+00
  1.119644e+01    2.490611e+00
  1.122819e+01    2.440332e+00
  1.125994e+01    2.440124e+00
  1.129169e+01    2.468669e+00
  1.132344e+01    2.416029e+00
  1.135519e+01    2.445764e+00
  1.138694e+01    2.415694e+00
  1.141869e+01    2.482880e+00
  1.145045e+01    2.455029e+00
  1.148220e+01    2.454784e+00
  1.151395e+01    2.399959e+00
  1.154570e+01    2.416590e+00
  1.157745e+01    2.433748e+00
  1.160920e+01    2.388402e+00
  1.164095e+01    2.423584e+00
  1.167270e+01    2.364298e+00
  1.170445e+01    2.368669e+00
  1.173621e+01    2.358027e+00
  1.176796e+01    2.355814e+00
  1.179971e+01    2.416728e+00
  1.183146e+01    2.365854e+00
  1.186321e+01    2.402059e+00
  1.189496e+01    2.337755e+00
  1.192671e+01    2.320298e+00
  1.195846e+01    2.385331e+00
  1.199021e+01    2.354453e+00
  1.202197e+01    2.348113e+00
  1.205372e+01    2.346399e+00
  1.208547e+01    2.369815e+00
  1.211722e+01    2.336506e+00
  1.214897e+01    2.368769e+00
  1.218072e+01    2.319121e+00
  1.221247e+01    2.307475e+00
  1.224422e+01    2.303371e+00
  1.227597e+01    2.352206e+00
  1.230773e+01    2.332684e+00
  1.233948e+01    2.301701e+00
  1.237123e+01    2.321616e+00
  1.240298e+01    2.350961e+00
  1.243473e+01    2.379584e+00
  1.246648e+01    2.330668e+00
  1.249823e+01    2.378319e+00
  1.252998e+01    2.397143e+00
  1.256174e+01    2.391950e+00
  1.259349e+01    2.396619e+00
  1.262524e+01    2.410245e+00
  1.265699e+01    2.408880e+00
  1.268874e+01    2.408194e+00
  1.272049e+01    2.544764e+00
  1.275224e+01    2.549156e+00
  1.278399e+01    2.591707e+00
  1.281574e+01    2.722241e+00
  1.284750e+01    2.859980e+00
  1.287925e+01    3.051574e+00
  1.291100e+01    3.351141e+00
  1.294275e+01    3.718598e+00
  1.297450e+01    4.491374e+00
  1.300625e+01    5.550144e+00
  1.303800e+01    7.232704e+00
  1.306975e+01    9.725133e+00
  1.310150e+01    1.231098e+01
  1.313326e+01    1.461639e+01
  1.316501e+01    1.653021e+01
  1.319676e+01    1.637631e+01
  1.322851e+01    1.329291e+01
  1.326026e+01    9.429776e+00
  1.329201e+01    6.832147e+00
  1.332376e+01    5.181238e+00
  1.335551e+01    4.249915e+00
  1.338727e+01    3.608891e+00
  1.341902e+01    3.189689e+00
  1.345077e+01    2.940497e+00
  1.348252e+01    2.758609e+00
  1.351427e+01    2.627891e+00
  1.354602e+01    2.455877e+00
  1.357777e+01    2.436586e+00
  1.360952e+01    2.354529e+00
  1.364127e+01    2.261954e+00
  1.367303e+01    2.254870e+00
  1.370478e+01    2.182806e+00
  1.373653e+01    2.195298e+00
  1.376828e+01    2.189470e+00
  1.380003e+01    2.166195e+00
  1.383178e+01    2.153109e+00
  1.386353e+01    2.068013e+00
  1.389528e+01    2.118189e+00
  1.392703e+01    2.113941e+00
  1.395879e+01    2.074562e+00
  1.399054e+01    2.071565e+00
  1.402229e+01    2.070565e+00
  1.405404e+01    2.028022e+00
  1.408579e+01    2.005813e+00
  1.411754e+01    2.038997e+00
  1.414929e+01    2.010204e+00
  1.418104e+01    2.001102e+00
  1.421279e+01    1.973671e+00
  1.424455e+01    2.002331e+00
  1.427630e+01    2.000516e+00
  1.430805e+01    1.975033e+00
  1.433980e+01    1.963380e+00
  1.437155e+01    1.970932e+00
  1.440330e+01    1.934541e+00
  1.443505e+01    1.936921e+00
  1.446680e+01    1.930000e+00
  1.449856e+01    1.942668e+00
  1.453031e+01    1.918461e+00
  1.456206e+01    1.918096e+00
  1.459381e+01    1.912668e+00
  1.462556e+01    1.925947e+00
  1.465731e+01    1.913601e+00
  1.468906e+01    1.938817e+00
  1.472081e+01    1.909460e+00
  1.475256e+01    1.912181e+00
  1.478432e+01    1.887010e+00
  1.481607e+01    1.962343e+00
  1.484782e+01    1.936315e+00
  1.487957e+01    1.920469e+00
  1.491132e+01    1.925897e+00
  1.494307e+01    2.045059e+00
  1.497482e+01    2.026593e+00
  1.500657e+01    2.199039e+00
  1.503832e+01    2.300403e+00
  1.507008e+01    2.606633e+00
  1.510183e+01    2.924881e+00
  1.513358e+01    3.471720e+00
  1.516533e+01    4.197182e+00
  1.519708e+01    4.968353e+00
  1.522883e+01    5.398888e+00
  1.526058e+01    5.732901e+00
  1.529233e+01    5.493723e+00
  1.532409e+01    4.702338e+00
  1.535584e+01    3.729654e+00
  1.538759e+01    2.996263e+00
  1.541934e+01    2.589354e+00
  1.545109e+01    2.326722e+00
  1.548284e+01    2.123835e+00
  1.551459e+01    1.988459e+00
  1.554634e+01    1.915018e+00
  1.557809e+01    1.857850e+00
  1.560985e+01    1.818628e+00
  1.564160e+01    1.801380e+00
  1.567335e+01    1.762156e+00
  1.570510e+01    1.718837e+00
  1.573685e+01    1.727153e+00
  1.576860e+01    1.710338e+00
  1.580035e+01    1.674618e+00
  1.583210e+01    1.666953e+00
  1.586385e+01    1.652222e+00
  1.589561e+01    1.658891e+00
  1.592736e+01    1.640197e+00
  1.595911e+01    1.626980e+00
  1.599086e+01    1.594069e+00
  1.602261e+01    1.630377e+00
  1.605436e+01    1.622224e+00
  1.608611e+01    1.625816e+00
  1.611786e+01    1.611148e+00
  1.614961e+01    1.593611e+00
  1.618137e+01    1.567262e+00
  1.621312e+01    1.565616e+00
  1.624487e+01    1.615569e+00
  1.627662e+01    1.549159e+00
  1.630837e+01    1.554823e+00
  1.634012e+01    1.540587e+00
  1.637187e+01    1.543408e+00
  1.640362e+01    1.522149e+00
  1.643538e+01    1.555531e+00
  1.646713e+01    1.525582e+00
  1.649888e+01    1.524662e+00
  1.653063e+01    1.498831e+00
  1.656238e+01    1.516708e+00
  1.659413e+01    1.508564e+00
  1.662588e+01    1.500873e+00
  1.665763e+01    1.458065e+00
  1.668938e+01    1.492727e+00
  1.672114e+01    1.468822e+00
  1.675289e+01    1.467868e+00
  1.678464e+01    1.494656e+00
  1.681639e+01    1.472023e+00
  1.684814e+01    1.464256e+00
  1.687989e+01    1.497193e+00
  1.691164e+01    1.458524e+00
  1.694339e+01    1.436146e+00
  1.697514e+01    1.467395e+00
  1.700690e+01    1.448037e+00
  1.703865e+01    1.463007e+00
  1.707040e+01    1.419798e+00
  1.710215e+01    1.426747e+00
  1.713390e+01    1.424239e+00
  1.716565e+01    1.428449e+00
  1.719740e+01    1.394322e+00
  1.722915e+01    1.412124e+00
  1.726091e+01    1.406146e+00
  1.729266e+01    1.390330e+00
  1.732441e+01    1.394738e+00
  1.735616e+01    1.403074e+00
  1.738791e+01    1.380521e+00
  1.741966e+01    1.362417e+00
  1.745141e+01    1.386813e+00
  1.748316e+01    1.398785e+00
  1.751491e+01    1.358851e+00
  1.754667e+01    1.365345e+00
  1.757842e+01    1.372719e+00
  1.761017e+01    1.327176e+00
  1.764192e+01    1.369421e+00
  1.767367e+01    1.336231e+00
  1.770542e+01    1.333952e+00
  1.773717e+01    1.332348e+00
  1.776892e+01    1.330732e+00
  1.780067e+01    1.330372e+00
  1.783243e+01    1.318811e+00
  1.786418e+01    1.352505e+00
  1.789593e+01    1.305650e+00
  1.792768e+01    1.334758e+00
  1.795943e+01    1.322104e+00
  1.799118e+01    1.332999e+00
  1.802293e+01    1.292222e+00
  1.805468e+01    1.312201e+00
  1.808643e+01    1.306849e+00
  1.811819e+01    1.309157e+00
  1.814994e+01    1.286979e+00
  1.818169e+01    1.257962e+00
  1.821344e+01    1.306461e+00
  1.824519e+01    1.294008e+00
  1.827694e+01    1.277154e+00
  1.830869e+01    1.307058e+00
  1.834044e+01    1.241979e+00
  1.837220e+01    1.293200e+00
  1.840395e+01    1.262588e+00
  1.843570e+01    1.292094e+00
  1.846745e+01    1.252656e+00
  1.849920e+01    1.265540e+00
  1.853095e+01    1.230034e+00
  1.856270e+01    1.251118e+00
  1.859445e+01    1.263649e+00
  1.862620e+01    1.232106e+00
  1.865796e+01    1.261862e+00
  1.868971e+01    1.220168e+00
  1.872146e+01    1.210941e+00
  1.875321e+01    1.220138e+00
  1.878496e+01    1.216442e+00
  1.881671e+01    1.232383e+00
  1.884846e+01    1.224117e+00
  1.888021e+01    1.221370e+00
  1.891196e+01    1.230585e+00
  1.894372e+01    1.248049e+00
  1.897547e+01    1.212923e+00
  1.900722e+01    1.206273e+00
  1.903897e+01    1.217590e+00
  1.907072e+01    1.210429e+00
  1.910247e+01    1.192454e+00
  1.913422e+01    1.189850e+00
  1.916597e+01    1.197355e+00
  1.919773e+01    1.184444e+00
  1.922948e+01    1.169696e+00
  1.926123e+01    1.171843e+00
  1.929298e+01    1.176860e+00
  1.932473e+01    1.177910e+00
  1.935648e+01    1.174258e+00
  1.938823e+01    1.190588e+00
  1.941998e+01    1.182123e+00
  1.945173e+01    1.153644e+00
  1.948349e+01    1.177777e+00
  1.951524e+01    1.134502e+00
  1.954699e+01    1.165659e+00
  1.957874e+01    1.141249e+00
  1.961049e+01    1.165071e+00
  1.964224e+01    1.150291e+00
  1.967399e+01    1.149206e+00
  1.970574e+01    1.143203e+00
  1.973749e+01    1.134201e+00
  1.976925e+01    1.147377e+00
  1.980100e+01    1.153361e+00
  1.983275e+01    1.124759e+00
  1.986450e+01    1.119642e+00
  1.989625e+01    1.134006e+00
  1.992800e+01    1.139599e+00
  1.995975e+01    1.114721e+00
  1.999150e+01    1.117287e+00
  2.002325e+01    1.102389e+00
  2.005501e+01    1.110747e+00
  2.008676e+01    1.104809e+00
  2.011851e+01    1.101035e+00
  2.015026e+01    1.088632e+00
  2.018201e+01    1.092706e+00
  2.021376e+01    1.122378e+00
  2.024551e+01    1.100010e+00
  2.027726e+01    1.103570e+00
  2.030902e+01    1.102564e+00
  2.034077e+01    1.113027e+00
  2.037252e+01    1.103598e+00
  2.040427e+01    1.112656e+00
  2.043602e+01    1.082153e+00
  2.046777e+01    1.106791e+00
  2.049952e+01    1.087983e+00
  2.053127e+01    1.092974e+00
  2.056302e+01    1.113380e+00
  2.059478e+01    1.074639e+00
  2.062653e+01    1.090032e+00
  2.065828e+01    1.096827e+00
  2.069003e+01    1.084494e+00
  2.072178e+01    1.075568e+00
  2.075353e+01    1.087792e+00
  2.078528e+01    1.086104e+00
  2.081703e+01    1.091053e+00
  2.084878e+01    1.052363e+00
  2.088054e+01    1.087896e+00
  2.091229e+01    1.073889e+00
  2.094404e+01    1.076192e+00
  2.097579e+01    1.111970e+00
  2.100754e+01    1.100073e+00
  2.103929e+01    1.074550e+00
  2.107104e+01    1.064536e+00
  2.110279e+01    1.106128e+00
  2.113455e+01    1.078401e+00
  2.116630e+01    1.101072e+00
  2.119805e+01    1.105107e+00
  2.122980e+01    1.106459e+00
  2.126155e+01    1.101326e+00
  2.129330e+01    1.131934e+00
  2.132505e+01    1.133440e+00
  2.135680e+01    1.152381e+00
  2.138855e+01    1.180098e+00
  2.142031e+01    1.196001e+00
  2.145206e+01    1.213037e+00
  2.148381e+01    1.281823e+00
  2.151556e+01    1.341409e+00
  2.154731e+01    1.384523e+00
  2.157906e+01    1.518547e+00
  2.161081e+01    1.643490e+00
  2.164256e+01    1.873289e+00
  2.167431e+01    2.158610e+00
  2.170607e+01    2.609767e+00
  2.173782e+01    3.338782e+00
  2.176957e+01    4.402184e+00
  2.180132e+01    5.670577e+00
  2.183307e+01    7.038061e+00
  2.186482e+01    8.415603e+00
  2.189657e+01    9.199010e+00
  2.192832e+01    8.686101e+00
  2.196007e+01    6.936887e+00
  2.199183e+01    4.996664e+00
  2.202358e+01    3.653517e+00
  2.205533e+01    2.795047e+00
  2.208708e+01    2.267547e+00
  2.211883e+01    1.909333e+00
  2.215058e+01    1.671691e+00
  2.218233e+01    1.488393e+00
  2.221408e+01    1.361652e+00
  2.224584e+01    1.325946e+00
  2.227759e+01    1.238940e+00
  2.230934e+01    1.184840e+00
  2.234109e+01    1.161648e+00
  2.237284e+01    1.107310e+00
  2.240459e+01    1.099231e+00
  2.243634e+01    1.065900e+00
  2.246809e+01    1.022710e+00
  2.249984e+01    1.016548e+00
  2.253160e+01    9.875147e-01
  2.256335e+01    1.016864e+00
  2.259510e+01    9.829806e-01
  2.262685e+01    9.868028e-01
  2.265860e+01    9.852104e-01
  2.269035e+01    9.441897e-01
  2.272210e+01    9.728389e-01
  2.275385e+01    9.526199e-01
  2.278560e+01    9.235350e-01
  2.281736e+01    9.484934e-01
  2.284911e+01    9.154596e-01
  2.288086e+01    9.204941e-01
  2.291261e+01    9.305735e-01
  2.294436e+01    9.231968e-01
  2.297611e+01    9.073831e-01
  2.300786e+01    9.321717e-01
  2.303961e+01    8.957735e-01
  2.307137e+01    9.031918e-01
  2.310312e+01    8.736535e-01
  2.313487e+01    9.038222e-01
  2.316662e+01    8.820174e-01
  2.319837e+01    8.660789e-01
  2.323012e+01    8.821741e-01
  2.326187e+01    8.736261e-01
  2.329362e+01    8.845362e-01
  2.332537e+01    8.592139e-01
  2.335713e+01    8.780429e-01
  2.338888e+01    8.509246e-01
  2.342063e+01    8.495356e-01
  2.345238e+01    8.595810e-01
  2.348413e+01    8.624134e-01
  2.351588e+01    8.386938e-01
  2.354763e+01    8.518527e-01
  2.357938e+01    8.399105e-01
  2.361113e+01    8.224811e-01
  2.364289e+01    8.213452e-01
  2.367464e+01    8.267279e-01
  2.370639e+01    8.400518e-01
  2.373814e+01    8.358569e-01
  2.376989e+01    8.311021e-01
  2.380164e+01    8.015584e-01
  2.383339e+01    8.081192e-01
  2.386514e+01    8.168346e-01
  2.389689e+01    8.194850e-01
  2.392865e+01    8.060673e-01
  2.396040e+01    8.047025e-01
  2.399215e+01    7.795317e-01
  2.402390e+01    7.833120e-01
  2.405565e+01    7.827845e-01
  2.408740e+01    7.949964e-01
  2.411915e+01    7.874768e-01
  2.415090e+01    7.910910e-01
  2.418266e+01    7.892977e-01
  2.421441e+01    7.818164e-01
  2.424616e+01    7.761846e-01
  2.427791e+01    7.759714e-01
  2.430966e+01    8.040089e-01
  2.434141e+01    7.897708e-01
  2.437316e+01    7.828634e-01
  2.440491e+01    7.975547e-01
  2.443666e+01    7.983036e-01
  2.446842e+01    7.799428e-01
  2.450017e+01    7.689134e-01
  2.453192e+01    8.026552e-01
  2.456367e+01    8.069840e-01
  2.459542e+01    7.747699e-01
  2.462717e+01    7.898170e-01
  2.465892e+01    7.977853e-01
  2.469067e+01    7.852288e-01
  2.472242e+01    7.968643e-01
  2.475418e+01    7.874265e-01
  2.478593e+01    8.021221e-01
  2.481768e+01    8.213377e-01
  2.484943e+01    8.049744e-01
  2.488118e+01    7.915108e-01
  2.491293e+01    8.020909e-01
  2.494468e+01    8.093969e-01
  2.497643e+01    8.076345e-01
  2.500819e+01    7.993028e-01
  2.503994e+01    8.095877e-01
  2.507169e+01    8.231803e-01
  2.510344e+01    8.232394e-01
  2.513519e+01    8.286994e-01
  2.516694e+01    8.079485e-01
  2.519869e+01    8.476028e-01
  2.523044e+01    8.429068e-01
  2.526219e+01    8.405485e-01
  2.529395e+01    8.740455e-01
  2.532570e+01    8.730141e-01
  2.535745e+01    8.872150e-01
  2.538920e+01    8.991512e-01
  2.542095e+01    9.211038e-01
  2.545270e+01    9.264572e-01
  2.548445e+01    9.627156e-01
  2.551620e+01    9.918932e-01
  2.554795e+01    1.034908e+00
  2.557971e+01    1.078715e+00
  2.561146e+01    1.156882e+00
  2.564321e+01    1.228883e+00
  2.567496e+01    1.335527e+00
  2.570671e+01    1.528484e+00
  2.573846e+01    1.756612e+00
  2.577021e+01    2.175218e+00
  2.580196e+01    2.714100e+00
  2.583371e+01    3.481142e+00
  2.586547e+01    4.585959e+00
  2.589722e+01    5.797002e+00
  2.592897e+01    6.871366e+00
  2.596072e+01    7.520540e+00
  2.599247e+01    7.106347e+00
  2.602422e+01    5.732641e+00
  2.605597e+01    4.214583e+00
  2.608772e+01    3.099715e+00
  2.611948e+01    2.407301e+00
  2.615123e+01    1.929173e+00
  2.618298e+01    1.664558e+00
  2.621473e+01    1.427557e+00
  2.624648e+01    1.275179e+00
  2.627823e+01    1.191012e+00
  2.630998e+01    1.127731e+00
  2.634173e+01    1.046549e+00
  2.637348e+01    1.007690e+00
  2.640524e+01    9.931012e-01
  2.643699e+01    9.656181e-01
  2.646874e+01    9.482704e-01
  2.650049e+01    9.461960e-01
  2.653224e+01    9.291566e-01
  2.656399e+01    9.130461e-01
  2.659574e+01    9.126177e-01
  2.662749e+01    8.993120e-01
  2.665924e+01    8.894662e-01
  2.669100e+01    9.036769e-01
  2.672275e+01    8.856048e-01
  2.675450e+01    8.875176e-01
  2.678625e+01    8.672450e-01
  2.681800e+01    9.095666e-01
  2.684975e+01    9.038754e-01
  2.688150e+01    9.140295e-01
  2.691325e+01    9.605056e-01
  2.694501e+01    9.390123e-01
  2.697676e+01    9.812131e-01
  2.700851e+01    1.019663e+00
  2.704026e+01    1.110327e+00
  2.707201e+01    1.235136e+00
  2.710376e+01    1.389246e+00
  2.713551e+01    1.659566e+00
  2.716726e+01    1.903543e+00
  2.719901e+01    2.178487e+00
  2.723077e+01    2.236724e+00
  2.726252e+01    2.084182e+00
  2.729427e+01    1.749313e+00
  2.732602e+01    1.472904e+00
  2.735777e+01    1.249396e+00
  2.738952e+01    1.115823e+00
  2.742127e+01    1.019871e+00
  2.745302e+01    9.852199e-01
  2.748477e+01    9.180503e-01
  2.751653e+01    9.090355e-01
  2.754828e+01    8.744726e-01
  2.758003e+01    8.534393e-01
  2.761178e+01    8.503861e-01
  2.764353e+01    8.411627e-01
  2.767528e+01    8.443537e-01
  2.770703e+01    8.401327e-01
  2.773878e+01    8.099656e-01
  2.777054e+01    8.164100e-01
  2.780229e+01    8.142658e-01
  2.783404e+01    8.021418e-01
  2.786579e+01    8.015789e-01
  2.789754e+01    8.130443e-01
  2.792929e+01    7.939748e-01
  2.796104e+01    7.889054e-01
  2.799279e+01    7.893209e-01
  2.802454e+01    8.087915e-01
  2.805630e+01    7.987102e-01
  2.808805e+01    7.651050e-01
  2.811980e+01    7.811305e-01
  2.815155e+01    7.539772e-01
  2.818330e+01    7.737031e-01
  2.821505e+01    8.011474e-01
  2.824680e+01    8.001560e-01
  2.827855e+01    7.390370e-01
  2.831030e+01    7.624514e-01
  2.834206e+01    7.738684e-01
  2.837381e+01    7.764522e-01
  2.840556e+01    7.829743e-01
  2.843731e+01    7.398074e-01
  2.846906e+01    7.638322e-01
  2.850081e+01    7.641577e-01
  2.853256e+01    7.578880e-01
  2.856431e+01    7.676095e-01
  2.859606e+01    7.567670e-01
  2.862782e+01    7.535830e-01
  2.865957e+01    7.330681e-01
  2.869132e+01    7.627372e-01
  2.872307e+01    7.547951e-01
  2.875482e+01    7.325216e-01
  2.878657e+01    7.594742e-01
  2.881832e+01    7.524067e-01
  2.885007e+01    7.414670e-01
  2.888183e+01    7.635666e-01
  2.891358e+01    7.500883e-01
  2.894533e+01    7.337077e-01
  2.897708e+01    7.404708e-01
  2.900883e+01    7.372319e-01
  2.904058e+01    7.523443e-01
  2.907233e+01    7.294368e-01
  2.910408e+01    7.494671e-01
  2.913583e+01    7.381477e-01
  2.916759e+01    7.302307e-01
  2.919934e+01    7.566254e-01
  2.923109e+01    7.317097e-01
  2.926284e+01    7.521701e-01
  2.929459e+01    7.243593e-01
  2.932634e+01    7.352761e-01
  2.935809e+01    7.265854e-01
  2.938984e+01    7.175457e-01
  2.942159e+01    7.215743e-01
  2.945335e+01    7.368917e-01
  2.948510e+01    7.319676e-01
  2.951685e+01    7.474151e-01
  2.954860e+01    7.336537e-01
  2.958035e+01    7.353922e-01
  2.961210e+01    7.281750e-01
  2.964385e+01    7.002432e-01
  2.967560e+01    7.269385e-01
  2.970736e+01    7.251743e-01
  2.973911e+01    7.295279e-01
  2.977086e+01    7.208599e-01
  2.980261e+01    7.233720e-01
  2.983436e+01    7.038862e-01
  2.986611e+01    7.260134e-01
  2.989786e+01    7.088543e-01
  2.992961e+01    7.253047e-01
  2.996136e+01    7.327621e-01
  2.999312e+01    7.154889e-01
  3.002487e+01    7.350846e-01
  3.005662e+01    7.467999e-01
  3.008837e+01    7.259935e-01
  3.012012e+01    7.313375e-01
  3.015187e+01    7.294702e-01
  3.018362e+01    7.116082e-01
  3.021537e+01    7.148908e-01
  3.024712e+01    7.107292e-01
  3.027888e+01    7.134274e-01
  3.031063e+01    7.099356e-01
  3.034238e+01    7.325444e-01
  3.037413e+01    7.255703e-01
  3.040588e+01    7.165722e-01
  3.043763e+01    7.190226e-01
  3.046938e+01    7.180697e-01
  3.050113e+01    7.210018e-01
  3.053288e+01    7.040123e-01
  3.056464e+01    7.236213e-01
  3.059639e+01    6.999782e-01
  3.062814e+01    7.155778e-01
  3.065989e+01    7.104817e-01
  3.069164e+01    7.089114e-01
  3.072339e+01    6.912518e-01
  3.075514e+01    6.993963e-01
  3.078689e+01    7.272512e-01
  3.081865e+01    7.187076e-01
  3.085040e+01    7.251750e-01
  3.088215e+01    7.167116e-01
  3.091390e+01    7.223117e-01
  3.094565e+01    7.371731e-01
  3.097740e+01    7.187287e-01
  3.100915e+01    7.207724e-01
  3.104090e+01    7.333202e-01
  3.107265e+01    7.286370e-01
  3.110441e+01    7.199359e-01
  3.113616e+01    7.232989e-01
  3.116791e+01    7.281615e-01
  3.119966e+01    7.273383e-01
  3.123141e+01    7.317482e-01
  3.126316e+01    7.300173e-01
  3.129491e+01    7.502104e-01
  3.132666e+01    7.396103e-01
  3.135841e+01    7.429135e-01
  3.139017e+01    7.402011e-01
  3.142192e+01    7.421077e-01
  3.145367e+01    7.542565e-01
  3.148542e+01    7.692848e-01
  3.151717e+01    7.761022e-01
  3.154892e+01    7.825727e-01
  3.158067e+01    7.813214e-01
  3.161242e+01    8.337173e-01
  3.164418e+01    8.602537e-01
  3.167593e+01    9.129635e-01
  3.170768e+01    9.663591e-01
  3.173943e+01    1.076915e+00
  3.177118e+01    1.201557e+00
  3.180293e+01    1.389024e+00
  3.183468e+01    1.709237e+00
  3.186643e+01    1.971255e+00
  3.189818e+01    2.198766e+00
  3.192994e+01    2.180923e+00
  3.196169e+01    1.949586e+00
  3.199344e+01    1.641749e+00
  3.202519e+01    1.340033e+00
  3.205694e+01    1.159731e+00
  3.208869e+01    9.899999e-01
  3.212044e+01    9.242787e-01
  3.215219e+01    8.622288e-01
  3.218394e+01    8.376142e-01
  3.221570e+01    8.076926e-01
  3.224745e+01    7.872375e-01
  3.227920e+01    7.663767e-01
  3.231095e+01    7.752803e-01
  3.234270e+01    7.520944e-01
  3.237445e+01    7.314332e-01
  3.240620e+01    7.209494e-01
  3.243795e+01    7.237986e-01
  3.246970e+01    7.295105e-01
  3.250146e+01    7.454007e-01
  3.253321e+01    7.353480e-01
  3.254908e+01    7.326844e-01