File: XRD/2024-07-27_002_Ru-CGO-ex_Activtation_ramp_000002_data_000075.dat
# == pyFAI calibration ==
# Distance Sample to Detector: 0.4 m
# PONI: 9.750e-02, 1.135e-01 m
# Rotations: -0.000175 0.000000 -0.000000 rad
#
# == Fit2d calibration ==
# Distance Sample-beamCenter: 400.000 mm
# Center: x=1514.000, y=1300.000 pix
# Tilt: 0.010 deg  TiltPlanRot: 0.010 deg
#
# Detector Detector	 Spline= None	 PixelSize= 7.500e-05, 7.500e-05 m
#    Detector has a mask: False
#    Detector has a dark current: False
#    detector has a flat field: False
#
# Wavelength: 6.888e-11 m
# Mask applied: user provided
# Dark current applied: False
# Flat field applied: False
# Polarization factor: 0.99
# Normalization factor: 1.0
# --> /home/myspot/data/2024_07_Rosario/Ru-CGO-ex/2024-07-27_002_Ru-CGO-ex_Activtation_ramp_000002_data_000075.dat
#       q_nm^-1             I
  2.003187e-02    0.000000e+00
  5.178302e-02    7.652842e-02
  8.353417e-02    1.230289e-01
  1.152853e-01    1.195532e-01
  1.470365e-01    3.849828e-02
  1.787876e-01    1.083039e-01
  2.105388e-01    3.813315e-02
  2.422899e-01    5.900582e-02
  2.740411e-01    2.847151e-02
  3.057922e-01    2.241258e-02
  3.375433e-01    2.119857e-02
  3.692945e-01    3.378113e-02
  4.010456e-01    3.049558e-02
  4.327968e-01    4.125510e-02
  4.645479e-01    2.961453e-02
  4.962991e-01    2.248387e-02
  5.280502e-01    4.228118e-02
  5.598014e-01    3.034179e-02
  5.915525e-01    5.814308e-02
  6.233037e-01    3.248789e-02
  6.550548e-01    4.263022e-02
  6.868060e-01    3.615097e-02
  7.185571e-01    1.820749e-02
  7.503083e-01    5.225518e-02
  7.820594e-01    1.001323e-01
  8.138106e-01    1.639015e-01
  8.455617e-01    2.986124e-01
  8.773129e-01    4.275921e-01
  9.090640e-01    5.404297e-01
  9.408152e-01    7.157855e-01
  9.725663e-01    8.519436e-01
  1.004317e+00    1.007637e+00
  1.036069e+00    1.141854e+00
  1.067820e+00    1.376004e+00
  1.099571e+00    1.266081e+00
  1.131322e+00    1.604183e+00
  1.163073e+00    1.619044e+00
  1.194824e+00    1.678029e+00
  1.226575e+00    2.022857e+00
  1.258327e+00    2.316471e+00
  1.290078e+00    2.409415e+00
  1.321829e+00    2.426050e+00
  1.353580e+00    2.516734e+00
  1.385331e+00    2.637440e+00
  1.417082e+00    2.515339e+00
  1.448834e+00    2.760317e+00
  1.480585e+00    2.990777e+00
  1.512336e+00    2.829839e+00
  1.544087e+00    3.088287e+00
  1.575838e+00    2.994689e+00
  1.607589e+00    2.956259e+00
  1.639340e+00    2.902970e+00
  1.671092e+00    2.885865e+00
  1.702843e+00    2.878006e+00
  1.734594e+00    2.658333e+00
  1.766345e+00    2.783453e+00
  1.798096e+00    2.905419e+00
  1.829847e+00    2.758950e+00
  1.861598e+00    2.800899e+00
  1.893350e+00    2.784596e+00
  1.925101e+00    2.784601e+00
  1.956852e+00    2.779940e+00
  1.988603e+00    2.729999e+00
  2.020354e+00    2.751835e+00
  2.052105e+00    2.727905e+00
  2.083856e+00    2.655627e+00
  2.115608e+00    2.724138e+00
  2.147359e+00    2.769252e+00
  2.179110e+00    2.770518e+00
  2.210861e+00    2.857669e+00
  2.242612e+00    2.883789e+00
  2.274363e+00    2.790620e+00
  2.306115e+00    2.694304e+00
  2.337866e+00    2.799105e+00
  2.369617e+00    2.803561e+00
  2.401368e+00    2.925529e+00
  2.433119e+00    2.748718e+00
  2.464870e+00    2.736912e+00
  2.496621e+00    2.698104e+00
  2.528373e+00    2.805073e+00
  2.560124e+00    2.710762e+00
  2.591875e+00    2.845217e+00
  2.623626e+00    2.871597e+00
  2.655377e+00    2.842897e+00
  2.687128e+00    2.778921e+00
  2.718879e+00    2.935099e+00
  2.750631e+00    2.763171e+00
  2.782382e+00    2.877154e+00
  2.814133e+00    2.886483e+00
  2.845884e+00    2.790668e+00
  2.877635e+00    2.855686e+00
  2.909386e+00    2.831685e+00
  2.941137e+00    2.880556e+00
  2.972889e+00    2.830756e+00
  3.004640e+00    2.925451e+00
  3.036391e+00    2.904527e+00
  3.068142e+00    2.868418e+00
  3.099893e+00    2.836864e+00
  3.131644e+00    2.855496e+00
  3.163395e+00    2.802229e+00
  3.195147e+00    2.858410e+00
  3.226898e+00    2.866583e+00
  3.258649e+00    2.880049e+00
  3.290400e+00    2.933385e+00
  3.322151e+00    2.960896e+00
  3.353902e+00    2.925730e+00
  3.385654e+00    3.043402e+00
  3.417405e+00    2.927587e+00
  3.449156e+00    2.928045e+00
  3.480907e+00    2.915096e+00
  3.512658e+00    2.946012e+00
  3.544409e+00    2.942867e+00
  3.576160e+00    3.044736e+00
  3.607912e+00    3.079874e+00
  3.639663e+00    2.968479e+00
  3.671414e+00    2.985656e+00
  3.703165e+00    2.859697e+00
  3.734916e+00    2.963003e+00
  3.766667e+00    2.938828e+00
  3.798418e+00    2.992954e+00
  3.830170e+00    2.988619e+00
  3.861921e+00    3.173483e+00
  3.893672e+00    2.944674e+00
  3.925423e+00    2.973693e+00
  3.957174e+00    3.035404e+00
  3.988925e+00    3.057837e+00
  4.020676e+00    3.090805e+00
  4.052428e+00    2.995096e+00
  4.084179e+00    3.028130e+00
  4.115930e+00    3.016982e+00
  4.147681e+00    3.129822e+00
  4.179432e+00    3.007522e+00
  4.211183e+00    3.149541e+00
  4.242935e+00    3.014180e+00
  4.274686e+00    3.040030e+00
  4.306437e+00    3.077197e+00
  4.338188e+00    3.090230e+00
  4.369939e+00    3.092392e+00
  4.401690e+00    3.005769e+00
  4.433441e+00    2.993361e+00
  4.465193e+00    2.966794e+00
  4.496944e+00    3.098244e+00
  4.528695e+00    3.033429e+00
  4.560446e+00    3.052500e+00
  4.592197e+00    3.128529e+00
  4.623948e+00    3.142900e+00
  4.655699e+00    3.067099e+00
  4.687451e+00    3.075517e+00
  4.719202e+00    3.008671e+00
  4.750953e+00    3.250541e+00
  4.782704e+00    3.054331e+00
  4.814455e+00    3.106130e+00
  4.846206e+00    3.116499e+00
  4.877957e+00    3.188612e+00
  4.909709e+00    3.139602e+00
  4.941460e+00    3.120635e+00
  4.973211e+00    3.096203e+00
  5.004962e+00    3.166951e+00
  5.036713e+00    3.125660e+00
  5.068464e+00    3.114601e+00
  5.100216e+00    3.056309e+00
  5.131967e+00    3.177363e+00
  5.163718e+00    3.413637e+00
  5.195469e+00    3.107255e+00
  5.227220e+00    3.134199e+00
  5.258971e+00    3.135184e+00
  5.290722e+00    3.127967e+00
  5.322474e+00    3.126229e+00
  5.354225e+00    3.128257e+00
  5.385976e+00    3.098185e+00
  5.417727e+00    3.076517e+00
  5.449478e+00    3.076551e+00
  5.481229e+00    3.015602e+00
  5.512980e+00    3.084768e+00
  5.544732e+00    3.039618e+00
  5.576483e+00    3.097524e+00
  5.608234e+00    3.054996e+00
  5.639985e+00    3.026939e+00
  5.671736e+00    3.019112e+00
  5.703487e+00    3.001280e+00
  5.735238e+00    3.123004e+00
  5.766990e+00    2.992101e+00
  5.798741e+00    3.095895e+00
  5.830492e+00    3.074751e+00
  5.862243e+00    3.049828e+00
  5.893994e+00    2.976619e+00
  5.925745e+00    3.026824e+00
  5.957497e+00    3.053607e+00
  5.989248e+00    2.981365e+00
  6.020999e+00    3.004841e+00
  6.052750e+00    2.970393e+00
  6.084501e+00    3.014229e+00
  6.116252e+00    3.036216e+00
  6.148003e+00    3.034138e+00
  6.179755e+00    3.067045e+00
  6.211506e+00    3.102325e+00
  6.243257e+00    3.104942e+00
  6.275008e+00    3.033579e+00
  6.306759e+00    3.045922e+00
  6.338510e+00    3.003388e+00
  6.370261e+00    3.027156e+00
  6.402013e+00    3.010645e+00
  6.433764e+00    2.947946e+00
  6.465515e+00    2.974571e+00
  6.497266e+00    2.961693e+00
  6.529017e+00    3.071761e+00
  6.560768e+00    3.002036e+00
  6.592519e+00    3.021726e+00
  6.624271e+00    2.987856e+00
  6.656022e+00    2.995298e+00
  6.687773e+00    3.058990e+00
  6.719524e+00    3.016738e+00
  6.751275e+00    3.052290e+00
  6.783026e+00    3.019660e+00
  6.814777e+00    3.042273e+00
  6.846529e+00    2.987886e+00
  6.878280e+00    2.983125e+00
  6.910031e+00    2.898223e+00
  6.941782e+00    3.119898e+00
  6.973533e+00    3.031797e+00
  7.005284e+00    2.992973e+00
  7.037036e+00    3.005054e+00
  7.068787e+00    3.008074e+00
  7.100538e+00    2.986303e+00
  7.132289e+00    3.003872e+00
  7.164040e+00    3.014387e+00
  7.195791e+00    2.980659e+00
  7.227542e+00    3.022533e+00
  7.259294e+00    3.002274e+00
  7.291045e+00    2.943387e+00
  7.322796e+00    3.040092e+00
  7.354547e+00    2.966221e+00
  7.386298e+00    2.939087e+00
  7.418049e+00    2.920443e+00
  7.449800e+00    2.952549e+00
  7.481552e+00    2.941295e+00
  7.513303e+00    2.968466e+00
  7.545054e+00    2.975074e+00
  7.576805e+00    2.930998e+00
  7.608556e+00    2.991919e+00
  7.640307e+00    2.958589e+00
  7.672058e+00    2.988127e+00
  7.703810e+00    2.890505e+00
  7.735561e+00    2.913938e+00
  7.767312e+00    2.946166e+00
  7.799063e+00    2.872632e+00
  7.830814e+00    2.907978e+00
  7.862565e+00    2.888855e+00
  7.894317e+00    2.888254e+00
  7.926068e+00    2.974627e+00
  7.957819e+00    2.903079e+00
  7.989570e+00    2.934661e+00
  8.021321e+00    2.983162e+00
  8.053072e+00    3.026393e+00
  8.084823e+00    2.851883e+00
  8.116575e+00    2.922240e+00
  8.148326e+00    2.955262e+00
  8.180077e+00    2.972151e+00
  8.211828e+00    2.937100e+00
  8.243579e+00    2.910465e+00
  8.275330e+00    2.915930e+00
  8.307081e+00    2.935613e+00
  8.338833e+00    2.921819e+00
  8.370584e+00    2.887620e+00
  8.402335e+00    2.860359e+00
  8.434086e+00    2.886281e+00
  8.465837e+00    2.961554e+00
  8.497588e+00    2.887968e+00
  8.529339e+00    2.891434e+00
  8.561091e+00    2.808723e+00
  8.592842e+00    2.898085e+00
  8.624593e+00    2.780448e+00
  8.656344e+00    2.852043e+00
  8.688095e+00    2.857746e+00
  8.719846e+00    2.827810e+00
  8.751598e+00    2.833400e+00
  8.783349e+00    2.816668e+00
  8.815100e+00    2.842986e+00
  8.846851e+00    2.762628e+00
  8.878602e+00    2.870291e+00
  8.910353e+00    2.862035e+00
  8.942104e+00    2.849233e+00
  8.973856e+00    2.876190e+00
  9.005607e+00    2.777528e+00
  9.037358e+00    2.798067e+00
  9.069109e+00    2.820408e+00
  9.100860e+00    2.822031e+00
  9.132611e+00    2.751086e+00
  9.164362e+00    2.821099e+00
  9.196114e+00    2.819228e+00
  9.227865e+00    2.720120e+00
  9.259616e+00    2.856960e+00
  9.291367e+00    2.785970e+00
  9.323118e+00    2.795302e+00
  9.354869e+00    2.718422e+00
  9.386620e+00    2.701653e+00
  9.418372e+00    2.743603e+00
  9.450123e+00    2.768892e+00
  9.481874e+00    2.771930e+00
  9.513625e+00    2.742403e+00
  9.545376e+00    2.743078e+00
  9.577127e+00    2.765056e+00
  9.608878e+00    2.686877e+00
  9.640630e+00    2.825327e+00
  9.672381e+00    2.765587e+00
  9.704132e+00    2.725233e+00
  9.735883e+00    2.706510e+00
  9.767634e+00    2.651916e+00
  9.799385e+00    2.801250e+00
  9.831137e+00    2.702059e+00
  9.862888e+00    2.707338e+00
  9.894639e+00    2.695580e+00
  9.926390e+00    2.684243e+00
  9.958141e+00    2.661130e+00
  9.989892e+00    2.696252e+00
  1.002164e+01    2.652098e+00
  1.005339e+01    2.681150e+00
  1.008515e+01    2.716112e+00
  1.011690e+01    2.648618e+00
  1.014865e+01    2.694471e+00
  1.018040e+01    2.622978e+00
  1.021215e+01    2.631377e+00
  1.024390e+01    2.636603e+00
  1.027565e+01    2.579972e+00
  1.030740e+01    2.583057e+00
  1.033915e+01    2.647945e+00
  1.037091e+01    2.619339e+00
  1.040266e+01    2.584919e+00
  1.043441e+01    2.560515e+00
  1.046616e+01    2.586086e+00
  1.049791e+01    2.603679e+00
  1.052966e+01    2.593249e+00
  1.056141e+01    2.556883e+00
  1.059316e+01    2.574348e+00
  1.062492e+01    2.543234e+00
  1.065667e+01    2.550407e+00
  1.068842e+01    2.543974e+00
  1.072017e+01    2.548718e+00
  1.075192e+01    2.508545e+00
  1.078367e+01    2.529709e+00
  1.081542e+01    2.579638e+00
  1.084717e+01    2.502577e+00
  1.087892e+01    2.530257e+00
  1.091068e+01    2.476034e+00
  1.094243e+01    2.470720e+00
  1.097418e+01    2.493760e+00
  1.100593e+01    2.480421e+00
  1.103768e+01    2.548495e+00
  1.106943e+01    2.508658e+00
  1.110118e+01    2.531038e+00
  1.113293e+01    2.482356e+00
  1.116468e+01    2.445554e+00
  1.119644e+01    2.467538e+00
  1.122819e+01    2.419366e+00
  1.125994e+01    2.476121e+00
  1.129169e+01    2.407797e+00
  1.132344e+01    2.422072e+00
  1.135519e+01    2.361922e+00
  1.138694e+01    2.474781e+00
  1.141869e+01    2.380728e+00
  1.145045e+01    2.404278e+00
  1.148220e+01    2.423951e+00
  1.151395e+01    2.351536e+00
  1.154570e+01    2.403062e+00
  1.157745e+01    2.420133e+00
  1.160920e+01    2.374412e+00
  1.164095e+01    2.376635e+00
  1.167270e+01    2.352074e+00
  1.170445e+01    2.416246e+00
  1.173621e+01    2.391054e+00
  1.176796e+01    2.361833e+00
  1.179971e+01    2.355358e+00
  1.183146e+01    2.342338e+00
  1.186321e+01    2.339140e+00
  1.189496e+01    2.324376e+00
  1.192671e+01    2.364140e+00
  1.195846e+01    2.284027e+00
  1.199021e+01    2.312446e+00
  1.202197e+01    2.355538e+00
  1.205372e+01    2.341749e+00
  1.208547e+01    2.333424e+00
  1.211722e+01    2.312070e+00
  1.214897e+01    2.321171e+00
  1.218072e+01    2.297032e+00
  1.221247e+01    2.309750e+00
  1.224422e+01    2.334367e+00
  1.227597e+01    2.280132e+00
  1.230773e+01    2.312513e+00
  1.233948e+01    2.283858e+00
  1.237123e+01    2.310483e+00
  1.240298e+01    2.284479e+00
  1.243473e+01    2.335422e+00
  1.246648e+01    2.301710e+00
  1.249823e+01    2.375810e+00
  1.252998e+01    2.377090e+00
  1.256174e+01    2.359307e+00
  1.259349e+01    2.355835e+00
  1.262524e+01    2.428766e+00
  1.265699e+01    2.460364e+00
  1.268874e+01    2.475656e+00
  1.272049e+01    2.524460e+00
  1.275224e+01    2.558333e+00
  1.278399e+01    2.628190e+00
  1.281574e+01    2.748858e+00
  1.284750e+01    2.870170e+00
  1.287925e+01    3.043601e+00
  1.291100e+01    3.264855e+00
  1.294275e+01    3.695215e+00
  1.297450e+01    4.331892e+00
  1.300625e+01    5.360984e+00
  1.303800e+01    6.852262e+00
  1.306975e+01    9.363308e+00
  1.310150e+01    1.218826e+01
  1.313326e+01    1.493666e+01
  1.316501e+01    1.744596e+01
  1.319676e+01    1.828532e+01
  1.322851e+01    1.606306e+01
  1.326026e+01    1.187336e+01
  1.329201e+01    8.387338e+00
  1.332376e+01    6.228280e+00
  1.335551e+01    4.900577e+00
  1.338727e+01    4.127047e+00
  1.341902e+01    3.476184e+00
  1.345077e+01    3.157382e+00
  1.348252e+01    2.889468e+00
  1.351427e+01    2.709394e+00
  1.354602e+01    2.603673e+00
  1.357777e+01    2.471935e+00
  1.360952e+01    2.379342e+00
  1.364127e+01    2.357706e+00
  1.367303e+01    2.317679e+00
  1.370478e+01    2.235697e+00
  1.373653e+01    2.226944e+00
  1.376828e+01    2.228409e+00
  1.380003e+01    2.192824e+00
  1.383178e+01    2.117926e+00
  1.386353e+01    2.175555e+00
  1.389528e+01    2.110106e+00
  1.392703e+01    2.098989e+00
  1.395879e+01    2.081040e+00
  1.399054e+01    2.052908e+00
  1.402229e+01    2.046434e+00
  1.405404e+01    2.087069e+00
  1.408579e+01    2.009952e+00
  1.411754e+01    2.031572e+00
  1.414929e+01    1.970876e+00
  1.418104e+01    2.023615e+00
  1.421279e+01    1.976646e+00
  1.424455e+01    1.957230e+00
  1.427630e+01    1.992420e+00
  1.430805e+01    1.977902e+00
  1.433980e+01    1.989408e+00
  1.437155e+01    1.926809e+00
  1.440330e+01    1.944028e+00
  1.443505e+01    1.933590e+00
  1.446680e+01    1.943238e+00
  1.449856e+01    1.916442e+00
  1.453031e+01    1.907410e+00
  1.456206e+01    1.919169e+00
  1.459381e+01    1.940714e+00
  1.462556e+01    1.893084e+00
  1.465731e+01    1.932791e+00
  1.468906e+01    1.924677e+00
  1.472081e+01    1.880550e+00
  1.475256e+01    1.893219e+00
  1.478432e+01    1.911546e+00
  1.481607e+01    1.934861e+00
  1.484782e+01    1.931927e+00
  1.487957e+01    1.918551e+00
  1.491132e+01    1.951205e+00
  1.494307e+01    2.042238e+00
  1.497482e+01    2.030870e+00
  1.500657e+01    2.162475e+00
  1.503832e+01    2.242028e+00
  1.507008e+01    2.486594e+00
  1.510183e+01    2.839476e+00
  1.513358e+01    3.390130e+00
  1.516533e+01    4.086094e+00
  1.519708e+01    4.954206e+00
  1.522883e+01    5.558033e+00
  1.526058e+01    6.114392e+00
  1.529233e+01    6.140772e+00
  1.532409e+01    5.523218e+00
  1.535584e+01    4.341775e+00
  1.538759e+01    3.414308e+00
  1.541934e+01    2.832847e+00
  1.545109e+01    2.492240e+00
  1.548284e+01    2.249975e+00
  1.551459e+01    2.098061e+00
  1.554634e+01    2.006736e+00
  1.557809e+01    1.921261e+00
  1.560985e+01    1.856282e+00
  1.564160e+01    1.807664e+00
  1.567335e+01    1.770126e+00
  1.570510e+01    1.762921e+00
  1.573685e+01    1.738219e+00
  1.576860e+01    1.715892e+00
  1.580035e+01    1.690983e+00
  1.583210e+01    1.698316e+00
  1.586385e+01    1.664626e+00
  1.589561e+01    1.638154e+00
  1.592736e+01    1.632191e+00
  1.595911e+01    1.632905e+00
  1.599086e+01    1.607748e+00
  1.602261e+01    1.580297e+00
  1.605436e+01    1.614437e+00
  1.608611e+01    1.556687e+00
  1.611786e+01    1.609052e+00
  1.614961e+01    1.567623e+00
  1.618137e+01    1.575307e+00
  1.621312e+01    1.567330e+00
  1.624487e+01    1.559659e+00
  1.627662e+01    1.522475e+00
  1.630837e+01    1.526677e+00
  1.634012e+01    1.556364e+00
  1.637187e+01    1.509762e+00
  1.640362e+01    1.557711e+00
  1.643538e+01    1.486939e+00
  1.646713e+01    1.523623e+00
  1.649888e+01    1.529580e+00
  1.653063e+01    1.531118e+00
  1.656238e+01    1.488389e+00
  1.659413e+01    1.479194e+00
  1.662588e+01    1.516084e+00
  1.665763e+01    1.470891e+00
  1.668938e+01    1.473989e+00
  1.672114e+01    1.495398e+00
  1.675289e+01    1.475751e+00
  1.678464e+01    1.451456e+00
  1.681639e+01    1.467072e+00
  1.684814e+01    1.439568e+00
  1.687989e+01    1.450346e+00
  1.691164e+01    1.441012e+00
  1.694339e+01    1.468367e+00
  1.697514e+01    1.444418e+00
  1.700690e+01    1.411405e+00
  1.703865e+01    1.389352e+00
  1.707040e+01    1.414477e+00
  1.710215e+01    1.416766e+00
  1.713390e+01    1.412957e+00
  1.716565e+01    1.377279e+00
  1.719740e+01    1.362921e+00
  1.722915e+01    1.412002e+00
  1.726091e+01    1.405663e+00
  1.729266e+01    1.358033e+00
  1.732441e+01    1.424599e+00
  1.735616e+01    1.407480e+00
  1.738791e+01    1.386287e+00
  1.741966e+01    1.397492e+00
  1.745141e+01    1.377946e+00
  1.748316e+01    1.374261e+00
  1.751491e+01    1.349984e+00
  1.754667e+01    1.383157e+00
  1.757842e+01    1.351585e+00
  1.761017e+01    1.374567e+00
  1.764192e+01    1.323249e+00
  1.767367e+01    1.338443e+00
  1.770542e+01    1.357442e+00
  1.773717e+01    1.322513e+00
  1.776892e+01    1.340368e+00
  1.780067e+01    1.323196e+00
  1.783243e+01    1.332856e+00
  1.786418e+01    1.320819e+00
  1.789593e+01    1.321169e+00
  1.792768e+01    1.324782e+00
  1.795943e+01    1.299483e+00
  1.799118e+01    1.306592e+00
  1.802293e+01    1.292314e+00
  1.805468e+01    1.331843e+00
  1.808643e+01    1.286259e+00
  1.811819e+01    1.303395e+00
  1.814994e+01    1.278325e+00
  1.818169e+01    1.263660e+00
  1.821344e+01    1.286182e+00
  1.824519e+01    1.293509e+00
  1.827694e+01    1.268308e+00
  1.830869e+01    1.258277e+00
  1.834044e+01    1.254612e+00
  1.837220e+01    1.256231e+00
  1.840395e+01    1.266554e+00
  1.843570e+01    1.275022e+00
  1.846745e+01    1.244893e+00
  1.849920e+01    1.252046e+00
  1.853095e+01    1.254915e+00
  1.856270e+01    1.243857e+00
  1.859445e+01    1.235016e+00
  1.862620e+01    1.255826e+00
  1.865796e+01    1.284151e+00
  1.868971e+01    1.216141e+00
  1.872146e+01    1.220418e+00
  1.875321e+01    1.225425e+00
  1.878496e+01    1.223639e+00
  1.881671e+01    1.199290e+00
  1.884846e+01    1.216309e+00
  1.888021e+01    1.211711e+00
  1.891196e+01    1.193228e+00
  1.894372e+01    1.235806e+00
  1.897547e+01    1.222076e+00
  1.900722e+01    1.184673e+00
  1.903897e+01    1.197520e+00
  1.907072e+01    1.197907e+00
  1.910247e+01    1.177377e+00
  1.913422e+01    1.195633e+00
  1.916597e+01    1.189522e+00
  1.919773e+01    1.201173e+00
  1.922948e+01    1.213494e+00
  1.926123e+01    1.154637e+00
  1.929298e+01    1.174349e+00
  1.932473e+01    1.177310e+00
  1.935648e+01    1.169202e+00
  1.938823e+01    1.181583e+00
  1.941998e+01    1.173999e+00
  1.945173e+01    1.177095e+00
  1.948349e+01    1.162551e+00
  1.951524e+01    1.194066e+00
  1.954699e+01    1.150338e+00
  1.957874e+01    1.139133e+00
  1.961049e+01    1.189167e+00
  1.964224e+01    1.140349e+00
  1.967399e+01    1.162597e+00
  1.970574e+01    1.132682e+00
  1.973749e+01    1.119860e+00
  1.976925e+01    1.146062e+00
  1.980100e+01    1.109969e+00
  1.983275e+01    1.128488e+00
  1.986450e+01    1.141565e+00
  1.989625e+01    1.150360e+00
  1.992800e+01    1.120649e+00
  1.995975e+01    1.114117e+00
  1.999150e+01    1.108159e+00
  2.002325e+01    1.144474e+00
  2.005501e+01    1.087755e+00
  2.008676e+01    1.115751e+00
  2.011851e+01    1.117347e+00
  2.015026e+01    1.129103e+00
  2.018201e+01    1.099983e+00
  2.021376e+01    1.119933e+00
  2.024551e+01    1.087433e+00
  2.027726e+01    1.119951e+00
  2.030902e+01    1.092498e+00
  2.034077e+01    1.087122e+00
  2.037252e+01    1.090927e+00
  2.040427e+01    1.085437e+00
  2.043602e+01    1.086291e+00
  2.046777e+01    1.106081e+00
  2.049952e+01    1.094274e+00
  2.053127e+01    1.078509e+00
  2.056302e+01    1.102817e+00
  2.059478e+01    1.074593e+00
  2.062653e+01    1.115310e+00
  2.065828e+01    1.078062e+00
  2.069003e+01    1.115918e+00
  2.072178e+01    1.058998e+00
  2.075353e+01    1.095234e+00
  2.078528e+01    1.086989e+00
  2.081703e+01    1.066940e+00
  2.084878e+01    1.090695e+00
  2.088054e+01    1.068496e+00
  2.091229e+01    1.106508e+00
  2.094404e+01    1.069892e+00
  2.097579e+01    1.069343e+00
  2.100754e+01    1.100203e+00
  2.103929e+01    1.074944e+00
  2.107104e+01    1.090060e+00
  2.110279e+01    1.088982e+00
  2.113455e+01    1.086054e+00
  2.116630e+01    1.106527e+00
  2.119805e+01    1.093664e+00
  2.122980e+01    1.093555e+00
  2.126155e+01    1.118668e+00
  2.129330e+01    1.122679e+00
  2.132505e+01    1.139717e+00
  2.135680e+01    1.159850e+00
  2.138855e+01    1.165134e+00
  2.142031e+01    1.174119e+00
  2.145206e+01    1.248539e+00
  2.148381e+01    1.266362e+00
  2.151556e+01    1.272779e+00
  2.154731e+01    1.352698e+00
  2.157906e+01    1.416833e+00
  2.161081e+01    1.581733e+00
  2.164256e+01    1.752775e+00
  2.167431e+01    2.039780e+00
  2.170607e+01    2.422803e+00
  2.173782e+01    3.060465e+00
  2.176957e+01    3.945675e+00
  2.180132e+01    5.245646e+00
  2.183307e+01    6.675032e+00
  2.186482e+01    8.312057e+00
  2.189657e+01    9.746496e+00
  2.192832e+01    1.022189e+01
  2.196007e+01    8.897057e+00
  2.199183e+01    6.740892e+00
  2.202358e+01    4.804970e+00
  2.205533e+01    3.564201e+00
  2.208708e+01    2.777888e+00
  2.211883e+01    2.235407e+00
  2.215058e+01    1.891080e+00
  2.218233e+01    1.659209e+00
  2.221408e+01    1.473918e+00
  2.224584e+01    1.398278e+00
  2.227759e+01    1.329757e+00
  2.230934e+01    1.205618e+00
  2.234109e+01    1.205835e+00
  2.237284e+01    1.162674e+00
  2.240459e+01    1.128979e+00
  2.243634e+01    1.110112e+00
  2.246809e+01    1.049554e+00
  2.249984e+01    1.060276e+00
  2.253160e+01    1.009533e+00
  2.256335e+01    1.015444e+00
  2.259510e+01    1.009361e+00
  2.262685e+01    9.828081e-01
  2.265860e+01    9.905313e-01
  2.269035e+01    9.795337e-01
  2.272210e+01    9.736387e-01
  2.275385e+01    9.901534e-01
  2.278560e+01    9.694798e-01
  2.281736e+01    9.239335e-01
  2.284911e+01    9.329957e-01
  2.288086e+01    9.277828e-01
  2.291261e+01    8.979450e-01
  2.294436e+01    9.116057e-01
  2.297611e+01    9.031982e-01
  2.300786e+01    9.053624e-01
  2.303961e+01    8.785718e-01
  2.307137e+01    9.022220e-01
  2.310312e+01    8.895704e-01
  2.313487e+01    9.062929e-01
  2.316662e+01    8.790305e-01
  2.319837e+01    8.681925e-01
  2.323012e+01    8.828309e-01
  2.326187e+01    8.685285e-01
  2.329362e+01    8.787539e-01
  2.332537e+01    8.663748e-01
  2.335713e+01    8.623306e-01
  2.338888e+01    8.534436e-01
  2.342063e+01    8.516430e-01
  2.345238e+01    8.424244e-01
  2.348413e+01    8.628077e-01
  2.351588e+01    8.550333e-01
  2.354763e+01    8.419175e-01
  2.357938e+01    8.320564e-01
  2.361113e+01    8.393754e-01
  2.364289e+01    8.396195e-01
  2.367464e+01    8.061751e-01
  2.370639e+01    8.203329e-01
  2.373814e+01    8.241270e-01
  2.376989e+01    8.223764e-01
  2.380164e+01    8.210083e-01
  2.383339e+01    8.112667e-01
  2.386514e+01    7.967323e-01
  2.389689e+01    8.350576e-01
  2.392865e+01    8.164149e-01
  2.396040e+01    7.905393e-01
  2.399215e+01    8.105836e-01
  2.402390e+01    8.094147e-01
  2.405565e+01    7.941093e-01
  2.408740e+01    7.936910e-01
  2.411915e+01    8.025942e-01
  2.415090e+01    7.939839e-01
  2.418266e+01    7.948461e-01
  2.421441e+01    7.763087e-01
  2.424616e+01    7.761325e-01
  2.427791e+01    8.007761e-01
  2.430966e+01    7.733893e-01
  2.434141e+01    8.043545e-01
  2.437316e+01    8.113919e-01
  2.440491e+01    7.959282e-01
  2.443666e+01    7.684932e-01
  2.446842e+01    8.035244e-01
  2.450017e+01    8.018154e-01
  2.453192e+01    8.071551e-01
  2.456367e+01    7.780862e-01
  2.459542e+01    7.967048e-01
  2.462717e+01    8.047903e-01
  2.465892e+01    7.787176e-01
  2.469067e+01    8.041298e-01
  2.472242e+01    8.019207e-01
  2.475418e+01    7.801864e-01
  2.478593e+01    7.914615e-01
  2.481768e+01    7.969660e-01
  2.484943e+01    7.981326e-01
  2.488118e+01    8.033524e-01
  2.491293e+01    7.995033e-01
  2.494468e+01    7.815685e-01
  2.497643e+01    7.893221e-01
  2.500819e+01    8.202125e-01
  2.503994e+01    8.165227e-01
  2.507169e+01    8.036402e-01
  2.510344e+01    8.173015e-01
  2.513519e+01    8.148289e-01
  2.516694e+01    8.351499e-01
  2.519869e+01    8.304085e-01
  2.523044e+01    8.261191e-01
  2.526219e+01    8.563038e-01
  2.529395e+01    8.565573e-01
  2.532570e+01    8.708176e-01
  2.535745e+01    8.759080e-01
  2.538920e+01    9.031289e-01
  2.542095e+01    9.351907e-01
  2.545270e+01    9.244185e-01
  2.548445e+01    9.670072e-01
  2.551620e+01    9.907600e-01
  2.554795e+01    1.009335e+00
  2.557971e+01    1.058460e+00
  2.561146e+01    1.114192e+00
  2.564321e+01    1.191486e+00
  2.567496e+01    1.292754e+00
  2.570671e+01    1.422965e+00
  2.573846e+01    1.665959e+00
  2.577021e+01    1.928582e+00
  2.580196e+01    2.378196e+00
  2.583371e+01    3.065930e+00
  2.586547e+01    4.005212e+00
  2.589722e+01    5.264116e+00
  2.592897e+01    6.664162e+00
  2.596072e+01    7.959567e+00
  2.599247e+01    8.440800e+00
  2.602422e+01    7.690410e+00
  2.605597e+01    6.001823e+00
  2.608772e+01    4.376886e+00
  2.611948e+01    3.204025e+00
  2.615123e+01    2.485050e+00
  2.618298e+01    2.007996e+00
  2.621473e+01    1.698648e+00
  2.624648e+01    1.447203e+00
  2.627823e+01    1.339109e+00
  2.630998e+01    1.233028e+00
  2.634173e+01    1.148878e+00
  2.637348e+01    1.083830e+00
  2.640524e+01    1.048792e+00
  2.643699e+01    1.005489e+00
  2.646874e+01    9.815146e-01
  2.650049e+01    9.591897e-01
  2.653224e+01    9.180431e-01
  2.656399e+01    9.520704e-01
  2.659574e+01    9.410156e-01
  2.662749e+01    9.272538e-01
  2.665924e+01    9.085577e-01
  2.669100e+01    9.157457e-01
  2.672275e+01    8.851191e-01
  2.675450e+01    9.050015e-01
  2.678625e+01    9.023390e-01
  2.681800e+01    9.072406e-01
  2.684975e+01    8.932357e-01
  2.688150e+01    9.035652e-01
  2.691325e+01    9.331720e-01
  2.694501e+01    9.575492e-01
  2.697676e+01    9.967268e-01
  2.700851e+01    1.027800e+00
  2.704026e+01    1.088935e+00
  2.707201e+01    1.157731e+00
  2.710376e+01    1.342055e+00
  2.713551e+01    1.535647e+00
  2.716726e+01    1.823118e+00
  2.719901e+01    2.148851e+00
  2.723077e+01    2.401921e+00
  2.726252e+01    2.418228e+00
  2.729427e+01    2.195391e+00
  2.732602e+01    1.863368e+00
  2.735777e+01    1.509076e+00
  2.738952e+01    1.265753e+00
  2.742127e+01    1.170117e+00
  2.745302e+01    1.038291e+00
  2.748477e+01    9.970926e-01
  2.751653e+01    9.670144e-01
  2.754828e+01    9.254462e-01
  2.758003e+01    8.833976e-01
  2.761178e+01    8.601436e-01
  2.764353e+01    8.354366e-01
  2.767528e+01    8.601271e-01
  2.770703e+01    8.365092e-01
  2.773878e+01    8.376955e-01
  2.777054e+01    8.290006e-01
  2.780229e+01    8.158666e-01
  2.783404e+01    8.049014e-01
  2.786579e+01    8.169077e-01
  2.789754e+01    8.131348e-01
  2.792929e+01    7.781642e-01
  2.796104e+01    7.913615e-01
  2.799279e+01    7.996566e-01
  2.802454e+01    7.894414e-01
  2.805630e+01    8.024407e-01
  2.808805e+01    7.835230e-01
  2.811980e+01    7.749552e-01
  2.815155e+01    7.929496e-01
  2.818330e+01    7.984743e-01
  2.821505e+01    7.969649e-01
  2.824680e+01    7.783152e-01
  2.827855e+01    7.459641e-01
  2.831030e+01    7.825783e-01
  2.834206e+01    7.853699e-01
  2.837381e+01    7.648033e-01
  2.840556e+01    7.727740e-01
  2.843731e+01    7.865026e-01
  2.846906e+01    7.498525e-01
  2.850081e+01    7.638156e-01
  2.853256e+01    7.626662e-01
  2.856431e+01    7.548119e-01
  2.859606e+01    7.671778e-01
  2.862782e+01    7.496343e-01
  2.865957e+01    7.463001e-01
  2.869132e+01    7.744972e-01
  2.872307e+01    7.456475e-01
  2.875482e+01    7.584144e-01
  2.878657e+01    7.562177e-01
  2.881832e+01    7.563173e-01
  2.885007e+01    7.391368e-01
  2.888183e+01    7.493501e-01
  2.891358e+01    7.524294e-01
  2.894533e+01    7.392583e-01
  2.897708e+01    7.652068e-01
  2.900883e+01    7.624720e-01
  2.904058e+01    7.534516e-01
  2.907233e+01    7.500048e-01
  2.910408e+01    7.254347e-01
  2.913583e+01    7.377235e-01
  2.916759e+01    7.269353e-01
  2.919934e+01    7.216389e-01
  2.923109e+01    7.400161e-01
  2.926284e+01    7.367437e-01
  2.929459e+01    7.270660e-01
  2.932634e+01    7.274432e-01
  2.935809e+01    7.499240e-01
  2.938984e+01    7.399953e-01
  2.942159e+01    7.158844e-01
  2.945335e+01    7.398419e-01
  2.948510e+01    7.268727e-01
  2.951685e+01    7.427081e-01
  2.954860e+01    7.499915e-01
  2.958035e+01    7.221059e-01
  2.961210e+01    7.142296e-01
  2.964385e+01    7.174379e-01
  2.967560e+01    7.265585e-01
  2.970736e+01    7.343323e-01
  2.973911e+01    7.107415e-01
  2.977086e+01    7.336110e-01
  2.980261e+01    7.269168e-01
  2.983436e+01    7.132972e-01
  2.986611e+01    7.355686e-01
  2.989786e+01    7.441469e-01
  2.992961e+01    7.200228e-01
  2.996136e+01    7.334485e-01
  2.999312e+01    7.470685e-01
  3.002487e+01    7.421597e-01
  3.005662e+01    7.467746e-01
  3.008837e+01    7.237327e-01
  3.012012e+01    7.270254e-01
  3.015187e+01    6.941040e-01
  3.018362e+01    7.078905e-01
  3.021537e+01    7.183842e-01
  3.024712e+01    7.122886e-01
  3.027888e+01    7.194502e-01
  3.031063e+01    7.148775e-01
  3.034238e+01    7.048679e-01
  3.037413e+01    7.184153e-01
  3.040588e+01    7.139906e-01
  3.043763e+01    7.208229e-01
  3.046938e+01    7.041022e-01
  3.050113e+01    7.032385e-01
  3.053288e+01    7.341020e-01
  3.056464e+01    7.288568e-01
  3.059639e+01    7.225217e-01
  3.062814e+01    7.080270e-01
  3.065989e+01    7.071555e-01
  3.069164e+01    7.220138e-01
  3.072339e+01    7.045226e-01
  3.075514e+01    7.181088e-01
  3.078689e+01    7.147282e-01
  3.081865e+01    7.192829e-01
  3.085040e+01    7.327407e-01
  3.088215e+01    7.083393e-01
  3.091390e+01    6.931657e-01
  3.094565e+01    7.381586e-01
  3.097740e+01    7.242178e-01
  3.100915e+01    7.005642e-01
  3.104090e+01    7.282714e-01
  3.107265e+01    7.358669e-01
  3.110441e+01    7.366605e-01
  3.113616e+01    7.249797e-01
  3.116791e+01    7.241732e-01
  3.119966e+01    7.253457e-01
  3.123141e+01    7.180638e-01
  3.126316e+01    7.156342e-01
  3.129491e+01    7.315515e-01
  3.132666e+01    7.359565e-01
  3.135841e+01    7.558225e-01
  3.139017e+01    7.580922e-01
  3.142192e+01    7.490299e-01
  3.145367e+01    7.410073e-01
  3.148542e+01    7.512912e-01
  3.151717e+01    7.665868e-01
  3.154892e+01    7.846379e-01
  3.158067e+01    8.006726e-01
  3.161242e+01    8.407719e-01
  3.164418e+01    8.387660e-01
  3.167593e+01    8.811767e-01
  3.170768e+01    9.090462e-01
  3.173943e+01    9.969208e-01
  3.177118e+01    1.101772e+00
  3.180293e+01    1.298731e+00
  3.183468e+01    1.514360e+00
  3.186643e+01    1.842683e+00
  3.189818e+01    2.163965e+00
  3.192994e+01    2.451713e+00
  3.196169e+01    2.409927e+00
  3.199344e+01    2.101150e+00
  3.202519e+01    1.722779e+00
  3.205694e+01    1.447644e+00
  3.208869e+01    1.162299e+00
  3.212044e+01    1.068027e+00
  3.215219e+01    9.768283e-01
  3.218394e+01    8.687004e-01
  3.221570e+01    8.857829e-01
  3.224745e+01    8.302899e-01
  3.227920e+01    7.958482e-01
  3.231095e+01    8.102851e-01
  3.234270e+01    7.608705e-01
  3.237445e+01    7.472908e-01
  3.240620e+01    7.555196e-01
  3.243795e+01    7.520534e-01
  3.246970e+01    7.498733e-01
  3.250146e+01    7.625899e-01
  3.253321e+01    7.415091e-01
  3.254908e+01    7.379172e-01