File: XRD/2024-07-27_002_Ru-CGO-ex_Activtation_ramp_000002_data_000132.dat
# == pyFAI calibration ==
# Distance Sample to Detector: 0.4 m
# PONI: 9.750e-02, 1.135e-01 m
# Rotations: -0.000175 0.000000 -0.000000 rad
#
# == Fit2d calibration ==
# Distance Sample-beamCenter: 400.000 mm
# Center: x=1514.000, y=1300.000 pix
# Tilt: 0.010 deg  TiltPlanRot: 0.010 deg
#
# Detector Detector	 Spline= None	 PixelSize= 7.500e-05, 7.500e-05 m
#    Detector has a mask: False
#    Detector has a dark current: False
#    detector has a flat field: False
#
# Wavelength: 6.888e-11 m
# Mask applied: user provided
# Dark current applied: False
# Flat field applied: False
# Polarization factor: 0.99
# Normalization factor: 1.0
# --> /home/myspot/data/2024_07_Rosario/Ru-CGO-ex/2024-07-27_002_Ru-CGO-ex_Activtation_ramp_000002_data_000132.dat
#       q_nm^-1             I
  2.003187e-02    7.712624e-02
  5.178302e-02    4.717196e-02
  8.353417e-02    5.473724e-02
  1.152853e-01    6.257467e-03
  1.470365e-01    5.273827e-02
  1.787876e-01    2.652747e-02
  2.105388e-01    1.406946e-02
  2.422899e-01    8.739873e-02
  2.740411e-01    8.643080e-02
  3.057922e-01    5.333834e-02
  3.375433e-01    4.065082e-02
  3.692945e-01    3.086438e-02
  4.010456e-01    3.368910e-02
  4.327968e-01    2.422365e-02
  4.645479e-01    4.819874e-02
  4.962991e-01    2.539224e-02
  5.280502e-01    1.708149e-02
  5.598014e-01    1.490755e-02
  5.915525e-01    2.600366e-02
  6.233037e-01    2.602958e-02
  6.550548e-01    2.902246e-02
  6.868060e-01    6.423850e-02
  7.185571e-01    3.658310e-02
  7.503083e-01    3.753064e-02
  7.820594e-01    1.042042e-01
  8.138106e-01    1.659305e-01
  8.455617e-01    3.275360e-01
  8.773129e-01    4.257343e-01
  9.090640e-01    5.809719e-01
  9.408152e-01    7.211989e-01
  9.725663e-01    8.783994e-01
  1.004317e+00    1.049441e+00
  1.036069e+00    1.195596e+00
  1.067820e+00    1.340051e+00
  1.099571e+00    1.369801e+00
  1.131322e+00    1.335149e+00
  1.163073e+00    1.570456e+00
  1.194824e+00    1.626363e+00
  1.226575e+00    2.248420e+00
  1.258327e+00    2.322130e+00
  1.290078e+00    2.426489e+00
  1.321829e+00    2.526828e+00
  1.353580e+00    2.572630e+00
  1.385331e+00    2.585568e+00
  1.417082e+00    2.559438e+00
  1.448834e+00    2.702101e+00
  1.480585e+00    2.733008e+00
  1.512336e+00    2.685933e+00
  1.544087e+00    2.922533e+00
  1.575838e+00    2.836465e+00
  1.607589e+00    2.821155e+00
  1.639340e+00    2.785913e+00
  1.671092e+00    2.807775e+00
  1.702843e+00    2.898313e+00
  1.734594e+00    2.847924e+00
  1.766345e+00    2.747482e+00
  1.798096e+00    2.754220e+00
  1.829847e+00    2.685508e+00
  1.861598e+00    2.658187e+00
  1.893350e+00    2.602156e+00
  1.925101e+00    2.695309e+00
  1.956852e+00    2.741629e+00
  1.988603e+00    2.802128e+00
  2.020354e+00    2.658884e+00
  2.052105e+00    2.649044e+00
  2.083856e+00    2.762015e+00
  2.115608e+00    2.748926e+00
  2.147359e+00    2.790262e+00
  2.179110e+00    2.586906e+00
  2.210861e+00    2.626552e+00
  2.242612e+00    2.711736e+00
  2.274363e+00    2.638693e+00
  2.306115e+00    2.775395e+00
  2.337866e+00    2.742369e+00
  2.369617e+00    2.763195e+00
  2.401368e+00    2.763338e+00
  2.433119e+00    2.763385e+00
  2.464870e+00    2.704428e+00
  2.496621e+00    2.722684e+00
  2.528373e+00    2.632381e+00
  2.560124e+00    2.716254e+00
  2.591875e+00    2.844780e+00
  2.623626e+00    2.807280e+00
  2.655377e+00    2.729744e+00
  2.687128e+00    2.805295e+00
  2.718879e+00    2.704218e+00
  2.750631e+00    2.848327e+00
  2.782382e+00    2.788954e+00
  2.814133e+00    2.775628e+00
  2.845884e+00    2.746457e+00
  2.877635e+00    2.754422e+00
  2.909386e+00    2.803632e+00
  2.941137e+00    2.824430e+00
  2.972889e+00    2.773319e+00
  3.004640e+00    2.786273e+00
  3.036391e+00    2.779574e+00
  3.068142e+00    2.804549e+00
  3.099893e+00    2.848464e+00
  3.131644e+00    2.851639e+00
  3.163395e+00    2.879364e+00
  3.195147e+00    2.861840e+00
  3.226898e+00    2.858274e+00
  3.258649e+00    2.847277e+00
  3.290400e+00    2.862518e+00
  3.322151e+00    2.833102e+00
  3.353902e+00    2.879732e+00
  3.385654e+00    2.813604e+00
  3.417405e+00    2.848941e+00
  3.449156e+00    2.979440e+00
  3.480907e+00    2.949527e+00
  3.512658e+00    2.912574e+00
  3.544409e+00    2.832124e+00
  3.576160e+00    3.004943e+00
  3.607912e+00    2.977874e+00
  3.639663e+00    2.914764e+00
  3.671414e+00    2.961275e+00
  3.703165e+00    2.881210e+00
  3.734916e+00    3.066911e+00
  3.766667e+00    2.937771e+00
  3.798418e+00    2.951195e+00
  3.830170e+00    2.957633e+00
  3.861921e+00    2.970582e+00
  3.893672e+00    2.994564e+00
  3.925423e+00    2.991065e+00
  3.957174e+00    2.958146e+00
  3.988925e+00    3.045480e+00
  4.020676e+00    3.067424e+00
  4.052428e+00    3.018070e+00
  4.084179e+00    3.059160e+00
  4.115930e+00    2.994332e+00
  4.147681e+00    3.074813e+00
  4.179432e+00    3.023607e+00
  4.211183e+00    2.963602e+00
  4.242935e+00    2.978817e+00
  4.274686e+00    2.937942e+00
  4.306437e+00    2.977826e+00
  4.338188e+00    3.040415e+00
  4.369939e+00    3.047307e+00
  4.401690e+00    3.111316e+00
  4.433441e+00    3.106699e+00
  4.465193e+00    2.960922e+00
  4.496944e+00    3.066874e+00
  4.528695e+00    2.985510e+00
  4.560446e+00    2.984490e+00
  4.592197e+00    3.085467e+00
  4.623948e+00    3.051143e+00
  4.655699e+00    3.006194e+00
  4.687451e+00    3.110828e+00
  4.719202e+00    3.106614e+00
  4.750953e+00    3.158597e+00
  4.782704e+00    3.092900e+00
  4.814455e+00    3.062644e+00
  4.846206e+00    3.108698e+00
  4.877957e+00    3.084913e+00
  4.909709e+00    3.127209e+00
  4.941460e+00    3.130239e+00
  4.973211e+00    3.017595e+00
  5.004962e+00    3.030084e+00
  5.036713e+00    3.030495e+00
  5.068464e+00    3.097883e+00
  5.100216e+00    3.109645e+00
  5.131967e+00    3.130239e+00
  5.163718e+00    3.043156e+00
  5.195469e+00    3.131992e+00
  5.227220e+00    3.026695e+00
  5.258971e+00    3.123854e+00
  5.290722e+00    3.108072e+00
  5.322474e+00    3.127512e+00
  5.354225e+00    3.083347e+00
  5.385976e+00    3.097863e+00
  5.417727e+00    3.083585e+00
  5.449478e+00    2.971376e+00
  5.481229e+00    3.005555e+00
  5.512980e+00    3.089725e+00
  5.544732e+00    3.015494e+00
  5.576483e+00    2.960360e+00
  5.608234e+00    3.033215e+00
  5.639985e+00    3.003287e+00
  5.671736e+00    3.124798e+00
  5.703487e+00    3.035966e+00
  5.735238e+00    2.945033e+00
  5.766990e+00    3.112619e+00
  5.798741e+00    3.074788e+00
  5.830492e+00    2.997295e+00
  5.862243e+00    2.984457e+00
  5.893994e+00    2.991634e+00
  5.925745e+00    2.952137e+00
  5.957497e+00    3.022938e+00
  5.989248e+00    3.000341e+00
  6.020999e+00    2.919766e+00
  6.052750e+00    2.957144e+00
  6.084501e+00    3.029936e+00
  6.116252e+00    3.095747e+00
  6.148003e+00    2.984403e+00
  6.179755e+00    3.061829e+00
  6.211506e+00    3.104271e+00
  6.243257e+00    3.028466e+00
  6.275008e+00    2.977556e+00
  6.306759e+00    2.932148e+00
  6.338510e+00    3.134751e+00
  6.370261e+00    2.945345e+00
  6.402013e+00    2.921706e+00
  6.433764e+00    3.024934e+00
  6.465515e+00    3.015876e+00
  6.497266e+00    3.019217e+00
  6.529017e+00    3.017585e+00
  6.560768e+00    2.991908e+00
  6.592519e+00    2.939313e+00
  6.624271e+00    2.965005e+00
  6.656022e+00    2.984255e+00
  6.687773e+00    3.014007e+00
  6.719524e+00    3.019814e+00
  6.751275e+00    2.982777e+00
  6.783026e+00    3.005038e+00
  6.814777e+00    3.015583e+00
  6.846529e+00    3.014559e+00
  6.878280e+00    3.013894e+00
  6.910031e+00    3.042019e+00
  6.941782e+00    2.945331e+00
  6.973533e+00    3.016428e+00
  7.005284e+00    2.957392e+00
  7.037036e+00    2.960507e+00
  7.068787e+00    2.972306e+00
  7.100538e+00    2.961503e+00
  7.132289e+00    2.998149e+00
  7.164040e+00    3.018746e+00
  7.195791e+00    2.955971e+00
  7.227542e+00    2.980509e+00
  7.259294e+00    2.949345e+00
  7.291045e+00    2.959641e+00
  7.322796e+00    2.949734e+00
  7.354547e+00    2.971580e+00
  7.386298e+00    2.982230e+00
  7.418049e+00    2.933564e+00
  7.449800e+00    2.944278e+00
  7.481552e+00    2.984689e+00
  7.513303e+00    3.016792e+00
  7.545054e+00    2.952842e+00
  7.576805e+00    2.947903e+00
  7.608556e+00    2.972046e+00
  7.640307e+00    2.912620e+00
  7.672058e+00    2.916275e+00
  7.703810e+00    2.895713e+00
  7.735561e+00    2.864983e+00
  7.767312e+00    2.903784e+00
  7.799063e+00    2.934494e+00
  7.830814e+00    2.960477e+00
  7.862565e+00    2.954883e+00
  7.894317e+00    2.919196e+00
  7.926068e+00    2.819522e+00
  7.957819e+00    2.929423e+00
  7.989570e+00    2.914586e+00
  8.021321e+00    2.963834e+00
  8.053072e+00    2.942018e+00
  8.084823e+00    2.870918e+00
  8.116575e+00    2.928075e+00
  8.148326e+00    2.987644e+00
  8.180077e+00    2.941372e+00
  8.211828e+00    2.974675e+00
  8.243579e+00    2.930766e+00
  8.275330e+00    2.925256e+00
  8.307081e+00    2.917274e+00
  8.338833e+00    2.910090e+00
  8.370584e+00    2.838409e+00
  8.402335e+00    2.834348e+00
  8.434086e+00    2.858441e+00
  8.465837e+00    2.901613e+00
  8.497588e+00    2.871300e+00
  8.529339e+00    2.853145e+00
  8.561091e+00    2.838495e+00
  8.592842e+00    2.820414e+00
  8.624593e+00    2.779330e+00
  8.656344e+00    2.793694e+00
  8.688095e+00    2.892910e+00
  8.719846e+00    2.806598e+00
  8.751598e+00    2.767603e+00
  8.783349e+00    2.817120e+00
  8.815100e+00    2.793452e+00
  8.846851e+00    2.794590e+00
  8.878602e+00    2.774817e+00
  8.910353e+00    2.832285e+00
  8.942104e+00    2.837420e+00
  8.973856e+00    2.798135e+00
  9.005607e+00    2.782770e+00
  9.037358e+00    2.841840e+00
  9.069109e+00    2.732787e+00
  9.100860e+00    2.769463e+00
  9.132611e+00    2.768603e+00
  9.164362e+00    2.735320e+00
  9.196114e+00    2.741967e+00
  9.227865e+00    2.773480e+00
  9.259616e+00    2.721223e+00
  9.291367e+00    2.706414e+00
  9.323118e+00    2.770283e+00
  9.354869e+00    2.735244e+00
  9.386620e+00    2.760765e+00
  9.418372e+00    2.768936e+00
  9.450123e+00    2.712464e+00
  9.481874e+00    2.794100e+00
  9.513625e+00    2.668902e+00
  9.545376e+00    2.765095e+00
  9.577127e+00    2.752130e+00
  9.608878e+00    2.725612e+00
  9.640630e+00    2.712909e+00
  9.672381e+00    2.697071e+00
  9.704132e+00    2.701522e+00
  9.735883e+00    2.724453e+00
  9.767634e+00    2.760637e+00
  9.799385e+00    2.717266e+00
  9.831137e+00    2.722922e+00
  9.862888e+00    2.700619e+00
  9.894639e+00    2.623847e+00
  9.926390e+00    2.659800e+00
  9.958141e+00    2.644681e+00
  9.989892e+00    2.678785e+00
  1.002164e+01    2.620842e+00
  1.005339e+01    2.626817e+00
  1.008515e+01    2.606303e+00
  1.011690e+01    2.648228e+00
  1.014865e+01    2.622893e+00
  1.018040e+01    2.605917e+00
  1.021215e+01    2.606648e+00
  1.024390e+01    2.653350e+00
  1.027565e+01    2.571957e+00
  1.030740e+01    2.579134e+00
  1.033915e+01    2.545464e+00
  1.037091e+01    2.638823e+00
  1.040266e+01    2.620145e+00
  1.043441e+01    2.575997e+00
  1.046616e+01    2.595694e+00
  1.049791e+01    2.554794e+00
  1.052966e+01    2.524599e+00
  1.056141e+01    2.624725e+00
  1.059316e+01    2.632565e+00
  1.062492e+01    2.586026e+00
  1.065667e+01    2.573268e+00
  1.068842e+01    2.592419e+00
  1.072017e+01    2.497171e+00
  1.075192e+01    2.526876e+00
  1.078367e+01    2.498225e+00
  1.081542e+01    2.513981e+00
  1.084717e+01    2.540021e+00
  1.087892e+01    2.477535e+00
  1.091068e+01    2.496843e+00
  1.094243e+01    2.504833e+00
  1.097418e+01    2.501467e+00
  1.100593e+01    2.485123e+00
  1.103768e+01    2.451218e+00
  1.106943e+01    2.462878e+00
  1.110118e+01    2.473841e+00
  1.113293e+01    2.436829e+00
  1.116468e+01    2.439256e+00
  1.119644e+01    2.447216e+00
  1.122819e+01    2.465189e+00
  1.125994e+01    2.459560e+00
  1.129169e+01    2.418310e+00
  1.132344e+01    2.365856e+00
  1.135519e+01    2.427309e+00
  1.138694e+01    2.411611e+00
  1.141869e+01    2.442575e+00
  1.145045e+01    2.437247e+00
  1.148220e+01    2.359420e+00
  1.151395e+01    2.439130e+00
  1.154570e+01    2.365197e+00
  1.157745e+01    2.369601e+00
  1.160920e+01    2.381111e+00
  1.164095e+01    2.407403e+00
  1.167270e+01    2.376303e+00
  1.170445e+01    2.377221e+00
  1.173621e+01    2.349509e+00
  1.176796e+01    2.369617e+00
  1.179971e+01    2.412193e+00
  1.183146e+01    2.346563e+00
  1.186321e+01    2.342185e+00
  1.189496e+01    2.335075e+00
  1.192671e+01    2.322979e+00
  1.195846e+01    2.359643e+00
  1.199021e+01    2.288444e+00
  1.202197e+01    2.362162e+00
  1.205372e+01    2.313223e+00
  1.208547e+01    2.319403e+00
  1.211722e+01    2.293875e+00
  1.214897e+01    2.317391e+00
  1.218072e+01    2.304312e+00
  1.221247e+01    2.245985e+00
  1.224422e+01    2.288473e+00
  1.227597e+01    2.338205e+00
  1.230773e+01    2.292253e+00
  1.233948e+01    2.337672e+00
  1.237123e+01    2.338022e+00
  1.240298e+01    2.353536e+00
  1.243473e+01    2.272626e+00
  1.246648e+01    2.346981e+00
  1.249823e+01    2.326305e+00
  1.252998e+01    2.366559e+00
  1.256174e+01    2.354361e+00
  1.259349e+01    2.441295e+00
  1.262524e+01    2.416095e+00
  1.265699e+01    2.350965e+00
  1.268874e+01    2.403951e+00
  1.272049e+01    2.449689e+00
  1.275224e+01    2.530066e+00
  1.278399e+01    2.571594e+00
  1.281574e+01    2.656067e+00
  1.284750e+01    2.805020e+00
  1.287925e+01    2.966991e+00
  1.291100e+01    3.284764e+00
  1.294275e+01    3.699514e+00
  1.297450e+01    4.373974e+00
  1.300625e+01    5.461317e+00
  1.303800e+01    7.169751e+00
  1.306975e+01    9.519781e+00
  1.310150e+01    1.223617e+01
  1.313326e+01    1.471957e+01
  1.316501e+01    1.666410e+01
  1.319676e+01    1.680070e+01
  1.322851e+01    1.372667e+01
  1.326026e+01    9.895026e+00
  1.329201e+01    7.028769e+00
  1.332376e+01    5.377163e+00
  1.335551e+01    4.335662e+00
  1.338727e+01    3.659101e+00
  1.341902e+01    3.239684e+00
  1.345077e+01    2.964525e+00
  1.348252e+01    2.769304e+00
  1.351427e+01    2.595132e+00
  1.354602e+01    2.560739e+00
  1.357777e+01    2.398312e+00
  1.360952e+01    2.396970e+00
  1.364127e+01    2.273113e+00
  1.367303e+01    2.227859e+00
  1.370478e+01    2.230301e+00
  1.373653e+01    2.176724e+00
  1.376828e+01    2.178269e+00
  1.380003e+01    2.162161e+00
  1.383178e+01    2.106023e+00
  1.386353e+01    2.126633e+00
  1.389528e+01    2.100905e+00
  1.392703e+01    2.074895e+00
  1.395879e+01    2.056377e+00
  1.399054e+01    2.028688e+00
  1.402229e+01    2.044856e+00
  1.405404e+01    2.070292e+00
  1.408579e+01    2.012873e+00
  1.411754e+01    2.031433e+00
  1.414929e+01    2.032302e+00
  1.418104e+01    1.973716e+00
  1.421279e+01    1.943350e+00
  1.424455e+01    2.002135e+00
  1.427630e+01    1.985801e+00
  1.430805e+01    1.959249e+00
  1.433980e+01    1.915912e+00
  1.437155e+01    1.897073e+00
  1.440330e+01    1.894234e+00
  1.443505e+01    1.908385e+00
  1.446680e+01    1.847655e+00
  1.449856e+01    1.930209e+00
  1.453031e+01    1.919604e+00
  1.456206e+01    1.898681e+00
  1.459381e+01    1.894682e+00
  1.462556e+01    1.867999e+00
  1.465731e+01    1.897760e+00
  1.468906e+01    1.910725e+00
  1.472081e+01    1.916103e+00
  1.475256e+01    1.897568e+00
  1.478432e+01    1.908189e+00
  1.481607e+01    1.911283e+00
  1.484782e+01    1.923650e+00
  1.487957e+01    1.940887e+00
  1.491132e+01    2.035274e+00
  1.494307e+01    2.016788e+00
  1.497482e+01    2.059802e+00
  1.500657e+01    2.113458e+00
  1.503832e+01    2.294902e+00
  1.507008e+01    2.482138e+00
  1.510183e+01    2.793521e+00
  1.513358e+01    3.433880e+00
  1.516533e+01    4.105710e+00
  1.519708e+01    4.874226e+00
  1.522883e+01    5.531468e+00
  1.526058e+01    5.772680e+00
  1.529233e+01    5.611548e+00
  1.532409e+01    4.850364e+00
  1.535584e+01    3.850423e+00
  1.538759e+01    3.034603e+00
  1.541934e+01    2.572278e+00
  1.545109e+01    2.308292e+00
  1.548284e+01    2.127730e+00
  1.551459e+01    1.997375e+00
  1.554634e+01    1.923250e+00
  1.557809e+01    1.836527e+00
  1.560985e+01    1.821719e+00
  1.564160e+01    1.785860e+00
  1.567335e+01    1.769201e+00
  1.570510e+01    1.699584e+00
  1.573685e+01    1.710500e+00
  1.576860e+01    1.728362e+00
  1.580035e+01    1.659214e+00
  1.583210e+01    1.658116e+00
  1.586385e+01    1.615333e+00
  1.589561e+01    1.662479e+00
  1.592736e+01    1.605295e+00
  1.595911e+01    1.612902e+00
  1.599086e+01    1.587443e+00
  1.602261e+01    1.569065e+00
  1.605436e+01    1.586649e+00
  1.608611e+01    1.574106e+00
  1.611786e+01    1.578781e+00
  1.614961e+01    1.583799e+00
  1.618137e+01    1.529565e+00
  1.621312e+01    1.593452e+00
  1.624487e+01    1.584759e+00
  1.627662e+01    1.554771e+00
  1.630837e+01    1.559293e+00
  1.634012e+01    1.500264e+00
  1.637187e+01    1.551436e+00
  1.640362e+01    1.516325e+00
  1.643538e+01    1.532631e+00
  1.646713e+01    1.521690e+00
  1.649888e+01    1.486261e+00
  1.653063e+01    1.482540e+00
  1.656238e+01    1.468461e+00
  1.659413e+01    1.511408e+00
  1.662588e+01    1.463971e+00
  1.665763e+01    1.488125e+00
  1.668938e+01    1.464272e+00
  1.672114e+01    1.491510e+00
  1.675289e+01    1.430272e+00
  1.678464e+01    1.467623e+00
  1.681639e+01    1.466159e+00
  1.684814e+01    1.423711e+00
  1.687989e+01    1.433865e+00
  1.691164e+01    1.436313e+00
  1.694339e+01    1.399789e+00
  1.697514e+01    1.427776e+00
  1.700690e+01    1.383880e+00
  1.703865e+01    1.432531e+00
  1.707040e+01    1.402154e+00
  1.710215e+01    1.406486e+00
  1.713390e+01    1.375829e+00
  1.716565e+01    1.400066e+00
  1.719740e+01    1.396330e+00
  1.722915e+01    1.426525e+00
  1.726091e+01    1.398251e+00
  1.729266e+01    1.393162e+00
  1.732441e+01    1.350909e+00
  1.735616e+01    1.380603e+00
  1.738791e+01    1.355638e+00
  1.741966e+01    1.389646e+00
  1.745141e+01    1.360783e+00
  1.748316e+01    1.346471e+00
  1.751491e+01    1.354114e+00
  1.754667e+01    1.370939e+00
  1.757842e+01    1.348019e+00
  1.761017e+01    1.346378e+00
  1.764192e+01    1.343964e+00
  1.767367e+01    1.337592e+00
  1.770542e+01    1.319109e+00
  1.773717e+01    1.311455e+00
  1.776892e+01    1.332045e+00
  1.780067e+01    1.334039e+00
  1.783243e+01    1.330403e+00
  1.786418e+01    1.302822e+00
  1.789593e+01    1.311497e+00
  1.792768e+01    1.320035e+00
  1.795943e+01    1.311165e+00
  1.799118e+01    1.286304e+00
  1.802293e+01    1.275506e+00
  1.805468e+01    1.273208e+00
  1.808643e+01    1.264201e+00
  1.811819e+01    1.275967e+00
  1.814994e+01    1.302384e+00
  1.818169e+01    1.274964e+00
  1.821344e+01    1.275123e+00
  1.824519e+01    1.298998e+00
  1.827694e+01    1.275519e+00
  1.830869e+01    1.245813e+00
  1.834044e+01    1.281599e+00
  1.837220e+01    1.259718e+00
  1.840395e+01    1.244302e+00
  1.843570e+01    1.251725e+00
  1.846745e+01    1.247242e+00
  1.849920e+01    1.239744e+00
  1.853095e+01    1.241077e+00
  1.856270e+01    1.193562e+00
  1.859445e+01    1.211650e+00
  1.862620e+01    1.215059e+00
  1.865796e+01    1.241703e+00
  1.868971e+01    1.181332e+00
  1.872146e+01    1.206312e+00
  1.875321e+01    1.257693e+00
  1.878496e+01    1.219930e+00
  1.881671e+01    1.192091e+00
  1.884846e+01    1.180162e+00
  1.888021e+01    1.185851e+00
  1.891196e+01    1.216618e+00
  1.894372e+01    1.196961e+00
  1.897547e+01    1.170910e+00
  1.900722e+01    1.196185e+00
  1.903897e+01    1.205792e+00
  1.907072e+01    1.171779e+00
  1.910247e+01    1.189098e+00
  1.913422e+01    1.164031e+00
  1.916597e+01    1.160457e+00
  1.919773e+01    1.172151e+00
  1.922948e+01    1.159143e+00
  1.926123e+01    1.190095e+00
  1.929298e+01    1.179690e+00
  1.932473e+01    1.147686e+00
  1.935648e+01    1.161281e+00
  1.938823e+01    1.159477e+00
  1.941998e+01    1.172927e+00
  1.945173e+01    1.154371e+00
  1.948349e+01    1.142267e+00
  1.951524e+01    1.163370e+00
  1.954699e+01    1.121421e+00
  1.957874e+01    1.165655e+00
  1.961049e+01    1.124576e+00
  1.964224e+01    1.138749e+00
  1.967399e+01    1.117923e+00
  1.970574e+01    1.137202e+00
  1.973749e+01    1.136951e+00
  1.976925e+01    1.104787e+00
  1.980100e+01    1.104688e+00
  1.983275e+01    1.146442e+00
  1.986450e+01    1.118366e+00
  1.989625e+01    1.101063e+00
  1.992800e+01    1.115511e+00
  1.995975e+01    1.117664e+00
  1.999150e+01    1.126979e+00
  2.002325e+01    1.113353e+00
  2.005501e+01    1.106987e+00
  2.008676e+01    1.100318e+00
  2.011851e+01    1.104980e+00
  2.015026e+01    1.076618e+00
  2.018201e+01    1.120924e+00
  2.021376e+01    1.089857e+00
  2.024551e+01    1.089677e+00
  2.027726e+01    1.080463e+00
  2.030902e+01    1.079383e+00
  2.034077e+01    1.088907e+00
  2.037252e+01    1.071036e+00
  2.040427e+01    1.104687e+00
  2.043602e+01    1.077076e+00
  2.046777e+01    1.083098e+00
  2.049952e+01    1.079032e+00
  2.053127e+01    1.076344e+00
  2.056302e+01    1.056202e+00
  2.059478e+01    1.074848e+00
  2.062653e+01    1.078661e+00
  2.065828e+01    1.062789e+00
  2.069003e+01    1.073506e+00
  2.072178e+01    1.070099e+00
  2.075353e+01    1.070855e+00
  2.078528e+01    1.080058e+00
  2.081703e+01    1.048404e+00
  2.084878e+01    1.075168e+00
  2.088054e+01    1.052380e+00
  2.091229e+01    1.085580e+00
  2.094404e+01    1.089702e+00
  2.097579e+01    1.068199e+00
  2.100754e+01    1.063311e+00
  2.103929e+01    1.076394e+00
  2.107104e+01    1.052392e+00
  2.110279e+01    1.068852e+00
  2.113455e+01    1.047790e+00
  2.116630e+01    1.092711e+00
  2.119805e+01    1.098053e+00
  2.122980e+01    1.104591e+00
  2.126155e+01    1.123506e+00
  2.129330e+01    1.105931e+00
  2.132505e+01    1.138063e+00
  2.135680e+01    1.128901e+00
  2.138855e+01    1.141209e+00
  2.142031e+01    1.202285e+00
  2.145206e+01    1.202249e+00
  2.148381e+01    1.230875e+00
  2.151556e+01    1.287476e+00
  2.154731e+01    1.363426e+00
  2.157906e+01    1.470923e+00
  2.161081e+01    1.614656e+00
  2.164256e+01    1.799672e+00
  2.167431e+01    2.119044e+00
  2.170607e+01    2.566006e+00
  2.173782e+01    3.283711e+00
  2.176957e+01    4.210326e+00
  2.180132e+01    5.501454e+00
  2.183307e+01    6.931095e+00
  2.186482e+01    8.334894e+00
  2.189657e+01    9.335974e+00
  2.192832e+01    9.151126e+00
  2.196007e+01    7.370353e+00
  2.199183e+01    5.353556e+00
  2.202358e+01    3.896655e+00
  2.205533e+01    2.886613e+00
  2.208708e+01    2.351475e+00
  2.211883e+01    1.959840e+00
  2.215058e+01    1.699512e+00
  2.218233e+01    1.476607e+00
  2.221408e+01    1.390875e+00
  2.224584e+01    1.287688e+00
  2.227759e+01    1.245949e+00
  2.230934e+01    1.187695e+00
  2.234109e+01    1.146479e+00
  2.237284e+01    1.106084e+00
  2.240459e+01    1.072013e+00
  2.243634e+01    1.075934e+00
  2.246809e+01    1.061234e+00
  2.249984e+01    1.017952e+00
  2.253160e+01    1.005368e+00
  2.256335e+01    9.904941e-01
  2.259510e+01    9.755806e-01
  2.262685e+01    9.625928e-01
  2.265860e+01    9.657355e-01
  2.269035e+01    9.236041e-01
  2.272210e+01    9.366304e-01
  2.275385e+01    9.378965e-01
  2.278560e+01    9.187875e-01
  2.281736e+01    9.357375e-01
  2.284911e+01    9.308554e-01
  2.288086e+01    9.297869e-01
  2.291261e+01    9.125275e-01
  2.294436e+01    9.036301e-01
  2.297611e+01    8.921501e-01
  2.300786e+01    9.057315e-01
  2.303961e+01    8.636257e-01
  2.307137e+01    9.047901e-01
  2.310312e+01    8.744705e-01
  2.313487e+01    8.647318e-01
  2.316662e+01    8.651145e-01
  2.319837e+01    8.714805e-01
  2.323012e+01    8.666853e-01
  2.326187e+01    8.669908e-01
  2.329362e+01    8.889151e-01
  2.332537e+01    8.632330e-01
  2.335713e+01    8.507978e-01
  2.338888e+01    8.452709e-01
  2.342063e+01    8.386046e-01
  2.345238e+01    8.511183e-01
  2.348413e+01    8.352426e-01
  2.351588e+01    8.366832e-01
  2.354763e+01    8.273767e-01
  2.357938e+01    8.298016e-01
  2.361113e+01    8.293911e-01
  2.364289e+01    8.192856e-01
  2.367464e+01    8.187810e-01
  2.370639e+01    8.124865e-01
  2.373814e+01    8.046585e-01
  2.376989e+01    8.077997e-01
  2.380164e+01    8.109078e-01
  2.383339e+01    8.093308e-01
  2.386514e+01    7.913721e-01
  2.389689e+01    8.024092e-01
  2.392865e+01    7.827151e-01
  2.396040e+01    7.972356e-01
  2.399215e+01    7.846032e-01
  2.402390e+01    7.883531e-01
  2.405565e+01    7.785346e-01
  2.408740e+01    7.908154e-01
  2.411915e+01    7.684098e-01
  2.415090e+01    7.895536e-01
  2.418266e+01    7.707036e-01
  2.421441e+01    7.834200e-01
  2.424616e+01    7.897928e-01
  2.427791e+01    7.976165e-01
  2.430966e+01    7.710394e-01
  2.434141e+01    8.072433e-01
  2.437316e+01    8.003378e-01
  2.440491e+01    7.877520e-01
  2.443666e+01    7.829102e-01
  2.446842e+01    8.156590e-01
  2.450017e+01    7.972825e-01
  2.453192e+01    7.874298e-01
  2.456367e+01    7.846591e-01
  2.459542e+01    7.761409e-01
  2.462717e+01    7.876723e-01
  2.465892e+01    8.022414e-01
  2.469067e+01    7.813898e-01
  2.472242e+01    7.926452e-01
  2.475418e+01    7.924491e-01
  2.478593e+01    7.743004e-01
  2.481768e+01    7.842376e-01
  2.484943e+01    7.852374e-01
  2.488118e+01    7.806045e-01
  2.491293e+01    8.050641e-01
  2.494468e+01    7.957653e-01
  2.497643e+01    7.967775e-01
  2.500819e+01    8.124871e-01
  2.503994e+01    8.093320e-01
  2.507169e+01    7.940795e-01
  2.510344e+01    8.084339e-01
  2.513519e+01    8.393963e-01
  2.516694e+01    8.229061e-01
  2.519869e+01    8.187192e-01
  2.523044e+01    8.451635e-01
  2.526219e+01    8.269816e-01
  2.529395e+01    8.316353e-01
  2.532570e+01    8.724728e-01
  2.535745e+01    8.872591e-01
  2.538920e+01    8.886287e-01
  2.542095e+01    9.055903e-01
  2.545270e+01    9.273769e-01
  2.548445e+01    9.529812e-01
  2.551620e+01    9.860389e-01
  2.554795e+01    1.029419e+00
  2.557971e+01    1.032223e+00
  2.561146e+01    1.116822e+00
  2.564321e+01    1.215520e+00
  2.567496e+01    1.350656e+00
  2.570671e+01    1.479282e+00
  2.573846e+01    1.694281e+00
  2.577021e+01    2.099767e+00
  2.580196e+01    2.591129e+00
  2.583371e+01    3.397961e+00
  2.586547e+01    4.396106e+00
  2.589722e+01    5.662518e+00
  2.592897e+01    6.857248e+00
  2.596072e+01    7.680114e+00
  2.599247e+01    7.430541e+00
  2.602422e+01    6.098890e+00
  2.605597e+01    4.584867e+00
  2.608772e+01    3.337222e+00
  2.611948e+01    2.587628e+00
  2.615123e+01    2.044406e+00
  2.618298e+01    1.711079e+00
  2.621473e+01    1.456486e+00
  2.624648e+01    1.332548e+00
  2.627823e+01    1.199944e+00
  2.630998e+01    1.132388e+00
  2.634173e+01    1.076188e+00
  2.637348e+01    1.022420e+00
  2.640524e+01    9.854701e-01
  2.643699e+01    9.809138e-01
  2.646874e+01    9.572771e-01
  2.650049e+01    9.289499e-01
  2.653224e+01    9.108641e-01
  2.656399e+01    9.030604e-01
  2.659574e+01    8.884909e-01
  2.662749e+01    8.947556e-01
  2.665924e+01    9.105110e-01
  2.669100e+01    8.919291e-01
  2.672275e+01    8.728172e-01
  2.675450e+01    8.874524e-01
  2.678625e+01    8.911996e-01
  2.681800e+01    9.017689e-01
  2.684975e+01    8.854188e-01
  2.688150e+01    9.003820e-01
  2.691325e+01    9.325004e-01
  2.694501e+01    9.454306e-01
  2.697676e+01    9.661609e-01
  2.700851e+01    1.038306e+00
  2.704026e+01    1.078657e+00
  2.707201e+01    1.209144e+00
  2.710376e+01    1.398226e+00
  2.713551e+01    1.623312e+00
  2.716726e+01    1.912552e+00
  2.719901e+01    2.174012e+00
  2.723077e+01    2.306781e+00
  2.726252e+01    2.150339e+00
  2.729427e+01    1.840705e+00
  2.732602e+01    1.522465e+00
  2.735777e+01    1.280670e+00
  2.738952e+01    1.126170e+00
  2.742127e+01    1.057573e+00
  2.745302e+01    1.004742e+00
  2.748477e+01    9.620264e-01
  2.751653e+01    9.057385e-01
  2.754828e+01    8.660477e-01
  2.758003e+01    8.648248e-01
  2.761178e+01    8.461133e-01
  2.764353e+01    8.372064e-01
  2.767528e+01    8.326877e-01
  2.770703e+01    8.351501e-01
  2.773878e+01    7.993719e-01
  2.777054e+01    8.281132e-01
  2.780229e+01    7.999429e-01
  2.783404e+01    7.995101e-01
  2.786579e+01    7.903125e-01
  2.789754e+01    7.758330e-01
  2.792929e+01    7.652403e-01
  2.796104e+01    7.871191e-01
  2.799279e+01    7.587059e-01
  2.802454e+01    7.930347e-01
  2.805630e+01    7.713544e-01
  2.808805e+01    7.696152e-01
  2.811980e+01    7.768601e-01
  2.815155e+01    7.675423e-01
  2.818330e+01    7.583327e-01
  2.821505e+01    7.634637e-01
  2.824680e+01    7.637224e-01
  2.827855e+01    7.559624e-01
  2.831030e+01    7.726586e-01
  2.834206e+01    7.677424e-01
  2.837381e+01    7.695970e-01
  2.840556e+01    7.516318e-01
  2.843731e+01    7.584707e-01
  2.846906e+01    7.538486e-01
  2.850081e+01    7.682049e-01
  2.853256e+01    7.619327e-01
  2.856431e+01    7.511901e-01
  2.859606e+01    7.587516e-01
  2.862782e+01    7.645755e-01
  2.865957e+01    7.503413e-01
  2.869132e+01    7.456970e-01
  2.872307e+01    7.279494e-01
  2.875482e+01    7.411304e-01
  2.878657e+01    7.422284e-01
  2.881832e+01    7.383495e-01
  2.885007e+01    7.455400e-01
  2.888183e+01    7.297230e-01
  2.891358e+01    7.467470e-01
  2.894533e+01    7.179442e-01
  2.897708e+01    7.308792e-01
  2.900883e+01    7.349675e-01
  2.904058e+01    7.331699e-01
  2.907233e+01    7.398607e-01
  2.910408e+01    7.229893e-01
  2.913583e+01    7.278543e-01
  2.916759e+01    7.319391e-01
  2.919934e+01    7.178828e-01
  2.923109e+01    7.251449e-01
  2.926284e+01    7.230499e-01
  2.929459e+01    7.343630e-01
  2.932634e+01    7.154546e-01
  2.935809e+01    7.117127e-01
  2.938984e+01    7.202775e-01
  2.942159e+01    7.077315e-01
  2.945335e+01    7.047390e-01
  2.948510e+01    7.168989e-01
  2.951685e+01    7.220452e-01
  2.954860e+01    7.099453e-01
  2.958035e+01    7.254736e-01
  2.961210e+01    7.139229e-01
  2.964385e+01    7.292760e-01
  2.967560e+01    7.108837e-01
  2.970736e+01    7.167955e-01
  2.973911e+01    7.068466e-01
  2.977086e+01    6.984476e-01
  2.980261e+01    7.344797e-01
  2.983436e+01    7.233249e-01
  2.986611e+01    7.060626e-01
  2.989786e+01    7.004199e-01
  2.992961e+01    7.129384e-01
  2.996136e+01    7.275860e-01
  2.999312e+01    7.389590e-01
  3.002487e+01    7.309719e-01
  3.005662e+01    7.430786e-01
  3.008837e+01    7.325748e-01
  3.012012e+01    7.067240e-01
  3.015187e+01    7.052806e-01
  3.018362e+01    7.185997e-01
  3.021537e+01    7.105936e-01
  3.024712e+01    7.215345e-01
  3.027888e+01    7.024081e-01
  3.031063e+01    7.013707e-01
  3.034238e+01    7.185655e-01
  3.037413e+01    7.201600e-01
  3.040588e+01    6.804487e-01
  3.043763e+01    6.946725e-01
  3.046938e+01    7.142884e-01
  3.050113e+01    7.219415e-01
  3.053288e+01    7.248452e-01
  3.056464e+01    6.833589e-01
  3.059639e+01    7.111886e-01
  3.062814e+01    7.069560e-01
  3.065989e+01    7.311368e-01
  3.069164e+01    7.093657e-01
  3.072339e+01    7.078605e-01
  3.075514e+01    7.204056e-01
  3.078689e+01    7.042074e-01
  3.081865e+01    6.999229e-01
  3.085040e+01    7.048619e-01
  3.088215e+01    7.036982e-01
  3.091390e+01    7.179137e-01
  3.094565e+01    7.192079e-01
  3.097740e+01    6.978120e-01
  3.100915e+01    7.105940e-01
  3.104090e+01    6.940960e-01
  3.107265e+01    7.227869e-01
  3.110441e+01    7.066506e-01
  3.113616e+01    7.223098e-01
  3.116791e+01    7.040689e-01
  3.119966e+01    7.126980e-01
  3.123141e+01    7.245597e-01
  3.126316e+01    7.250258e-01
  3.129491e+01    7.281849e-01
  3.132666e+01    7.422355e-01
  3.135841e+01    7.184778e-01
  3.139017e+01    7.565259e-01
  3.142192e+01    7.335953e-01
  3.145367e+01    7.131090e-01
  3.148542e+01    7.727578e-01
  3.151717e+01    7.690436e-01
  3.154892e+01    7.837124e-01
  3.158067e+01    7.844928e-01
  3.161242e+01    8.377146e-01
  3.164418e+01    8.441496e-01
  3.167593e+01    8.879533e-01
  3.170768e+01    9.706383e-01
  3.173943e+01    1.043763e+00
  3.177118e+01    1.158021e+00
  3.180293e+01    1.386615e+00
  3.183468e+01    1.654019e+00
  3.186643e+01    1.980136e+00
  3.189818e+01    2.191249e+00
  3.192994e+01    2.256186e+00
  3.196169e+01    2.077105e+00
  3.199344e+01    1.712547e+00
  3.202519e+01    1.387401e+00
  3.205694e+01    1.215264e+00
  3.208869e+01    1.042049e+00
  3.212044e+01    9.528775e-01
  3.215219e+01    8.727153e-01
  3.218394e+01    8.085314e-01
  3.221570e+01    8.213052e-01
  3.224745e+01    7.704579e-01
  3.227920e+01    7.385478e-01
  3.231095e+01    7.579247e-01
  3.234270e+01    7.433457e-01
  3.237445e+01    7.400320e-01
  3.240620e+01    7.426991e-01
  3.243795e+01    7.278963e-01
  3.246970e+01    7.270880e-01
  3.250146e+01    7.586781e-01
  3.253321e+01    7.267871e-01
  3.254908e+01    7.304802e-01