File: XRD/2024-07-27_002_Ru-CGO-ex_Activtation_ramp_000002_data_000065.dat
# == pyFAI calibration ==
# Distance Sample to Detector: 0.4 m
# PONI: 9.750e-02, 1.135e-01 m
# Rotations: -0.000175 0.000000 -0.000000 rad
#
# == Fit2d calibration ==
# Distance Sample-beamCenter: 400.000 mm
# Center: x=1514.000, y=1300.000 pix
# Tilt: 0.010 deg  TiltPlanRot: 0.010 deg
#
# Detector Detector	 Spline= None	 PixelSize= 7.500e-05, 7.500e-05 m
#    Detector has a mask: False
#    Detector has a dark current: False
#    detector has a flat field: False
#
# Wavelength: 6.888e-11 m
# Mask applied: user provided
# Dark current applied: False
# Flat field applied: False
# Polarization factor: 0.99
# Normalization factor: 1.0
# --> /home/myspot/data/2024_07_Rosario/Ru-CGO-ex/2024-07-27_002_Ru-CGO-ex_Activtation_ramp_000002_data_000065.dat
#       q_nm^-1             I
  2.003187e-02    0.000000e+00
  5.178302e-02    0.000000e+00
  8.353417e-02    0.000000e+00
  1.152853e-01    2.774768e-02
  1.470365e-01    1.198579e-01
  1.787876e-01    8.184849e-02
  2.105388e-01    2.406150e-02
  2.422899e-01    1.938864e-02
  2.740411e-01    9.861731e-03
  3.057922e-01    3.868453e-02
  3.375433e-01    2.723008e-02
  3.692945e-01    2.539260e-02
  4.010456e-01    6.370584e-02
  4.327968e-01    1.398502e-02
  4.645479e-01    6.921338e-02
  4.962991e-01    3.321467e-02
  5.280502e-01    3.892107e-02
  5.598014e-01    5.065330e-02
  5.915525e-01    2.571356e-02
  6.233037e-01    5.239053e-02
  6.550548e-01    4.486571e-02
  6.868060e-01    5.220712e-02
  7.185571e-01    4.506310e-02
  7.503083e-01    6.602772e-02
  7.820594e-01    8.063183e-02
  8.138106e-01    2.165344e-01
  8.455617e-01    3.445366e-01
  8.773129e-01    4.896581e-01
  9.090640e-01    5.528641e-01
  9.408152e-01    7.184187e-01
  9.725663e-01    8.408134e-01
  1.004317e+00    9.565052e-01
  1.036069e+00    1.136111e+00
  1.067820e+00    1.363486e+00
  1.099571e+00    1.299948e+00
  1.131322e+00    1.464606e+00
  1.163073e+00    1.426457e+00
  1.194824e+00    1.621277e+00
  1.226575e+00    2.126952e+00
  1.258327e+00    2.405093e+00
  1.290078e+00    2.473191e+00
  1.321829e+00    2.584240e+00
  1.353580e+00    2.577594e+00
  1.385331e+00    2.684883e+00
  1.417082e+00    2.668401e+00
  1.448834e+00    2.862874e+00
  1.480585e+00    2.743529e+00
  1.512336e+00    2.983887e+00
  1.544087e+00    2.939431e+00
  1.575838e+00    2.960119e+00
  1.607589e+00    2.966826e+00
  1.639340e+00    2.988568e+00
  1.671092e+00    2.848968e+00
  1.702843e+00    2.909317e+00
  1.734594e+00    2.866597e+00
  1.766345e+00    2.754149e+00
  1.798096e+00    2.714112e+00
  1.829847e+00    2.746156e+00
  1.861598e+00    2.786400e+00
  1.893350e+00    2.745502e+00
  1.925101e+00    2.731324e+00
  1.956852e+00    2.823621e+00
  1.988603e+00    2.877702e+00
  2.020354e+00    2.699850e+00
  2.052105e+00    2.710882e+00
  2.083856e+00    2.680224e+00
  2.115608e+00    2.824659e+00
  2.147359e+00    2.804035e+00
  2.179110e+00    2.800444e+00
  2.210861e+00    2.738364e+00
  2.242612e+00    2.842280e+00
  2.274363e+00    2.792326e+00
  2.306115e+00    2.838667e+00
  2.337866e+00    2.796861e+00
  2.369617e+00    2.709908e+00
  2.401368e+00    2.865827e+00
  2.433119e+00    2.801698e+00
  2.464870e+00    2.804101e+00
  2.496621e+00    2.811889e+00
  2.528373e+00    2.856580e+00
  2.560124e+00    2.767920e+00
  2.591875e+00    2.923986e+00
  2.623626e+00    2.958337e+00
  2.655377e+00    2.798511e+00
  2.687128e+00    2.924541e+00
  2.718879e+00    2.827749e+00
  2.750631e+00    2.885786e+00
  2.782382e+00    2.890568e+00
  2.814133e+00    2.943806e+00
  2.845884e+00    2.822531e+00
  2.877635e+00    2.820955e+00
  2.909386e+00    2.953855e+00
  2.941137e+00    2.761892e+00
  2.972889e+00    2.861762e+00
  3.004640e+00    2.889572e+00
  3.036391e+00    2.776219e+00
  3.068142e+00    2.949683e+00
  3.099893e+00    2.839987e+00
  3.131644e+00    2.938678e+00
  3.163395e+00    2.945215e+00
  3.195147e+00    2.923433e+00
  3.226898e+00    2.974754e+00
  3.258649e+00    2.821438e+00
  3.290400e+00    3.009430e+00
  3.322151e+00    2.885140e+00
  3.353902e+00    2.973319e+00
  3.385654e+00    2.982907e+00
  3.417405e+00    2.899320e+00
  3.449156e+00    3.040209e+00
  3.480907e+00    2.906161e+00
  3.512658e+00    2.994360e+00
  3.544409e+00    2.963598e+00
  3.576160e+00    2.986128e+00
  3.607912e+00    3.054511e+00
  3.639663e+00    2.931731e+00
  3.671414e+00    3.061614e+00
  3.703165e+00    2.959494e+00
  3.734916e+00    2.956567e+00
  3.766667e+00    3.046530e+00
  3.798418e+00    2.969865e+00
  3.830170e+00    2.937438e+00
  3.861921e+00    2.986185e+00
  3.893672e+00    3.001015e+00
  3.925423e+00    3.063861e+00
  3.957174e+00    3.039690e+00
  3.988925e+00    3.038027e+00
  4.020676e+00    2.989794e+00
  4.052428e+00    3.002603e+00
  4.084179e+00    3.039468e+00
  4.115930e+00    3.122146e+00
  4.147681e+00    3.144825e+00
  4.179432e+00    3.097251e+00
  4.211183e+00    2.961405e+00
  4.242935e+00    3.008449e+00
  4.274686e+00    2.995004e+00
  4.306437e+00    2.994741e+00
  4.338188e+00    2.997710e+00
  4.369939e+00    3.032479e+00
  4.401690e+00    3.064195e+00
  4.433441e+00    3.120839e+00
  4.465193e+00    3.022742e+00
  4.496944e+00    3.101862e+00
  4.528695e+00    3.084103e+00
  4.560446e+00    3.081298e+00
  4.592197e+00    3.042041e+00
  4.623948e+00    3.004796e+00
  4.655699e+00    3.096086e+00
  4.687451e+00    3.025502e+00
  4.719202e+00    3.126256e+00
  4.750953e+00    3.154024e+00
  4.782704e+00    3.073866e+00
  4.814455e+00    3.094550e+00
  4.846206e+00    3.179341e+00
  4.877957e+00    3.178211e+00
  4.909709e+00    3.023588e+00
  4.941460e+00    3.023277e+00
  4.973211e+00    3.124416e+00
  5.004962e+00    3.137639e+00
  5.036713e+00    3.061464e+00
  5.068464e+00    3.152120e+00
  5.100216e+00    3.153697e+00
  5.131967e+00    3.130151e+00
  5.163718e+00    3.081480e+00
  5.195469e+00    3.097618e+00
  5.227220e+00    3.106025e+00
  5.258971e+00    3.144410e+00
  5.290722e+00    3.148060e+00
  5.322474e+00    3.129147e+00
  5.354225e+00    3.062013e+00
  5.385976e+00    3.143592e+00
  5.417727e+00    3.059634e+00
  5.449478e+00    3.069296e+00
  5.481229e+00    3.079166e+00
  5.512980e+00    3.103145e+00
  5.544732e+00    2.996136e+00
  5.576483e+00    3.112688e+00
  5.608234e+00    3.115607e+00
  5.639985e+00    3.011612e+00
  5.671736e+00    3.049309e+00
  5.703487e+00    3.061712e+00
  5.735238e+00    3.067584e+00
  5.766990e+00    3.058757e+00
  5.798741e+00    3.108001e+00
  5.830492e+00    3.034480e+00
  5.862243e+00    3.094698e+00
  5.893994e+00    3.089471e+00
  5.925745e+00    2.972440e+00
  5.957497e+00    3.022627e+00
  5.989248e+00    2.957383e+00
  6.020999e+00    2.981493e+00
  6.052750e+00    2.991301e+00
  6.084501e+00    3.053375e+00
  6.116252e+00    3.021416e+00
  6.148003e+00    3.000551e+00
  6.179755e+00    3.068405e+00
  6.211506e+00    3.093189e+00
  6.243257e+00    3.060296e+00
  6.275008e+00    2.978389e+00
  6.306759e+00    3.072475e+00
  6.338510e+00    3.054320e+00
  6.370261e+00    3.007088e+00
  6.402013e+00    3.065586e+00
  6.433764e+00    3.024601e+00
  6.465515e+00    3.070049e+00
  6.497266e+00    3.078036e+00
  6.529017e+00    3.057742e+00
  6.560768e+00    3.009186e+00
  6.592519e+00    2.991407e+00
  6.624271e+00    3.012294e+00
  6.656022e+00    3.041414e+00
  6.687773e+00    3.105305e+00
  6.719524e+00    3.026273e+00
  6.751275e+00    3.013131e+00
  6.783026e+00    3.041030e+00
  6.814777e+00    3.015149e+00
  6.846529e+00    3.088658e+00
  6.878280e+00    2.969065e+00
  6.910031e+00    3.004774e+00
  6.941782e+00    3.005987e+00
  6.973533e+00    3.100003e+00
  7.005284e+00    2.984303e+00
  7.037036e+00    3.009243e+00
  7.068787e+00    2.988515e+00
  7.100538e+00    3.035396e+00
  7.132289e+00    3.028801e+00
  7.164040e+00    2.958778e+00
  7.195791e+00    3.023413e+00
  7.227542e+00    3.052942e+00
  7.259294e+00    2.961051e+00
  7.291045e+00    2.915335e+00
  7.322796e+00    2.959972e+00
  7.354547e+00    3.004003e+00
  7.386298e+00    2.930833e+00
  7.418049e+00    3.015685e+00
  7.449800e+00    2.995649e+00
  7.481552e+00    2.985020e+00
  7.513303e+00    3.042854e+00
  7.545054e+00    2.971865e+00
  7.576805e+00    2.955303e+00
  7.608556e+00    2.927808e+00
  7.640307e+00    2.941044e+00
  7.672058e+00    2.974918e+00
  7.703810e+00    2.989859e+00
  7.735561e+00    2.924862e+00
  7.767312e+00    3.018220e+00
  7.799063e+00    2.948195e+00
  7.830814e+00    2.981634e+00
  7.862565e+00    2.972481e+00
  7.894317e+00    2.859949e+00
  7.926068e+00    2.941178e+00
  7.957819e+00    2.981801e+00
  7.989570e+00    2.888524e+00
  8.021321e+00    2.990437e+00
  8.053072e+00    2.801110e+00
  8.084823e+00    2.907041e+00
  8.116575e+00    2.891139e+00
  8.148326e+00    2.948057e+00
  8.180077e+00    2.925370e+00
  8.211828e+00    2.937080e+00
  8.243579e+00    2.992785e+00
  8.275330e+00    2.959703e+00
  8.307081e+00    2.933813e+00
  8.338833e+00    2.883758e+00
  8.370584e+00    2.868026e+00
  8.402335e+00    2.924303e+00
  8.434086e+00    2.948729e+00
  8.465837e+00    2.878009e+00
  8.497588e+00    2.919842e+00
  8.529339e+00    2.838964e+00
  8.561091e+00    2.901565e+00
  8.592842e+00    2.877924e+00
  8.624593e+00    2.877803e+00
  8.656344e+00    2.857270e+00
  8.688095e+00    2.831076e+00
  8.719846e+00    2.814278e+00
  8.751598e+00    2.793469e+00
  8.783349e+00    2.847926e+00
  8.815100e+00    2.850871e+00
  8.846851e+00    2.858810e+00
  8.878602e+00    2.866899e+00
  8.910353e+00    2.883270e+00
  8.942104e+00    2.780322e+00
  8.973856e+00    2.856062e+00
  9.005607e+00    2.835242e+00
  9.037358e+00    2.850232e+00
  9.069109e+00    2.821000e+00
  9.100860e+00    2.817167e+00
  9.132611e+00    2.837642e+00
  9.164362e+00    2.793895e+00
  9.196114e+00    2.789673e+00
  9.227865e+00    2.735669e+00
  9.259616e+00    2.815563e+00
  9.291367e+00    2.814867e+00
  9.323118e+00    2.824245e+00
  9.354869e+00    2.795879e+00
  9.386620e+00    2.794643e+00
  9.418372e+00    2.770478e+00
  9.450123e+00    2.727892e+00
  9.481874e+00    2.737616e+00
  9.513625e+00    2.738414e+00
  9.545376e+00    2.735707e+00
  9.577127e+00    2.789111e+00
  9.608878e+00    2.756174e+00
  9.640630e+00    2.755917e+00
  9.672381e+00    2.722386e+00
  9.704132e+00    2.713097e+00
  9.735883e+00    2.739288e+00
  9.767634e+00    2.700173e+00
  9.799385e+00    2.693938e+00
  9.831137e+00    2.748538e+00
  9.862888e+00    2.693103e+00
  9.894639e+00    2.787491e+00
  9.926390e+00    2.684505e+00
  9.958141e+00    2.710669e+00
  9.989892e+00    2.604365e+00
  1.002164e+01    2.653693e+00
  1.005339e+01    2.678287e+00
  1.008515e+01    2.659363e+00
  1.011690e+01    2.607778e+00
  1.014865e+01    2.623656e+00
  1.018040e+01    2.629498e+00
  1.021215e+01    2.625123e+00
  1.024390e+01    2.682856e+00
  1.027565e+01    2.691901e+00
  1.030740e+01    2.642125e+00
  1.033915e+01    2.640743e+00
  1.037091e+01    2.682475e+00
  1.040266e+01    2.603550e+00
  1.043441e+01    2.587462e+00
  1.046616e+01    2.598475e+00
  1.049791e+01    2.603150e+00
  1.052966e+01    2.614854e+00
  1.056141e+01    2.588298e+00
  1.059316e+01    2.649099e+00
  1.062492e+01    2.587586e+00
  1.065667e+01    2.527612e+00
  1.068842e+01    2.555410e+00
  1.072017e+01    2.545834e+00
  1.075192e+01    2.555012e+00
  1.078367e+01    2.501057e+00
  1.081542e+01    2.525319e+00
  1.084717e+01    2.490805e+00
  1.087892e+01    2.550562e+00
  1.091068e+01    2.537642e+00
  1.094243e+01    2.540691e+00
  1.097418e+01    2.455619e+00
  1.100593e+01    2.502074e+00
  1.103768e+01    2.463856e+00
  1.106943e+01    2.509321e+00
  1.110118e+01    2.459352e+00
  1.113293e+01    2.447246e+00
  1.116468e+01    2.528145e+00
  1.119644e+01    2.401672e+00
  1.122819e+01    2.460695e+00
  1.125994e+01    2.470540e+00
  1.129169e+01    2.443034e+00
  1.132344e+01    2.472009e+00
  1.135519e+01    2.426081e+00
  1.138694e+01    2.478877e+00
  1.141869e+01    2.449411e+00
  1.145045e+01    2.428125e+00
  1.148220e+01    2.429768e+00
  1.151395e+01    2.406306e+00
  1.154570e+01    2.392436e+00
  1.157745e+01    2.359871e+00
  1.160920e+01    2.361218e+00
  1.164095e+01    2.379661e+00
  1.167270e+01    2.357549e+00
  1.170445e+01    2.326966e+00
  1.173621e+01    2.337651e+00
  1.176796e+01    2.348398e+00
  1.179971e+01    2.396689e+00
  1.183146e+01    2.336102e+00
  1.186321e+01    2.278767e+00
  1.189496e+01    2.338367e+00
  1.192671e+01    2.372334e+00
  1.195846e+01    2.343524e+00
  1.199021e+01    2.410311e+00
  1.202197e+01    2.279770e+00
  1.205372e+01    2.353013e+00
  1.208547e+01    2.328535e+00
  1.211722e+01    2.331991e+00
  1.214897e+01    2.318026e+00
  1.218072e+01    2.292896e+00
  1.221247e+01    2.312906e+00
  1.224422e+01    2.289708e+00
  1.227597e+01    2.314428e+00
  1.230773e+01    2.322318e+00
  1.233948e+01    2.304255e+00
  1.237123e+01    2.349726e+00
  1.240298e+01    2.320716e+00
  1.243473e+01    2.309496e+00
  1.246648e+01    2.358674e+00
  1.249823e+01    2.365008e+00
  1.252998e+01    2.361605e+00
  1.256174e+01    2.387642e+00
  1.259349e+01    2.384417e+00
  1.262524e+01    2.450609e+00
  1.265699e+01    2.396924e+00
  1.268874e+01    2.496321e+00
  1.272049e+01    2.489948e+00
  1.275224e+01    2.553191e+00
  1.278399e+01    2.630159e+00
  1.281574e+01    2.737301e+00
  1.284750e+01    2.875559e+00
  1.287925e+01    3.081793e+00
  1.291100e+01    3.291612e+00
  1.294275e+01    3.720351e+00
  1.297450e+01    4.304317e+00
  1.300625e+01    5.271443e+00
  1.303800e+01    6.792889e+00
  1.306975e+01    9.175540e+00
  1.310150e+01    1.211845e+01
  1.313326e+01    1.497789e+01
  1.316501e+01    1.745295e+01
  1.319676e+01    1.881800e+01
  1.322851e+01    1.661358e+01
  1.326026e+01    1.218395e+01
  1.329201e+01    8.585817e+00
  1.332376e+01    6.312983e+00
  1.335551e+01    4.950267e+00
  1.338727e+01    4.174062e+00
  1.341902e+01    3.595079e+00
  1.345077e+01    3.182034e+00
  1.348252e+01    2.934865e+00
  1.351427e+01    2.706988e+00
  1.354602e+01    2.651109e+00
  1.357777e+01    2.534892e+00
  1.360952e+01    2.447230e+00
  1.364127e+01    2.375858e+00
  1.367303e+01    2.293369e+00
  1.370478e+01    2.255759e+00
  1.373653e+01    2.268591e+00
  1.376828e+01    2.194590e+00
  1.380003e+01    2.227335e+00
  1.383178e+01    2.120225e+00
  1.386353e+01    2.160798e+00
  1.389528e+01    2.142750e+00
  1.392703e+01    2.132005e+00
  1.395879e+01    2.042653e+00
  1.399054e+01    2.096246e+00
  1.402229e+01    2.047532e+00
  1.405404e+01    2.028538e+00
  1.408579e+01    2.050398e+00
  1.411754e+01    2.031079e+00
  1.414929e+01    2.018592e+00
  1.418104e+01    2.003846e+00
  1.421279e+01    2.029652e+00
  1.424455e+01    2.011098e+00
  1.427630e+01    1.972360e+00
  1.430805e+01    1.969555e+00
  1.433980e+01    1.987879e+00
  1.437155e+01    1.942223e+00
  1.440330e+01    1.923512e+00
  1.443505e+01    1.939599e+00
  1.446680e+01    1.933176e+00
  1.449856e+01    1.936807e+00
  1.453031e+01    1.936289e+00
  1.456206e+01    1.958107e+00
  1.459381e+01    1.932320e+00
  1.462556e+01    1.938177e+00
  1.465731e+01    1.887234e+00
  1.468906e+01    1.895682e+00
  1.472081e+01    1.926970e+00
  1.475256e+01    1.907796e+00
  1.478432e+01    1.892981e+00
  1.481607e+01    1.914531e+00
  1.484782e+01    1.955923e+00
  1.487957e+01    1.916697e+00
  1.491132e+01    1.977554e+00
  1.494307e+01    1.998767e+00
  1.497482e+01    2.072272e+00
  1.500657e+01    2.134836e+00
  1.503832e+01    2.291587e+00
  1.507008e+01    2.545149e+00
  1.510183e+01    2.771090e+00
  1.513358e+01    3.328287e+00
  1.516533e+01    4.034557e+00
  1.519708e+01    4.861838e+00
  1.522883e+01    5.557163e+00
  1.526058e+01    6.137937e+00
  1.529233e+01    6.335320e+00
  1.532409e+01    5.702172e+00
  1.535584e+01    4.520057e+00
  1.538759e+01    3.481264e+00
  1.541934e+01    2.902878e+00
  1.545109e+01    2.554537e+00
  1.548284e+01    2.293169e+00
  1.551459e+01    2.095135e+00
  1.554634e+01    2.000352e+00
  1.557809e+01    1.917160e+00
  1.560985e+01    1.877159e+00
  1.564160e+01    1.852063e+00
  1.567335e+01    1.802667e+00
  1.570510e+01    1.757065e+00
  1.573685e+01    1.752305e+00
  1.576860e+01    1.699382e+00
  1.580035e+01    1.687416e+00
  1.583210e+01    1.671304e+00
  1.586385e+01    1.659389e+00
  1.589561e+01    1.637912e+00
  1.592736e+01    1.683192e+00
  1.595911e+01    1.658997e+00
  1.599086e+01    1.613226e+00
  1.602261e+01    1.606617e+00
  1.605436e+01    1.632117e+00
  1.608611e+01    1.570648e+00
  1.611786e+01    1.551401e+00
  1.614961e+01    1.594484e+00
  1.618137e+01    1.609575e+00
  1.621312e+01    1.586031e+00
  1.624487e+01    1.578416e+00
  1.627662e+01    1.537998e+00
  1.630837e+01    1.518723e+00
  1.634012e+01    1.551953e+00
  1.637187e+01    1.560315e+00
  1.640362e+01    1.515422e+00
  1.643538e+01    1.554787e+00
  1.646713e+01    1.520716e+00
  1.649888e+01    1.506936e+00
  1.653063e+01    1.537382e+00
  1.656238e+01    1.500088e+00
  1.659413e+01    1.498790e+00
  1.662588e+01    1.499820e+00
  1.665763e+01    1.510580e+00
  1.668938e+01    1.456594e+00
  1.672114e+01    1.485557e+00
  1.675289e+01    1.465013e+00
  1.678464e+01    1.456807e+00
  1.681639e+01    1.454845e+00
  1.684814e+01    1.493021e+00
  1.687989e+01    1.467163e+00
  1.691164e+01    1.424491e+00
  1.694339e+01    1.464692e+00
  1.697514e+01    1.452757e+00
  1.700690e+01    1.414947e+00
  1.703865e+01    1.419632e+00
  1.707040e+01    1.398176e+00
  1.710215e+01    1.448761e+00
  1.713390e+01    1.408157e+00
  1.716565e+01    1.406520e+00
  1.719740e+01    1.421376e+00
  1.722915e+01    1.421481e+00
  1.726091e+01    1.432874e+00
  1.729266e+01    1.387610e+00
  1.732441e+01    1.385192e+00
  1.735616e+01    1.379626e+00
  1.738791e+01    1.365862e+00
  1.741966e+01    1.343122e+00
  1.745141e+01    1.361366e+00
  1.748316e+01    1.355751e+00
  1.751491e+01    1.373418e+00
  1.754667e+01    1.378126e+00
  1.757842e+01    1.359913e+00
  1.761017e+01    1.357956e+00
  1.764192e+01    1.352939e+00
  1.767367e+01    1.360304e+00
  1.770542e+01    1.355642e+00
  1.773717e+01    1.324373e+00
  1.776892e+01    1.348864e+00
  1.780067e+01    1.327684e+00
  1.783243e+01    1.307348e+00
  1.786418e+01    1.352406e+00
  1.789593e+01    1.323447e+00
  1.792768e+01    1.302573e+00
  1.795943e+01    1.314947e+00
  1.799118e+01    1.288567e+00
  1.802293e+01    1.307392e+00
  1.805468e+01    1.297753e+00
  1.808643e+01    1.325116e+00
  1.811819e+01    1.291944e+00
  1.814994e+01    1.302014e+00
  1.818169e+01    1.300510e+00
  1.821344e+01    1.291710e+00
  1.824519e+01    1.267864e+00
  1.827694e+01    1.248686e+00
  1.830869e+01    1.291880e+00
  1.834044e+01    1.281600e+00
  1.837220e+01    1.243782e+00
  1.840395e+01    1.269668e+00
  1.843570e+01    1.241479e+00
  1.846745e+01    1.271695e+00
  1.849920e+01    1.278633e+00
  1.853095e+01    1.241444e+00
  1.856270e+01    1.268862e+00
  1.859445e+01    1.257699e+00
  1.862620e+01    1.233654e+00
  1.865796e+01    1.248357e+00
  1.868971e+01    1.221361e+00
  1.872146e+01    1.221849e+00
  1.875321e+01    1.234622e+00
  1.878496e+01    1.223088e+00
  1.881671e+01    1.225837e+00
  1.884846e+01    1.215308e+00
  1.888021e+01    1.220249e+00
  1.891196e+01    1.218719e+00
  1.894372e+01    1.202076e+00
  1.897547e+01    1.198909e+00
  1.900722e+01    1.218632e+00
  1.903897e+01    1.194578e+00
  1.907072e+01    1.187791e+00
  1.910247e+01    1.204403e+00
  1.913422e+01    1.232117e+00
  1.916597e+01    1.173581e+00
  1.919773e+01    1.185744e+00
  1.922948e+01    1.189128e+00
  1.926123e+01    1.190829e+00
  1.929298e+01    1.211798e+00
  1.932473e+01    1.218252e+00
  1.935648e+01    1.193364e+00
  1.938823e+01    1.182635e+00
  1.941998e+01    1.186250e+00
  1.945173e+01    1.175752e+00
  1.948349e+01    1.173027e+00
  1.951524e+01    1.150348e+00
  1.954699e+01    1.171482e+00
  1.957874e+01    1.144503e+00
  1.961049e+01    1.151291e+00
  1.964224e+01    1.152146e+00
  1.967399e+01    1.168412e+00
  1.970574e+01    1.139755e+00
  1.973749e+01    1.158934e+00
  1.976925e+01    1.121199e+00
  1.980100e+01    1.161694e+00
  1.983275e+01    1.137137e+00
  1.986450e+01    1.159456e+00
  1.989625e+01    1.140077e+00
  1.992800e+01    1.113819e+00
  1.995975e+01    1.145265e+00
  1.999150e+01    1.131985e+00
  2.002325e+01    1.124231e+00
  2.005501e+01    1.121371e+00
  2.008676e+01    1.130768e+00
  2.011851e+01    1.117635e+00
  2.015026e+01    1.106918e+00
  2.018201e+01    1.129676e+00
  2.021376e+01    1.104526e+00
  2.024551e+01    1.097088e+00
  2.027726e+01    1.106184e+00
  2.030902e+01    1.129762e+00
  2.034077e+01    1.090382e+00
  2.037252e+01    1.079984e+00
  2.040427e+01    1.096026e+00
  2.043602e+01    1.083281e+00
  2.046777e+01    1.107893e+00
  2.049952e+01    1.088586e+00
  2.053127e+01    1.102303e+00
  2.056302e+01    1.088045e+00
  2.059478e+01    1.110691e+00
  2.062653e+01    1.105493e+00
  2.065828e+01    1.109581e+00
  2.069003e+01    1.083984e+00
  2.072178e+01    1.103215e+00
  2.075353e+01    1.109198e+00
  2.078528e+01    1.093972e+00
  2.081703e+01    1.097861e+00
  2.084878e+01    1.081956e+00
  2.088054e+01    1.084979e+00
  2.091229e+01    1.086971e+00
  2.094404e+01    1.077919e+00
  2.097579e+01    1.085045e+00
  2.100754e+01    1.062767e+00
  2.103929e+01    1.058828e+00
  2.107104e+01    1.074535e+00
  2.110279e+01    1.099878e+00
  2.113455e+01    1.100047e+00
  2.116630e+01    1.109805e+00
  2.119805e+01    1.107270e+00
  2.122980e+01    1.094575e+00
  2.126155e+01    1.117751e+00
  2.129330e+01    1.133805e+00
  2.132505e+01    1.140535e+00
  2.135680e+01    1.143297e+00
  2.138855e+01    1.167101e+00
  2.142031e+01    1.171663e+00
  2.145206e+01    1.232812e+00
  2.148381e+01    1.245214e+00
  2.151556e+01    1.326840e+00
  2.154731e+01    1.346977e+00
  2.157906e+01    1.448175e+00
  2.161081e+01    1.578486e+00
  2.164256e+01    1.752463e+00
  2.167431e+01    2.006348e+00
  2.170607e+01    2.388378e+00
  2.173782e+01    2.992724e+00
  2.176957e+01    3.804758e+00
  2.180132e+01    5.161341e+00
  2.183307e+01    6.558796e+00
  2.186482e+01    8.150352e+00
  2.189657e+01    9.734992e+00
  2.192832e+01    1.036111e+01
  2.196007e+01    9.256213e+00
  2.199183e+01    7.119656e+00
  2.202358e+01    5.070810e+00
  2.205533e+01    3.746795e+00
  2.208708e+01    2.867007e+00
  2.211883e+01    2.338505e+00
  2.215058e+01    1.925615e+00
  2.218233e+01    1.673833e+00
  2.221408e+01    1.531591e+00
  2.224584e+01    1.419217e+00
  2.227759e+01    1.287749e+00
  2.230934e+01    1.222407e+00
  2.234109e+01    1.195968e+00
  2.237284e+01    1.150091e+00
  2.240459e+01    1.127000e+00
  2.243634e+01    1.102490e+00
  2.246809e+01    1.091478e+00
  2.249984e+01    1.057907e+00
  2.253160e+01    1.027663e+00
  2.256335e+01    9.924131e-01
  2.259510e+01    9.976428e-01
  2.262685e+01    9.951569e-01
  2.265860e+01    9.869924e-01
  2.269035e+01    9.886827e-01
  2.272210e+01    9.825335e-01
  2.275385e+01    9.635333e-01
  2.278560e+01    9.426997e-01
  2.281736e+01    9.536891e-01
  2.284911e+01    9.457116e-01
  2.288086e+01    9.439828e-01
  2.291261e+01    9.366850e-01
  2.294436e+01    9.171837e-01
  2.297611e+01    9.105734e-01
  2.300786e+01    8.999716e-01
  2.303961e+01    9.059491e-01
  2.307137e+01    9.158474e-01
  2.310312e+01    9.096050e-01
  2.313487e+01    8.908690e-01
  2.316662e+01    8.906397e-01
  2.319837e+01    8.773707e-01
  2.323012e+01    8.748654e-01
  2.326187e+01    8.841816e-01
  2.329362e+01    8.899674e-01
  2.332537e+01    8.604299e-01
  2.335713e+01    8.630208e-01
  2.338888e+01    8.601672e-01
  2.342063e+01    8.505541e-01
  2.345238e+01    8.647618e-01
  2.348413e+01    8.633787e-01
  2.351588e+01    8.365820e-01
  2.354763e+01    8.727411e-01
  2.357938e+01    8.406826e-01
  2.361113e+01    8.339280e-01
  2.364289e+01    8.466232e-01
  2.367464e+01    8.195128e-01
  2.370639e+01    8.611003e-01
  2.373814e+01    8.476987e-01
  2.376989e+01    8.216954e-01
  2.380164e+01    8.146272e-01
  2.383339e+01    7.982333e-01
  2.386514e+01    8.065957e-01
  2.389689e+01    7.987452e-01
  2.392865e+01    8.036842e-01
  2.396040e+01    7.965425e-01
  2.399215e+01    8.049573e-01
  2.402390e+01    7.950919e-01
  2.405565e+01    7.858731e-01
  2.408740e+01    7.921571e-01
  2.411915e+01    7.763504e-01
  2.415090e+01    7.793310e-01
  2.418266e+01    7.835689e-01
  2.421441e+01    7.615958e-01
  2.424616e+01    7.853540e-01
  2.427791e+01    7.967325e-01
  2.430966e+01    8.105810e-01
  2.434141e+01    7.868730e-01
  2.437316e+01    8.197603e-01
  2.440491e+01    8.062836e-01
  2.443666e+01    7.829668e-01
  2.446842e+01    8.119356e-01
  2.450017e+01    8.093733e-01
  2.453192e+01    8.121877e-01
  2.456367e+01    8.174483e-01
  2.459542e+01    7.828956e-01
  2.462717e+01    7.882900e-01
  2.465892e+01    8.031979e-01
  2.469067e+01    7.825559e-01
  2.472242e+01    8.028128e-01
  2.475418e+01    8.028554e-01
  2.478593e+01    8.134596e-01
  2.481768e+01    7.976863e-01
  2.484943e+01    8.257211e-01
  2.488118e+01    7.859957e-01
  2.491293e+01    8.045643e-01
  2.494468e+01    8.178522e-01
  2.497643e+01    8.007513e-01
  2.500819e+01    8.275456e-01
  2.503994e+01    8.230954e-01
  2.507169e+01    8.169556e-01
  2.510344e+01    8.101530e-01
  2.513519e+01    8.310111e-01
  2.516694e+01    8.309658e-01
  2.519869e+01    8.187642e-01
  2.523044e+01    8.405865e-01
  2.526219e+01    8.515075e-01
  2.529395e+01    8.671659e-01
  2.532570e+01    9.016991e-01
  2.535745e+01    8.860931e-01
  2.538920e+01    9.037979e-01
  2.542095e+01    9.238766e-01
  2.545270e+01    9.144851e-01
  2.548445e+01    9.573342e-01
  2.551620e+01    9.942962e-01
  2.554795e+01    1.005572e+00
  2.557971e+01    1.047939e+00
  2.561146e+01    1.090124e+00
  2.564321e+01    1.194320e+00
  2.567496e+01    1.277391e+00
  2.570671e+01    1.446187e+00
  2.573846e+01    1.620226e+00
  2.577021e+01    1.950436e+00
  2.580196e+01    2.385967e+00
  2.583371e+01    2.961466e+00
  2.586547e+01    3.928504e+00
  2.589722e+01    5.197836e+00
  2.592897e+01    6.647502e+00
  2.596072e+01    7.996583e+00
  2.599247e+01    8.588800e+00
  2.602422e+01    7.930393e+00
  2.605597e+01    6.346217e+00
  2.608772e+01    4.623672e+00
  2.611948e+01    3.431813e+00
  2.615123e+01    2.616206e+00
  2.618298e+01    2.103498e+00
  2.621473e+01    1.768714e+00
  2.624648e+01    1.525084e+00
  2.627823e+01    1.360359e+00
  2.630998e+01    1.250708e+00
  2.634173e+01    1.152996e+00
  2.637348e+01    1.101554e+00
  2.640524e+01    1.038696e+00
  2.643699e+01    1.024243e+00
  2.646874e+01    1.000091e+00
  2.650049e+01    9.814301e-01
  2.653224e+01    9.637555e-01
  2.656399e+01    9.493787e-01
  2.659574e+01    9.309969e-01
  2.662749e+01    9.417898e-01
  2.665924e+01    9.089240e-01
  2.669100e+01    9.014716e-01
  2.672275e+01    9.075311e-01
  2.675450e+01    9.226145e-01
  2.678625e+01    9.001968e-01
  2.681800e+01    9.052844e-01
  2.684975e+01    8.870934e-01
  2.688150e+01    9.280844e-01
  2.691325e+01    9.391904e-01
  2.694501e+01    9.613845e-01
  2.697676e+01    9.841011e-01
  2.700851e+01    1.031061e+00
  2.704026e+01    1.049261e+00
  2.707201e+01    1.156430e+00
  2.710376e+01    1.316368e+00
  2.713551e+01    1.483129e+00
  2.716726e+01    1.798274e+00
  2.719901e+01    2.112881e+00
  2.723077e+01    2.413897e+00
  2.726252e+01    2.499495e+00
  2.729427e+01    2.245520e+00
  2.732602e+01    1.875247e+00
  2.735777e+01    1.571097e+00
  2.738952e+01    1.344407e+00
  2.742127e+01    1.172978e+00
  2.745302e+01    1.086254e+00
  2.748477e+01    1.036212e+00
  2.751653e+01    9.411911e-01
  2.754828e+01    9.091989e-01
  2.758003e+01    8.912601e-01
  2.761178e+01    8.984054e-01
  2.764353e+01    8.634683e-01
  2.767528e+01    8.461301e-01
  2.770703e+01    8.268457e-01
  2.773878e+01    8.434742e-01
  2.777054e+01    8.402421e-01
  2.780229e+01    8.224961e-01
  2.783404e+01    8.228498e-01
  2.786579e+01    8.068190e-01
  2.789754e+01    8.196843e-01
  2.792929e+01    8.195164e-01
  2.796104e+01    8.176038e-01
  2.799279e+01    7.805871e-01
  2.802454e+01    7.727189e-01
  2.805630e+01    8.089084e-01
  2.808805e+01    7.833791e-01
  2.811980e+01    7.832754e-01
  2.815155e+01    7.843150e-01
  2.818330e+01    7.863969e-01
  2.821505e+01    7.859724e-01
  2.824680e+01    7.805558e-01
  2.827855e+01    7.651417e-01
  2.831030e+01    7.677201e-01
  2.834206e+01    7.764463e-01
  2.837381e+01    7.795892e-01
  2.840556e+01    7.717888e-01
  2.843731e+01    7.753613e-01
  2.846906e+01    7.686400e-01
  2.850081e+01    7.695549e-01
  2.853256e+01    7.720602e-01
  2.856431e+01    7.592217e-01
  2.859606e+01    7.588516e-01
  2.862782e+01    7.659591e-01
  2.865957e+01    7.643108e-01
  2.869132e+01    7.482365e-01
  2.872307e+01    7.463430e-01
  2.875482e+01    7.438400e-01
  2.878657e+01    7.422009e-01
  2.881832e+01    7.304167e-01
  2.885007e+01    7.492933e-01
  2.888183e+01    7.409899e-01
  2.891358e+01    7.594321e-01
  2.894533e+01    7.648209e-01
  2.897708e+01    7.660223e-01
  2.900883e+01    7.305972e-01
  2.904058e+01    7.579920e-01
  2.907233e+01    7.576364e-01
  2.910408e+01    7.515693e-01
  2.913583e+01    7.547928e-01
  2.916759e+01    7.338096e-01
  2.919934e+01    7.483033e-01
  2.923109e+01    7.285624e-01
  2.926284e+01    7.290635e-01
  2.929459e+01    7.532243e-01
  2.932634e+01    7.328365e-01
  2.935809e+01    7.280741e-01
  2.938984e+01    7.445652e-01
  2.942159e+01    7.168897e-01
  2.945335e+01    7.303970e-01
  2.948510e+01    7.311445e-01
  2.951685e+01    7.226332e-01
  2.954860e+01    7.337975e-01
  2.958035e+01    7.247360e-01
  2.961210e+01    7.201412e-01
  2.964385e+01    7.316875e-01
  2.967560e+01    7.222102e-01
  2.970736e+01    7.381416e-01
  2.973911e+01    7.237779e-01
  2.977086e+01    7.276794e-01
  2.980261e+01    7.348730e-01
  2.983436e+01    7.496307e-01
  2.986611e+01    7.282249e-01
  2.989786e+01    7.292173e-01
  2.992961e+01    7.233552e-01
  2.996136e+01    7.159728e-01
  2.999312e+01    7.389404e-01
  3.002487e+01    7.399274e-01
  3.005662e+01    7.477140e-01
  3.008837e+01    7.426083e-01
  3.012012e+01    7.325014e-01
  3.015187e+01    7.482845e-01
  3.018362e+01    7.051808e-01
  3.021537e+01    7.252501e-01
  3.024712e+01    7.111813e-01
  3.027888e+01    7.254650e-01
  3.031063e+01    7.188587e-01
  3.034238e+01    6.963034e-01
  3.037413e+01    6.992509e-01
  3.040588e+01    7.210139e-01
  3.043763e+01    7.129562e-01
  3.046938e+01    7.385280e-01
  3.050113e+01    7.222742e-01
  3.053288e+01    7.261702e-01
  3.056464e+01    7.054955e-01
  3.059639e+01    6.948851e-01
  3.062814e+01    7.146779e-01
  3.065989e+01    7.262231e-01
  3.069164e+01    7.231349e-01
  3.072339e+01    7.246497e-01
  3.075514e+01    6.959819e-01
  3.078689e+01    6.986701e-01
  3.081865e+01    6.910403e-01
  3.085040e+01    7.241099e-01
  3.088215e+01    7.365047e-01
  3.091390e+01    7.471065e-01
  3.094565e+01    7.215997e-01
  3.097740e+01    7.504648e-01
  3.100915e+01    7.240104e-01
  3.104090e+01    7.197136e-01
  3.107265e+01    7.200661e-01
  3.110441e+01    7.183152e-01
  3.113616e+01    7.330163e-01
  3.116791e+01    7.490067e-01
  3.119966e+01    7.321871e-01
  3.123141e+01    7.364514e-01
  3.126316e+01    7.489439e-01
  3.129491e+01    7.486396e-01
  3.132666e+01    7.122938e-01
  3.135841e+01    7.292250e-01
  3.139017e+01    7.521177e-01
  3.142192e+01    7.572107e-01
  3.145367e+01    7.602807e-01
  3.148542e+01    7.538787e-01
  3.151717e+01    7.774006e-01
  3.154892e+01    7.795970e-01
  3.158067e+01    8.119888e-01
  3.161242e+01    8.204878e-01
  3.164418e+01    8.425050e-01
  3.167593e+01    8.788161e-01
  3.170768e+01    9.420534e-01
  3.173943e+01    9.913713e-01
  3.177118e+01    1.079916e+00
  3.180293e+01    1.277714e+00
  3.183468e+01    1.495454e+00
  3.186643e+01    1.775829e+00
  3.189818e+01    2.169816e+00
  3.192994e+01    2.410764e+00
  3.196169e+01    2.422440e+00
  3.199344e+01    2.199214e+00
  3.202519e+01    1.837793e+00
  3.205694e+01    1.520629e+00
  3.208869e+01    1.219069e+00
  3.212044e+01    1.071776e+00
  3.215219e+01    1.001456e+00
  3.218394e+01    9.440697e-01
  3.221570e+01    8.877995e-01
  3.224745e+01    8.188470e-01
  3.227920e+01    8.168576e-01
  3.231095e+01    7.820904e-01
  3.234270e+01    7.972152e-01
  3.237445e+01    7.446623e-01
  3.240620e+01    7.413883e-01
  3.243795e+01    7.402426e-01
  3.246970e+01    7.268046e-01
  3.250146e+01    7.225510e-01
  3.253321e+01    7.377260e-01
  3.254908e+01    7.489226e-01