File: XRD/2024-07-27_002_Ru-CGO-ex_Activtation_ramp_000002_data_000040.dat
# == pyFAI calibration ==
# Distance Sample to Detector: 0.4 m
# PONI: 9.750e-02, 1.135e-01 m
# Rotations: -0.000175 0.000000 -0.000000 rad
#
# == Fit2d calibration ==
# Distance Sample-beamCenter: 400.000 mm
# Center: x=1514.000, y=1300.000 pix
# Tilt: 0.010 deg  TiltPlanRot: 0.010 deg
#
# Detector Detector	 Spline= None	 PixelSize= 7.500e-05, 7.500e-05 m
#    Detector has a mask: False
#    Detector has a dark current: False
#    detector has a flat field: False
#
# Wavelength: 6.888e-11 m
# Mask applied: user provided
# Dark current applied: False
# Flat field applied: False
# Polarization factor: 0.99
# Normalization factor: 1.0
# --> /home/myspot/data/2024_07_Rosario/Ru-CGO-ex/2024-07-27_002_Ru-CGO-ex_Activtation_ramp_000002_data_000040.dat
#       q_nm^-1             I
  2.003187e-02    0.000000e+00
  5.178302e-02    4.717781e-02
  8.353417e-02    1.067309e-01
  1.152853e-01    3.059550e-02
  1.470365e-01    4.865648e-02
  1.787876e-01    3.816683e-02
  2.105388e-01    3.555913e-02
  2.422899e-01    3.930914e-02
  2.740411e-01    1.484133e-02
  3.057922e-01    9.170272e-02
  3.375433e-01    4.171021e-02
  3.692945e-01    2.112065e-02
  4.010456e-01    2.473124e-02
  4.327968e-01    3.160605e-02
  4.645479e-01    2.830587e-02
  4.962991e-01    3.661960e-02
  5.280502e-01    4.204399e-02
  5.598014e-01    3.253147e-02
  5.915525e-01    4.736025e-02
  6.233037e-01    5.756371e-02
  6.550548e-01    5.963308e-02
  6.868060e-01    4.471717e-02
  7.185571e-01    5.962891e-02
  7.503083e-01    7.398225e-02
  7.820594e-01    1.212658e-01
  8.138106e-01    1.617762e-01
  8.455617e-01    3.089398e-01
  8.773129e-01    4.988677e-01
  9.090640e-01    5.866295e-01
  9.408152e-01    6.851605e-01
  9.725663e-01    9.968220e-01
  1.004317e+00    1.027955e+00
  1.036069e+00    1.183107e+00
  1.067820e+00    1.284724e+00
  1.099571e+00    1.393750e+00
  1.131322e+00    1.419902e+00
  1.163073e+00    1.448931e+00
  1.194824e+00    1.593326e+00
  1.226575e+00    2.060971e+00
  1.258327e+00    2.149169e+00
  1.290078e+00    2.471278e+00
  1.321829e+00    2.723905e+00
  1.353580e+00    2.601222e+00
  1.385331e+00    2.667496e+00
  1.417082e+00    2.851961e+00
  1.448834e+00    2.671061e+00
  1.480585e+00    2.903027e+00
  1.512336e+00    2.979319e+00
  1.544087e+00    3.034805e+00
  1.575838e+00    2.955229e+00
  1.607589e+00    2.981135e+00
  1.639340e+00    2.873912e+00
  1.671092e+00    3.027413e+00
  1.702843e+00    2.963935e+00
  1.734594e+00    2.812845e+00
  1.766345e+00    2.870065e+00
  1.798096e+00    2.875095e+00
  1.829847e+00    2.990641e+00
  1.861598e+00    2.664901e+00
  1.893350e+00    2.796663e+00
  1.925101e+00    2.756812e+00
  1.956852e+00    2.822328e+00
  1.988603e+00    2.769180e+00
  2.020354e+00    2.717893e+00
  2.052105e+00    2.842294e+00
  2.083856e+00    2.773459e+00
  2.115608e+00    2.722789e+00
  2.147359e+00    2.792864e+00
  2.179110e+00    2.801106e+00
  2.210861e+00    2.853155e+00
  2.242612e+00    2.743663e+00
  2.274363e+00    2.842820e+00
  2.306115e+00    2.831933e+00
  2.337866e+00    2.886333e+00
  2.369617e+00    2.815870e+00
  2.401368e+00    2.750742e+00
  2.433119e+00    2.827622e+00
  2.464870e+00    2.853772e+00
  2.496621e+00    2.951160e+00
  2.528373e+00    2.839908e+00
  2.560124e+00    2.940353e+00
  2.591875e+00    2.731013e+00
  2.623626e+00    2.839512e+00
  2.655377e+00    2.864919e+00
  2.687128e+00    2.887346e+00
  2.718879e+00    2.796417e+00
  2.750631e+00    2.728553e+00
  2.782382e+00    2.896838e+00
  2.814133e+00    2.818546e+00
  2.845884e+00    2.843639e+00
  2.877635e+00    2.784286e+00
  2.909386e+00    2.831773e+00
  2.941137e+00    2.859610e+00
  2.972889e+00    2.891266e+00
  3.004640e+00    2.866380e+00
  3.036391e+00    2.894741e+00
  3.068142e+00    3.065520e+00
  3.099893e+00    2.813062e+00
  3.131644e+00    2.927674e+00
  3.163395e+00    2.896969e+00
  3.195147e+00    2.941128e+00
  3.226898e+00    3.007898e+00
  3.258649e+00    3.021610e+00
  3.290400e+00    2.959264e+00
  3.322151e+00    3.018811e+00
  3.353902e+00    2.928226e+00
  3.385654e+00    2.795182e+00
  3.417405e+00    2.913714e+00
  3.449156e+00    2.936228e+00
  3.480907e+00    3.073153e+00
  3.512658e+00    2.920774e+00
  3.544409e+00    2.965808e+00
  3.576160e+00    2.957068e+00
  3.607912e+00    3.044346e+00
  3.639663e+00    3.021766e+00
  3.671414e+00    2.933645e+00
  3.703165e+00    3.014852e+00
  3.734916e+00    3.038577e+00
  3.766667e+00    2.961441e+00
  3.798418e+00    3.006641e+00
  3.830170e+00    2.943015e+00
  3.861921e+00    2.960656e+00
  3.893672e+00    3.015760e+00
  3.925423e+00    3.017669e+00
  3.957174e+00    2.961496e+00
  3.988925e+00    3.024034e+00
  4.020676e+00    3.015100e+00
  4.052428e+00    3.004652e+00
  4.084179e+00    2.994114e+00
  4.115930e+00    2.975779e+00
  4.147681e+00    2.988502e+00
  4.179432e+00    3.110321e+00
  4.211183e+00    3.039483e+00
  4.242935e+00    3.056388e+00
  4.274686e+00    2.987276e+00
  4.306437e+00    3.076468e+00
  4.338188e+00    2.973813e+00
  4.369939e+00    3.075198e+00
  4.401690e+00    3.102426e+00
  4.433441e+00    3.045840e+00
  4.465193e+00    3.069088e+00
  4.496944e+00    3.094510e+00
  4.528695e+00    3.129320e+00
  4.560446e+00    3.113725e+00
  4.592197e+00    3.087892e+00
  4.623948e+00    3.070212e+00
  4.655699e+00    3.081534e+00
  4.687451e+00    3.138715e+00
  4.719202e+00    3.065659e+00
  4.750953e+00    3.281662e+00
  4.782704e+00    3.059190e+00
  4.814455e+00    3.077173e+00
  4.846206e+00    3.133236e+00
  4.877957e+00    3.057677e+00
  4.909709e+00    3.183801e+00
  4.941460e+00    3.106555e+00
  4.973211e+00    3.090933e+00
  5.004962e+00    3.094144e+00
  5.036713e+00    3.158594e+00
  5.068464e+00    3.131062e+00
  5.100216e+00    3.033994e+00
  5.131967e+00    3.205932e+00
  5.163718e+00    3.132293e+00
  5.195469e+00    3.092227e+00
  5.227220e+00    3.031603e+00
  5.258971e+00    3.120504e+00
  5.290722e+00    3.119395e+00
  5.322474e+00    3.200506e+00
  5.354225e+00    3.093787e+00
  5.385976e+00    3.136668e+00
  5.417727e+00    3.074163e+00
  5.449478e+00    3.045364e+00
  5.481229e+00    3.127889e+00
  5.512980e+00    3.035581e+00
  5.544732e+00    3.193521e+00
  5.576483e+00    3.110046e+00
  5.608234e+00    3.121547e+00
  5.639985e+00    3.010924e+00
  5.671736e+00    3.007144e+00
  5.703487e+00    3.111678e+00
  5.735238e+00    3.084909e+00
  5.766990e+00    3.031686e+00
  5.798741e+00    2.989322e+00
  5.830492e+00    3.161242e+00
  5.862243e+00    2.973741e+00
  5.893994e+00    2.994252e+00
  5.925745e+00    3.067841e+00
  5.957497e+00    3.055862e+00
  5.989248e+00    3.052372e+00
  6.020999e+00    3.080350e+00
  6.052750e+00    3.101252e+00
  6.084501e+00    2.961891e+00
  6.116252e+00    3.043118e+00
  6.148003e+00    3.136976e+00
  6.179755e+00    3.070692e+00
  6.211506e+00    3.027197e+00
  6.243257e+00    2.976628e+00
  6.275008e+00    3.019011e+00
  6.306759e+00    2.982131e+00
  6.338510e+00    3.026702e+00
  6.370261e+00    3.048741e+00
  6.402013e+00    3.111852e+00
  6.433764e+00    3.026513e+00
  6.465515e+00    3.036568e+00
  6.497266e+00    3.060744e+00
  6.529017e+00    3.031257e+00
  6.560768e+00    3.093713e+00
  6.592519e+00    3.038983e+00
  6.624271e+00    3.066931e+00
  6.656022e+00    3.068350e+00
  6.687773e+00    3.053298e+00
  6.719524e+00    3.083122e+00
  6.751275e+00    3.042017e+00
  6.783026e+00    3.048373e+00
  6.814777e+00    3.021421e+00
  6.846529e+00    3.014869e+00
  6.878280e+00    3.051570e+00
  6.910031e+00    3.002809e+00
  6.941782e+00    3.091381e+00
  6.973533e+00    3.028971e+00
  7.005284e+00    3.077682e+00
  7.037036e+00    3.072512e+00
  7.068787e+00    2.990767e+00
  7.100538e+00    3.007782e+00
  7.132289e+00    3.005124e+00
  7.164040e+00    2.992454e+00
  7.195791e+00    2.992910e+00
  7.227542e+00    2.932065e+00
  7.259294e+00    2.956633e+00
  7.291045e+00    3.060564e+00
  7.322796e+00    2.984253e+00
  7.354547e+00    2.989462e+00
  7.386298e+00    2.972788e+00
  7.418049e+00    3.006296e+00
  7.449800e+00    3.091046e+00
  7.481552e+00    3.046041e+00
  7.513303e+00    3.021317e+00
  7.545054e+00    2.908746e+00
  7.576805e+00    3.038515e+00
  7.608556e+00    2.948059e+00
  7.640307e+00    2.995329e+00
  7.672058e+00    2.986224e+00
  7.703810e+00    2.943222e+00
  7.735561e+00    2.906797e+00
  7.767312e+00    2.903950e+00
  7.799063e+00    2.996581e+00
  7.830814e+00    2.939871e+00
  7.862565e+00    2.967540e+00
  7.894317e+00    2.959013e+00
  7.926068e+00    2.946100e+00
  7.957819e+00    2.918345e+00
  7.989570e+00    2.864163e+00
  8.021321e+00    2.925579e+00
  8.053072e+00    2.942000e+00
  8.084823e+00    2.912402e+00
  8.116575e+00    3.007878e+00
  8.148326e+00    2.946963e+00
  8.180077e+00    3.013420e+00
  8.211828e+00    2.956420e+00
  8.243579e+00    2.950616e+00
  8.275330e+00    2.942129e+00
  8.307081e+00    2.955923e+00
  8.338833e+00    2.945290e+00
  8.370584e+00    2.925545e+00
  8.402335e+00    2.898470e+00
  8.434086e+00    2.853502e+00
  8.465837e+00    2.881630e+00
  8.497588e+00    2.901188e+00
  8.529339e+00    2.847800e+00
  8.561091e+00    2.942878e+00
  8.592842e+00    2.909974e+00
  8.624593e+00    2.851317e+00
  8.656344e+00    2.881958e+00
  8.688095e+00    2.798971e+00
  8.719846e+00    2.887333e+00
  8.751598e+00    2.807624e+00
  8.783349e+00    2.893582e+00
  8.815100e+00    2.882767e+00
  8.846851e+00    2.791527e+00
  8.878602e+00    2.874499e+00
  8.910353e+00    2.803989e+00
  8.942104e+00    2.884604e+00
  8.973856e+00    2.810487e+00
  9.005607e+00    2.880427e+00
  9.037358e+00    2.855150e+00
  9.069109e+00    2.782883e+00
  9.100860e+00    2.842293e+00
  9.132611e+00    2.812649e+00
  9.164362e+00    2.834519e+00
  9.196114e+00    2.810679e+00
  9.227865e+00    2.828497e+00
  9.259616e+00    2.784207e+00
  9.291367e+00    2.811496e+00
  9.323118e+00    2.742211e+00
  9.354869e+00    2.759626e+00
  9.386620e+00    2.799845e+00
  9.418372e+00    2.743055e+00
  9.450123e+00    2.748679e+00
  9.481874e+00    2.730992e+00
  9.513625e+00    2.751680e+00
  9.545376e+00    2.772435e+00
  9.577127e+00    2.779815e+00
  9.608878e+00    2.716441e+00
  9.640630e+00    2.815927e+00
  9.672381e+00    2.766854e+00
  9.704132e+00    2.752194e+00
  9.735883e+00    2.752982e+00
  9.767634e+00    2.680336e+00
  9.799385e+00    2.751974e+00
  9.831137e+00    2.753929e+00
  9.862888e+00    2.730016e+00
  9.894639e+00    2.745802e+00
  9.926390e+00    2.669093e+00
  9.958141e+00    2.658174e+00
  9.989892e+00    2.661991e+00
  1.002164e+01    2.710281e+00
  1.005339e+01    2.707929e+00
  1.008515e+01    2.697872e+00
  1.011690e+01    2.642565e+00
  1.014865e+01    2.671029e+00
  1.018040e+01    2.730991e+00
  1.021215e+01    2.640813e+00
  1.024390e+01    2.637372e+00
  1.027565e+01    2.658565e+00
  1.030740e+01    2.656361e+00
  1.033915e+01    2.593185e+00
  1.037091e+01    2.581765e+00
  1.040266e+01    2.583007e+00
  1.043441e+01    2.605893e+00
  1.046616e+01    2.653606e+00
  1.049791e+01    2.642881e+00
  1.052966e+01    2.573415e+00
  1.056141e+01    2.600438e+00
  1.059316e+01    2.593517e+00
  1.062492e+01    2.558579e+00
  1.065667e+01    2.621128e+00
  1.068842e+01    2.593163e+00
  1.072017e+01    2.561668e+00
  1.075192e+01    2.556184e+00
  1.078367e+01    2.540474e+00
  1.081542e+01    2.500707e+00
  1.084717e+01    2.513929e+00
  1.087892e+01    2.569294e+00
  1.091068e+01    2.572572e+00
  1.094243e+01    2.550224e+00
  1.097418e+01    2.506872e+00
  1.100593e+01    2.515949e+00
  1.103768e+01    2.471275e+00
  1.106943e+01    2.496522e+00
  1.110118e+01    2.492802e+00
  1.113293e+01    2.512728e+00
  1.116468e+01    2.456649e+00
  1.119644e+01    2.477641e+00
  1.122819e+01    2.502033e+00
  1.125994e+01    2.438130e+00
  1.129169e+01    2.404551e+00
  1.132344e+01    2.415107e+00
  1.135519e+01    2.456088e+00
  1.138694e+01    2.424144e+00
  1.141869e+01    2.426578e+00
  1.145045e+01    2.415958e+00
  1.148220e+01    2.411016e+00
  1.151395e+01    2.461130e+00
  1.154570e+01    2.427929e+00
  1.157745e+01    2.372668e+00
  1.160920e+01    2.367494e+00
  1.164095e+01    2.397860e+00
  1.167270e+01    2.354181e+00
  1.170445e+01    2.426531e+00
  1.173621e+01    2.365736e+00
  1.176796e+01    2.346771e+00
  1.179971e+01    2.334599e+00
  1.183146e+01    2.388122e+00
  1.186321e+01    2.321765e+00
  1.189496e+01    2.371636e+00
  1.192671e+01    2.360705e+00
  1.195846e+01    2.328879e+00
  1.199021e+01    2.378034e+00
  1.202197e+01    2.332051e+00
  1.205372e+01    2.368949e+00
  1.208547e+01    2.319012e+00
  1.211722e+01    2.347518e+00
  1.214897e+01    2.318164e+00
  1.218072e+01    2.391462e+00
  1.221247e+01    2.325652e+00
  1.224422e+01    2.327113e+00
  1.227597e+01    2.332876e+00
  1.230773e+01    2.333766e+00
  1.233948e+01    2.301949e+00
  1.237123e+01    2.354511e+00
  1.240298e+01    2.378995e+00
  1.243473e+01    2.362217e+00
  1.246648e+01    2.373536e+00
  1.249823e+01    2.398434e+00
  1.252998e+01    2.357537e+00
  1.256174e+01    2.357141e+00
  1.259349e+01    2.444365e+00
  1.262524e+01    2.409043e+00
  1.265699e+01    2.403943e+00
  1.268874e+01    2.499096e+00
  1.272049e+01    2.508956e+00
  1.275224e+01    2.549186e+00
  1.278399e+01    2.594236e+00
  1.281574e+01    2.776451e+00
  1.284750e+01    2.858272e+00
  1.287925e+01    3.064850e+00
  1.291100e+01    3.329520e+00
  1.294275e+01    3.656037e+00
  1.297450e+01    4.294578e+00
  1.300625e+01    5.180558e+00
  1.303800e+01    6.817531e+00
  1.306975e+01    9.191538e+00
  1.310150e+01    1.217792e+01
  1.313326e+01    1.495160e+01
  1.316501e+01    1.774932e+01
  1.319676e+01    1.938780e+01
  1.322851e+01    1.768566e+01
  1.326026e+01    1.338127e+01
  1.329201e+01    9.355209e+00
  1.332376e+01    6.808043e+00
  1.335551e+01    5.282468e+00
  1.338727e+01    4.353762e+00
  1.341902e+01    3.762292e+00
  1.345077e+01    3.297994e+00
  1.348252e+01    2.963101e+00
  1.351427e+01    2.787234e+00
  1.354602e+01    2.762644e+00
  1.357777e+01    2.578423e+00
  1.360952e+01    2.513264e+00
  1.364127e+01    2.415802e+00
  1.367303e+01    2.334615e+00
  1.370478e+01    2.312851e+00
  1.373653e+01    2.223628e+00
  1.376828e+01    2.249910e+00
  1.380003e+01    2.211675e+00
  1.383178e+01    2.169143e+00
  1.386353e+01    2.123628e+00
  1.389528e+01    2.161798e+00
  1.392703e+01    2.148103e+00
  1.395879e+01    2.071468e+00
  1.399054e+01    2.078402e+00
  1.402229e+01    2.105092e+00
  1.405404e+01    2.077297e+00
  1.408579e+01    2.032361e+00
  1.411754e+01    2.055725e+00
  1.414929e+01    2.029710e+00
  1.418104e+01    1.979500e+00
  1.421279e+01    2.038670e+00
  1.424455e+01    2.010967e+00
  1.427630e+01    1.983123e+00
  1.430805e+01    1.985820e+00
  1.433980e+01    1.974912e+00
  1.437155e+01    1.956078e+00
  1.440330e+01    1.980781e+00
  1.443505e+01    1.979392e+00
  1.446680e+01    1.993526e+00
  1.449856e+01    1.926341e+00
  1.453031e+01    1.939556e+00
  1.456206e+01    1.946966e+00
  1.459381e+01    1.959165e+00
  1.462556e+01    1.910573e+00
  1.465731e+01    1.909099e+00
  1.468906e+01    1.937740e+00
  1.472081e+01    1.927594e+00
  1.475256e+01    1.921705e+00
  1.478432e+01    1.930637e+00
  1.481607e+01    1.951127e+00
  1.484782e+01    1.883553e+00
  1.487957e+01    1.949442e+00
  1.491132e+01    1.983122e+00
  1.494307e+01    1.993918e+00
  1.497482e+01    2.071044e+00
  1.500657e+01    2.135130e+00
  1.503832e+01    2.260720e+00
  1.507008e+01    2.439524e+00
  1.510183e+01    2.758138e+00
  1.513358e+01    3.219258e+00
  1.516533e+01    3.953056e+00
  1.519708e+01    4.900595e+00
  1.522883e+01    5.568044e+00
  1.526058e+01    6.254758e+00
  1.529233e+01    6.559253e+00
  1.532409e+01    5.995720e+00
  1.535584e+01    4.844736e+00
  1.538759e+01    3.763991e+00
  1.541934e+01    3.059485e+00
  1.545109e+01    2.557859e+00
  1.548284e+01    2.331119e+00
  1.551459e+01    2.164381e+00
  1.554634e+01    2.043919e+00
  1.557809e+01    1.935498e+00
  1.560985e+01    1.893346e+00
  1.564160e+01    1.854788e+00
  1.567335e+01    1.785887e+00
  1.570510e+01    1.751921e+00
  1.573685e+01    1.732992e+00
  1.576860e+01    1.723802e+00
  1.580035e+01    1.707032e+00
  1.583210e+01    1.692606e+00
  1.586385e+01    1.676144e+00
  1.589561e+01    1.643139e+00
  1.592736e+01    1.676701e+00
  1.595911e+01    1.659044e+00
  1.599086e+01    1.637452e+00
  1.602261e+01    1.622588e+00
  1.605436e+01    1.637478e+00
  1.608611e+01    1.580785e+00
  1.611786e+01    1.615489e+00
  1.614961e+01    1.560255e+00
  1.618137e+01    1.579069e+00
  1.621312e+01    1.610414e+00
  1.624487e+01    1.588894e+00
  1.627662e+01    1.564697e+00
  1.630837e+01    1.549619e+00
  1.634012e+01    1.579040e+00
  1.637187e+01    1.555106e+00
  1.640362e+01    1.552392e+00
  1.643538e+01    1.567847e+00
  1.646713e+01    1.554182e+00
  1.649888e+01    1.509328e+00
  1.653063e+01    1.513594e+00
  1.656238e+01    1.532316e+00
  1.659413e+01    1.501772e+00
  1.662588e+01    1.477922e+00
  1.665763e+01    1.464410e+00
  1.668938e+01    1.498609e+00
  1.672114e+01    1.487667e+00
  1.675289e+01    1.523551e+00
  1.678464e+01    1.444486e+00
  1.681639e+01    1.453585e+00
  1.684814e+01    1.476757e+00
  1.687989e+01    1.460627e+00
  1.691164e+01    1.451006e+00
  1.694339e+01    1.461666e+00
  1.697514e+01    1.470523e+00
  1.700690e+01    1.433233e+00
  1.703865e+01    1.457626e+00
  1.707040e+01    1.440252e+00
  1.710215e+01    1.450750e+00
  1.713390e+01    1.427212e+00
  1.716565e+01    1.421472e+00
  1.719740e+01    1.405254e+00
  1.722915e+01    1.420327e+00
  1.726091e+01    1.416738e+00
  1.729266e+01    1.396009e+00
  1.732441e+01    1.374165e+00
  1.735616e+01    1.388519e+00
  1.738791e+01    1.372174e+00
  1.741966e+01    1.385432e+00
  1.745141e+01    1.381544e+00
  1.748316e+01    1.363878e+00
  1.751491e+01    1.352291e+00
  1.754667e+01    1.350437e+00
  1.757842e+01    1.354887e+00
  1.761017e+01    1.379231e+00
  1.764192e+01    1.357270e+00
  1.767367e+01    1.367408e+00
  1.770542e+01    1.364563e+00
  1.773717e+01    1.340396e+00
  1.776892e+01    1.359749e+00
  1.780067e+01    1.329202e+00
  1.783243e+01    1.339745e+00
  1.786418e+01    1.311146e+00
  1.789593e+01    1.325279e+00
  1.792768e+01    1.323595e+00
  1.795943e+01    1.333331e+00
  1.799118e+01    1.318467e+00
  1.802293e+01    1.312012e+00
  1.805468e+01    1.300721e+00
  1.808643e+01    1.315531e+00
  1.811819e+01    1.307289e+00
  1.814994e+01    1.309671e+00
  1.818169e+01    1.292867e+00
  1.821344e+01    1.288774e+00
  1.824519e+01    1.242541e+00
  1.827694e+01    1.272081e+00
  1.830869e+01    1.304145e+00
  1.834044e+01    1.276510e+00
  1.837220e+01    1.253185e+00
  1.840395e+01    1.281742e+00
  1.843570e+01    1.260794e+00
  1.846745e+01    1.288374e+00
  1.849920e+01    1.265030e+00
  1.853095e+01    1.250490e+00
  1.856270e+01    1.234079e+00
  1.859445e+01    1.255980e+00
  1.862620e+01    1.257523e+00
  1.865796e+01    1.259813e+00
  1.868971e+01    1.217351e+00
  1.872146e+01    1.259057e+00
  1.875321e+01    1.238753e+00
  1.878496e+01    1.236837e+00
  1.881671e+01    1.225430e+00
  1.884846e+01    1.206864e+00
  1.888021e+01    1.237158e+00
  1.891196e+01    1.223652e+00
  1.894372e+01    1.201148e+00
  1.897547e+01    1.219919e+00
  1.900722e+01    1.200759e+00
  1.903897e+01    1.193507e+00
  1.907072e+01    1.198335e+00
  1.910247e+01    1.213137e+00
  1.913422e+01    1.215099e+00
  1.916597e+01    1.179011e+00
  1.919773e+01    1.190537e+00
  1.922948e+01    1.179953e+00
  1.926123e+01    1.183564e+00
  1.929298e+01    1.173248e+00
  1.932473e+01    1.229898e+00
  1.935648e+01    1.177616e+00
  1.938823e+01    1.186318e+00
  1.941998e+01    1.180616e+00
  1.945173e+01    1.175405e+00
  1.948349e+01    1.162817e+00
  1.951524e+01    1.177181e+00
  1.954699e+01    1.180346e+00
  1.957874e+01    1.169482e+00
  1.961049e+01    1.151967e+00
  1.964224e+01    1.159162e+00
  1.967399e+01    1.153481e+00
  1.970574e+01    1.143628e+00
  1.973749e+01    1.150977e+00
  1.976925e+01    1.160618e+00
  1.980100e+01    1.154732e+00
  1.983275e+01    1.129548e+00
  1.986450e+01    1.166030e+00
  1.989625e+01    1.132842e+00
  1.992800e+01    1.128256e+00
  1.995975e+01    1.115316e+00
  1.999150e+01    1.121834e+00
  2.002325e+01    1.115240e+00
  2.005501e+01    1.133283e+00
  2.008676e+01    1.142425e+00
  2.011851e+01    1.135900e+00
  2.015026e+01    1.110339e+00
  2.018201e+01    1.121283e+00
  2.021376e+01    1.123507e+00
  2.024551e+01    1.108108e+00
  2.027726e+01    1.110510e+00
  2.030902e+01    1.074789e+00
  2.034077e+01    1.133067e+00
  2.037252e+01    1.087208e+00
  2.040427e+01    1.093920e+00
  2.043602e+01    1.137534e+00
  2.046777e+01    1.113516e+00
  2.049952e+01    1.107082e+00
  2.053127e+01    1.119380e+00
  2.056302e+01    1.112414e+00
  2.059478e+01    1.104257e+00
  2.062653e+01    1.081266e+00
  2.065828e+01    1.109190e+00
  2.069003e+01    1.092654e+00
  2.072178e+01    1.102043e+00
  2.075353e+01    1.090768e+00
  2.078528e+01    1.103485e+00
  2.081703e+01    1.106118e+00
  2.084878e+01    1.091463e+00
  2.088054e+01    1.073919e+00
  2.091229e+01    1.100632e+00
  2.094404e+01    1.096487e+00
  2.097579e+01    1.086423e+00
  2.100754e+01    1.089072e+00
  2.103929e+01    1.085833e+00
  2.107104e+01    1.087646e+00
  2.110279e+01    1.103652e+00
  2.113455e+01    1.113701e+00
  2.116630e+01    1.116576e+00
  2.119805e+01    1.115328e+00
  2.122980e+01    1.097998e+00
  2.126155e+01    1.134328e+00
  2.129330e+01    1.140059e+00
  2.132505e+01    1.142252e+00
  2.135680e+01    1.173898e+00
  2.138855e+01    1.203033e+00
  2.142031e+01    1.195306e+00
  2.145206e+01    1.230493e+00
  2.148381e+01    1.265494e+00
  2.151556e+01    1.295048e+00
  2.154731e+01    1.339822e+00
  2.157906e+01    1.445201e+00
  2.161081e+01    1.558380e+00
  2.164256e+01    1.690243e+00
  2.167431e+01    1.952588e+00
  2.170607e+01    2.334909e+00
  2.173782e+01    2.890257e+00
  2.176957e+01    3.705081e+00
  2.180132e+01    4.920129e+00
  2.183307e+01    6.429622e+00
  2.186482e+01    8.133700e+00
  2.189657e+01    9.835734e+00
  2.192832e+01    1.075287e+01
  2.196007e+01    1.017329e+01
  2.199183e+01    8.064793e+00
  2.202358e+01    5.782425e+00
  2.205533e+01    4.173429e+00
  2.208708e+01    3.155989e+00
  2.211883e+01    2.514812e+00
  2.215058e+01    2.103353e+00
  2.218233e+01    1.817020e+00
  2.221408e+01    1.627798e+00
  2.224584e+01    1.452736e+00
  2.227759e+01    1.368639e+00
  2.230934e+01    1.296773e+00
  2.234109e+01    1.218259e+00
  2.237284e+01    1.171954e+00
  2.240459e+01    1.143782e+00
  2.243634e+01    1.117286e+00
  2.246809e+01    1.071487e+00
  2.249984e+01    1.076347e+00
  2.253160e+01    1.053905e+00
  2.256335e+01    1.020505e+00
  2.259510e+01    1.031103e+00
  2.262685e+01    1.002509e+00
  2.265860e+01    9.840547e-01
  2.269035e+01    9.637883e-01
  2.272210e+01    9.682487e-01
  2.275385e+01    9.735249e-01
  2.278560e+01    9.802381e-01
  2.281736e+01    9.507840e-01
  2.284911e+01    9.674068e-01
  2.288086e+01    9.358594e-01
  2.291261e+01    9.308506e-01
  2.294436e+01    9.325590e-01
  2.297611e+01    9.375144e-01
  2.300786e+01    9.439638e-01
  2.303961e+01    9.028386e-01
  2.307137e+01    8.969981e-01
  2.310312e+01    9.028773e-01
  2.313487e+01    9.088998e-01
  2.316662e+01    9.001849e-01
  2.319837e+01    8.980105e-01
  2.323012e+01    8.892655e-01
  2.326187e+01    8.746166e-01
  2.329362e+01    8.686138e-01
  2.332537e+01    8.760579e-01
  2.335713e+01    8.804634e-01
  2.338888e+01    8.587683e-01
  2.342063e+01    8.761660e-01
  2.345238e+01    8.655124e-01
  2.348413e+01    8.639535e-01
  2.351588e+01    8.619399e-01
  2.354763e+01    8.629389e-01
  2.357938e+01    8.619154e-01
  2.361113e+01    8.616514e-01
  2.364289e+01    8.482789e-01
  2.367464e+01    8.388992e-01
  2.370639e+01    8.582615e-01
  2.373814e+01    8.294911e-01
  2.376989e+01    8.422955e-01
  2.380164e+01    8.395520e-01
  2.383339e+01    8.252241e-01
  2.386514e+01    8.252597e-01
  2.389689e+01    8.249303e-01
  2.392865e+01    8.155143e-01
  2.396040e+01    8.017529e-01
  2.399215e+01    8.035912e-01
  2.402390e+01    8.023757e-01
  2.405565e+01    8.102555e-01
  2.408740e+01    8.182297e-01
  2.411915e+01    8.008461e-01
  2.415090e+01    8.045009e-01
  2.418266e+01    7.745600e-01
  2.421441e+01    7.803329e-01
  2.424616e+01    7.931352e-01
  2.427791e+01    7.942986e-01
  2.430966e+01    7.943271e-01
  2.434141e+01    8.011268e-01
  2.437316e+01    8.128762e-01
  2.440491e+01    7.994981e-01
  2.443666e+01    8.005975e-01
  2.446842e+01    8.104137e-01
  2.450017e+01    8.067075e-01
  2.453192e+01    7.843028e-01
  2.456367e+01    7.938774e-01
  2.459542e+01    8.116921e-01
  2.462717e+01    7.947084e-01
  2.465892e+01    8.056071e-01
  2.469067e+01    8.117445e-01
  2.472242e+01    7.906774e-01
  2.475418e+01    7.987996e-01
  2.478593e+01    7.860044e-01
  2.481768e+01    7.934807e-01
  2.484943e+01    8.327246e-01
  2.488118e+01    7.933522e-01
  2.491293e+01    7.956461e-01
  2.494468e+01    8.060024e-01
  2.497643e+01    8.289245e-01
  2.500819e+01    8.110110e-01
  2.503994e+01    8.184205e-01
  2.507169e+01    8.239816e-01
  2.510344e+01    8.189605e-01
  2.513519e+01    8.347581e-01
  2.516694e+01    8.353615e-01
  2.519869e+01    8.575367e-01
  2.523044e+01    8.560974e-01
  2.526219e+01    8.493342e-01
  2.529395e+01    8.729193e-01
  2.532570e+01    8.840173e-01
  2.535745e+01    8.678579e-01
  2.538920e+01    9.162160e-01
  2.542095e+01    9.142960e-01
  2.545270e+01    9.187513e-01
  2.548445e+01    9.640425e-01
  2.551620e+01    9.768323e-01
  2.554795e+01    1.020022e+00
  2.557971e+01    1.065828e+00
  2.561146e+01    1.112615e+00
  2.564321e+01    1.160703e+00
  2.567496e+01    1.282910e+00
  2.570671e+01    1.385831e+00
  2.573846e+01    1.563204e+00
  2.577021e+01    1.862008e+00
  2.580196e+01    2.226631e+00
  2.583371e+01    2.824732e+00
  2.586547e+01    3.735818e+00
  2.589722e+01    4.962608e+00
  2.592897e+01    6.415843e+00
  2.596072e+01    7.915852e+00
  2.599247e+01    8.859869e+00
  2.602422e+01    8.660051e+00
  2.605597e+01    7.267891e+00
  2.608772e+01    5.355732e+00
  2.611948e+01    3.871167e+00
  2.615123e+01    2.957150e+00
  2.618298e+01    2.350767e+00
  2.621473e+01    1.909545e+00
  2.624648e+01    1.637994e+00
  2.627823e+01    1.432370e+00
  2.630998e+01    1.319611e+00
  2.634173e+01    1.208994e+00
  2.637348e+01    1.143827e+00
  2.640524e+01    1.105296e+00
  2.643699e+01    1.052910e+00
  2.646874e+01    1.030465e+00
  2.650049e+01    9.924833e-01
  2.653224e+01    9.779121e-01
  2.656399e+01    9.499344e-01
  2.659574e+01    9.406148e-01
  2.662749e+01    9.371015e-01
  2.665924e+01    9.372991e-01
  2.669100e+01    9.178291e-01
  2.672275e+01    9.327285e-01
  2.675450e+01    9.159160e-01
  2.678625e+01    9.027340e-01
  2.681800e+01    9.159907e-01
  2.684975e+01    9.234896e-01
  2.688150e+01    9.240763e-01
  2.691325e+01    9.314395e-01
  2.694501e+01    9.573750e-01
  2.697676e+01    9.808390e-01
  2.700851e+01    1.012443e+00
  2.704026e+01    1.063244e+00
  2.707201e+01    1.133688e+00
  2.710376e+01    1.270183e+00
  2.713551e+01    1.489897e+00
  2.716726e+01    1.723625e+00
  2.719901e+01    2.069386e+00
  2.723077e+01    2.357602e+00
  2.726252e+01    2.595780e+00
  2.729427e+01    2.452403e+00
  2.732602e+01    2.060977e+00
  2.735777e+01    1.722144e+00
  2.738952e+01    1.407225e+00
  2.742127e+01    1.259471e+00
  2.745302e+01    1.124483e+00
  2.748477e+01    1.043669e+00
  2.751653e+01    9.916431e-01
  2.754828e+01    9.455056e-01
  2.758003e+01    9.141254e-01
  2.761178e+01    9.011059e-01
  2.764353e+01    8.767127e-01
  2.767528e+01    8.319448e-01
  2.770703e+01    8.467958e-01
  2.773878e+01    8.300035e-01
  2.777054e+01    8.575162e-01
  2.780229e+01    8.092161e-01
  2.783404e+01    8.389988e-01
  2.786579e+01    8.205780e-01
  2.789754e+01    8.311163e-01
  2.792929e+01    7.963349e-01
  2.796104e+01    8.060116e-01
  2.799279e+01    8.049266e-01
  2.802454e+01    8.001124e-01
  2.805630e+01    7.840515e-01
  2.808805e+01    7.874917e-01
  2.811980e+01    8.076736e-01
  2.815155e+01    7.942554e-01
  2.818330e+01    7.911609e-01
  2.821505e+01    8.018650e-01
  2.824680e+01    7.871827e-01
  2.827855e+01    7.812156e-01
  2.831030e+01    7.845256e-01
  2.834206e+01    7.976286e-01
  2.837381e+01    7.420841e-01
  2.840556e+01    7.823182e-01
  2.843731e+01    7.680802e-01
  2.846906e+01    7.778103e-01
  2.850081e+01    7.714585e-01
  2.853256e+01    7.718807e-01
  2.856431e+01    7.490715e-01
  2.859606e+01    7.658434e-01
  2.862782e+01    7.560036e-01
  2.865957e+01    7.472658e-01
  2.869132e+01    7.761033e-01
  2.872307e+01    7.427526e-01
  2.875482e+01    7.749262e-01
  2.878657e+01    7.535854e-01
  2.881832e+01    7.536729e-01
  2.885007e+01    7.679583e-01
  2.888183e+01    7.822426e-01
  2.891358e+01    7.576399e-01
  2.894533e+01    7.317564e-01
  2.897708e+01    7.656558e-01
  2.900883e+01    7.376192e-01
  2.904058e+01    7.281673e-01
  2.907233e+01    7.328134e-01
  2.910408e+01    7.425777e-01
  2.913583e+01    7.705734e-01
  2.916759e+01    7.483108e-01
  2.919934e+01    7.679847e-01
  2.923109e+01    7.415138e-01
  2.926284e+01    7.429568e-01
  2.929459e+01    7.482591e-01
  2.932634e+01    7.495593e-01
  2.935809e+01    7.294576e-01
  2.938984e+01    7.435867e-01
  2.942159e+01    7.203974e-01
  2.945335e+01    7.364417e-01
  2.948510e+01    7.172799e-01
  2.951685e+01    7.374645e-01
  2.954860e+01    7.626103e-01
  2.958035e+01    7.392467e-01
  2.961210e+01    7.407169e-01
  2.964385e+01    7.304437e-01
  2.967560e+01    7.365751e-01
  2.970736e+01    7.213531e-01
  2.973911e+01    7.432325e-01
  2.977086e+01    7.200355e-01
  2.980261e+01    7.138290e-01
  2.983436e+01    7.141740e-01
  2.986611e+01    7.273368e-01
  2.989786e+01    7.361308e-01
  2.992961e+01    7.245372e-01
  2.996136e+01    7.464666e-01
  2.999312e+01    7.538741e-01
  3.002487e+01    7.304012e-01
  3.005662e+01    7.406461e-01
  3.008837e+01    7.247652e-01
  3.012012e+01    7.308201e-01
  3.015187e+01    7.247553e-01
  3.018362e+01    7.187893e-01
  3.021537e+01    7.248504e-01
  3.024712e+01    7.141450e-01
  3.027888e+01    7.049316e-01
  3.031063e+01    7.203832e-01
  3.034238e+01    7.100353e-01
  3.037413e+01    7.144430e-01
  3.040588e+01    7.304528e-01
  3.043763e+01    7.130845e-01
  3.046938e+01    7.001125e-01
  3.050113e+01    7.121154e-01
  3.053288e+01    7.279119e-01
  3.056464e+01    7.093986e-01
  3.059639e+01    7.134606e-01
  3.062814e+01    7.108279e-01
  3.065989e+01    7.295123e-01
  3.069164e+01    7.246996e-01
  3.072339e+01    7.279863e-01
  3.075514e+01    7.313392e-01
  3.078689e+01    7.161981e-01
  3.081865e+01    7.010786e-01
  3.085040e+01    7.629278e-01
  3.088215e+01    7.429366e-01
  3.091390e+01    7.302193e-01
  3.094565e+01    7.286922e-01
  3.097740e+01    7.420542e-01
  3.100915e+01    6.989825e-01
  3.104090e+01    7.120255e-01
  3.107265e+01    7.167017e-01
  3.110441e+01    7.312315e-01
  3.113616e+01    7.195820e-01
  3.116791e+01    7.342235e-01
  3.119966e+01    7.120956e-01
  3.123141e+01    7.265773e-01
  3.126316e+01    7.444699e-01
  3.129491e+01    7.580518e-01
  3.132666e+01    7.356268e-01
  3.135841e+01    7.578331e-01
  3.139017e+01    7.510998e-01
  3.142192e+01    7.596561e-01
  3.145367e+01    7.533038e-01
  3.148542e+01    7.626263e-01
  3.151717e+01    7.802640e-01
  3.154892e+01    7.880538e-01
  3.158067e+01    7.824819e-01
  3.161242e+01    8.271808e-01
  3.164418e+01    8.467287e-01
  3.167593e+01    8.780522e-01
  3.170768e+01    9.068778e-01
  3.173943e+01    9.700735e-01
  3.177118e+01    1.036256e+00
  3.180293e+01    1.213760e+00
  3.183468e+01    1.415602e+00
  3.186643e+01    1.711024e+00
  3.189818e+01    2.066450e+00
  3.192994e+01    2.443970e+00
  3.196169e+01    2.561738e+00
  3.199344e+01    2.372679e+00
  3.202519e+01    2.056244e+00
  3.205694e+01    1.666912e+00
  3.208869e+01    1.335258e+00
  3.212044e+01    1.141916e+00
  3.215219e+01    1.049625e+00
  3.218394e+01    9.424194e-01
  3.221570e+01    9.133793e-01
  3.224745e+01    8.355159e-01
  3.227920e+01    8.084496e-01
  3.231095e+01    8.357134e-01
  3.234270e+01    7.632917e-01
  3.237445e+01    7.742796e-01
  3.240620e+01    7.778285e-01
  3.243795e+01    7.516110e-01
  3.246970e+01    7.272224e-01
  3.250146e+01    7.355923e-01
  3.253321e+01    7.258074e-01
  3.254908e+01    7.346754e-01