File: XRD/2024-07-27_002_Ru-CGO-ex_Activtation_ramp_000002_data_000120.dat
# == pyFAI calibration ==
# Distance Sample to Detector: 0.4 m
# PONI: 9.750e-02, 1.135e-01 m
# Rotations: -0.000175 0.000000 -0.000000 rad
#
# == Fit2d calibration ==
# Distance Sample-beamCenter: 400.000 mm
# Center: x=1514.000, y=1300.000 pix
# Tilt: 0.010 deg  TiltPlanRot: 0.010 deg
#
# Detector Detector	 Spline= None	 PixelSize= 7.500e-05, 7.500e-05 m
#    Detector has a mask: False
#    Detector has a dark current: False
#    detector has a flat field: False
#
# Wavelength: 6.888e-11 m
# Mask applied: user provided
# Dark current applied: False
# Flat field applied: False
# Polarization factor: 0.99
# Normalization factor: 1.0
# --> /home/myspot/data/2024_07_Rosario/Ru-CGO-ex/2024-07-27_002_Ru-CGO-ex_Activtation_ramp_000002_data_000120.dat
#       q_nm^-1             I
  2.003187e-02    9.938993e-02
  5.178302e-02    1.161038e-01
  8.353417e-02    2.268910e-01
  1.152853e-01    6.257467e-03
  1.470365e-01    7.510861e-02
  1.787876e-01    0.000000e+00
  2.105388e-01    1.404215e-02
  2.422899e-01    4.766790e-02
  2.740411e-01    6.062753e-02
  3.057922e-01    6.386997e-02
  3.375433e-01    3.452486e-03
  3.692945e-01    3.173425e-02
  4.010456e-01    2.270112e-02
  4.327968e-01    2.692125e-02
  4.645479e-01    1.456420e-02
  4.962991e-01    5.028453e-02
  5.280502e-01    4.819031e-02
  5.598014e-01    2.965319e-02
  5.915525e-01    3.044062e-02
  6.233037e-01    4.297160e-02
  6.550548e-01    2.978083e-02
  6.868060e-01    4.453767e-02
  7.185571e-01    1.472894e-02
  7.503083e-01    2.662300e-02
  7.820594e-01    1.171650e-01
  8.138106e-01    2.244003e-01
  8.455617e-01    3.164132e-01
  8.773129e-01    3.938182e-01
  9.090640e-01    6.130302e-01
  9.408152e-01    6.482163e-01
  9.725663e-01    8.245444e-01
  1.004317e+00    9.484943e-01
  1.036069e+00    1.057841e+00
  1.067820e+00    1.333173e+00
  1.099571e+00    1.355259e+00
  1.131322e+00    1.439835e+00
  1.163073e+00    1.563568e+00
  1.194824e+00    1.534545e+00
  1.226575e+00    2.083053e+00
  1.258327e+00    2.303025e+00
  1.290078e+00    2.382487e+00
  1.321829e+00    2.482563e+00
  1.353580e+00    2.461078e+00
  1.385331e+00    2.544597e+00
  1.417082e+00    2.558361e+00
  1.448834e+00    2.582116e+00
  1.480585e+00    2.757150e+00
  1.512336e+00    2.932033e+00
  1.544087e+00    2.895278e+00
  1.575838e+00    2.881020e+00
  1.607589e+00    2.906668e+00
  1.639340e+00    2.697077e+00
  1.671092e+00    2.881664e+00
  1.702843e+00    2.850671e+00
  1.734594e+00    2.705253e+00
  1.766345e+00    2.744090e+00
  1.798096e+00    2.656160e+00
  1.829847e+00    2.743693e+00
  1.861598e+00    2.582714e+00
  1.893350e+00    2.701911e+00
  1.925101e+00    2.667944e+00
  1.956852e+00    2.774896e+00
  1.988603e+00    2.692530e+00
  2.020354e+00    2.647566e+00
  2.052105e+00    2.700058e+00
  2.083856e+00    2.653479e+00
  2.115608e+00    2.688904e+00
  2.147359e+00    2.767690e+00
  2.179110e+00    2.747066e+00
  2.210861e+00    2.511164e+00
  2.242612e+00    2.738089e+00
  2.274363e+00    2.738067e+00
  2.306115e+00    2.721433e+00
  2.337866e+00    2.670759e+00
  2.369617e+00    2.623580e+00
  2.401368e+00    2.669250e+00
  2.433119e+00    2.840697e+00
  2.464870e+00    2.690744e+00
  2.496621e+00    2.813979e+00
  2.528373e+00    2.735753e+00
  2.560124e+00    2.856024e+00
  2.591875e+00    2.806503e+00
  2.623626e+00    2.774969e+00
  2.655377e+00    2.823104e+00
  2.687128e+00    2.705093e+00
  2.718879e+00    2.722371e+00
  2.750631e+00    2.807492e+00
  2.782382e+00    2.718106e+00
  2.814133e+00    2.786280e+00
  2.845884e+00    2.685331e+00
  2.877635e+00    2.707864e+00
  2.909386e+00    2.825088e+00
  2.941137e+00    2.773229e+00
  2.972889e+00    2.911797e+00
  3.004640e+00    2.798894e+00
  3.036391e+00    2.782334e+00
  3.068142e+00    2.791345e+00
  3.099893e+00    2.868544e+00
  3.131644e+00    2.859507e+00
  3.163395e+00    2.655933e+00
  3.195147e+00    2.835154e+00
  3.226898e+00    2.924345e+00
  3.258649e+00    2.828426e+00
  3.290400e+00    2.780787e+00
  3.322151e+00    2.928683e+00
  3.353902e+00    2.918374e+00
  3.385654e+00    2.855614e+00
  3.417405e+00    2.825197e+00
  3.449156e+00    2.918242e+00
  3.480907e+00    2.899685e+00
  3.512658e+00    2.840662e+00
  3.544409e+00    2.822461e+00
  3.576160e+00    2.946792e+00
  3.607912e+00    2.882698e+00
  3.639663e+00    2.925467e+00
  3.671414e+00    2.908115e+00
  3.703165e+00    2.872620e+00
  3.734916e+00    2.918200e+00
  3.766667e+00    2.916915e+00
  3.798418e+00    2.982884e+00
  3.830170e+00    2.917277e+00
  3.861921e+00    2.928494e+00
  3.893672e+00    2.992264e+00
  3.925423e+00    2.921435e+00
  3.957174e+00    2.928630e+00
  3.988925e+00    2.932671e+00
  4.020676e+00    2.977418e+00
  4.052428e+00    2.983156e+00
  4.084179e+00    2.939487e+00
  4.115930e+00    2.959238e+00
  4.147681e+00    3.032595e+00
  4.179432e+00    2.961298e+00
  4.211183e+00    3.086881e+00
  4.242935e+00    2.904637e+00
  4.274686e+00    2.973748e+00
  4.306437e+00    2.952377e+00
  4.338188e+00    3.038840e+00
  4.369939e+00    2.981921e+00
  4.401690e+00    3.020222e+00
  4.433441e+00    2.995366e+00
  4.465193e+00    3.061700e+00
  4.496944e+00    3.085529e+00
  4.528695e+00    3.073191e+00
  4.560446e+00    3.015597e+00
  4.592197e+00    3.061625e+00
  4.623948e+00    3.063543e+00
  4.655699e+00    3.060642e+00
  4.687451e+00    3.052979e+00
  4.719202e+00    3.067092e+00
  4.750953e+00    3.058639e+00
  4.782704e+00    3.060200e+00
  4.814455e+00    3.074027e+00
  4.846206e+00    2.997101e+00
  4.877957e+00    2.970812e+00
  4.909709e+00    3.067989e+00
  4.941460e+00    3.151875e+00
  4.973211e+00    3.072273e+00
  5.004962e+00    3.078915e+00
  5.036713e+00    3.103697e+00
  5.068464e+00    3.068307e+00
  5.100216e+00    3.108159e+00
  5.131967e+00    3.090465e+00
  5.163718e+00    3.058323e+00
  5.195469e+00    3.079394e+00
  5.227220e+00    3.000855e+00
  5.258971e+00    3.103295e+00
  5.290722e+00    3.078250e+00
  5.322474e+00    3.082440e+00
  5.354225e+00    3.073667e+00
  5.385976e+00    3.113799e+00
  5.417727e+00    2.991397e+00
  5.449478e+00    3.079891e+00
  5.481229e+00    3.055077e+00
  5.512980e+00    3.075430e+00
  5.544732e+00    3.092174e+00
  5.576483e+00    2.958273e+00
  5.608234e+00    2.991453e+00
  5.639985e+00    3.062872e+00
  5.671736e+00    3.060002e+00
  5.703487e+00    3.040859e+00
  5.735238e+00    2.917503e+00
  5.766990e+00    2.933567e+00
  5.798741e+00    2.985728e+00
  5.830492e+00    3.020756e+00
  5.862243e+00    3.037578e+00
  5.893994e+00    2.911646e+00
  5.925745e+00    2.971043e+00
  5.957497e+00    2.990296e+00
  5.989248e+00    3.013149e+00
  6.020999e+00    2.961433e+00
  6.052750e+00    2.996106e+00
  6.084501e+00    2.948572e+00
  6.116252e+00    3.001097e+00
  6.148003e+00    2.964695e+00
  6.179755e+00    2.994389e+00
  6.211506e+00    2.963607e+00
  6.243257e+00    3.024193e+00
  6.275008e+00    3.031242e+00
  6.306759e+00    2.943876e+00
  6.338510e+00    2.983940e+00
  6.370261e+00    2.964347e+00
  6.402013e+00    2.933319e+00
  6.433764e+00    2.947176e+00
  6.465515e+00    2.965944e+00
  6.497266e+00    2.949293e+00
  6.529017e+00    2.999212e+00
  6.560768e+00    2.948883e+00
  6.592519e+00    2.941797e+00
  6.624271e+00    3.008601e+00
  6.656022e+00    3.000798e+00
  6.687773e+00    2.976985e+00
  6.719524e+00    3.001034e+00
  6.751275e+00    2.926709e+00
  6.783026e+00    2.996529e+00
  6.814777e+00    3.013658e+00
  6.846529e+00    2.915941e+00
  6.878280e+00    2.963753e+00
  6.910031e+00    2.947370e+00
  6.941782e+00    2.966417e+00
  6.973533e+00    2.966363e+00
  7.005284e+00    2.979458e+00
  7.037036e+00    3.029400e+00
  7.068787e+00    3.003659e+00
  7.100538e+00    2.937406e+00
  7.132289e+00    2.953796e+00
  7.164040e+00    2.941929e+00
  7.195791e+00    2.951062e+00
  7.227542e+00    2.942997e+00
  7.259294e+00    3.032274e+00
  7.291045e+00    2.894152e+00
  7.322796e+00    2.946518e+00
  7.354547e+00    2.948393e+00
  7.386298e+00    2.965405e+00
  7.418049e+00    2.986117e+00
  7.449800e+00    2.903816e+00
  7.481552e+00    2.956978e+00
  7.513303e+00    2.963454e+00
  7.545054e+00    2.904552e+00
  7.576805e+00    2.892356e+00
  7.608556e+00    2.971842e+00
  7.640307e+00    2.896192e+00
  7.672058e+00    2.869907e+00
  7.703810e+00    2.891681e+00
  7.735561e+00    2.872191e+00
  7.767312e+00    2.846401e+00
  7.799063e+00    2.867600e+00
  7.830814e+00    2.869209e+00
  7.862565e+00    2.876130e+00
  7.894317e+00    2.895527e+00
  7.926068e+00    2.887541e+00
  7.957819e+00    2.898971e+00
  7.989570e+00    2.821995e+00
  8.021321e+00    2.831261e+00
  8.053072e+00    2.860404e+00
  8.084823e+00    2.876433e+00
  8.116575e+00    2.926684e+00
  8.148326e+00    2.830358e+00
  8.180077e+00    3.014823e+00
  8.211828e+00    2.955343e+00
  8.243579e+00    2.953278e+00
  8.275330e+00    2.922267e+00
  8.307081e+00    2.885086e+00
  8.338833e+00    2.879217e+00
  8.370584e+00    2.820361e+00
  8.402335e+00    2.855750e+00
  8.434086e+00    2.914915e+00
  8.465837e+00    2.886744e+00
  8.497588e+00    2.835951e+00
  8.529339e+00    2.822869e+00
  8.561091e+00    2.796254e+00
  8.592842e+00    2.853027e+00
  8.624593e+00    2.814254e+00
  8.656344e+00    2.795545e+00
  8.688095e+00    2.768986e+00
  8.719846e+00    2.803515e+00
  8.751598e+00    2.765413e+00
  8.783349e+00    2.774748e+00
  8.815100e+00    2.799366e+00
  8.846851e+00    2.761426e+00
  8.878602e+00    2.793998e+00
  8.910353e+00    2.790067e+00
  8.942104e+00    2.758600e+00
  8.973856e+00    2.746193e+00
  9.005607e+00    2.801608e+00
  9.037358e+00    2.744789e+00
  9.069109e+00    2.695272e+00
  9.100860e+00    2.765915e+00
  9.132611e+00    2.767309e+00
  9.164362e+00    2.788039e+00
  9.196114e+00    2.720152e+00
  9.227865e+00    2.706535e+00
  9.259616e+00    2.729391e+00
  9.291367e+00    2.746367e+00
  9.323118e+00    2.724645e+00
  9.354869e+00    2.746022e+00
  9.386620e+00    2.726336e+00
  9.418372e+00    2.717141e+00
  9.450123e+00    2.695272e+00
  9.481874e+00    2.735054e+00
  9.513625e+00    2.715376e+00
  9.545376e+00    2.757178e+00
  9.577127e+00    2.701767e+00
  9.608878e+00    2.703879e+00
  9.640630e+00    2.689901e+00
  9.672381e+00    2.623030e+00
  9.704132e+00    2.651023e+00
  9.735883e+00    2.631949e+00
  9.767634e+00    2.693228e+00
  9.799385e+00    2.657517e+00
  9.831137e+00    2.619107e+00
  9.862888e+00    2.652497e+00
  9.894639e+00    2.609066e+00
  9.926390e+00    2.640904e+00
  9.958141e+00    2.594782e+00
  9.989892e+00    2.662368e+00
  1.002164e+01    2.680805e+00
  1.005339e+01    2.628421e+00
  1.008515e+01    2.636402e+00
  1.011690e+01    2.634329e+00
  1.014865e+01    2.621810e+00
  1.018040e+01    2.523617e+00
  1.021215e+01    2.563049e+00
  1.024390e+01    2.582780e+00
  1.027565e+01    2.507180e+00
  1.030740e+01    2.587572e+00
  1.033915e+01    2.610718e+00
  1.037091e+01    2.587674e+00
  1.040266e+01    2.565724e+00
  1.043441e+01    2.621140e+00
  1.046616e+01    2.584361e+00
  1.049791e+01    2.544263e+00
  1.052966e+01    2.553018e+00
  1.056141e+01    2.569216e+00
  1.059316e+01    2.523509e+00
  1.062492e+01    2.509736e+00
  1.065667e+01    2.598067e+00
  1.068842e+01    2.562130e+00
  1.072017e+01    2.509745e+00
  1.075192e+01    2.508745e+00
  1.078367e+01    2.494359e+00
  1.081542e+01    2.472832e+00
  1.084717e+01    2.486037e+00
  1.087892e+01    2.504626e+00
  1.091068e+01    2.471195e+00
  1.094243e+01    2.499453e+00
  1.097418e+01    2.464028e+00
  1.100593e+01    2.408831e+00
  1.103768e+01    2.438215e+00
  1.106943e+01    2.450416e+00
  1.110118e+01    2.341290e+00
  1.113293e+01    2.413768e+00
  1.116468e+01    2.493119e+00
  1.119644e+01    2.438328e+00
  1.122819e+01    2.407192e+00
  1.125994e+01    2.395216e+00
  1.129169e+01    2.367521e+00
  1.132344e+01    2.375068e+00
  1.135519e+01    2.419049e+00
  1.138694e+01    2.401078e+00
  1.141869e+01    2.399273e+00
  1.145045e+01    2.382202e+00
  1.148220e+01    2.374000e+00
  1.151395e+01    2.310547e+00
  1.154570e+01    2.359335e+00
  1.157745e+01    2.349006e+00
  1.160920e+01    2.332313e+00
  1.164095e+01    2.343245e+00
  1.167270e+01    2.309846e+00
  1.170445e+01    2.377419e+00
  1.173621e+01    2.257544e+00
  1.176796e+01    2.323309e+00
  1.179971e+01    2.295685e+00
  1.183146e+01    2.294295e+00
  1.186321e+01    2.337088e+00
  1.189496e+01    2.305563e+00
  1.192671e+01    2.301267e+00
  1.195846e+01    2.354165e+00
  1.199021e+01    2.305735e+00
  1.202197e+01    2.332919e+00
  1.205372e+01    2.261134e+00
  1.208547e+01    2.233433e+00
  1.211722e+01    2.253007e+00
  1.214897e+01    2.274484e+00
  1.218072e+01    2.260247e+00
  1.221247e+01    2.273082e+00
  1.224422e+01    2.340430e+00
  1.227597e+01    2.262000e+00
  1.230773e+01    2.277308e+00
  1.233948e+01    2.287471e+00
  1.237123e+01    2.283334e+00
  1.240298e+01    2.306259e+00
  1.243473e+01    2.276243e+00
  1.246648e+01    2.277591e+00
  1.249823e+01    2.311348e+00
  1.252998e+01    2.305638e+00
  1.256174e+01    2.315155e+00
  1.259349e+01    2.318197e+00
  1.262524e+01    2.320403e+00
  1.265699e+01    2.381973e+00
  1.268874e+01    2.443417e+00
  1.272049e+01    2.481837e+00
  1.275224e+01    2.530809e+00
  1.278399e+01    2.580662e+00
  1.281574e+01    2.627218e+00
  1.284750e+01    2.776449e+00
  1.287925e+01    2.988154e+00
  1.291100e+01    3.264636e+00
  1.294275e+01    3.694172e+00
  1.297450e+01    4.305552e+00
  1.300625e+01    5.358721e+00
  1.303800e+01    6.995131e+00
  1.306975e+01    9.295422e+00
  1.310150e+01    1.203695e+01
  1.313326e+01    1.454937e+01
  1.316501e+01    1.663847e+01
  1.319676e+01    1.713010e+01
  1.322851e+01    1.426593e+01
  1.326026e+01    1.027848e+01
  1.329201e+01    7.267550e+00
  1.332376e+01    5.561953e+00
  1.335551e+01    4.373317e+00
  1.338727e+01    3.803313e+00
  1.341902e+01    3.295182e+00
  1.345077e+01    3.010364e+00
  1.348252e+01    2.797103e+00
  1.351427e+01    2.592426e+00
  1.354602e+01    2.483603e+00
  1.357777e+01    2.399328e+00
  1.360952e+01    2.316329e+00
  1.364127e+01    2.269985e+00
  1.367303e+01    2.256526e+00
  1.370478e+01    2.241204e+00
  1.373653e+01    2.138775e+00
  1.376828e+01    2.200835e+00
  1.380003e+01    2.120604e+00
  1.383178e+01    2.105079e+00
  1.386353e+01    2.099685e+00
  1.389528e+01    2.039052e+00
  1.392703e+01    2.043240e+00
  1.395879e+01    2.047715e+00
  1.399054e+01    2.012568e+00
  1.402229e+01    2.041765e+00
  1.405404e+01    1.995712e+00
  1.408579e+01    2.001174e+00
  1.411754e+01    1.997923e+00
  1.414929e+01    1.993733e+00
  1.418104e+01    1.945273e+00
  1.421279e+01    1.977841e+00
  1.424455e+01    1.934691e+00
  1.427630e+01    1.917723e+00
  1.430805e+01    1.932942e+00
  1.433980e+01    1.887896e+00
  1.437155e+01    1.937367e+00
  1.440330e+01    1.936089e+00
  1.443505e+01    1.903447e+00
  1.446680e+01    1.907166e+00
  1.449856e+01    1.901447e+00
  1.453031e+01    1.896600e+00
  1.456206e+01    1.905649e+00
  1.459381e+01    1.882639e+00
  1.462556e+01    1.926336e+00
  1.465731e+01    1.860207e+00
  1.468906e+01    1.879840e+00
  1.472081e+01    1.849566e+00
  1.475256e+01    1.862160e+00
  1.478432e+01    1.898551e+00
  1.481607e+01    1.897591e+00
  1.484782e+01    1.836636e+00
  1.487957e+01    1.895479e+00
  1.491132e+01    1.930295e+00
  1.494307e+01    1.960207e+00
  1.497482e+01    2.017776e+00
  1.500657e+01    2.117768e+00
  1.503832e+01    2.273201e+00
  1.507008e+01    2.508281e+00
  1.510183e+01    2.857491e+00
  1.513358e+01    3.427848e+00
  1.516533e+01    4.092660e+00
  1.519708e+01    4.864803e+00
  1.522883e+01    5.482883e+00
  1.526058e+01    5.791027e+00
  1.529233e+01    5.727018e+00
  1.532409e+01    4.949764e+00
  1.535584e+01    3.892587e+00
  1.538759e+01    3.175048e+00
  1.541934e+01    2.627753e+00
  1.545109e+01    2.288587e+00
  1.548284e+01    2.140441e+00
  1.551459e+01    2.007323e+00
  1.554634e+01    1.887522e+00
  1.557809e+01    1.829847e+00
  1.560985e+01    1.807335e+00
  1.564160e+01    1.777090e+00
  1.567335e+01    1.730639e+00
  1.570510e+01    1.715490e+00
  1.573685e+01    1.672149e+00
  1.576860e+01    1.666044e+00
  1.580035e+01    1.652214e+00
  1.583210e+01    1.608263e+00
  1.586385e+01    1.640204e+00
  1.589561e+01    1.635789e+00
  1.592736e+01    1.559609e+00
  1.595911e+01    1.563271e+00
  1.599086e+01    1.580217e+00
  1.602261e+01    1.608188e+00
  1.605436e+01    1.585900e+00
  1.608611e+01    1.582075e+00
  1.611786e+01    1.566259e+00
  1.614961e+01    1.531519e+00
  1.618137e+01    1.540022e+00
  1.621312e+01    1.539125e+00
  1.624487e+01    1.509384e+00
  1.627662e+01    1.546371e+00
  1.630837e+01    1.516495e+00
  1.634012e+01    1.529962e+00
  1.637187e+01    1.474362e+00
  1.640362e+01    1.490484e+00
  1.643538e+01    1.506247e+00
  1.646713e+01    1.499939e+00
  1.649888e+01    1.484162e+00
  1.653063e+01    1.464302e+00
  1.656238e+01    1.488180e+00
  1.659413e+01    1.485693e+00
  1.662588e+01    1.443951e+00
  1.665763e+01    1.453534e+00
  1.668938e+01    1.476161e+00
  1.672114e+01    1.467843e+00
  1.675289e+01    1.424823e+00
  1.678464e+01    1.421120e+00
  1.681639e+01    1.444019e+00
  1.684814e+01    1.447991e+00
  1.687989e+01    1.423682e+00
  1.691164e+01    1.412490e+00
  1.694339e+01    1.401957e+00
  1.697514e+01    1.430115e+00
  1.700690e+01    1.434650e+00
  1.703865e+01    1.410214e+00
  1.707040e+01    1.406015e+00
  1.710215e+01    1.358011e+00
  1.713390e+01    1.403468e+00
  1.716565e+01    1.401310e+00
  1.719740e+01    1.373119e+00
  1.722915e+01    1.370529e+00
  1.726091e+01    1.386423e+00
  1.729266e+01    1.390866e+00
  1.732441e+01    1.371914e+00
  1.735616e+01    1.358413e+00
  1.738791e+01    1.366986e+00
  1.741966e+01    1.330272e+00
  1.745141e+01    1.349967e+00
  1.748316e+01    1.323882e+00
  1.751491e+01    1.361759e+00
  1.754667e+01    1.361762e+00
  1.757842e+01    1.355189e+00
  1.761017e+01    1.359316e+00
  1.764192e+01    1.368568e+00
  1.767367e+01    1.323420e+00
  1.770542e+01    1.335635e+00
  1.773717e+01    1.322813e+00
  1.776892e+01    1.296498e+00
  1.780067e+01    1.283107e+00
  1.783243e+01    1.287823e+00
  1.786418e+01    1.312453e+00
  1.789593e+01    1.298832e+00
  1.792768e+01    1.315204e+00
  1.795943e+01    1.267514e+00
  1.799118e+01    1.311232e+00
  1.802293e+01    1.245717e+00
  1.805468e+01    1.280082e+00
  1.808643e+01    1.275495e+00
  1.811819e+01    1.259334e+00
  1.814994e+01    1.260228e+00
  1.818169e+01    1.273644e+00
  1.821344e+01    1.274214e+00
  1.824519e+01    1.235347e+00
  1.827694e+01    1.232814e+00
  1.830869e+01    1.252794e+00
  1.834044e+01    1.265004e+00
  1.837220e+01    1.271202e+00
  1.840395e+01    1.265149e+00
  1.843570e+01    1.241531e+00
  1.846745e+01    1.206422e+00
  1.849920e+01    1.232595e+00
  1.853095e+01    1.244276e+00
  1.856270e+01    1.209084e+00
  1.859445e+01    1.214764e+00
  1.862620e+01    1.214406e+00
  1.865796e+01    1.237074e+00
  1.868971e+01    1.203226e+00
  1.872146e+01    1.220247e+00
  1.875321e+01    1.221267e+00
  1.878496e+01    1.196658e+00
  1.881671e+01    1.197485e+00
  1.884846e+01    1.208823e+00
  1.888021e+01    1.188009e+00
  1.891196e+01    1.180354e+00
  1.894372e+01    1.170324e+00
  1.897547e+01    1.198209e+00
  1.900722e+01    1.183680e+00
  1.903897e+01    1.189439e+00
  1.907072e+01    1.183943e+00
  1.910247e+01    1.190503e+00
  1.913422e+01    1.182629e+00
  1.916597e+01    1.186431e+00
  1.919773e+01    1.153083e+00
  1.922948e+01    1.194916e+00
  1.926123e+01    1.190323e+00
  1.929298e+01    1.164524e+00
  1.932473e+01    1.175620e+00
  1.935648e+01    1.115308e+00
  1.938823e+01    1.161059e+00
  1.941998e+01    1.157888e+00
  1.945173e+01    1.157626e+00
  1.948349e+01    1.124361e+00
  1.951524e+01    1.157869e+00
  1.954699e+01    1.141432e+00
  1.957874e+01    1.137146e+00
  1.961049e+01    1.146338e+00
  1.964224e+01    1.126534e+00
  1.967399e+01    1.129187e+00
  1.970574e+01    1.139244e+00
  1.973749e+01    1.118906e+00
  1.976925e+01    1.114795e+00
  1.980100e+01    1.114998e+00
  1.983275e+01    1.121428e+00
  1.986450e+01    1.115419e+00
  1.989625e+01    1.079814e+00
  1.992800e+01    1.117177e+00
  1.995975e+01    1.112924e+00
  1.999150e+01    1.108456e+00
  2.002325e+01    1.116611e+00
  2.005501e+01    1.102859e+00
  2.008676e+01    1.095853e+00
  2.011851e+01    1.114611e+00
  2.015026e+01    1.099447e+00
  2.018201e+01    1.107380e+00
  2.021376e+01    1.083603e+00
  2.024551e+01    1.063398e+00
  2.027726e+01    1.082078e+00
  2.030902e+01    1.086561e+00
  2.034077e+01    1.088298e+00
  2.037252e+01    1.087572e+00
  2.040427e+01    1.072588e+00
  2.043602e+01    1.058235e+00
  2.046777e+01    1.071358e+00
  2.049952e+01    1.060560e+00
  2.053127e+01    1.073881e+00
  2.056302e+01    1.071843e+00
  2.059478e+01    1.061146e+00
  2.062653e+01    1.035578e+00
  2.065828e+01    1.064696e+00
  2.069003e+01    1.079562e+00
  2.072178e+01    1.040463e+00
  2.075353e+01    1.071976e+00
  2.078528e+01    1.041670e+00
  2.081703e+01    1.038466e+00
  2.084878e+01    1.049819e+00
  2.088054e+01    1.074860e+00
  2.091229e+01    1.060278e+00
  2.094404e+01    1.061418e+00
  2.097579e+01    1.074236e+00
  2.100754e+01    1.077940e+00
  2.103929e+01    1.055900e+00
  2.107104e+01    1.073972e+00
  2.110279e+01    1.075505e+00
  2.113455e+01    1.061023e+00
  2.116630e+01    1.061975e+00
  2.119805e+01    1.079333e+00
  2.122980e+01    1.073732e+00
  2.126155e+01    1.087942e+00
  2.129330e+01    1.091767e+00
  2.132505e+01    1.096751e+00
  2.135680e+01    1.113280e+00
  2.138855e+01    1.151085e+00
  2.142031e+01    1.188602e+00
  2.145206e+01    1.204710e+00
  2.148381e+01    1.238168e+00
  2.151556e+01    1.307076e+00
  2.154731e+01    1.341884e+00
  2.157906e+01    1.453504e+00
  2.161081e+01    1.566770e+00
  2.164256e+01    1.768036e+00
  2.167431e+01    2.079827e+00
  2.170607e+01    2.447028e+00
  2.173782e+01    3.133219e+00
  2.176957e+01    4.061634e+00
  2.180132e+01    5.314920e+00
  2.183307e+01    6.773140e+00
  2.186482e+01    8.258920e+00
  2.189657e+01    9.330933e+00
  2.192832e+01    9.271685e+00
  2.196007e+01    7.751512e+00
  2.199183e+01    5.676244e+00
  2.202358e+01    4.080031e+00
  2.205533e+01    3.103112e+00
  2.208708e+01    2.437660e+00
  2.211883e+01    2.004698e+00
  2.215058e+01    1.773361e+00
  2.218233e+01    1.537791e+00
  2.221408e+01    1.391034e+00
  2.224584e+01    1.322559e+00
  2.227759e+01    1.242534e+00
  2.230934e+01    1.184203e+00
  2.234109e+01    1.143140e+00
  2.237284e+01    1.102138e+00
  2.240459e+01    1.077758e+00
  2.243634e+01    1.040192e+00
  2.246809e+01    1.019013e+00
  2.249984e+01    1.025761e+00
  2.253160e+01    1.019307e+00
  2.256335e+01    1.013139e+00
  2.259510e+01    9.838796e-01
  2.262685e+01    9.733358e-01
  2.265860e+01    9.661379e-01
  2.269035e+01    9.540105e-01
  2.272210e+01    9.406003e-01
  2.275385e+01    9.191103e-01
  2.278560e+01    9.459864e-01
  2.281736e+01    9.181582e-01
  2.284911e+01    9.244155e-01
  2.288086e+01    9.170316e-01
  2.291261e+01    9.011574e-01
  2.294436e+01    8.852650e-01
  2.297611e+01    8.947588e-01
  2.300786e+01    8.823070e-01
  2.303961e+01    8.887924e-01
  2.307137e+01    8.709683e-01
  2.310312e+01    8.782037e-01
  2.313487e+01    8.432379e-01
  2.316662e+01    8.864867e-01
  2.319837e+01    8.637406e-01
  2.323012e+01    8.769256e-01
  2.326187e+01    8.661953e-01
  2.329362e+01    8.379058e-01
  2.332537e+01    8.549504e-01
  2.335713e+01    8.501276e-01
  2.338888e+01    8.470899e-01
  2.342063e+01    8.489374e-01
  2.345238e+01    8.639760e-01
  2.348413e+01    8.470992e-01
  2.351588e+01    8.257361e-01
  2.354763e+01    8.412279e-01
  2.357938e+01    8.320959e-01
  2.361113e+01    8.077133e-01
  2.364289e+01    8.253357e-01
  2.367464e+01    8.170518e-01
  2.370639e+01    8.095208e-01
  2.373814e+01    7.891194e-01
  2.376989e+01    7.929189e-01
  2.380164e+01    8.153316e-01
  2.383339e+01    7.955298e-01
  2.386514e+01    8.036715e-01
  2.389689e+01    7.981078e-01
  2.392865e+01    7.993693e-01
  2.396040e+01    8.024771e-01
  2.399215e+01    7.962669e-01
  2.402390e+01    7.808670e-01
  2.405565e+01    7.849719e-01
  2.408740e+01    7.787753e-01
  2.411915e+01    7.713075e-01
  2.415090e+01    7.691777e-01
  2.418266e+01    7.681541e-01
  2.421441e+01    7.526603e-01
  2.424616e+01    7.822184e-01
  2.427791e+01    7.853203e-01
  2.430966e+01    7.823315e-01
  2.434141e+01    7.622712e-01
  2.437316e+01    7.753252e-01
  2.440491e+01    7.690393e-01
  2.443666e+01    7.784135e-01
  2.446842e+01    7.754933e-01
  2.450017e+01    7.849909e-01
  2.453192e+01    7.882754e-01
  2.456367e+01    7.769362e-01
  2.459542e+01    7.917295e-01
  2.462717e+01    7.868422e-01
  2.465892e+01    7.695289e-01
  2.469067e+01    7.772672e-01
  2.472242e+01    7.603012e-01
  2.475418e+01    7.781390e-01
  2.478593e+01    7.747822e-01
  2.481768e+01    7.883930e-01
  2.484943e+01    7.934749e-01
  2.488118e+01    7.732496e-01
  2.491293e+01    7.717727e-01
  2.494468e+01    7.648768e-01
  2.497643e+01    8.015998e-01
  2.500819e+01    7.682532e-01
  2.503994e+01    7.839938e-01
  2.507169e+01    8.091813e-01
  2.510344e+01    8.064311e-01
  2.513519e+01    8.069641e-01
  2.516694e+01    8.057823e-01
  2.519869e+01    8.396641e-01
  2.523044e+01    8.307725e-01
  2.526219e+01    8.346250e-01
  2.529395e+01    8.647125e-01
  2.532570e+01    8.547641e-01
  2.535745e+01    8.838163e-01
  2.538920e+01    8.818493e-01
  2.542095e+01    9.100814e-01
  2.545270e+01    9.033831e-01
  2.548445e+01    9.505830e-01
  2.551620e+01    9.768068e-01
  2.554795e+01    9.891375e-01
  2.557971e+01    1.067985e+00
  2.561146e+01    1.085061e+00
  2.564321e+01    1.202845e+00
  2.567496e+01    1.279759e+00
  2.570671e+01    1.431232e+00
  2.573846e+01    1.686273e+00
  2.577021e+01    2.030602e+00
  2.580196e+01    2.516312e+00
  2.583371e+01    3.191835e+00
  2.586547e+01    4.271529e+00
  2.589722e+01    5.460788e+00
  2.592897e+01    6.743307e+00
  2.596072e+01    7.735226e+00
  2.599247e+01    7.634410e+00
  2.602422e+01    6.511064e+00
  2.605597e+01    4.976832e+00
  2.608772e+01    3.567645e+00
  2.611948e+01    2.730395e+00
  2.615123e+01    2.155263e+00
  2.618298e+01    1.793098e+00
  2.621473e+01    1.497672e+00
  2.624648e+01    1.358415e+00
  2.627823e+01    1.235072e+00
  2.630998e+01    1.134380e+00
  2.634173e+01    1.072707e+00
  2.637348e+01    1.028239e+00
  2.640524e+01    9.930106e-01
  2.643699e+01    9.790384e-01
  2.646874e+01    9.476638e-01
  2.650049e+01    9.187729e-01
  2.653224e+01    9.205515e-01
  2.656399e+01    8.973630e-01
  2.659574e+01    8.968683e-01
  2.662749e+01    8.906590e-01
  2.665924e+01    9.063580e-01
  2.669100e+01    8.819596e-01
  2.672275e+01    8.896934e-01
  2.675450e+01    8.866500e-01
  2.678625e+01    8.810890e-01
  2.681800e+01    8.674523e-01
  2.684975e+01    9.055510e-01
  2.688150e+01    9.020965e-01
  2.691325e+01    9.286167e-01
  2.694501e+01    9.256065e-01
  2.697676e+01    9.884867e-01
  2.700851e+01    1.034649e+00
  2.704026e+01    1.076763e+00
  2.707201e+01    1.181016e+00
  2.710376e+01    1.331516e+00
  2.713551e+01    1.578516e+00
  2.716726e+01    1.845885e+00
  2.719901e+01    2.137208e+00
  2.723077e+01    2.294145e+00
  2.726252e+01    2.181172e+00
  2.729427e+01    1.913875e+00
  2.732602e+01    1.574104e+00
  2.735777e+01    1.344987e+00
  2.738952e+01    1.160651e+00
  2.742127e+01    1.070992e+00
  2.745302e+01    9.944566e-01
  2.748477e+01    9.257108e-01
  2.751653e+01    9.301816e-01
  2.754828e+01    8.646997e-01
  2.758003e+01    8.629602e-01
  2.761178e+01    8.376024e-01
  2.764353e+01    8.425751e-01
  2.767528e+01    8.196830e-01
  2.770703e+01    8.234383e-01
  2.773878e+01    8.032583e-01
  2.777054e+01    8.214239e-01
  2.780229e+01    7.973027e-01
  2.783404e+01    7.897868e-01
  2.786579e+01    7.825474e-01
  2.789754e+01    7.803841e-01
  2.792929e+01    7.721910e-01
  2.796104e+01    7.780841e-01
  2.799279e+01    7.712574e-01
  2.802454e+01    7.705949e-01
  2.805630e+01    7.822427e-01
  2.808805e+01    7.798565e-01
  2.811980e+01    7.769272e-01
  2.815155e+01    7.578986e-01
  2.818330e+01    7.592053e-01
  2.821505e+01    7.634573e-01
  2.824680e+01    7.551771e-01
  2.827855e+01    7.568246e-01
  2.831030e+01    7.613204e-01
  2.834206e+01    7.558244e-01
  2.837381e+01    7.534150e-01
  2.840556e+01    7.544835e-01
  2.843731e+01    7.490929e-01
  2.846906e+01    7.393436e-01
  2.850081e+01    7.554145e-01
  2.853256e+01    7.429998e-01
  2.856431e+01    7.403586e-01
  2.859606e+01    7.347256e-01
  2.862782e+01    7.373955e-01
  2.865957e+01    7.453933e-01
  2.869132e+01    7.503368e-01
  2.872307e+01    7.204493e-01
  2.875482e+01    7.387047e-01
  2.878657e+01    7.334487e-01
  2.881832e+01    7.202086e-01
  2.885007e+01    7.442336e-01
  2.888183e+01    7.550554e-01
  2.891358e+01    7.208650e-01
  2.894533e+01    7.243352e-01
  2.897708e+01    7.393217e-01
  2.900883e+01    7.101219e-01
  2.904058e+01    7.524113e-01
  2.907233e+01    7.464291e-01
  2.910408e+01    7.376257e-01
  2.913583e+01    7.258581e-01
  2.916759e+01    7.088354e-01
  2.919934e+01    7.214484e-01
  2.923109e+01    7.207910e-01
  2.926284e+01    7.150376e-01
  2.929459e+01    7.182401e-01
  2.932634e+01    7.172736e-01
  2.935809e+01    7.185158e-01
  2.938984e+01    7.427980e-01
  2.942159e+01    7.221901e-01
  2.945335e+01    7.105159e-01
  2.948510e+01    7.070357e-01
  2.951685e+01    7.316852e-01
  2.954860e+01    7.073261e-01
  2.958035e+01    7.210114e-01
  2.961210e+01    7.162397e-01
  2.964385e+01    7.285529e-01
  2.967560e+01    7.020333e-01
  2.970736e+01    7.098798e-01
  2.973911e+01    6.992739e-01
  2.977086e+01    7.150998e-01
  2.980261e+01    7.163499e-01
  2.983436e+01    7.095415e-01
  2.986611e+01    7.014582e-01
  2.989786e+01    7.205196e-01
  2.992961e+01    6.945955e-01
  2.996136e+01    7.136390e-01
  2.999312e+01    7.191400e-01
  3.002487e+01    7.173966e-01
  3.005662e+01    7.237821e-01
  3.008837e+01    7.180250e-01
  3.012012e+01    7.184964e-01
  3.015187e+01    7.183526e-01
  3.018362e+01    7.078350e-01
  3.021537e+01    6.985607e-01
  3.024712e+01    7.202690e-01
  3.027888e+01    7.038781e-01
  3.031063e+01    7.088973e-01
  3.034238e+01    7.111959e-01
  3.037413e+01    6.915880e-01
  3.040588e+01    6.831648e-01
  3.043763e+01    7.049927e-01
  3.046938e+01    7.116258e-01
  3.050113e+01    7.147230e-01
  3.053288e+01    6.959433e-01
  3.056464e+01    7.184804e-01
  3.059639e+01    7.029346e-01
  3.062814e+01    6.958219e-01
  3.065989e+01    6.999520e-01
  3.069164e+01    7.008880e-01
  3.072339e+01    7.129318e-01
  3.075514e+01    7.086385e-01
  3.078689e+01    7.020475e-01
  3.081865e+01    6.884813e-01
  3.085040e+01    7.081900e-01
  3.088215e+01    7.156481e-01
  3.091390e+01    7.187710e-01
  3.094565e+01    6.993755e-01
  3.097740e+01    6.959136e-01
  3.100915e+01    7.031628e-01
  3.104090e+01    6.933625e-01
  3.107265e+01    7.223668e-01
  3.110441e+01    6.993418e-01
  3.113616e+01    7.385727e-01
  3.116791e+01    7.143775e-01
  3.119966e+01    6.952934e-01
  3.123141e+01    7.166597e-01
  3.126316e+01    7.121275e-01
  3.129491e+01    7.202026e-01
  3.132666e+01    7.335056e-01
  3.135841e+01    7.208451e-01
  3.139017e+01    7.392731e-01
  3.142192e+01    7.507970e-01
  3.145367e+01    7.258470e-01
  3.148542e+01    7.367961e-01
  3.151717e+01    7.652406e-01
  3.154892e+01    7.817516e-01
  3.158067e+01    8.028812e-01
  3.161242e+01    8.093010e-01
  3.164418e+01    8.168132e-01
  3.167593e+01    8.766003e-01
  3.170768e+01    9.363008e-01
  3.173943e+01    1.028757e+00
  3.177118e+01    1.159007e+00
  3.180293e+01    1.337246e+00
  3.183468e+01    1.581266e+00
  3.186643e+01    1.898306e+00
  3.189818e+01    2.124079e+00
  3.192994e+01    2.308519e+00
  3.196169e+01    2.167468e+00
  3.199344e+01    1.798073e+00
  3.202519e+01    1.498340e+00
  3.205694e+01    1.265156e+00
  3.208869e+01    1.050725e+00
  3.212044e+01    9.711432e-01
  3.215219e+01    8.954700e-01
  3.218394e+01    8.703929e-01
  3.221570e+01    8.295657e-01
  3.224745e+01    7.925905e-01
  3.227920e+01    7.690912e-01
  3.231095e+01    7.590948e-01
  3.234270e+01    7.466935e-01
  3.237445e+01    7.563570e-01
  3.240620e+01    7.471724e-01
  3.243795e+01    7.446415e-01
  3.246970e+01    7.393020e-01
  3.250146e+01    7.332714e-01
  3.253321e+01    7.136243e-01
  3.254908e+01    7.171271e-01