File: XRD/2024-07-27_002_Ru-CGO-ex_Activtation_ramp_000002_data_000182.dat
# == pyFAI calibration ==
# Distance Sample to Detector: 0.4 m
# PONI: 9.750e-02, 1.135e-01 m
# Rotations: -0.000175 0.000000 -0.000000 rad
#
# == Fit2d calibration ==
# Distance Sample-beamCenter: 400.000 mm
# Center: x=1514.000, y=1300.000 pix
# Tilt: 0.010 deg  TiltPlanRot: 0.010 deg
#
# Detector Detector	 Spline= None	 PixelSize= 7.500e-05, 7.500e-05 m
#    Detector has a mask: False
#    Detector has a dark current: False
#    detector has a flat field: False
#
# Wavelength: 6.888e-11 m
# Mask applied: user provided
# Dark current applied: False
# Flat field applied: False
# Polarization factor: 0.99
# Normalization factor: 1.0
# --> /home/myspot/data/2024_07_Rosario/Ru-CGO-ex/2024-07-27_002_Ru-CGO-ex_Activtation_ramp_000002_data_000182.dat
#       q_nm^-1             I
  2.003187e-02    0.000000e+00
  5.178302e-02    4.718721e-02
  8.353417e-02    9.393039e-02
  1.152853e-01    8.461617e-02
  1.470365e-01    1.572512e-02
  1.787876e-01    3.572363e-02
  2.105388e-01    7.767924e-03
  2.422899e-01    4.163101e-03
  2.740411e-01    1.965884e-02
  3.057922e-01    1.888973e-02
  3.375433e-01    4.713335e-02
  3.692945e-01    8.568361e-02
  4.010456e-01    4.121036e-02
  4.327968e-01    2.396645e-02
  4.645479e-01    5.182726e-02
  4.962991e-01    3.194102e-02
  5.280502e-01    4.399542e-02
  5.598014e-01    5.282420e-02
  5.915525e-01    2.606884e-02
  6.233037e-01    3.755525e-02
  6.550548e-01    2.827511e-02
  6.868060e-01    5.910364e-02
  7.185571e-01    6.141305e-02
  7.503083e-01    7.017279e-02
  7.820594e-01    1.066094e-01
  8.138106e-01    1.942093e-01
  8.455617e-01    2.994269e-01
  8.773129e-01    4.680340e-01
  9.090640e-01    6.016473e-01
  9.408152e-01    6.916415e-01
  9.725663e-01    9.110483e-01
  1.004317e+00    1.025842e+00
  1.036069e+00    1.203836e+00
  1.067820e+00    1.295784e+00
  1.099571e+00    1.396698e+00
  1.131322e+00    1.442099e+00
  1.163073e+00    1.484835e+00
  1.194824e+00    1.674564e+00
  1.226575e+00    1.968204e+00
  1.258327e+00    2.191095e+00
  1.290078e+00    2.390997e+00
  1.321829e+00    2.428027e+00
  1.353580e+00    2.448230e+00
  1.385331e+00    2.613101e+00
  1.417082e+00    2.467998e+00
  1.448834e+00    2.645514e+00
  1.480585e+00    2.703925e+00
  1.512336e+00    2.750838e+00
  1.544087e+00    2.948132e+00
  1.575838e+00    2.913338e+00
  1.607589e+00    2.889889e+00
  1.639340e+00    2.833737e+00
  1.671092e+00    2.724359e+00
  1.702843e+00    2.643843e+00
  1.734594e+00    2.820399e+00
  1.766345e+00    2.711405e+00
  1.798096e+00    2.663812e+00
  1.829847e+00    2.748520e+00
  1.861598e+00    2.626268e+00
  1.893350e+00    2.608440e+00
  1.925101e+00    2.681712e+00
  1.956852e+00    2.769474e+00
  1.988603e+00    2.763494e+00
  2.020354e+00    2.699618e+00
  2.052105e+00    2.702275e+00
  2.083856e+00    2.710826e+00
  2.115608e+00    2.777418e+00
  2.147359e+00    2.752322e+00
  2.179110e+00    2.763637e+00
  2.210861e+00    2.783595e+00
  2.242612e+00    2.746099e+00
  2.274363e+00    2.721932e+00
  2.306115e+00    2.740458e+00
  2.337866e+00    2.725812e+00
  2.369617e+00    2.780206e+00
  2.401368e+00    2.755828e+00
  2.433119e+00    2.810970e+00
  2.464870e+00    2.759242e+00
  2.496621e+00    2.777923e+00
  2.528373e+00    2.790860e+00
  2.560124e+00    2.710743e+00
  2.591875e+00    2.703056e+00
  2.623626e+00    2.840347e+00
  2.655377e+00    2.773669e+00
  2.687128e+00    2.781260e+00
  2.718879e+00    2.841213e+00
  2.750631e+00    2.825562e+00
  2.782382e+00    2.991169e+00
  2.814133e+00    2.721347e+00
  2.845884e+00    2.919415e+00
  2.877635e+00    2.871945e+00
  2.909386e+00    2.827092e+00
  2.941137e+00    2.779679e+00
  2.972889e+00    2.954833e+00
  3.004640e+00    2.962938e+00
  3.036391e+00    2.872755e+00
  3.068142e+00    2.955324e+00
  3.099893e+00    2.816433e+00
  3.131644e+00    2.962251e+00
  3.163395e+00    2.848663e+00
  3.195147e+00    2.945892e+00
  3.226898e+00    2.890384e+00
  3.258649e+00    2.967560e+00
  3.290400e+00    2.814338e+00
  3.322151e+00    2.958341e+00
  3.353902e+00    2.995503e+00
  3.385654e+00    2.917442e+00
  3.417405e+00    3.060901e+00
  3.449156e+00    2.987770e+00
  3.480907e+00    3.009701e+00
  3.512658e+00    3.050074e+00
  3.544409e+00    2.989180e+00
  3.576160e+00    2.960350e+00
  3.607912e+00    2.994747e+00
  3.639663e+00    3.018834e+00
  3.671414e+00    3.093421e+00
  3.703165e+00    3.102807e+00
  3.734916e+00    3.154569e+00
  3.766667e+00    2.957969e+00
  3.798418e+00    2.944455e+00
  3.830170e+00    3.030324e+00
  3.861921e+00    2.955222e+00
  3.893672e+00    3.015959e+00
  3.925423e+00    3.102812e+00
  3.957174e+00    2.982979e+00
  3.988925e+00    3.058976e+00
  4.020676e+00    3.119289e+00
  4.052428e+00    3.069167e+00
  4.084179e+00    3.076683e+00
  4.115930e+00    3.039929e+00
  4.147681e+00    3.034651e+00
  4.179432e+00    3.111882e+00
  4.211183e+00    3.037160e+00
  4.242935e+00    3.125803e+00
  4.274686e+00    3.060119e+00
  4.306437e+00    3.035377e+00
  4.338188e+00    3.020000e+00
  4.369939e+00    3.013101e+00
  4.401690e+00    3.075593e+00
  4.433441e+00    3.148281e+00
  4.465193e+00    3.127913e+00
  4.496944e+00    3.140523e+00
  4.528695e+00    3.036683e+00
  4.560446e+00    3.037490e+00
  4.592197e+00    3.152569e+00
  4.623948e+00    3.070727e+00
  4.655699e+00    3.141532e+00
  4.687451e+00    3.106978e+00
  4.719202e+00    3.157234e+00
  4.750953e+00    3.158023e+00
  4.782704e+00    3.115339e+00
  4.814455e+00    3.119496e+00
  4.846206e+00    3.108868e+00
  4.877957e+00    3.001233e+00
  4.909709e+00    3.132814e+00
  4.941460e+00    3.123410e+00
  4.973211e+00    3.149182e+00
  5.004962e+00    3.136804e+00
  5.036713e+00    3.144354e+00
  5.068464e+00    3.185527e+00
  5.100216e+00    3.114665e+00
  5.131967e+00    3.128060e+00
  5.163718e+00    3.235645e+00
  5.195469e+00    3.211130e+00
  5.227220e+00    3.094055e+00
  5.258971e+00    3.138022e+00
  5.290722e+00    3.242067e+00
  5.322474e+00    3.154689e+00
  5.354225e+00    3.114155e+00
  5.385976e+00    3.119875e+00
  5.417727e+00    3.149485e+00
  5.449478e+00    3.072321e+00
  5.481229e+00    3.077889e+00
  5.512980e+00    3.109655e+00
  5.544732e+00    3.088453e+00
  5.576483e+00    3.171280e+00
  5.608234e+00    3.106524e+00
  5.639985e+00    3.029845e+00
  5.671736e+00    3.096689e+00
  5.703487e+00    3.047880e+00
  5.735238e+00    3.111825e+00
  5.766990e+00    3.073594e+00
  5.798741e+00    3.078524e+00
  5.830492e+00    3.164663e+00
  5.862243e+00    3.102540e+00
  5.893994e+00    3.066362e+00
  5.925745e+00    3.052517e+00
  5.957497e+00    3.092914e+00
  5.989248e+00    2.971445e+00
  6.020999e+00    3.091108e+00
  6.052750e+00    3.062525e+00
  6.084501e+00    3.155345e+00
  6.116252e+00    3.051659e+00
  6.148003e+00    3.050396e+00
  6.179755e+00    3.080772e+00
  6.211506e+00    3.115240e+00
  6.243257e+00    3.115029e+00
  6.275008e+00    3.073568e+00
  6.306759e+00    3.059756e+00
  6.338510e+00    3.127376e+00
  6.370261e+00    3.079010e+00
  6.402013e+00    2.998854e+00
  6.433764e+00    3.049217e+00
  6.465515e+00    3.114448e+00
  6.497266e+00    3.116848e+00
  6.529017e+00    3.087616e+00
  6.560768e+00    3.093779e+00
  6.592519e+00    3.078487e+00
  6.624271e+00    3.101683e+00
  6.656022e+00    3.006382e+00
  6.687773e+00    3.034281e+00
  6.719524e+00    3.082074e+00
  6.751275e+00    3.096320e+00
  6.783026e+00    3.017768e+00
  6.814777e+00    3.129906e+00
  6.846529e+00    3.032356e+00
  6.878280e+00    3.003681e+00
  6.910031e+00    3.029875e+00
  6.941782e+00    3.013617e+00
  6.973533e+00    3.058259e+00
  7.005284e+00    3.010503e+00
  7.037036e+00    3.104037e+00
  7.068787e+00    3.054136e+00
  7.100538e+00    3.003147e+00
  7.132289e+00    3.011044e+00
  7.164040e+00    3.036953e+00
  7.195791e+00    3.017689e+00
  7.227542e+00    3.032444e+00
  7.259294e+00    3.015099e+00
  7.291045e+00    2.988152e+00
  7.322796e+00    3.026869e+00
  7.354547e+00    3.031624e+00
  7.386298e+00    3.029087e+00
  7.418049e+00    2.971204e+00
  7.449800e+00    3.039398e+00
  7.481552e+00    2.939213e+00
  7.513303e+00    2.954315e+00
  7.545054e+00    2.956172e+00
  7.576805e+00    3.020238e+00
  7.608556e+00    2.927456e+00
  7.640307e+00    2.971535e+00
  7.672058e+00    3.014241e+00
  7.703810e+00    2.906065e+00
  7.735561e+00    2.913403e+00
  7.767312e+00    2.975292e+00
  7.799063e+00    2.957752e+00
  7.830814e+00    2.948199e+00
  7.862565e+00    2.942319e+00
  7.894317e+00    2.966782e+00
  7.926068e+00    2.971818e+00
  7.957819e+00    2.949774e+00
  7.989570e+00    2.936653e+00
  8.021321e+00    2.958105e+00
  8.053072e+00    3.006489e+00
  8.084823e+00    2.924422e+00
  8.116575e+00    2.900254e+00
  8.148326e+00    2.947895e+00
  8.180077e+00    3.036250e+00
  8.211828e+00    2.986326e+00
  8.243579e+00    3.090110e+00
  8.275330e+00    2.962681e+00
  8.307081e+00    2.941756e+00
  8.338833e+00    2.927607e+00
  8.370584e+00    2.929377e+00
  8.402335e+00    2.932217e+00
  8.434086e+00    2.913339e+00
  8.465837e+00    2.867498e+00
  8.497588e+00    2.879730e+00
  8.529339e+00    2.932391e+00
  8.561091e+00    2.922458e+00
  8.592842e+00    2.905932e+00
  8.624593e+00    2.844752e+00
  8.656344e+00    2.823086e+00
  8.688095e+00    2.881209e+00
  8.719846e+00    2.875734e+00
  8.751598e+00    2.862560e+00
  8.783349e+00    2.845462e+00
  8.815100e+00    2.909362e+00
  8.846851e+00    2.812975e+00
  8.878602e+00    2.794926e+00
  8.910353e+00    2.871590e+00
  8.942104e+00    2.842666e+00
  8.973856e+00    2.823468e+00
  9.005607e+00    2.791347e+00
  9.037358e+00    2.823889e+00
  9.069109e+00    2.849245e+00
  9.100860e+00    2.808212e+00
  9.132611e+00    2.773654e+00
  9.164362e+00    2.821118e+00
  9.196114e+00    2.798276e+00
  9.227865e+00    2.769029e+00
  9.259616e+00    2.738145e+00
  9.291367e+00    2.771630e+00
  9.323118e+00    2.824524e+00
  9.354869e+00    2.805559e+00
  9.386620e+00    2.781738e+00
  9.418372e+00    2.799655e+00
  9.450123e+00    2.745290e+00
  9.481874e+00    2.754102e+00
  9.513625e+00    2.756993e+00
  9.545376e+00    2.712808e+00
  9.577127e+00    2.726175e+00
  9.608878e+00    2.751176e+00
  9.640630e+00    2.806193e+00
  9.672381e+00    2.738428e+00
  9.704132e+00    2.738611e+00
  9.735883e+00    2.746139e+00
  9.767634e+00    2.769775e+00
  9.799385e+00    2.769169e+00
  9.831137e+00    2.730215e+00
  9.862888e+00    2.669940e+00
  9.894639e+00    2.643077e+00
  9.926390e+00    2.716361e+00
  9.958141e+00    2.668178e+00
  9.989892e+00    2.699909e+00
  1.002164e+01    2.688219e+00
  1.005339e+01    2.677732e+00
  1.008515e+01    2.636709e+00
  1.011690e+01    2.682255e+00
  1.014865e+01    2.729410e+00
  1.018040e+01    2.665062e+00
  1.021215e+01    2.666479e+00
  1.024390e+01    2.652081e+00
  1.027565e+01    2.655915e+00
  1.030740e+01    2.668867e+00
  1.033915e+01    2.577673e+00
  1.037091e+01    2.630367e+00
  1.040266e+01    2.627934e+00
  1.043441e+01    2.586831e+00
  1.046616e+01    2.648677e+00
  1.049791e+01    2.595291e+00
  1.052966e+01    2.533391e+00
  1.056141e+01    2.616087e+00
  1.059316e+01    2.623041e+00
  1.062492e+01    2.588842e+00
  1.065667e+01    2.622227e+00
  1.068842e+01    2.521834e+00
  1.072017e+01    2.567791e+00
  1.075192e+01    2.580510e+00
  1.078367e+01    2.509346e+00
  1.081542e+01    2.564280e+00
  1.084717e+01    2.538706e+00
  1.087892e+01    2.535368e+00
  1.091068e+01    2.512181e+00
  1.094243e+01    2.473092e+00
  1.097418e+01    2.529164e+00
  1.100593e+01    2.444817e+00
  1.103768e+01    2.552978e+00
  1.106943e+01    2.491508e+00
  1.110118e+01    2.489605e+00
  1.113293e+01    2.446626e+00
  1.116468e+01    2.508896e+00
  1.119644e+01    2.515636e+00
  1.122819e+01    2.463857e+00
  1.125994e+01    2.462065e+00
  1.129169e+01    2.491135e+00
  1.132344e+01    2.472261e+00
  1.135519e+01    2.460253e+00
  1.138694e+01    2.434254e+00
  1.141869e+01    2.426498e+00
  1.145045e+01    2.408111e+00
  1.148220e+01    2.439547e+00
  1.151395e+01    2.454205e+00
  1.154570e+01    2.420326e+00
  1.157745e+01    2.396071e+00
  1.160920e+01    2.354066e+00
  1.164095e+01    2.418917e+00
  1.167270e+01    2.384784e+00
  1.170445e+01    2.425935e+00
  1.173621e+01    2.374880e+00
  1.176796e+01    2.329772e+00
  1.179971e+01    2.394383e+00
  1.183146e+01    2.349134e+00
  1.186321e+01    2.377308e+00
  1.189496e+01    2.347996e+00
  1.192671e+01    2.404462e+00
  1.195846e+01    2.351950e+00
  1.199021e+01    2.337902e+00
  1.202197e+01    2.336656e+00
  1.205372e+01    2.342331e+00
  1.208547e+01    2.324814e+00
  1.211722e+01    2.338914e+00
  1.214897e+01    2.330378e+00
  1.218072e+01    2.343981e+00
  1.221247e+01    2.319195e+00
  1.224422e+01    2.291642e+00
  1.227597e+01    2.316102e+00
  1.230773e+01    2.313238e+00
  1.233948e+01    2.350506e+00
  1.237123e+01    2.337501e+00
  1.240298e+01    2.314824e+00
  1.243473e+01    2.333006e+00
  1.246648e+01    2.320488e+00
  1.249823e+01    2.369219e+00
  1.252998e+01    2.379685e+00
  1.256174e+01    2.407903e+00
  1.259349e+01    2.370606e+00
  1.262524e+01    2.360619e+00
  1.265699e+01    2.433484e+00
  1.268874e+01    2.399349e+00
  1.272049e+01    2.496494e+00
  1.275224e+01    2.524952e+00
  1.278399e+01    2.592585e+00
  1.281574e+01    2.706118e+00
  1.284750e+01    2.821871e+00
  1.287925e+01    2.962871e+00
  1.291100e+01    3.278772e+00
  1.294275e+01    3.711379e+00
  1.297450e+01    4.383739e+00
  1.300625e+01    5.442909e+00
  1.303800e+01    7.076753e+00
  1.306975e+01    9.420839e+00
  1.310150e+01    1.186825e+01
  1.313326e+01    1.407031e+01
  1.316501e+01    1.560445e+01
  1.319676e+01    1.543979e+01
  1.322851e+01    1.232897e+01
  1.326026e+01    8.763510e+00
  1.329201e+01    6.482455e+00
  1.332376e+01    5.001564e+00
  1.335551e+01    4.055726e+00
  1.338727e+01    3.518720e+00
  1.341902e+01    3.163946e+00
  1.345077e+01    2.865721e+00
  1.348252e+01    2.681068e+00
  1.351427e+01    2.584294e+00
  1.354602e+01    2.481495e+00
  1.357777e+01    2.382737e+00
  1.360952e+01    2.279513e+00
  1.364127e+01    2.279675e+00
  1.367303e+01    2.297215e+00
  1.370478e+01    2.192586e+00
  1.373653e+01    2.156584e+00
  1.376828e+01    2.175753e+00
  1.380003e+01    2.253421e+00
  1.383178e+01    2.190764e+00
  1.386353e+01    2.137802e+00
  1.389528e+01    2.089880e+00
  1.392703e+01    2.097525e+00
  1.395879e+01    2.036988e+00
  1.399054e+01    2.093785e+00
  1.402229e+01    2.072987e+00
  1.405404e+01    2.026430e+00
  1.408579e+01    2.030535e+00
  1.411754e+01    2.010072e+00
  1.414929e+01    2.032199e+00
  1.418104e+01    2.039373e+00
  1.421279e+01    1.991877e+00
  1.424455e+01    1.999479e+00
  1.427630e+01    1.954174e+00
  1.430805e+01    1.943131e+00
  1.433980e+01    1.944237e+00
  1.437155e+01    1.938980e+00
  1.440330e+01    1.963473e+00
  1.443505e+01    1.980347e+00
  1.446680e+01    1.887105e+00
  1.449856e+01    1.921660e+00
  1.453031e+01    1.941239e+00
  1.456206e+01    1.934879e+00
  1.459381e+01    1.932991e+00
  1.462556e+01    1.925481e+00
  1.465731e+01    1.973882e+00
  1.468906e+01    1.907834e+00
  1.472081e+01    1.959430e+00
  1.475256e+01    1.946036e+00
  1.478432e+01    1.896556e+00
  1.481607e+01    1.919465e+00
  1.484782e+01    1.911925e+00
  1.487957e+01    1.939847e+00
  1.491132e+01    1.966025e+00
  1.494307e+01    1.984155e+00
  1.497482e+01    2.048095e+00
  1.500657e+01    2.134672e+00
  1.503832e+01    2.349936e+00
  1.507008e+01    2.519360e+00
  1.510183e+01    2.893277e+00
  1.513358e+01    3.431078e+00
  1.516533e+01    4.187840e+00
  1.519708e+01    4.801486e+00
  1.522883e+01    5.278004e+00
  1.526058e+01    5.514963e+00
  1.529233e+01    5.243616e+00
  1.532409e+01    4.400404e+00
  1.535584e+01    3.552406e+00
  1.538759e+01    2.878864e+00
  1.541934e+01    2.477787e+00
  1.545109e+01    2.241068e+00
  1.548284e+01    2.108034e+00
  1.551459e+01    1.982043e+00
  1.554634e+01    1.903285e+00
  1.557809e+01    1.868214e+00
  1.560985e+01    1.802762e+00
  1.564160e+01    1.788628e+00
  1.567335e+01    1.765922e+00
  1.570510e+01    1.756287e+00
  1.573685e+01    1.726622e+00
  1.576860e+01    1.705337e+00
  1.580035e+01    1.656545e+00
  1.583210e+01    1.671461e+00
  1.586385e+01    1.670731e+00
  1.589561e+01    1.652519e+00
  1.592736e+01    1.625878e+00
  1.595911e+01    1.654104e+00
  1.599086e+01    1.624379e+00
  1.602261e+01    1.634340e+00
  1.605436e+01    1.618806e+00
  1.608611e+01    1.599205e+00
  1.611786e+01    1.584799e+00
  1.614961e+01    1.579817e+00
  1.618137e+01    1.582728e+00
  1.621312e+01    1.558652e+00
  1.624487e+01    1.609351e+00
  1.627662e+01    1.562042e+00
  1.630837e+01    1.550359e+00
  1.634012e+01    1.557234e+00
  1.637187e+01    1.571077e+00
  1.640362e+01    1.519581e+00
  1.643538e+01    1.563973e+00
  1.646713e+01    1.534971e+00
  1.649888e+01    1.520650e+00
  1.653063e+01    1.518076e+00
  1.656238e+01    1.525936e+00
  1.659413e+01    1.539149e+00
  1.662588e+01    1.499734e+00
  1.665763e+01    1.490469e+00
  1.668938e+01    1.500710e+00
  1.672114e+01    1.477677e+00
  1.675289e+01    1.490895e+00
  1.678464e+01    1.442378e+00
  1.681639e+01    1.493246e+00
  1.684814e+01    1.478342e+00
  1.687989e+01    1.459346e+00
  1.691164e+01    1.455450e+00
  1.694339e+01    1.435940e+00
  1.697514e+01    1.459462e+00
  1.700690e+01    1.443156e+00
  1.703865e+01    1.449124e+00
  1.707040e+01    1.448728e+00
  1.710215e+01    1.471616e+00
  1.713390e+01    1.425960e+00
  1.716565e+01    1.415899e+00
  1.719740e+01    1.386141e+00
  1.722915e+01    1.397467e+00
  1.726091e+01    1.425446e+00
  1.729266e+01    1.418595e+00
  1.732441e+01    1.402906e+00
  1.735616e+01    1.388516e+00
  1.738791e+01    1.389864e+00
  1.741966e+01    1.368643e+00
  1.745141e+01    1.364696e+00
  1.748316e+01    1.391168e+00
  1.751491e+01    1.373674e+00
  1.754667e+01    1.349262e+00
  1.757842e+01    1.380484e+00
  1.761017e+01    1.349379e+00
  1.764192e+01    1.326035e+00
  1.767367e+01    1.346457e+00
  1.770542e+01    1.344242e+00
  1.773717e+01    1.334425e+00
  1.776892e+01    1.334448e+00
  1.780067e+01    1.332885e+00
  1.783243e+01    1.324395e+00
  1.786418e+01    1.331525e+00
  1.789593e+01    1.329002e+00
  1.792768e+01    1.294721e+00
  1.795943e+01    1.311370e+00
  1.799118e+01    1.335192e+00
  1.802293e+01    1.299421e+00
  1.805468e+01    1.290202e+00
  1.808643e+01    1.311084e+00
  1.811819e+01    1.279904e+00
  1.814994e+01    1.285339e+00
  1.818169e+01    1.298063e+00
  1.821344e+01    1.283395e+00
  1.824519e+01    1.284234e+00
  1.827694e+01    1.303205e+00
  1.830869e+01    1.279907e+00
  1.834044e+01    1.284168e+00
  1.837220e+01    1.253160e+00
  1.840395e+01    1.290046e+00
  1.843570e+01    1.265003e+00
  1.846745e+01    1.292214e+00
  1.849920e+01    1.252813e+00
  1.853095e+01    1.226856e+00
  1.856270e+01    1.265002e+00
  1.859445e+01    1.236620e+00
  1.862620e+01    1.243082e+00
  1.865796e+01    1.236988e+00
  1.868971e+01    1.246599e+00
  1.872146e+01    1.232129e+00
  1.875321e+01    1.235847e+00
  1.878496e+01    1.207454e+00
  1.881671e+01    1.210698e+00
  1.884846e+01    1.209980e+00
  1.888021e+01    1.247068e+00
  1.891196e+01    1.214053e+00
  1.894372e+01    1.220617e+00
  1.897547e+01    1.200129e+00
  1.900722e+01    1.195574e+00
  1.903897e+01    1.184201e+00
  1.907072e+01    1.213787e+00
  1.910247e+01    1.179489e+00
  1.913422e+01    1.215296e+00
  1.916597e+01    1.187434e+00
  1.919773e+01    1.189603e+00
  1.922948e+01    1.178689e+00
  1.926123e+01    1.182233e+00
  1.929298e+01    1.205113e+00
  1.932473e+01    1.179471e+00
  1.935648e+01    1.188995e+00
  1.938823e+01    1.169570e+00
  1.941998e+01    1.175861e+00
  1.945173e+01    1.168442e+00
  1.948349e+01    1.183826e+00
  1.951524e+01    1.173824e+00
  1.954699e+01    1.162717e+00
  1.957874e+01    1.167074e+00
  1.961049e+01    1.159766e+00
  1.964224e+01    1.159832e+00
  1.967399e+01    1.150106e+00
  1.970574e+01    1.144579e+00
  1.973749e+01    1.131756e+00
  1.976925e+01    1.134551e+00
  1.980100e+01    1.124419e+00
  1.983275e+01    1.135473e+00
  1.986450e+01    1.120983e+00
  1.989625e+01    1.119637e+00
  1.992800e+01    1.113920e+00
  1.995975e+01    1.131599e+00
  1.999150e+01    1.126459e+00
  2.002325e+01    1.120823e+00
  2.005501e+01    1.113358e+00
  2.008676e+01    1.096850e+00
  2.011851e+01    1.085378e+00
  2.015026e+01    1.115525e+00
  2.018201e+01    1.105916e+00
  2.021376e+01    1.082427e+00
  2.024551e+01    1.142806e+00
  2.027726e+01    1.114378e+00
  2.030902e+01    1.095084e+00
  2.034077e+01    1.096256e+00
  2.037252e+01    1.102160e+00
  2.040427e+01    1.105076e+00
  2.043602e+01    1.106677e+00
  2.046777e+01    1.090275e+00
  2.049952e+01    1.086268e+00
  2.053127e+01    1.090888e+00
  2.056302e+01    1.081666e+00
  2.059478e+01    1.094400e+00
  2.062653e+01    1.054340e+00
  2.065828e+01    1.080154e+00
  2.069003e+01    1.089332e+00
  2.072178e+01    1.082452e+00
  2.075353e+01    1.066048e+00
  2.078528e+01    1.090963e+00
  2.081703e+01    1.071711e+00
  2.084878e+01    1.098717e+00
  2.088054e+01    1.090633e+00
  2.091229e+01    1.078250e+00
  2.094404e+01    1.068748e+00
  2.097579e+01    1.048759e+00
  2.100754e+01    1.069365e+00
  2.103929e+01    1.086476e+00
  2.107104e+01    1.072325e+00
  2.110279e+01    1.082464e+00
  2.113455e+01    1.066528e+00
  2.116630e+01    1.082875e+00
  2.119805e+01    1.114066e+00
  2.122980e+01    1.109160e+00
  2.126155e+01    1.122917e+00
  2.129330e+01    1.123630e+00
  2.132505e+01    1.108518e+00
  2.135680e+01    1.123935e+00
  2.138855e+01    1.179637e+00
  2.142031e+01    1.202936e+00
  2.145206e+01    1.194608e+00
  2.148381e+01    1.240572e+00
  2.151556e+01    1.316830e+00
  2.154731e+01    1.342826e+00
  2.157906e+01    1.489558e+00
  2.161081e+01    1.586300e+00
  2.164256e+01    1.831764e+00
  2.167431e+01    2.103541e+00
  2.170607e+01    2.571218e+00
  2.173782e+01    3.278209e+00
  2.176957e+01    4.289060e+00
  2.180132e+01    5.502005e+00
  2.183307e+01    6.768699e+00
  2.186482e+01    8.019988e+00
  2.189657e+01    8.735201e+00
  2.192832e+01    8.200095e+00
  2.196007e+01    6.509210e+00
  2.199183e+01    4.710762e+00
  2.202358e+01    3.486902e+00
  2.205533e+01    2.656004e+00
  2.208708e+01    2.175763e+00
  2.211883e+01    1.839108e+00
  2.215058e+01    1.599418e+00
  2.218233e+01    1.468494e+00
  2.221408e+01    1.332512e+00
  2.224584e+01    1.247430e+00
  2.227759e+01    1.211798e+00
  2.230934e+01    1.172044e+00
  2.234109e+01    1.127870e+00
  2.237284e+01    1.094993e+00
  2.240459e+01    1.059650e+00
  2.243634e+01    1.023712e+00
  2.246809e+01    1.050052e+00
  2.249984e+01    1.013502e+00
  2.253160e+01    1.023476e+00
  2.256335e+01    9.943528e-01
  2.259510e+01    9.969050e-01
  2.262685e+01    9.472746e-01
  2.265860e+01    9.544056e-01
  2.269035e+01    9.634708e-01
  2.272210e+01    9.702687e-01
  2.275385e+01    9.576604e-01
  2.278560e+01    9.246393e-01
  2.281736e+01    9.360976e-01
  2.284911e+01    9.368362e-01
  2.288086e+01    9.036260e-01
  2.291261e+01    8.978882e-01
  2.294436e+01    9.029756e-01
  2.297611e+01    9.045858e-01
  2.300786e+01    8.933622e-01
  2.303961e+01    8.748087e-01
  2.307137e+01    9.001799e-01
  2.310312e+01    8.757115e-01
  2.313487e+01    8.640200e-01
  2.316662e+01    8.959984e-01
  2.319837e+01    8.945335e-01
  2.323012e+01    8.629465e-01
  2.326187e+01    8.796796e-01
  2.329362e+01    8.807134e-01
  2.332537e+01    8.720905e-01
  2.335713e+01    8.496671e-01
  2.338888e+01    8.710980e-01
  2.342063e+01    8.444664e-01
  2.345238e+01    8.476312e-01
  2.348413e+01    8.660791e-01
  2.351588e+01    8.444300e-01
  2.354763e+01    8.491603e-01
  2.357938e+01    8.559833e-01
  2.361113e+01    8.337556e-01
  2.364289e+01    8.504137e-01
  2.367464e+01    8.191496e-01
  2.370639e+01    8.294765e-01
  2.373814e+01    8.323076e-01
  2.376989e+01    8.362324e-01
  2.380164e+01    7.992850e-01
  2.383339e+01    8.049303e-01
  2.386514e+01    8.095939e-01
  2.389689e+01    7.978508e-01
  2.392865e+01    7.890255e-01
  2.396040e+01    7.669286e-01
  2.399215e+01    8.083612e-01
  2.402390e+01    7.892852e-01
  2.405565e+01    8.010187e-01
  2.408740e+01    7.766114e-01
  2.411915e+01    7.982709e-01
  2.415090e+01    8.024147e-01
  2.418266e+01    7.819716e-01
  2.421441e+01    7.851307e-01
  2.424616e+01    7.901562e-01
  2.427791e+01    7.877405e-01
  2.430966e+01    7.979192e-01
  2.434141e+01    7.745591e-01
  2.437316e+01    7.722453e-01
  2.440491e+01    7.790646e-01
  2.443666e+01    7.942732e-01
  2.446842e+01    7.843581e-01
  2.450017e+01    7.747861e-01
  2.453192e+01    7.754763e-01
  2.456367e+01    8.037491e-01
  2.459542e+01    7.992165e-01
  2.462717e+01    7.747172e-01
  2.465892e+01    8.029699e-01
  2.469067e+01    7.731130e-01
  2.472242e+01    8.019902e-01
  2.475418e+01    7.847432e-01
  2.478593e+01    7.901224e-01
  2.481768e+01    7.998648e-01
  2.484943e+01    7.922528e-01
  2.488118e+01    7.940860e-01
  2.491293e+01    8.024259e-01
  2.494468e+01    7.868024e-01
  2.497643e+01    8.000061e-01
  2.500819e+01    7.874446e-01
  2.503994e+01    7.964764e-01
  2.507169e+01    8.031124e-01
  2.510344e+01    8.252686e-01
  2.513519e+01    8.112053e-01
  2.516694e+01    8.031716e-01
  2.519869e+01    8.190980e-01
  2.523044e+01    8.359854e-01
  2.526219e+01    8.307381e-01
  2.529395e+01    8.534670e-01
  2.532570e+01    8.639114e-01
  2.535745e+01    8.895137e-01
  2.538920e+01    8.986220e-01
  2.542095e+01    8.998042e-01
  2.545270e+01    9.450487e-01
  2.548445e+01    9.666477e-01
  2.551620e+01    9.935356e-01
  2.554795e+01    1.015185e+00
  2.557971e+01    1.091934e+00
  2.561146e+01    1.124549e+00
  2.564321e+01    1.207157e+00
  2.567496e+01    1.316178e+00
  2.570671e+01    1.489836e+00
  2.573846e+01    1.727373e+00
  2.577021e+01    2.119240e+00
  2.580196e+01    2.662075e+00
  2.583371e+01    3.450707e+00
  2.586547e+01    4.419827e+00
  2.589722e+01    5.582416e+00
  2.592897e+01    6.626196e+00
  2.596072e+01    7.114508e+00
  2.599247e+01    6.625224e+00
  2.602422e+01    5.304900e+00
  2.605597e+01    3.978033e+00
  2.608772e+01    2.914749e+00
  2.611948e+01    2.283431e+00
  2.615123e+01    1.827137e+00
  2.618298e+01    1.580116e+00
  2.621473e+01    1.405381e+00
  2.624648e+01    1.245667e+00
  2.627823e+01    1.156434e+00
  2.630998e+01    1.078982e+00
  2.634173e+01    1.032772e+00
  2.637348e+01    9.997730e-01
  2.640524e+01    9.495557e-01
  2.643699e+01    9.534001e-01
  2.646874e+01    9.325067e-01
  2.650049e+01    9.279298e-01
  2.653224e+01    9.042860e-01
  2.656399e+01    9.030767e-01
  2.659574e+01    8.897643e-01
  2.662749e+01    8.714487e-01
  2.665924e+01    8.939471e-01
  2.669100e+01    8.480681e-01
  2.672275e+01    8.745449e-01
  2.675450e+01    8.584318e-01
  2.678625e+01    8.677209e-01
  2.681800e+01    8.702235e-01
  2.684975e+01    8.948228e-01
  2.688150e+01    9.026226e-01
  2.691325e+01    9.100568e-01
  2.694501e+01    9.430563e-01
  2.697676e+01    9.700547e-01
  2.700851e+01    1.034270e+00
  2.704026e+01    1.108957e+00
  2.707201e+01    1.244454e+00
  2.710376e+01    1.383943e+00
  2.713551e+01    1.645260e+00
  2.716726e+01    1.895422e+00
  2.719901e+01    2.088042e+00
  2.723077e+01    2.146823e+00
  2.726252e+01    1.950802e+00
  2.729427e+01    1.662673e+00
  2.732602e+01    1.407733e+00
  2.735777e+01    1.176913e+00
  2.738952e+01    1.085451e+00
  2.742127e+01    1.013026e+00
  2.745302e+01    9.444508e-01
  2.748477e+01    9.134232e-01
  2.751653e+01    8.950792e-01
  2.754828e+01    8.858969e-01
  2.758003e+01    8.391837e-01
  2.761178e+01    8.189231e-01
  2.764353e+01    8.393843e-01
  2.767528e+01    8.307464e-01
  2.770703e+01    8.050934e-01
  2.773878e+01    8.096983e-01
  2.777054e+01    8.090398e-01
  2.780229e+01    8.121523e-01
  2.783404e+01    7.878438e-01
  2.786579e+01    7.852075e-01
  2.789754e+01    8.034277e-01
  2.792929e+01    7.890129e-01
  2.796104e+01    7.804127e-01
  2.799279e+01    7.710209e-01
  2.802454e+01    7.957816e-01
  2.805630e+01    7.694973e-01
  2.808805e+01    7.797221e-01
  2.811980e+01    7.662388e-01
  2.815155e+01    7.768530e-01
  2.818330e+01    7.503684e-01
  2.821505e+01    8.072728e-01
  2.824680e+01    7.579963e-01
  2.827855e+01    7.609360e-01
  2.831030e+01    7.410081e-01
  2.834206e+01    7.687839e-01
  2.837381e+01    7.387204e-01
  2.840556e+01    7.670796e-01
  2.843731e+01    7.297483e-01
  2.846906e+01    7.755238e-01
  2.850081e+01    7.466701e-01
  2.853256e+01    7.428545e-01
  2.856431e+01    7.648924e-01
  2.859606e+01    7.696874e-01
  2.862782e+01    7.686970e-01
  2.865957e+01    7.482939e-01
  2.869132e+01    7.354307e-01
  2.872307e+01    7.368894e-01
  2.875482e+01    7.263277e-01
  2.878657e+01    7.343854e-01
  2.881832e+01    7.373805e-01
  2.885007e+01    7.479941e-01
  2.888183e+01    7.366024e-01
  2.891358e+01    7.391831e-01
  2.894533e+01    7.384542e-01
  2.897708e+01    7.263966e-01
  2.900883e+01    7.537791e-01
  2.904058e+01    7.313691e-01
  2.907233e+01    7.361917e-01
  2.910408e+01    7.387767e-01
  2.913583e+01    7.462201e-01
  2.916759e+01    7.303654e-01
  2.919934e+01    7.119528e-01
  2.923109e+01    7.311536e-01
  2.926284e+01    7.355649e-01
  2.929459e+01    7.213238e-01
  2.932634e+01    7.199966e-01
  2.935809e+01    7.404743e-01
  2.938984e+01    7.187880e-01
  2.942159e+01    7.145048e-01
  2.945335e+01    7.151975e-01
  2.948510e+01    7.231054e-01
  2.951685e+01    7.068858e-01
  2.954860e+01    7.272111e-01
  2.958035e+01    7.205935e-01
  2.961210e+01    7.196925e-01
  2.964385e+01    7.147939e-01
  2.967560e+01    7.085733e-01
  2.970736e+01    7.052783e-01
  2.973911e+01    6.921074e-01
  2.977086e+01    7.274182e-01
  2.980261e+01    7.520349e-01
  2.983436e+01    7.074851e-01
  2.986611e+01    7.015891e-01
  2.989786e+01    7.140114e-01
  2.992961e+01    7.183946e-01
  2.996136e+01    7.192562e-01
  2.999312e+01    7.305334e-01
  3.002487e+01    7.298234e-01
  3.005662e+01    7.147536e-01
  3.008837e+01    7.229299e-01
  3.012012e+01    7.171516e-01
  3.015187e+01    7.079481e-01
  3.018362e+01    7.148214e-01
  3.021537e+01    6.957440e-01
  3.024712e+01    7.116829e-01
  3.027888e+01    7.249672e-01
  3.031063e+01    6.975089e-01
  3.034238e+01    6.807297e-01
  3.037413e+01    7.153280e-01
  3.040588e+01    7.030076e-01
  3.043763e+01    7.095979e-01
  3.046938e+01    7.060938e-01
  3.050113e+01    7.211766e-01
  3.053288e+01    6.916357e-01
  3.056464e+01    7.103456e-01
  3.059639e+01    7.082686e-01
  3.062814e+01    7.237573e-01
  3.065989e+01    7.046695e-01
  3.069164e+01    7.137612e-01
  3.072339e+01    6.928877e-01
  3.075514e+01    6.955613e-01
  3.078689e+01    7.193993e-01
  3.081865e+01    6.908301e-01
  3.085040e+01    7.150677e-01
  3.088215e+01    6.906176e-01
  3.091390e+01    7.003714e-01
  3.094565e+01    6.969572e-01
  3.097740e+01    7.065110e-01
  3.100915e+01    7.151045e-01
  3.104090e+01    6.901043e-01
  3.107265e+01    7.139249e-01
  3.110441e+01    6.976740e-01
  3.113616e+01    7.223150e-01
  3.116791e+01    7.325610e-01
  3.119966e+01    7.272758e-01
  3.123141e+01    7.403238e-01
  3.126316e+01    7.272028e-01
  3.129491e+01    7.242936e-01
  3.132666e+01    7.274983e-01
  3.135841e+01    7.414814e-01
  3.139017e+01    7.122549e-01
  3.142192e+01    7.317524e-01
  3.145367e+01    7.223995e-01
  3.148542e+01    7.568198e-01
  3.151717e+01    7.726620e-01
  3.154892e+01    7.472836e-01
  3.158067e+01    7.907556e-01
  3.161242e+01    8.264518e-01
  3.164418e+01    8.739783e-01
  3.167593e+01    8.979288e-01
  3.170768e+01    9.537994e-01
  3.173943e+01    1.035462e+00
  3.177118e+01    1.185289e+00
  3.180293e+01    1.413219e+00
  3.183468e+01    1.634793e+00
  3.186643e+01    1.946860e+00
  3.189818e+01    2.069966e+00
  3.192994e+01    2.034418e+00
  3.196169e+01    1.824246e+00
  3.199344e+01    1.562019e+00
  3.202519e+01    1.263656e+00
  3.205694e+01    1.122650e+00
  3.208869e+01    9.722479e-01
  3.212044e+01    9.068930e-01
  3.215219e+01    8.552680e-01
  3.218394e+01    8.148813e-01
  3.221570e+01    8.037216e-01
  3.224745e+01    7.712823e-01
  3.227920e+01    7.901800e-01
  3.231095e+01    7.435178e-01
  3.234270e+01    7.313839e-01
  3.237445e+01    7.106489e-01
  3.240620e+01    7.061342e-01
  3.243795e+01    7.250431e-01
  3.246970e+01    6.982043e-01
  3.250146e+01    7.107836e-01
  3.253321e+01    6.889847e-01
  3.254908e+01    7.314437e-01