File: XRD/2024-07-27_002_Ru-CGO-ex_Activtation_ramp_000002_data_000137.dat
# == pyFAI calibration ==
# Distance Sample to Detector: 0.4 m
# PONI: 9.750e-02, 1.135e-01 m
# Rotations: -0.000175 0.000000 -0.000000 rad
#
# == Fit2d calibration ==
# Distance Sample-beamCenter: 400.000 mm
# Center: x=1514.000, y=1300.000 pix
# Tilt: 0.010 deg  TiltPlanRot: 0.010 deg
#
# Detector Detector	 Spline= None	 PixelSize= 7.500e-05, 7.500e-05 m
#    Detector has a mask: False
#    Detector has a dark current: False
#    detector has a flat field: False
#
# Wavelength: 6.888e-11 m
# Mask applied: user provided
# Dark current applied: False
# Flat field applied: False
# Polarization factor: 0.99
# Normalization factor: 1.0
# --> /home/myspot/data/2024_07_Rosario/Ru-CGO-ex/2024-07-27_002_Ru-CGO-ex_Activtation_ramp_000002_data_000137.dat
#       q_nm^-1             I
  2.003187e-02    7.711996e-02
  5.178302e-02    2.670345e-02
  8.353417e-02    4.427531e-02
  1.152853e-01    4.540863e-02
  1.470365e-01    1.604627e-02
  1.787876e-01    3.588098e-02
  2.105388e-01    2.165308e-02
  2.422899e-01    2.765167e-02
  2.740411e-01    8.439095e-03
  3.057922e-01    1.975324e-02
  3.375433e-01    4.270360e-02
  3.692945e-01    4.436840e-02
  4.010456e-01    8.421235e-02
  4.327968e-01    3.523729e-02
  4.645479e-01    4.090267e-02
  4.962991e-01    3.461374e-02
  5.280502e-01    4.562815e-02
  5.598014e-01    4.415154e-02
  5.915525e-01    3.392060e-02
  6.233037e-01    1.260135e-02
  6.550548e-01    3.380911e-02
  6.868060e-01    1.375453e-02
  7.185571e-01    7.877830e-02
  7.503083e-01    4.350797e-02
  7.820594e-01    1.060922e-01
  8.138106e-01    1.871909e-01
  8.455617e-01    3.334831e-01
  8.773129e-01    4.412484e-01
  9.090640e-01    5.327684e-01
  9.408152e-01    6.937196e-01
  9.725663e-01    8.323101e-01
  1.004317e+00    1.017082e+00
  1.036069e+00    1.160246e+00
  1.067820e+00    1.235160e+00
  1.099571e+00    1.476990e+00
  1.131322e+00    1.450265e+00
  1.163073e+00    1.395217e+00
  1.194824e+00    1.559874e+00
  1.226575e+00    2.026862e+00
  1.258327e+00    2.274460e+00
  1.290078e+00    2.394639e+00
  1.321829e+00    2.524889e+00
  1.353580e+00    2.411415e+00
  1.385331e+00    2.484080e+00
  1.417082e+00    2.587208e+00
  1.448834e+00    2.678434e+00
  1.480585e+00    2.716273e+00
  1.512336e+00    2.711665e+00
  1.544087e+00    2.870703e+00
  1.575838e+00    3.019634e+00
  1.607589e+00    2.955425e+00
  1.639340e+00    2.891547e+00
  1.671092e+00    2.764704e+00
  1.702843e+00    2.771337e+00
  1.734594e+00    2.756699e+00
  1.766345e+00    2.712934e+00
  1.798096e+00    2.780066e+00
  1.829847e+00    2.832158e+00
  1.861598e+00    2.784059e+00
  1.893350e+00    2.731705e+00
  1.925101e+00    2.710484e+00
  1.956852e+00    2.639373e+00
  1.988603e+00    2.604359e+00
  2.020354e+00    2.581878e+00
  2.052105e+00    2.711897e+00
  2.083856e+00    2.827963e+00
  2.115608e+00    2.751276e+00
  2.147359e+00    2.718807e+00
  2.179110e+00    2.659620e+00
  2.210861e+00    2.779859e+00
  2.242612e+00    2.717272e+00
  2.274363e+00    2.699000e+00
  2.306115e+00    2.643636e+00
  2.337866e+00    2.663093e+00
  2.369617e+00    2.787357e+00
  2.401368e+00    2.756514e+00
  2.433119e+00    2.734769e+00
  2.464870e+00    2.765397e+00
  2.496621e+00    2.695729e+00
  2.528373e+00    2.825405e+00
  2.560124e+00    2.764643e+00
  2.591875e+00    2.793678e+00
  2.623626e+00    2.754158e+00
  2.655377e+00    2.818005e+00
  2.687128e+00    2.820539e+00
  2.718879e+00    2.718496e+00
  2.750631e+00    2.813770e+00
  2.782382e+00    2.724883e+00
  2.814133e+00    2.809770e+00
  2.845884e+00    2.771743e+00
  2.877635e+00    2.817795e+00
  2.909386e+00    2.880633e+00
  2.941137e+00    2.784150e+00
  2.972889e+00    2.798577e+00
  3.004640e+00    2.699717e+00
  3.036391e+00    2.832242e+00
  3.068142e+00    2.798201e+00
  3.099893e+00    2.896028e+00
  3.131644e+00    2.864579e+00
  3.163395e+00    2.730358e+00
  3.195147e+00    2.863133e+00
  3.226898e+00    2.929014e+00
  3.258649e+00    2.912884e+00
  3.290400e+00    2.936575e+00
  3.322151e+00    2.826528e+00
  3.353902e+00    2.916110e+00
  3.385654e+00    2.890850e+00
  3.417405e+00    2.877355e+00
  3.449156e+00    2.928364e+00
  3.480907e+00    2.851914e+00
  3.512658e+00    2.933888e+00
  3.544409e+00    2.994157e+00
  3.576160e+00    2.928336e+00
  3.607912e+00    2.980706e+00
  3.639663e+00    3.050586e+00
  3.671414e+00    2.957071e+00
  3.703165e+00    3.057251e+00
  3.734916e+00    2.911924e+00
  3.766667e+00    2.961265e+00
  3.798418e+00    2.949544e+00
  3.830170e+00    3.028492e+00
  3.861921e+00    2.932292e+00
  3.893672e+00    2.964854e+00
  3.925423e+00    2.904481e+00
  3.957174e+00    3.027205e+00
  3.988925e+00    2.945753e+00
  4.020676e+00    2.944889e+00
  4.052428e+00    3.024781e+00
  4.084179e+00    3.033511e+00
  4.115930e+00    2.956642e+00
  4.147681e+00    3.068102e+00
  4.179432e+00    2.991714e+00
  4.211183e+00    3.003501e+00
  4.242935e+00    2.997562e+00
  4.274686e+00    3.023307e+00
  4.306437e+00    3.016780e+00
  4.338188e+00    3.019225e+00
  4.369939e+00    2.965815e+00
  4.401690e+00    3.075469e+00
  4.433441e+00    3.081828e+00
  4.465193e+00    3.081114e+00
  4.496944e+00    3.063263e+00
  4.528695e+00    2.971686e+00
  4.560446e+00    3.077616e+00
  4.592197e+00    3.077151e+00
  4.623948e+00    3.019300e+00
  4.655699e+00    3.081160e+00
  4.687451e+00    3.148703e+00
  4.719202e+00    3.115449e+00
  4.750953e+00    3.082069e+00
  4.782704e+00    3.103900e+00
  4.814455e+00    3.067524e+00
  4.846206e+00    3.117666e+00
  4.877957e+00    2.998127e+00
  4.909709e+00    3.065705e+00
  4.941460e+00    3.049392e+00
  4.973211e+00    3.059615e+00
  5.004962e+00    3.014206e+00
  5.036713e+00    3.103439e+00
  5.068464e+00    3.027191e+00
  5.100216e+00    3.125568e+00
  5.131967e+00    3.051354e+00
  5.163718e+00    3.144852e+00
  5.195469e+00    3.083694e+00
  5.227220e+00    3.031663e+00
  5.258971e+00    3.033969e+00
  5.290722e+00    3.106123e+00
  5.322474e+00    3.094530e+00
  5.354225e+00    3.032160e+00
  5.385976e+00    3.193694e+00
  5.417727e+00    3.103073e+00
  5.449478e+00    3.069116e+00
  5.481229e+00    3.017600e+00
  5.512980e+00    3.052511e+00
  5.544732e+00    3.129224e+00
  5.576483e+00    3.029660e+00
  5.608234e+00    3.003806e+00
  5.639985e+00    2.990161e+00
  5.671736e+00    3.044460e+00
  5.703487e+00    3.026714e+00
  5.735238e+00    3.037306e+00
  5.766990e+00    3.005687e+00
  5.798741e+00    3.034934e+00
  5.830492e+00    3.012890e+00
  5.862243e+00    3.035805e+00
  5.893994e+00    3.008732e+00
  5.925745e+00    2.965960e+00
  5.957497e+00    2.956972e+00
  5.989248e+00    3.003444e+00
  6.020999e+00    2.953790e+00
  6.052750e+00    3.022966e+00
  6.084501e+00    3.029051e+00
  6.116252e+00    3.036557e+00
  6.148003e+00    3.095196e+00
  6.179755e+00    2.998660e+00
  6.211506e+00    3.052758e+00
  6.243257e+00    3.058997e+00
  6.275008e+00    3.066795e+00
  6.306759e+00    3.001800e+00
  6.338510e+00    3.018253e+00
  6.370261e+00    3.055513e+00
  6.402013e+00    3.000861e+00
  6.433764e+00    2.965430e+00
  6.465515e+00    2.932419e+00
  6.497266e+00    3.094404e+00
  6.529017e+00    2.999020e+00
  6.560768e+00    3.010530e+00
  6.592519e+00    2.957300e+00
  6.624271e+00    2.966852e+00
  6.656022e+00    3.066010e+00
  6.687773e+00    3.022359e+00
  6.719524e+00    3.044407e+00
  6.751275e+00    3.012387e+00
  6.783026e+00    3.002174e+00
  6.814777e+00    2.964761e+00
  6.846529e+00    3.060102e+00
  6.878280e+00    3.048095e+00
  6.910031e+00    2.990483e+00
  6.941782e+00    3.024849e+00
  6.973533e+00    3.028414e+00
  7.005284e+00    3.025203e+00
  7.037036e+00    3.004275e+00
  7.068787e+00    3.087512e+00
  7.100538e+00    3.013222e+00
  7.132289e+00    2.973931e+00
  7.164040e+00    2.966491e+00
  7.195791e+00    3.045443e+00
  7.227542e+00    3.041645e+00
  7.259294e+00    2.971632e+00
  7.291045e+00    2.993875e+00
  7.322796e+00    2.980024e+00
  7.354547e+00    3.016347e+00
  7.386298e+00    2.932271e+00
  7.418049e+00    2.969006e+00
  7.449800e+00    2.939476e+00
  7.481552e+00    2.907513e+00
  7.513303e+00    2.978397e+00
  7.545054e+00    3.004357e+00
  7.576805e+00    2.925140e+00
  7.608556e+00    2.928066e+00
  7.640307e+00    2.997109e+00
  7.672058e+00    2.941062e+00
  7.703810e+00    2.936714e+00
  7.735561e+00    2.921770e+00
  7.767312e+00    2.859910e+00
  7.799063e+00    2.953815e+00
  7.830814e+00    2.905168e+00
  7.862565e+00    2.953405e+00
  7.894317e+00    2.944103e+00
  7.926068e+00    2.937036e+00
  7.957819e+00    2.924028e+00
  7.989570e+00    2.930112e+00
  8.021321e+00    2.885249e+00
  8.053072e+00    2.862736e+00
  8.084823e+00    2.936153e+00
  8.116575e+00    2.844059e+00
  8.148326e+00    2.897934e+00
  8.180077e+00    2.936404e+00
  8.211828e+00    2.980683e+00
  8.243579e+00    2.946252e+00
  8.275330e+00    2.833271e+00
  8.307081e+00    2.869888e+00
  8.338833e+00    2.884051e+00
  8.370584e+00    2.836054e+00
  8.402335e+00    2.852168e+00
  8.434086e+00    2.840343e+00
  8.465837e+00    2.881974e+00
  8.497588e+00    2.890062e+00
  8.529339e+00    2.914016e+00
  8.561091e+00    2.836468e+00
  8.592842e+00    2.830995e+00
  8.624593e+00    2.797159e+00
  8.656344e+00    2.871148e+00
  8.688095e+00    2.848417e+00
  8.719846e+00    2.847737e+00
  8.751598e+00    2.824277e+00
  8.783349e+00    2.824899e+00
  8.815100e+00    2.796515e+00
  8.846851e+00    2.784971e+00
  8.878602e+00    2.817227e+00
  8.910353e+00    2.852033e+00
  8.942104e+00    2.799032e+00
  8.973856e+00    2.772792e+00
  9.005607e+00    2.832714e+00
  9.037358e+00    2.795566e+00
  9.069109e+00    2.760359e+00
  9.100860e+00    2.758627e+00
  9.132611e+00    2.849130e+00
  9.164362e+00    2.776513e+00
  9.196114e+00    2.797681e+00
  9.227865e+00    2.766128e+00
  9.259616e+00    2.756629e+00
  9.291367e+00    2.746376e+00
  9.323118e+00    2.729338e+00
  9.354869e+00    2.699091e+00
  9.386620e+00    2.746211e+00
  9.418372e+00    2.769655e+00
  9.450123e+00    2.746716e+00
  9.481874e+00    2.760266e+00
  9.513625e+00    2.762744e+00
  9.545376e+00    2.768847e+00
  9.577127e+00    2.748773e+00
  9.608878e+00    2.761073e+00
  9.640630e+00    2.710833e+00
  9.672381e+00    2.701759e+00
  9.704132e+00    2.702018e+00
  9.735883e+00    2.673106e+00
  9.767634e+00    2.713004e+00
  9.799385e+00    2.650298e+00
  9.831137e+00    2.592282e+00
  9.862888e+00    2.650741e+00
  9.894639e+00    2.671960e+00
  9.926390e+00    2.654413e+00
  9.958141e+00    2.672448e+00
  9.989892e+00    2.629722e+00
  1.002164e+01    2.617114e+00
  1.005339e+01    2.701285e+00
  1.008515e+01    2.638637e+00
  1.011690e+01    2.637946e+00
  1.014865e+01    2.637391e+00
  1.018040e+01    2.628290e+00
  1.021215e+01    2.616456e+00
  1.024390e+01    2.577449e+00
  1.027565e+01    2.591026e+00
  1.030740e+01    2.650132e+00
  1.033915e+01    2.577096e+00
  1.037091e+01    2.610992e+00
  1.040266e+01    2.576792e+00
  1.043441e+01    2.575834e+00
  1.046616e+01    2.569201e+00
  1.049791e+01    2.548219e+00
  1.052966e+01    2.534176e+00
  1.056141e+01    2.573770e+00
  1.059316e+01    2.615723e+00
  1.062492e+01    2.560163e+00
  1.065667e+01    2.554822e+00
  1.068842e+01    2.499728e+00
  1.072017e+01    2.536560e+00
  1.075192e+01    2.532072e+00
  1.078367e+01    2.579054e+00
  1.081542e+01    2.539954e+00
  1.084717e+01    2.529068e+00
  1.087892e+01    2.514666e+00
  1.091068e+01    2.499937e+00
  1.094243e+01    2.490308e+00
  1.097418e+01    2.509855e+00
  1.100593e+01    2.472206e+00
  1.103768e+01    2.464829e+00
  1.106943e+01    2.460476e+00
  1.110118e+01    2.408998e+00
  1.113293e+01    2.434165e+00
  1.116468e+01    2.473166e+00
  1.119644e+01    2.451555e+00
  1.122819e+01    2.401934e+00
  1.125994e+01    2.403536e+00
  1.129169e+01    2.434674e+00
  1.132344e+01    2.440568e+00
  1.135519e+01    2.385751e+00
  1.138694e+01    2.412354e+00
  1.141869e+01    2.401408e+00
  1.145045e+01    2.400468e+00
  1.148220e+01    2.382704e+00
  1.151395e+01    2.384681e+00
  1.154570e+01    2.384578e+00
  1.157745e+01    2.365046e+00
  1.160920e+01    2.345866e+00
  1.164095e+01    2.341787e+00
  1.167270e+01    2.384643e+00
  1.170445e+01    2.368725e+00
  1.173621e+01    2.342985e+00
  1.176796e+01    2.283009e+00
  1.179971e+01    2.336656e+00
  1.183146e+01    2.342889e+00
  1.186321e+01    2.315898e+00
  1.189496e+01    2.319934e+00
  1.192671e+01    2.261601e+00
  1.195846e+01    2.321054e+00
  1.199021e+01    2.312542e+00
  1.202197e+01    2.298435e+00
  1.205372e+01    2.342790e+00
  1.208547e+01    2.285487e+00
  1.211722e+01    2.299239e+00
  1.214897e+01    2.281920e+00
  1.218072e+01    2.293208e+00
  1.221247e+01    2.300087e+00
  1.224422e+01    2.323703e+00
  1.227597e+01    2.304591e+00
  1.230773e+01    2.251922e+00
  1.233948e+01    2.288928e+00
  1.237123e+01    2.319581e+00
  1.240298e+01    2.322449e+00
  1.243473e+01    2.307110e+00
  1.246648e+01    2.288273e+00
  1.249823e+01    2.320734e+00
  1.252998e+01    2.341581e+00
  1.256174e+01    2.343357e+00
  1.259349e+01    2.409144e+00
  1.262524e+01    2.348694e+00
  1.265699e+01    2.390498e+00
  1.268874e+01    2.451252e+00
  1.272049e+01    2.450164e+00
  1.275224e+01    2.568183e+00
  1.278399e+01    2.626159e+00
  1.281574e+01    2.666267e+00
  1.284750e+01    2.828228e+00
  1.287925e+01    2.955540e+00
  1.291100e+01    3.243720e+00
  1.294275e+01    3.710456e+00
  1.297450e+01    4.365531e+00
  1.300625e+01    5.328596e+00
  1.303800e+01    7.043411e+00
  1.306975e+01    9.527575e+00
  1.310150e+01    1.218594e+01
  1.313326e+01    1.460465e+01
  1.316501e+01    1.645288e+01
  1.319676e+01    1.670962e+01
  1.322851e+01    1.377585e+01
  1.326026e+01    9.819643e+00
  1.329201e+01    6.997061e+00
  1.332376e+01    5.353920e+00
  1.335551e+01    4.268358e+00
  1.338727e+01    3.650334e+00
  1.341902e+01    3.255213e+00
  1.345077e+01    2.929992e+00
  1.348252e+01    2.792643e+00
  1.351427e+01    2.560224e+00
  1.354602e+01    2.512833e+00
  1.357777e+01    2.422180e+00
  1.360952e+01    2.309698e+00
  1.364127e+01    2.283444e+00
  1.367303e+01    2.251615e+00
  1.370478e+01    2.154994e+00
  1.373653e+01    2.187533e+00
  1.376828e+01    2.173334e+00
  1.380003e+01    2.159655e+00
  1.383178e+01    2.142783e+00
  1.386353e+01    2.134280e+00
  1.389528e+01    2.073685e+00
  1.392703e+01    2.067327e+00
  1.395879e+01    2.073857e+00
  1.399054e+01    2.015012e+00
  1.402229e+01    2.041002e+00
  1.405404e+01    2.054404e+00
  1.408579e+01    2.058726e+00
  1.411754e+01    2.002711e+00
  1.414929e+01    1.950732e+00
  1.418104e+01    2.010440e+00
  1.421279e+01    1.991269e+00
  1.424455e+01    1.932772e+00
  1.427630e+01    1.956686e+00
  1.430805e+01    1.917648e+00
  1.433980e+01    1.945318e+00
  1.437155e+01    1.915914e+00
  1.440330e+01    1.884177e+00
  1.443505e+01    1.941856e+00
  1.446680e+01    1.935203e+00
  1.449856e+01    1.920205e+00
  1.453031e+01    1.923925e+00
  1.456206e+01    1.935566e+00
  1.459381e+01    1.893602e+00
  1.462556e+01    1.876026e+00
  1.465731e+01    1.891215e+00
  1.468906e+01    1.904327e+00
  1.472081e+01    1.867563e+00
  1.475256e+01    1.890914e+00
  1.478432e+01    1.919420e+00
  1.481607e+01    1.908316e+00
  1.484782e+01    1.919173e+00
  1.487957e+01    1.927043e+00
  1.491132e+01    1.962575e+00
  1.494307e+01    1.973754e+00
  1.497482e+01    2.070229e+00
  1.500657e+01    2.145935e+00
  1.503832e+01    2.243968e+00
  1.507008e+01    2.550950e+00
  1.510183e+01    2.881343e+00
  1.513358e+01    3.481639e+00
  1.516533e+01    4.155893e+00
  1.519708e+01    4.875435e+00
  1.522883e+01    5.435513e+00
  1.526058e+01    5.750793e+00
  1.529233e+01    5.649186e+00
  1.532409e+01    4.837113e+00
  1.535584e+01    3.749011e+00
  1.538759e+01    3.017406e+00
  1.541934e+01    2.570339e+00
  1.545109e+01    2.246239e+00
  1.548284e+01    2.088682e+00
  1.551459e+01    2.005936e+00
  1.554634e+01    1.928676e+00
  1.557809e+01    1.828129e+00
  1.560985e+01    1.845100e+00
  1.564160e+01    1.769907e+00
  1.567335e+01    1.755420e+00
  1.570510e+01    1.747245e+00
  1.573685e+01    1.691513e+00
  1.576860e+01    1.687062e+00
  1.580035e+01    1.665401e+00
  1.583210e+01    1.651842e+00
  1.586385e+01    1.648700e+00
  1.589561e+01    1.624110e+00
  1.592736e+01    1.639339e+00
  1.595911e+01    1.636541e+00
  1.599086e+01    1.612548e+00
  1.602261e+01    1.614726e+00
  1.605436e+01    1.611133e+00
  1.608611e+01    1.573732e+00
  1.611786e+01    1.574343e+00
  1.614961e+01    1.603317e+00
  1.618137e+01    1.579010e+00
  1.621312e+01    1.560616e+00
  1.624487e+01    1.569147e+00
  1.627662e+01    1.553517e+00
  1.630837e+01    1.576669e+00
  1.634012e+01    1.571998e+00
  1.637187e+01    1.510193e+00
  1.640362e+01    1.521092e+00
  1.643538e+01    1.504145e+00
  1.646713e+01    1.526103e+00
  1.649888e+01    1.514915e+00
  1.653063e+01    1.493953e+00
  1.656238e+01    1.501041e+00
  1.659413e+01    1.492116e+00
  1.662588e+01    1.486454e+00
  1.665763e+01    1.476466e+00
  1.668938e+01    1.476318e+00
  1.672114e+01    1.486822e+00
  1.675289e+01    1.481596e+00
  1.678464e+01    1.442312e+00
  1.681639e+01    1.476153e+00
  1.684814e+01    1.462578e+00
  1.687989e+01    1.459201e+00
  1.691164e+01    1.459694e+00
  1.694339e+01    1.406002e+00
  1.697514e+01    1.443690e+00
  1.700690e+01    1.436785e+00
  1.703865e+01    1.430114e+00
  1.707040e+01    1.427748e+00
  1.710215e+01    1.419767e+00
  1.713390e+01    1.384564e+00
  1.716565e+01    1.415452e+00
  1.719740e+01    1.431251e+00
  1.722915e+01    1.347687e+00
  1.726091e+01    1.405640e+00
  1.729266e+01    1.379563e+00
  1.732441e+01    1.359201e+00
  1.735616e+01    1.385152e+00
  1.738791e+01    1.337991e+00
  1.741966e+01    1.369686e+00
  1.745141e+01    1.325990e+00
  1.748316e+01    1.361232e+00
  1.751491e+01    1.332614e+00
  1.754667e+01    1.348641e+00
  1.757842e+01    1.345457e+00
  1.761017e+01    1.366221e+00
  1.764192e+01    1.333417e+00
  1.767367e+01    1.348615e+00
  1.770542e+01    1.311564e+00
  1.773717e+01    1.313890e+00
  1.776892e+01    1.334221e+00
  1.780067e+01    1.343938e+00
  1.783243e+01    1.318814e+00
  1.786418e+01    1.311899e+00
  1.789593e+01    1.332115e+00
  1.792768e+01    1.322055e+00
  1.795943e+01    1.261066e+00
  1.799118e+01    1.280819e+00
  1.802293e+01    1.317455e+00
  1.805468e+01    1.252382e+00
  1.808643e+01    1.300963e+00
  1.811819e+01    1.286118e+00
  1.814994e+01    1.242102e+00
  1.818169e+01    1.304054e+00
  1.821344e+01    1.252597e+00
  1.824519e+01    1.290706e+00
  1.827694e+01    1.292478e+00
  1.830869e+01    1.259284e+00
  1.834044e+01    1.262971e+00
  1.837220e+01    1.261009e+00
  1.840395e+01    1.244736e+00
  1.843570e+01    1.260853e+00
  1.846745e+01    1.236740e+00
  1.849920e+01    1.268219e+00
  1.853095e+01    1.223356e+00
  1.856270e+01    1.251136e+00
  1.859445e+01    1.225558e+00
  1.862620e+01    1.244189e+00
  1.865796e+01    1.228352e+00
  1.868971e+01    1.220256e+00
  1.872146e+01    1.206323e+00
  1.875321e+01    1.216255e+00
  1.878496e+01    1.202176e+00
  1.881671e+01    1.214659e+00
  1.884846e+01    1.210518e+00
  1.888021e+01    1.199546e+00
  1.891196e+01    1.218603e+00
  1.894372e+01    1.203089e+00
  1.897547e+01    1.179534e+00
  1.900722e+01    1.187219e+00
  1.903897e+01    1.197827e+00
  1.907072e+01    1.190674e+00
  1.910247e+01    1.166926e+00
  1.913422e+01    1.197184e+00
  1.916597e+01    1.169416e+00
  1.919773e+01    1.195673e+00
  1.922948e+01    1.186326e+00
  1.926123e+01    1.175019e+00
  1.929298e+01    1.184543e+00
  1.932473e+01    1.170977e+00
  1.935648e+01    1.188928e+00
  1.938823e+01    1.174523e+00
  1.941998e+01    1.142545e+00
  1.945173e+01    1.138457e+00
  1.948349e+01    1.159754e+00
  1.951524e+01    1.133060e+00
  1.954699e+01    1.140337e+00
  1.957874e+01    1.153409e+00
  1.961049e+01    1.144224e+00
  1.964224e+01    1.147634e+00
  1.967399e+01    1.122910e+00
  1.970574e+01    1.140711e+00
  1.973749e+01    1.141623e+00
  1.976925e+01    1.118219e+00
  1.980100e+01    1.129721e+00
  1.983275e+01    1.150410e+00
  1.986450e+01    1.126590e+00
  1.989625e+01    1.115009e+00
  1.992800e+01    1.114920e+00
  1.995975e+01    1.109305e+00
  1.999150e+01    1.104210e+00
  2.002325e+01    1.122295e+00
  2.005501e+01    1.110735e+00
  2.008676e+01    1.119062e+00
  2.011851e+01    1.107717e+00
  2.015026e+01    1.093457e+00
  2.018201e+01    1.110251e+00
  2.021376e+01    1.089034e+00
  2.024551e+01    1.106961e+00
  2.027726e+01    1.097290e+00
  2.030902e+01    1.096839e+00
  2.034077e+01    1.095683e+00
  2.037252e+01    1.077343e+00
  2.040427e+01    1.104027e+00
  2.043602e+01    1.075464e+00
  2.046777e+01    1.081749e+00
  2.049952e+01    1.063137e+00
  2.053127e+01    1.051712e+00
  2.056302e+01    1.079543e+00
  2.059478e+01    1.052878e+00
  2.062653e+01    1.081801e+00
  2.065828e+01    1.081811e+00
  2.069003e+01    1.076765e+00
  2.072178e+01    1.054145e+00
  2.075353e+01    1.061987e+00
  2.078528e+01    1.048530e+00
  2.081703e+01    1.060398e+00
  2.084878e+01    1.059312e+00
  2.088054e+01    1.058424e+00
  2.091229e+01    1.051487e+00
  2.094404e+01    1.061116e+00
  2.097579e+01    1.065310e+00
  2.100754e+01    1.097618e+00
  2.103929e+01    1.063938e+00
  2.107104e+01    1.099353e+00
  2.110279e+01    1.040720e+00
  2.113455e+01    1.063619e+00
  2.116630e+01    1.059535e+00
  2.119805e+01    1.086546e+00
  2.122980e+01    1.085664e+00
  2.126155e+01    1.100174e+00
  2.129330e+01    1.121316e+00
  2.132505e+01    1.111401e+00
  2.135680e+01    1.129296e+00
  2.138855e+01    1.151367e+00
  2.142031e+01    1.208929e+00
  2.145206e+01    1.221108e+00
  2.148381e+01    1.240654e+00
  2.151556e+01    1.307446e+00
  2.154731e+01    1.365493e+00
  2.157906e+01    1.474405e+00
  2.161081e+01    1.604555e+00
  2.164256e+01    1.793179e+00
  2.167431e+01    2.084397e+00
  2.170607e+01    2.511771e+00
  2.173782e+01    3.211259e+00
  2.176957e+01    4.240336e+00
  2.180132e+01    5.494726e+00
  2.183307e+01    6.862888e+00
  2.186482e+01    8.227093e+00
  2.189657e+01    9.260788e+00
  2.192832e+01    8.911648e+00
  2.196007e+01    7.285585e+00
  2.199183e+01    5.270998e+00
  2.202358e+01    3.883283e+00
  2.205533e+01    2.926542e+00
  2.208708e+01    2.350200e+00
  2.211883e+01    1.962555e+00
  2.215058e+01    1.664482e+00
  2.218233e+01    1.525171e+00
  2.221408e+01    1.368826e+00
  2.224584e+01    1.286606e+00
  2.227759e+01    1.207355e+00
  2.230934e+01    1.171268e+00
  2.234109e+01    1.141856e+00
  2.237284e+01    1.126087e+00
  2.240459e+01    1.071987e+00
  2.243634e+01    1.067255e+00
  2.246809e+01    1.032931e+00
  2.249984e+01    1.001437e+00
  2.253160e+01    1.001568e+00
  2.256335e+01    9.841827e-01
  2.259510e+01    1.010582e+00
  2.262685e+01    9.773304e-01
  2.265860e+01    1.009151e+00
  2.269035e+01    9.458972e-01
  2.272210e+01    9.458053e-01
  2.275385e+01    9.414582e-01
  2.278560e+01    9.362168e-01
  2.281736e+01    9.403334e-01
  2.284911e+01    9.189792e-01
  2.288086e+01    9.582858e-01
  2.291261e+01    9.078034e-01
  2.294436e+01    9.168702e-01
  2.297611e+01    9.051356e-01
  2.300786e+01    8.903651e-01
  2.303961e+01    8.706403e-01
  2.307137e+01    8.904731e-01
  2.310312e+01    8.957667e-01
  2.313487e+01    8.690059e-01
  2.316662e+01    8.675761e-01
  2.319837e+01    8.705453e-01
  2.323012e+01    8.750355e-01
  2.326187e+01    8.501248e-01
  2.329362e+01    8.573315e-01
  2.332537e+01    8.483698e-01
  2.335713e+01    8.746980e-01
  2.338888e+01    8.405327e-01
  2.342063e+01    8.419026e-01
  2.345238e+01    8.258796e-01
  2.348413e+01    8.297344e-01
  2.351588e+01    8.262687e-01
  2.354763e+01    8.350121e-01
  2.357938e+01    8.361400e-01
  2.361113e+01    8.530061e-01
  2.364289e+01    8.390804e-01
  2.367464e+01    8.379273e-01
  2.370639e+01    8.042107e-01
  2.373814e+01    7.979057e-01
  2.376989e+01    8.244084e-01
  2.380164e+01    8.206461e-01
  2.383339e+01    8.082112e-01
  2.386514e+01    7.847183e-01
  2.389689e+01    8.300641e-01
  2.392865e+01    7.934359e-01
  2.396040e+01    7.950246e-01
  2.399215e+01    7.836803e-01
  2.402390e+01    7.785414e-01
  2.405565e+01    7.933697e-01
  2.408740e+01    7.671453e-01
  2.411915e+01    7.706753e-01
  2.415090e+01    7.701384e-01
  2.418266e+01    7.565596e-01
  2.421441e+01    7.791270e-01
  2.424616e+01    7.809945e-01
  2.427791e+01    7.849554e-01
  2.430966e+01    7.767001e-01
  2.434141e+01    7.914605e-01
  2.437316e+01    7.932800e-01
  2.440491e+01    7.967475e-01
  2.443666e+01    7.843052e-01
  2.446842e+01    7.971569e-01
  2.450017e+01    7.858887e-01
  2.453192e+01    7.906257e-01
  2.456367e+01    7.898226e-01
  2.459542e+01    7.788571e-01
  2.462717e+01    8.004950e-01
  2.465892e+01    7.763312e-01
  2.469067e+01    7.930914e-01
  2.472242e+01    7.842238e-01
  2.475418e+01    7.627098e-01
  2.478593e+01    7.848315e-01
  2.481768e+01    7.755396e-01
  2.484943e+01    8.001031e-01
  2.488118e+01    7.958221e-01
  2.491293e+01    7.961669e-01
  2.494468e+01    7.854703e-01
  2.497643e+01    8.006668e-01
  2.500819e+01    7.947269e-01
  2.503994e+01    7.857016e-01
  2.507169e+01    7.970857e-01
  2.510344e+01    8.185689e-01
  2.513519e+01    8.209056e-01
  2.516694e+01    8.299937e-01
  2.519869e+01    8.269973e-01
  2.523044e+01    8.401331e-01
  2.526219e+01    8.252179e-01
  2.529395e+01    8.902407e-01
  2.532570e+01    8.580138e-01
  2.535745e+01    8.766414e-01
  2.538920e+01    8.800584e-01
  2.542095e+01    9.010952e-01
  2.545270e+01    9.377906e-01
  2.548445e+01    9.502965e-01
  2.551620e+01    9.887734e-01
  2.554795e+01    9.984347e-01
  2.557971e+01    1.067379e+00
  2.561146e+01    1.117334e+00
  2.564321e+01    1.232341e+00
  2.567496e+01    1.322666e+00
  2.570671e+01    1.497544e+00
  2.573846e+01    1.721182e+00
  2.577021e+01    2.067391e+00
  2.580196e+01    2.571034e+00
  2.583371e+01    3.410848e+00
  2.586547e+01    4.437028e+00
  2.589722e+01    5.635404e+00
  2.592897e+01    6.804729e+00
  2.596072e+01    7.600181e+00
  2.599247e+01    7.375777e+00
  2.602422e+01    6.087343e+00
  2.605597e+01    4.616559e+00
  2.608772e+01    3.350186e+00
  2.611948e+01    2.533523e+00
  2.615123e+01    2.006128e+00
  2.618298e+01    1.729276e+00
  2.621473e+01    1.478049e+00
  2.624648e+01    1.322276e+00
  2.627823e+01    1.201578e+00
  2.630998e+01    1.132476e+00
  2.634173e+01    1.073397e+00
  2.637348e+01    1.039158e+00
  2.640524e+01    9.897081e-01
  2.643699e+01    9.251587e-01
  2.646874e+01    9.295619e-01
  2.650049e+01    9.270555e-01
  2.653224e+01    9.094694e-01
  2.656399e+01    9.077795e-01
  2.659574e+01    8.789765e-01
  2.662749e+01    8.930767e-01
  2.665924e+01    9.008546e-01
  2.669100e+01    8.781669e-01
  2.672275e+01    8.900174e-01
  2.675450e+01    8.654022e-01
  2.678625e+01    8.657998e-01
  2.681800e+01    8.994566e-01
  2.684975e+01    8.964983e-01
  2.688150e+01    9.106547e-01
  2.691325e+01    9.163723e-01
  2.694501e+01    9.551959e-01
  2.697676e+01    9.828839e-01
  2.700851e+01    1.011582e+00
  2.704026e+01    1.101143e+00
  2.707201e+01    1.203070e+00
  2.710376e+01    1.366301e+00
  2.713551e+01    1.624645e+00
  2.716726e+01    1.889982e+00
  2.719901e+01    2.161740e+00
  2.723077e+01    2.254040e+00
  2.726252e+01    2.125783e+00
  2.729427e+01    1.846779e+00
  2.732602e+01    1.531066e+00
  2.735777e+01    1.283678e+00
  2.738952e+01    1.149380e+00
  2.742127e+01    1.054402e+00
  2.745302e+01    9.724075e-01
  2.748477e+01    9.366853e-01
  2.751653e+01    9.062673e-01
  2.754828e+01    8.739459e-01
  2.758003e+01    8.531924e-01
  2.761178e+01    8.497756e-01
  2.764353e+01    8.149006e-01
  2.767528e+01    8.102144e-01
  2.770703e+01    8.078336e-01
  2.773878e+01    8.016576e-01
  2.777054e+01    8.212084e-01
  2.780229e+01    8.148655e-01
  2.783404e+01    7.899669e-01
  2.786579e+01    7.787983e-01
  2.789754e+01    8.118681e-01
  2.792929e+01    7.797377e-01
  2.796104e+01    7.828164e-01
  2.799279e+01    7.798910e-01
  2.802454e+01    8.021120e-01
  2.805630e+01    7.790922e-01
  2.808805e+01    7.730942e-01
  2.811980e+01    7.761962e-01
  2.815155e+01    7.675189e-01
  2.818330e+01    7.719950e-01
  2.821505e+01    7.634119e-01
  2.824680e+01    7.536765e-01
  2.827855e+01    7.516195e-01
  2.831030e+01    7.835315e-01
  2.834206e+01    7.707002e-01
  2.837381e+01    7.785224e-01
  2.840556e+01    7.569770e-01
  2.843731e+01    7.570366e-01
  2.846906e+01    7.449285e-01
  2.850081e+01    7.250836e-01
  2.853256e+01    7.589232e-01
  2.856431e+01    7.554547e-01
  2.859606e+01    7.346725e-01
  2.862782e+01    7.506257e-01
  2.865957e+01    7.541354e-01
  2.869132e+01    7.519684e-01
  2.872307e+01    7.412250e-01
  2.875482e+01    7.353211e-01
  2.878657e+01    7.295079e-01
  2.881832e+01    7.525545e-01
  2.885007e+01    7.463922e-01
  2.888183e+01    7.369135e-01
  2.891358e+01    7.590989e-01
  2.894533e+01    7.339307e-01
  2.897708e+01    7.116587e-01
  2.900883e+01    7.382001e-01
  2.904058e+01    7.547904e-01
  2.907233e+01    7.159289e-01
  2.910408e+01    7.280595e-01
  2.913583e+01    7.211977e-01
  2.916759e+01    7.451959e-01
  2.919934e+01    7.330391e-01
  2.923109e+01    7.219939e-01
  2.926284e+01    6.921532e-01
  2.929459e+01    7.345533e-01
  2.932634e+01    7.460862e-01
  2.935809e+01    7.289947e-01
  2.938984e+01    7.427592e-01
  2.942159e+01    7.132788e-01
  2.945335e+01    7.224217e-01
  2.948510e+01    7.086329e-01
  2.951685e+01    7.069733e-01
  2.954860e+01    7.150735e-01
  2.958035e+01    7.069539e-01
  2.961210e+01    7.233350e-01
  2.964385e+01    7.211756e-01
  2.967560e+01    7.318082e-01
  2.970736e+01    7.102745e-01
  2.973911e+01    7.235274e-01
  2.977086e+01    6.994460e-01
  2.980261e+01    7.154971e-01
  2.983436e+01    7.392013e-01
  2.986611e+01    7.122909e-01
  2.989786e+01    7.218977e-01
  2.992961e+01    7.101088e-01
  2.996136e+01    7.130427e-01
  2.999312e+01    7.092296e-01
  3.002487e+01    7.535380e-01
  3.005662e+01    7.299694e-01
  3.008837e+01    7.256479e-01
  3.012012e+01    7.251679e-01
  3.015187e+01    7.121618e-01
  3.018362e+01    7.173369e-01
  3.021537e+01    7.112423e-01
  3.024712e+01    6.859493e-01
  3.027888e+01    7.250783e-01
  3.031063e+01    6.860039e-01
  3.034238e+01    6.992625e-01
  3.037413e+01    7.205656e-01
  3.040588e+01    7.410775e-01
  3.043763e+01    7.167243e-01
  3.046938e+01    7.007781e-01
  3.050113e+01    7.159851e-01
  3.053288e+01    6.920083e-01
  3.056464e+01    7.166814e-01
  3.059639e+01    7.314038e-01
  3.062814e+01    7.056428e-01
  3.065989e+01    7.249874e-01
  3.069164e+01    7.045782e-01
  3.072339e+01    6.972727e-01
  3.075514e+01    6.991337e-01
  3.078689e+01    6.946266e-01
  3.081865e+01    6.996764e-01
  3.085040e+01    7.000654e-01
  3.088215e+01    6.961252e-01
  3.091390e+01    7.322472e-01
  3.094565e+01    6.999358e-01
  3.097740e+01    7.041364e-01
  3.100915e+01    7.072035e-01
  3.104090e+01    7.054712e-01
  3.107265e+01    7.183606e-01
  3.110441e+01    6.991296e-01
  3.113616e+01    7.408872e-01
  3.116791e+01    7.076142e-01
  3.119966e+01    7.006361e-01
  3.123141e+01    6.990932e-01
  3.126316e+01    7.181550e-01
  3.129491e+01    7.403193e-01
  3.132666e+01    7.295877e-01
  3.135841e+01    7.263824e-01
  3.139017e+01    7.274250e-01
  3.142192e+01    7.452024e-01
  3.145367e+01    7.591553e-01
  3.148542e+01    7.528895e-01
  3.151717e+01    7.364973e-01
  3.154892e+01    7.685388e-01
  3.158067e+01    8.107442e-01
  3.161242e+01    8.155101e-01
  3.164418e+01    8.393978e-01
  3.167593e+01    8.738723e-01
  3.170768e+01    9.692489e-01
  3.173943e+01    1.057533e+00
  3.177118e+01    1.161932e+00
  3.180293e+01    1.365688e+00
  3.183468e+01    1.620480e+00
  3.186643e+01    1.915529e+00
  3.189818e+01    2.175906e+00
  3.192994e+01    2.193548e+00
  3.196169e+01    2.007094e+00
  3.199344e+01    1.708900e+00
  3.202519e+01    1.431119e+00
  3.205694e+01    1.193811e+00
  3.208869e+01    1.065942e+00
  3.212044e+01    9.357784e-01
  3.215219e+01    8.664731e-01
  3.218394e+01    8.333536e-01
  3.221570e+01    8.172972e-01
  3.224745e+01    7.838013e-01
  3.227920e+01    7.840146e-01
  3.231095e+01    7.633583e-01
  3.234270e+01    7.565835e-01
  3.237445e+01    7.461920e-01
  3.240620e+01    7.347315e-01
  3.243795e+01    7.418749e-01
  3.246970e+01    7.193849e-01
  3.250146e+01    7.372245e-01
  3.253321e+01    7.033526e-01
  3.254908e+01    7.262278e-01