File: XRD/2024-07-27_002_Ru-CGO-ex_Activtation_ramp_000002_data_000125.dat
# == pyFAI calibration ==
# Distance Sample to Detector: 0.4 m
# PONI: 9.750e-02, 1.135e-01 m
# Rotations: -0.000175 0.000000 -0.000000 rad
#
# == Fit2d calibration ==
# Distance Sample-beamCenter: 400.000 mm
# Center: x=1514.000, y=1300.000 pix
# Tilt: 0.010 deg  TiltPlanRot: 0.010 deg
#
# Detector Detector	 Spline= None	 PixelSize= 7.500e-05, 7.500e-05 m
#    Detector has a mask: False
#    Detector has a dark current: False
#    detector has a flat field: False
#
# Wavelength: 6.888e-11 m
# Mask applied: user provided
# Dark current applied: False
# Flat field applied: False
# Polarization factor: 0.99
# Normalization factor: 1.0
# --> /home/myspot/data/2024_07_Rosario/Ru-CGO-ex/2024-07-27_002_Ru-CGO-ex_Activtation_ramp_000002_data_000125.dat
#       q_nm^-1             I
  2.003187e-02    0.000000e+00
  5.178302e-02    0.000000e+00
  8.353417e-02    2.529144e-01
  1.152853e-01    9.220465e-02
  1.470365e-01    2.619632e-02
  1.787876e-01    5.868788e-02
  2.105388e-01    4.816939e-02
  2.422899e-01    0.000000e+00
  2.740411e-01    6.229159e-02
  3.057922e-01    6.604721e-02
  3.375433e-01    2.777790e-02
  3.692945e-01    3.038701e-02
  4.010456e-01    1.603214e-02
  4.327968e-01    2.758263e-02
  4.645479e-01    3.330647e-02
  4.962991e-01    2.830307e-02
  5.280502e-01    4.359509e-02
  5.598014e-01    1.454654e-02
  5.915525e-01    2.620707e-02
  6.233037e-01    3.406957e-02
  6.550548e-01    3.634543e-02
  6.868060e-01    2.540083e-02
  7.185571e-01    2.571307e-02
  7.503083e-01    5.209775e-02
  7.820594e-01    1.334113e-01
  8.138106e-01    1.566599e-01
  8.455617e-01    2.614071e-01
  8.773129e-01    4.562356e-01
  9.090640e-01    5.114697e-01
  9.408152e-01    7.440962e-01
  9.725663e-01    8.466604e-01
  1.004317e+00    9.467265e-01
  1.036069e+00    1.212243e+00
  1.067820e+00    1.187001e+00
  1.099571e+00    1.482366e+00
  1.131322e+00    1.484522e+00
  1.163073e+00    1.482890e+00
  1.194824e+00    1.616873e+00
  1.226575e+00    2.027965e+00
  1.258327e+00    2.268338e+00
  1.290078e+00    2.357888e+00
  1.321829e+00    2.518572e+00
  1.353580e+00    2.527361e+00
  1.385331e+00    2.492049e+00
  1.417082e+00    2.603670e+00
  1.448834e+00    2.673208e+00
  1.480585e+00    2.805928e+00
  1.512336e+00    2.883247e+00
  1.544087e+00    2.936662e+00
  1.575838e+00    2.916184e+00
  1.607589e+00    2.956706e+00
  1.639340e+00    2.804136e+00
  1.671092e+00    2.921093e+00
  1.702843e+00    2.998075e+00
  1.734594e+00    2.688981e+00
  1.766345e+00    2.704251e+00
  1.798096e+00    2.815966e+00
  1.829847e+00    2.811609e+00
  1.861598e+00    2.535829e+00
  1.893350e+00    2.723413e+00
  1.925101e+00    2.781662e+00
  1.956852e+00    2.717422e+00
  1.988603e+00    2.798493e+00
  2.020354e+00    2.750700e+00
  2.052105e+00    2.664298e+00
  2.083856e+00    2.755219e+00
  2.115608e+00    2.739284e+00
  2.147359e+00    2.709527e+00
  2.179110e+00    2.709665e+00
  2.210861e+00    2.698022e+00
  2.242612e+00    2.711800e+00
  2.274363e+00    2.792939e+00
  2.306115e+00    2.758020e+00
  2.337866e+00    2.700741e+00
  2.369617e+00    2.622661e+00
  2.401368e+00    2.681845e+00
  2.433119e+00    2.772496e+00
  2.464870e+00    2.798521e+00
  2.496621e+00    2.656922e+00
  2.528373e+00    2.770209e+00
  2.560124e+00    2.780412e+00
  2.591875e+00    2.881297e+00
  2.623626e+00    2.777899e+00
  2.655377e+00    2.759809e+00
  2.687128e+00    2.757896e+00
  2.718879e+00    2.779399e+00
  2.750631e+00    2.892811e+00
  2.782382e+00    2.809387e+00
  2.814133e+00    2.774220e+00
  2.845884e+00    2.738753e+00
  2.877635e+00    2.767596e+00
  2.909386e+00    2.788612e+00
  2.941137e+00    2.939633e+00
  2.972889e+00    2.839632e+00
  3.004640e+00    2.863677e+00
  3.036391e+00    2.846088e+00
  3.068142e+00    2.777914e+00
  3.099893e+00    2.897039e+00
  3.131644e+00    2.861260e+00
  3.163395e+00    2.889628e+00
  3.195147e+00    2.859354e+00
  3.226898e+00    2.877252e+00
  3.258649e+00    2.921458e+00
  3.290400e+00    2.829359e+00
  3.322151e+00    2.853767e+00
  3.353902e+00    2.974456e+00
  3.385654e+00    2.871445e+00
  3.417405e+00    2.945715e+00
  3.449156e+00    2.867664e+00
  3.480907e+00    2.925943e+00
  3.512658e+00    3.017887e+00
  3.544409e+00    2.885625e+00
  3.576160e+00    2.855757e+00
  3.607912e+00    2.930538e+00
  3.639663e+00    3.068851e+00
  3.671414e+00    2.938858e+00
  3.703165e+00    3.032329e+00
  3.734916e+00    2.976652e+00
  3.766667e+00    2.936495e+00
  3.798418e+00    2.865835e+00
  3.830170e+00    2.968445e+00
  3.861921e+00    2.949882e+00
  3.893672e+00    2.965938e+00
  3.925423e+00    3.093940e+00
  3.957174e+00    2.943308e+00
  3.988925e+00    3.044194e+00
  4.020676e+00    2.854287e+00
  4.052428e+00    3.037896e+00
  4.084179e+00    2.970718e+00
  4.115930e+00    2.961106e+00
  4.147681e+00    3.034012e+00
  4.179432e+00    2.965013e+00
  4.211183e+00    3.062010e+00
  4.242935e+00    3.020831e+00
  4.274686e+00    3.007506e+00
  4.306437e+00    2.973383e+00
  4.338188e+00    3.058779e+00
  4.369939e+00    3.044228e+00
  4.401690e+00    3.046231e+00
  4.433441e+00    3.039560e+00
  4.465193e+00    3.055178e+00
  4.496944e+00    3.031684e+00
  4.528695e+00    3.033158e+00
  4.560446e+00    3.025131e+00
  4.592197e+00    3.028120e+00
  4.623948e+00    3.054809e+00
  4.655699e+00    3.024459e+00
  4.687451e+00    3.104883e+00
  4.719202e+00    2.985529e+00
  4.750953e+00    3.148355e+00
  4.782704e+00    3.210378e+00
  4.814455e+00    3.120599e+00
  4.846206e+00    3.013567e+00
  4.877957e+00    3.125096e+00
  4.909709e+00    3.116074e+00
  4.941460e+00    3.084057e+00
  4.973211e+00    3.044109e+00
  5.004962e+00    3.129444e+00
  5.036713e+00    3.063971e+00
  5.068464e+00    3.102743e+00
  5.100216e+00    3.121831e+00
  5.131967e+00    3.150023e+00
  5.163718e+00    3.155369e+00
  5.195469e+00    3.047552e+00
  5.227220e+00    3.066836e+00
  5.258971e+00    3.148197e+00
  5.290722e+00    3.105435e+00
  5.322474e+00    3.122859e+00
  5.354225e+00    3.126077e+00
  5.385976e+00    3.111945e+00
  5.417727e+00    3.106456e+00
  5.449478e+00    3.041004e+00
  5.481229e+00    3.099098e+00
  5.512980e+00    3.060536e+00
  5.544732e+00    3.099866e+00
  5.576483e+00    3.082005e+00
  5.608234e+00    3.123142e+00
  5.639985e+00    2.993671e+00
  5.671736e+00    3.120242e+00
  5.703487e+00    3.082006e+00
  5.735238e+00    3.052176e+00
  5.766990e+00    3.085821e+00
  5.798741e+00    2.982131e+00
  5.830492e+00    3.046242e+00
  5.862243e+00    3.018740e+00
  5.893994e+00    3.056664e+00
  5.925745e+00    3.099289e+00
  5.957497e+00    3.009359e+00
  5.989248e+00    2.980164e+00
  6.020999e+00    2.922617e+00
  6.052750e+00    3.005867e+00
  6.084501e+00    3.088979e+00
  6.116252e+00    3.035379e+00
  6.148003e+00    3.023712e+00
  6.179755e+00    2.967551e+00
  6.211506e+00    3.019158e+00
  6.243257e+00    2.997476e+00
  6.275008e+00    2.956704e+00
  6.306759e+00    3.043587e+00
  6.338510e+00    3.119054e+00
  6.370261e+00    2.977194e+00
  6.402013e+00    2.996170e+00
  6.433764e+00    3.018906e+00
  6.465515e+00    3.036032e+00
  6.497266e+00    3.053895e+00
  6.529017e+00    2.954204e+00
  6.560768e+00    2.937133e+00
  6.592519e+00    3.089168e+00
  6.624271e+00    3.030740e+00
  6.656022e+00    3.091826e+00
  6.687773e+00    2.942553e+00
  6.719524e+00    2.933916e+00
  6.751275e+00    2.981809e+00
  6.783026e+00    3.005096e+00
  6.814777e+00    2.977170e+00
  6.846529e+00    3.005144e+00
  6.878280e+00    3.005367e+00
  6.910031e+00    3.004877e+00
  6.941782e+00    3.010519e+00
  6.973533e+00    2.940104e+00
  7.005284e+00    2.964256e+00
  7.037036e+00    2.996104e+00
  7.068787e+00    2.946278e+00
  7.100538e+00    2.951319e+00
  7.132289e+00    3.014208e+00
  7.164040e+00    2.921648e+00
  7.195791e+00    2.999326e+00
  7.227542e+00    3.017520e+00
  7.259294e+00    2.968626e+00
  7.291045e+00    2.953187e+00
  7.322796e+00    2.968388e+00
  7.354547e+00    3.046716e+00
  7.386298e+00    2.922584e+00
  7.418049e+00    2.906517e+00
  7.449800e+00    2.952484e+00
  7.481552e+00    2.928647e+00
  7.513303e+00    2.981626e+00
  7.545054e+00    2.947484e+00
  7.576805e+00    2.952292e+00
  7.608556e+00    2.943127e+00
  7.640307e+00    2.872658e+00
  7.672058e+00    2.940662e+00
  7.703810e+00    2.899981e+00
  7.735561e+00    2.921186e+00
  7.767312e+00    2.912453e+00
  7.799063e+00    2.968336e+00
  7.830814e+00    2.890603e+00
  7.862565e+00    2.894795e+00
  7.894317e+00    2.898962e+00
  7.926068e+00    2.857649e+00
  7.957819e+00    2.908885e+00
  7.989570e+00    2.924518e+00
  8.021321e+00    2.900402e+00
  8.053072e+00    2.843935e+00
  8.084823e+00    2.891263e+00
  8.116575e+00    2.958922e+00
  8.148326e+00    2.845726e+00
  8.180077e+00    2.811344e+00
  8.211828e+00    2.916504e+00
  8.243579e+00    3.036952e+00
  8.275330e+00    2.890056e+00
  8.307081e+00    2.910788e+00
  8.338833e+00    2.874526e+00
  8.370584e+00    2.876797e+00
  8.402335e+00    2.829488e+00
  8.434086e+00    2.819479e+00
  8.465837e+00    2.855341e+00
  8.497588e+00    2.836332e+00
  8.529339e+00    2.835309e+00
  8.561091e+00    2.871384e+00
  8.592842e+00    2.858524e+00
  8.624593e+00    2.870595e+00
  8.656344e+00    2.859946e+00
  8.688095e+00    2.782003e+00
  8.719846e+00    2.862743e+00
  8.751598e+00    2.759358e+00
  8.783349e+00    2.843512e+00
  8.815100e+00    2.785462e+00
  8.846851e+00    2.813054e+00
  8.878602e+00    2.763105e+00
  8.910353e+00    2.815139e+00
  8.942104e+00    2.809093e+00
  8.973856e+00    2.805830e+00
  9.005607e+00    2.843790e+00
  9.037358e+00    2.809544e+00
  9.069109e+00    2.794474e+00
  9.100860e+00    2.794783e+00
  9.132611e+00    2.789132e+00
  9.164362e+00    2.760595e+00
  9.196114e+00    2.780670e+00
  9.227865e+00    2.781429e+00
  9.259616e+00    2.746779e+00
  9.291367e+00    2.754944e+00
  9.323118e+00    2.739633e+00
  9.354869e+00    2.771212e+00
  9.386620e+00    2.777716e+00
  9.418372e+00    2.759120e+00
  9.450123e+00    2.753999e+00
  9.481874e+00    2.761209e+00
  9.513625e+00    2.730147e+00
  9.545376e+00    2.772942e+00
  9.577127e+00    2.716568e+00
  9.608878e+00    2.755387e+00
  9.640630e+00    2.729178e+00
  9.672381e+00    2.723166e+00
  9.704132e+00    2.762391e+00
  9.735883e+00    2.699242e+00
  9.767634e+00    2.736196e+00
  9.799385e+00    2.714417e+00
  9.831137e+00    2.664244e+00
  9.862888e+00    2.675385e+00
  9.894639e+00    2.694493e+00
  9.926390e+00    2.685766e+00
  9.958141e+00    2.656659e+00
  9.989892e+00    2.679880e+00
  1.002164e+01    2.643124e+00
  1.005339e+01    2.622790e+00
  1.008515e+01    2.646198e+00
  1.011690e+01    2.560544e+00
  1.014865e+01    2.679010e+00
  1.018040e+01    2.586952e+00
  1.021215e+01    2.539370e+00
  1.024390e+01    2.632052e+00
  1.027565e+01    2.592706e+00
  1.030740e+01    2.636594e+00
  1.033915e+01    2.595917e+00
  1.037091e+01    2.625788e+00
  1.040266e+01    2.608432e+00
  1.043441e+01    2.574620e+00
  1.046616e+01    2.596205e+00
  1.049791e+01    2.593850e+00
  1.052966e+01    2.595536e+00
  1.056141e+01    2.572888e+00
  1.059316e+01    2.575298e+00
  1.062492e+01    2.533706e+00
  1.065667e+01    2.516963e+00
  1.068842e+01    2.523868e+00
  1.072017e+01    2.479223e+00
  1.075192e+01    2.535503e+00
  1.078367e+01    2.461147e+00
  1.081542e+01    2.483881e+00
  1.084717e+01    2.531138e+00
  1.087892e+01    2.479858e+00
  1.091068e+01    2.488094e+00
  1.094243e+01    2.539886e+00
  1.097418e+01    2.478980e+00
  1.100593e+01    2.470149e+00
  1.103768e+01    2.478581e+00
  1.106943e+01    2.477242e+00
  1.110118e+01    2.454373e+00
  1.113293e+01    2.479459e+00
  1.116468e+01    2.426816e+00
  1.119644e+01    2.476981e+00
  1.122819e+01    2.417070e+00
  1.125994e+01    2.411452e+00
  1.129169e+01    2.390130e+00
  1.132344e+01    2.360382e+00
  1.135519e+01    2.455218e+00
  1.138694e+01    2.394259e+00
  1.141869e+01    2.419017e+00
  1.145045e+01    2.401687e+00
  1.148220e+01    2.337909e+00
  1.151395e+01    2.420117e+00
  1.154570e+01    2.421626e+00
  1.157745e+01    2.358402e+00
  1.160920e+01    2.334744e+00
  1.164095e+01    2.299571e+00
  1.167270e+01    2.350454e+00
  1.170445e+01    2.373966e+00
  1.173621e+01    2.354935e+00
  1.176796e+01    2.342261e+00
  1.179971e+01    2.374281e+00
  1.183146e+01    2.329556e+00
  1.186321e+01    2.322400e+00
  1.189496e+01    2.305346e+00
  1.192671e+01    2.310376e+00
  1.195846e+01    2.354533e+00
  1.199021e+01    2.286491e+00
  1.202197e+01    2.329744e+00
  1.205372e+01    2.312153e+00
  1.208547e+01    2.316275e+00
  1.211722e+01    2.337784e+00
  1.214897e+01    2.301421e+00
  1.218072e+01    2.352392e+00
  1.221247e+01    2.289976e+00
  1.224422e+01    2.308180e+00
  1.227597e+01    2.272725e+00
  1.230773e+01    2.279839e+00
  1.233948e+01    2.266765e+00
  1.237123e+01    2.300489e+00
  1.240298e+01    2.312543e+00
  1.243473e+01    2.304390e+00
  1.246648e+01    2.344427e+00
  1.249823e+01    2.307053e+00
  1.252998e+01    2.345566e+00
  1.256174e+01    2.357200e+00
  1.259349e+01    2.345353e+00
  1.262524e+01    2.402184e+00
  1.265699e+01    2.438164e+00
  1.268874e+01    2.457711e+00
  1.272049e+01    2.449448e+00
  1.275224e+01    2.485110e+00
  1.278399e+01    2.540686e+00
  1.281574e+01    2.680626e+00
  1.284750e+01    2.810419e+00
  1.287925e+01    3.034704e+00
  1.291100e+01    3.267710e+00
  1.294275e+01    3.699617e+00
  1.297450e+01    4.244703e+00
  1.300625e+01    5.309267e+00
  1.303800e+01    7.034007e+00
  1.306975e+01    9.324670e+00
  1.310150e+01    1.213498e+01
  1.313326e+01    1.452670e+01
  1.316501e+01    1.669981e+01
  1.319676e+01    1.715336e+01
  1.322851e+01    1.410369e+01
  1.326026e+01    1.032302e+01
  1.329201e+01    7.272082e+00
  1.332376e+01    5.520154e+00
  1.335551e+01    4.429583e+00
  1.338727e+01    3.764137e+00
  1.341902e+01    3.258358e+00
  1.345077e+01    2.989636e+00
  1.348252e+01    2.790774e+00
  1.351427e+01    2.636358e+00
  1.354602e+01    2.516426e+00
  1.357777e+01    2.458745e+00
  1.360952e+01    2.317872e+00
  1.364127e+01    2.306314e+00
  1.367303e+01    2.262481e+00
  1.370478e+01    2.222646e+00
  1.373653e+01    2.205052e+00
  1.376828e+01    2.152415e+00
  1.380003e+01    2.136131e+00
  1.383178e+01    2.122540e+00
  1.386353e+01    2.138930e+00
  1.389528e+01    2.113900e+00
  1.392703e+01    2.097959e+00
  1.395879e+01    2.071097e+00
  1.399054e+01    2.034890e+00
  1.402229e+01    2.055675e+00
  1.405404e+01    1.983409e+00
  1.408579e+01    1.977728e+00
  1.411754e+01    1.982355e+00
  1.414929e+01    2.019990e+00
  1.418104e+01    1.964036e+00
  1.421279e+01    1.973215e+00
  1.424455e+01    1.993140e+00
  1.427630e+01    1.948087e+00
  1.430805e+01    1.956149e+00
  1.433980e+01    1.969087e+00
  1.437155e+01    1.921356e+00
  1.440330e+01    1.928902e+00
  1.443505e+01    1.908733e+00
  1.446680e+01    1.924151e+00
  1.449856e+01    1.931645e+00
  1.453031e+01    1.917972e+00
  1.456206e+01    1.928746e+00
  1.459381e+01    1.913419e+00
  1.462556e+01    1.893849e+00
  1.465731e+01    1.935472e+00
  1.468906e+01    1.890895e+00
  1.472081e+01    1.913340e+00
  1.475256e+01    1.890056e+00
  1.478432e+01    1.890391e+00
  1.481607e+01    1.929276e+00
  1.484782e+01    1.929979e+00
  1.487957e+01    1.923365e+00
  1.491132e+01    1.920104e+00
  1.494307e+01    1.971845e+00
  1.497482e+01    2.034437e+00
  1.500657e+01    2.111050e+00
  1.503832e+01    2.270254e+00
  1.507008e+01    2.456973e+00
  1.510183e+01    2.859938e+00
  1.513358e+01    3.391057e+00
  1.516533e+01    4.071758e+00
  1.519708e+01    4.862962e+00
  1.522883e+01    5.451758e+00
  1.526058e+01    5.845845e+00
  1.529233e+01    5.784556e+00
  1.532409e+01    5.015256e+00
  1.535584e+01    3.885952e+00
  1.538759e+01    3.093886e+00
  1.541934e+01    2.596272e+00
  1.545109e+01    2.325872e+00
  1.548284e+01    2.175338e+00
  1.551459e+01    1.987959e+00
  1.554634e+01    1.933368e+00
  1.557809e+01    1.907820e+00
  1.560985e+01    1.793460e+00
  1.564160e+01    1.812846e+00
  1.567335e+01    1.766800e+00
  1.570510e+01    1.707693e+00
  1.573685e+01    1.675160e+00
  1.576860e+01    1.657806e+00
  1.580035e+01    1.686540e+00
  1.583210e+01    1.649218e+00
  1.586385e+01    1.680851e+00
  1.589561e+01    1.661341e+00
  1.592736e+01    1.611208e+00
  1.595911e+01    1.555426e+00
  1.599086e+01    1.606271e+00
  1.602261e+01    1.602336e+00
  1.605436e+01    1.606426e+00
  1.608611e+01    1.568901e+00
  1.611786e+01    1.571466e+00
  1.614961e+01    1.569844e+00
  1.618137e+01    1.582104e+00
  1.621312e+01    1.536418e+00
  1.624487e+01    1.534511e+00
  1.627662e+01    1.541913e+00
  1.630837e+01    1.500822e+00
  1.634012e+01    1.509503e+00
  1.637187e+01    1.508306e+00
  1.640362e+01    1.518162e+00
  1.643538e+01    1.500188e+00
  1.646713e+01    1.502456e+00
  1.649888e+01    1.507158e+00
  1.653063e+01    1.483028e+00
  1.656238e+01    1.483436e+00
  1.659413e+01    1.483293e+00
  1.662588e+01    1.489164e+00
  1.665763e+01    1.448129e+00
  1.668938e+01    1.481158e+00
  1.672114e+01    1.461764e+00
  1.675289e+01    1.503709e+00
  1.678464e+01    1.438684e+00
  1.681639e+01    1.447366e+00
  1.684814e+01    1.470100e+00
  1.687989e+01    1.437296e+00
  1.691164e+01    1.453010e+00
  1.694339e+01    1.448089e+00
  1.697514e+01    1.451552e+00
  1.700690e+01    1.406626e+00
  1.703865e+01    1.372697e+00
  1.707040e+01    1.396018e+00
  1.710215e+01    1.390169e+00
  1.713390e+01    1.391872e+00
  1.716565e+01    1.410608e+00
  1.719740e+01    1.382965e+00
  1.722915e+01    1.391229e+00
  1.726091e+01    1.399666e+00
  1.729266e+01    1.394251e+00
  1.732441e+01    1.367053e+00
  1.735616e+01    1.353773e+00
  1.738791e+01    1.351159e+00
  1.741966e+01    1.328275e+00
  1.745141e+01    1.365819e+00
  1.748316e+01    1.359711e+00
  1.751491e+01    1.360843e+00
  1.754667e+01    1.348092e+00
  1.757842e+01    1.333733e+00
  1.761017e+01    1.351133e+00
  1.764192e+01    1.328821e+00
  1.767367e+01    1.350377e+00
  1.770542e+01    1.347364e+00
  1.773717e+01    1.309845e+00
  1.776892e+01    1.338866e+00
  1.780067e+01    1.293412e+00
  1.783243e+01    1.302175e+00
  1.786418e+01    1.302913e+00
  1.789593e+01    1.306469e+00
  1.792768e+01    1.307458e+00
  1.795943e+01    1.312043e+00
  1.799118e+01    1.266580e+00
  1.802293e+01    1.297100e+00
  1.805468e+01    1.266097e+00
  1.808643e+01    1.312726e+00
  1.811819e+01    1.227067e+00
  1.814994e+01    1.252545e+00
  1.818169e+01    1.297035e+00
  1.821344e+01    1.235540e+00
  1.824519e+01    1.251599e+00
  1.827694e+01    1.268172e+00
  1.830869e+01    1.260004e+00
  1.834044e+01    1.256478e+00
  1.837220e+01    1.270051e+00
  1.840395e+01    1.238579e+00
  1.843570e+01    1.253712e+00
  1.846745e+01    1.249672e+00
  1.849920e+01    1.225925e+00
  1.853095e+01    1.192486e+00
  1.856270e+01    1.239001e+00
  1.859445e+01    1.252520e+00
  1.862620e+01    1.239178e+00
  1.865796e+01    1.217466e+00
  1.868971e+01    1.244883e+00
  1.872146e+01    1.213042e+00
  1.875321e+01    1.216132e+00
  1.878496e+01    1.182181e+00
  1.881671e+01    1.187317e+00
  1.884846e+01    1.217066e+00
  1.888021e+01    1.186251e+00
  1.891196e+01    1.204871e+00
  1.894372e+01    1.206434e+00
  1.897547e+01    1.192482e+00
  1.900722e+01    1.187137e+00
  1.903897e+01    1.191850e+00
  1.907072e+01    1.196024e+00
  1.910247e+01    1.201115e+00
  1.913422e+01    1.194008e+00
  1.916597e+01    1.174392e+00
  1.919773e+01    1.175135e+00
  1.922948e+01    1.154920e+00
  1.926123e+01    1.174910e+00
  1.929298e+01    1.165162e+00
  1.932473e+01    1.178130e+00
  1.935648e+01    1.184572e+00
  1.938823e+01    1.187410e+00
  1.941998e+01    1.173542e+00
  1.945173e+01    1.172272e+00
  1.948349e+01    1.134887e+00
  1.951524e+01    1.145552e+00
  1.954699e+01    1.137148e+00
  1.957874e+01    1.124293e+00
  1.961049e+01    1.151593e+00
  1.964224e+01    1.128447e+00
  1.967399e+01    1.124097e+00
  1.970574e+01    1.134795e+00
  1.973749e+01    1.117486e+00
  1.976925e+01    1.127347e+00
  1.980100e+01    1.135963e+00
  1.983275e+01    1.147794e+00
  1.986450e+01    1.138421e+00
  1.989625e+01    1.154080e+00
  1.992800e+01    1.138711e+00
  1.995975e+01    1.117295e+00
  1.999150e+01    1.104839e+00
  2.002325e+01    1.090835e+00
  2.005501e+01    1.092869e+00
  2.008676e+01    1.115628e+00
  2.011851e+01    1.098636e+00
  2.015026e+01    1.105296e+00
  2.018201e+01    1.104028e+00
  2.021376e+01    1.119951e+00
  2.024551e+01    1.087333e+00
  2.027726e+01    1.076043e+00
  2.030902e+01    1.099719e+00
  2.034077e+01    1.088340e+00
  2.037252e+01    1.080881e+00
  2.040427e+01    1.080040e+00
  2.043602e+01    1.101867e+00
  2.046777e+01    1.097833e+00
  2.049952e+01    1.089051e+00
  2.053127e+01    1.072371e+00
  2.056302e+01    1.090105e+00
  2.059478e+01    1.080040e+00
  2.062653e+01    1.054836e+00
  2.065828e+01    1.080332e+00
  2.069003e+01    1.086207e+00
  2.072178e+01    1.078266e+00
  2.075353e+01    1.048415e+00
  2.078528e+01    1.078855e+00
  2.081703e+01    1.065638e+00
  2.084878e+01    1.065370e+00
  2.088054e+01    1.087485e+00
  2.091229e+01    1.079657e+00
  2.094404e+01    1.063967e+00
  2.097579e+01    1.071177e+00
  2.100754e+01    1.079923e+00
  2.103929e+01    1.069780e+00
  2.107104e+01    1.079583e+00
  2.110279e+01    1.045856e+00
  2.113455e+01    1.069560e+00
  2.116630e+01    1.086421e+00
  2.119805e+01    1.079283e+00
  2.122980e+01    1.104060e+00
  2.126155e+01    1.097287e+00
  2.129330e+01    1.087984e+00
  2.132505e+01    1.123656e+00
  2.135680e+01    1.125329e+00
  2.138855e+01    1.128661e+00
  2.142031e+01    1.153928e+00
  2.145206e+01    1.197060e+00
  2.148381e+01    1.253266e+00
  2.151556e+01    1.290174e+00
  2.154731e+01    1.392716e+00
  2.157906e+01    1.478355e+00
  2.161081e+01    1.589430e+00
  2.164256e+01    1.808871e+00
  2.167431e+01    2.048625e+00
  2.170607e+01    2.487641e+00
  2.173782e+01    3.146319e+00
  2.176957e+01    4.124729e+00
  2.180132e+01    5.402773e+00
  2.183307e+01    6.845213e+00
  2.186482e+01    8.285493e+00
  2.189657e+01    9.321052e+00
  2.192832e+01    9.245145e+00
  2.196007e+01    7.690553e+00
  2.199183e+01    5.627103e+00
  2.202358e+01    4.036133e+00
  2.205533e+01    3.058848e+00
  2.208708e+01    2.391264e+00
  2.211883e+01    1.991100e+00
  2.215058e+01    1.744192e+00
  2.218233e+01    1.545386e+00
  2.221408e+01    1.435669e+00
  2.224584e+01    1.308866e+00
  2.227759e+01    1.260571e+00
  2.230934e+01    1.192404e+00
  2.234109e+01    1.126026e+00
  2.237284e+01    1.129595e+00
  2.240459e+01    1.102815e+00
  2.243634e+01    1.064654e+00
  2.246809e+01    1.035235e+00
  2.249984e+01    1.028084e+00
  2.253160e+01    9.972934e-01
  2.256335e+01    9.769917e-01
  2.259510e+01    9.843524e-01
  2.262685e+01    9.698971e-01
  2.265860e+01    9.701328e-01
  2.269035e+01    9.721585e-01
  2.272210e+01    9.499471e-01
  2.275385e+01    9.195287e-01
  2.278560e+01    9.176611e-01
  2.281736e+01    9.199892e-01
  2.284911e+01    9.237658e-01
  2.288086e+01    9.092851e-01
  2.291261e+01    8.996722e-01
  2.294436e+01    9.136935e-01
  2.297611e+01    9.132559e-01
  2.300786e+01    8.885676e-01
  2.303961e+01    9.078230e-01
  2.307137e+01    8.713115e-01
  2.310312e+01    8.767225e-01
  2.313487e+01    8.725629e-01
  2.316662e+01    8.567898e-01
  2.319837e+01    8.678311e-01
  2.323012e+01    8.662116e-01
  2.326187e+01    8.603399e-01
  2.329362e+01    8.590628e-01
  2.332537e+01    8.615754e-01
  2.335713e+01    8.685626e-01
  2.338888e+01    8.421131e-01
  2.342063e+01    8.471886e-01
  2.345238e+01    8.438292e-01
  2.348413e+01    8.353139e-01
  2.351588e+01    8.327103e-01
  2.354763e+01    8.588989e-01
  2.357938e+01    8.364742e-01
  2.361113e+01    8.332501e-01
  2.364289e+01    8.435149e-01
  2.367464e+01    8.314444e-01
  2.370639e+01    8.207383e-01
  2.373814e+01    8.052883e-01
  2.376989e+01    8.066469e-01
  2.380164e+01    8.026704e-01
  2.383339e+01    8.076613e-01
  2.386514e+01    7.966127e-01
  2.389689e+01    8.061088e-01
  2.392865e+01    7.982535e-01
  2.396040e+01    8.052941e-01
  2.399215e+01    7.835521e-01
  2.402390e+01    7.779366e-01
  2.405565e+01    7.889784e-01
  2.408740e+01    7.902193e-01
  2.411915e+01    7.752914e-01
  2.415090e+01    7.668018e-01
  2.418266e+01    7.610433e-01
  2.421441e+01    7.579021e-01
  2.424616e+01    7.721170e-01
  2.427791e+01    7.891676e-01
  2.430966e+01    7.915373e-01
  2.434141e+01    7.687002e-01
  2.437316e+01    7.885656e-01
  2.440491e+01    7.782481e-01
  2.443666e+01    7.881022e-01
  2.446842e+01    7.799153e-01
  2.450017e+01    7.648740e-01
  2.453192e+01    7.927476e-01
  2.456367e+01    8.081430e-01
  2.459542e+01    7.826243e-01
  2.462717e+01    7.923993e-01
  2.465892e+01    7.778670e-01
  2.469067e+01    8.026932e-01
  2.472242e+01    7.895749e-01
  2.475418e+01    7.962677e-01
  2.478593e+01    7.856287e-01
  2.481768e+01    7.764612e-01
  2.484943e+01    7.774113e-01
  2.488118e+01    8.059848e-01
  2.491293e+01    7.953477e-01
  2.494468e+01    7.614834e-01
  2.497643e+01    7.981521e-01
  2.500819e+01    8.065380e-01
  2.503994e+01    8.040826e-01
  2.507169e+01    7.879011e-01
  2.510344e+01    8.010342e-01
  2.513519e+01    7.990110e-01
  2.516694e+01    8.343587e-01
  2.519869e+01    8.230252e-01
  2.523044e+01    8.196955e-01
  2.526219e+01    8.607833e-01
  2.529395e+01    8.466587e-01
  2.532570e+01    8.860223e-01
  2.535745e+01    8.988823e-01
  2.538920e+01    8.940784e-01
  2.542095e+01    9.086379e-01
  2.545270e+01    9.405465e-01
  2.548445e+01    9.633405e-01
  2.551620e+01    9.853744e-01
  2.554795e+01    1.022560e+00
  2.557971e+01    1.061711e+00
  2.561146e+01    1.135292e+00
  2.564321e+01    1.199592e+00
  2.567496e+01    1.324110e+00
  2.570671e+01    1.471269e+00
  2.573846e+01    1.708442e+00
  2.577021e+01    2.009802e+00
  2.580196e+01    2.521092e+00
  2.583371e+01    3.255242e+00
  2.586547e+01    4.316949e+00
  2.589722e+01    5.496484e+00
  2.592897e+01    6.835920e+00
  2.596072e+01    7.641596e+00
  2.599247e+01    7.635560e+00
  2.602422e+01    6.506181e+00
  2.605597e+01    4.910230e+00
  2.608772e+01    3.602485e+00
  2.611948e+01    2.690425e+00
  2.615123e+01    2.128845e+00
  2.618298e+01    1.779647e+00
  2.621473e+01    1.481921e+00
  2.624648e+01    1.344612e+00
  2.627823e+01    1.216007e+00
  2.630998e+01    1.136097e+00
  2.634173e+01    1.072107e+00
  2.637348e+01    1.050290e+00
  2.640524e+01    9.766524e-01
  2.643699e+01    9.597551e-01
  2.646874e+01    9.578592e-01
  2.650049e+01    9.433656e-01
  2.653224e+01    9.257238e-01
  2.656399e+01    9.171426e-01
  2.659574e+01    9.140236e-01
  2.662749e+01    8.860263e-01
  2.665924e+01    9.010746e-01
  2.669100e+01    8.823982e-01
  2.672275e+01    8.713758e-01
  2.675450e+01    8.710068e-01
  2.678625e+01    9.021870e-01
  2.681800e+01    9.060684e-01
  2.684975e+01    8.851199e-01
  2.688150e+01    9.104512e-01
  2.691325e+01    9.138249e-01
  2.694501e+01    9.373112e-01
  2.697676e+01    9.551630e-01
  2.700851e+01    1.010197e+00
  2.704026e+01    1.070127e+00
  2.707201e+01    1.197859e+00
  2.710376e+01    1.341357e+00
  2.713551e+01    1.588659e+00
  2.716726e+01    1.892854e+00
  2.719901e+01    2.164629e+00
  2.723077e+01    2.271916e+00
  2.726252e+01    2.213287e+00
  2.729427e+01    1.909992e+00
  2.732602e+01    1.596992e+00
  2.735777e+01    1.343983e+00
  2.738952e+01    1.187056e+00
  2.742127e+01    1.081836e+00
  2.745302e+01    1.009815e+00
  2.748477e+01    9.365531e-01
  2.751653e+01    9.178071e-01
  2.754828e+01    8.819590e-01
  2.758003e+01    8.704622e-01
  2.761178e+01    8.501493e-01
  2.764353e+01    8.418429e-01
  2.767528e+01    8.228209e-01
  2.770703e+01    8.121494e-01
  2.773878e+01    8.146001e-01
  2.777054e+01    8.220919e-01
  2.780229e+01    7.943349e-01
  2.783404e+01    8.172662e-01
  2.786579e+01    8.042101e-01
  2.789754e+01    8.112721e-01
  2.792929e+01    7.838628e-01
  2.796104e+01    7.937023e-01
  2.799279e+01    7.767967e-01
  2.802454e+01    7.958326e-01
  2.805630e+01    7.695508e-01
  2.808805e+01    7.660202e-01
  2.811980e+01    7.754503e-01
  2.815155e+01    7.581738e-01
  2.818330e+01    7.792683e-01
  2.821505e+01    7.886018e-01
  2.824680e+01    7.698873e-01
  2.827855e+01    7.719432e-01
  2.831030e+01    7.774774e-01
  2.834206e+01    7.710550e-01
  2.837381e+01    7.809873e-01
  2.840556e+01    7.583959e-01
  2.843731e+01    7.480649e-01
  2.846906e+01    7.525140e-01
  2.850081e+01    7.494352e-01
  2.853256e+01    7.462020e-01
  2.856431e+01    7.397469e-01
  2.859606e+01    7.559803e-01
  2.862782e+01    7.404866e-01
  2.865957e+01    7.516732e-01
  2.869132e+01    7.424460e-01
  2.872307e+01    7.458484e-01
  2.875482e+01    7.397254e-01
  2.878657e+01    7.491516e-01
  2.881832e+01    7.311592e-01
  2.885007e+01    7.310801e-01
  2.888183e+01    7.430045e-01
  2.891358e+01    7.357022e-01
  2.894533e+01    7.286910e-01
  2.897708e+01    7.212499e-01
  2.900883e+01    7.296210e-01
  2.904058e+01    7.248548e-01
  2.907233e+01    7.081738e-01
  2.910408e+01    7.408369e-01
  2.913583e+01    7.389989e-01
  2.916759e+01    7.082598e-01
  2.919934e+01    7.249824e-01
  2.923109e+01    7.552789e-01
  2.926284e+01    7.174159e-01
  2.929459e+01    7.138916e-01
  2.932634e+01    7.145451e-01
  2.935809e+01    7.255320e-01
  2.938984e+01    7.235140e-01
  2.942159e+01    7.613533e-01
  2.945335e+01    7.061598e-01
  2.948510e+01    7.025451e-01
  2.951685e+01    7.095436e-01
  2.954860e+01    7.186155e-01
  2.958035e+01    7.351494e-01
  2.961210e+01    7.446257e-01
  2.964385e+01    7.130780e-01
  2.967560e+01    7.046477e-01
  2.970736e+01    7.077398e-01
  2.973911e+01    7.361423e-01
  2.977086e+01    7.129183e-01
  2.980261e+01    7.075921e-01
  2.983436e+01    7.423100e-01
  2.986611e+01    7.324485e-01
  2.989786e+01    7.144832e-01
  2.992961e+01    7.248040e-01
  2.996136e+01    7.135180e-01
  2.999312e+01    7.458778e-01
  3.002487e+01    7.351875e-01
  3.005662e+01    7.190410e-01
  3.008837e+01    7.077429e-01
  3.012012e+01    7.218909e-01
  3.015187e+01    7.087879e-01
  3.018362e+01    7.149003e-01
  3.021537e+01    7.080031e-01
  3.024712e+01    7.121347e-01
  3.027888e+01    7.147453e-01
  3.031063e+01    7.033907e-01
  3.034238e+01    6.876076e-01
  3.037413e+01    7.169663e-01
  3.040588e+01    7.111859e-01
  3.043763e+01    7.152927e-01
  3.046938e+01    7.053861e-01
  3.050113e+01    7.216330e-01
  3.053288e+01    6.926703e-01
  3.056464e+01    7.070518e-01
  3.059639e+01    7.156895e-01
  3.062814e+01    7.005665e-01
  3.065989e+01    7.059523e-01
  3.069164e+01    7.091836e-01
  3.072339e+01    7.100663e-01
  3.075514e+01    7.087591e-01
  3.078689e+01    7.078490e-01
  3.081865e+01    7.055447e-01
  3.085040e+01    7.099537e-01
  3.088215e+01    7.115480e-01
  3.091390e+01    7.085992e-01
  3.094565e+01    7.049439e-01
  3.097740e+01    7.137570e-01
  3.100915e+01    6.994236e-01
  3.104090e+01    6.988246e-01
  3.107265e+01    6.886925e-01
  3.110441e+01    7.301276e-01
  3.113616e+01    7.100667e-01
  3.116791e+01    7.218388e-01
  3.119966e+01    7.279680e-01
  3.123141e+01    7.064883e-01
  3.126316e+01    7.402324e-01
  3.129491e+01    7.294762e-01
  3.132666e+01    7.470353e-01
  3.135841e+01    7.365580e-01
  3.139017e+01    7.347592e-01
  3.142192e+01    7.603685e-01
  3.145367e+01    7.323822e-01
  3.148542e+01    7.538787e-01
  3.151717e+01    7.848920e-01
  3.154892e+01    7.729630e-01
  3.158067e+01    7.742286e-01
  3.161242e+01    8.129712e-01
  3.164418e+01    8.583545e-01
  3.167593e+01    8.830652e-01
  3.170768e+01    9.390401e-01
  3.173943e+01    1.041023e+00
  3.177118e+01    1.120992e+00
  3.180293e+01    1.346807e+00
  3.183468e+01    1.593389e+00
  3.186643e+01    1.872783e+00
  3.189818e+01    2.200544e+00
  3.192994e+01    2.292882e+00
  3.196169e+01    2.131978e+00
  3.199344e+01    1.830508e+00
  3.202519e+01    1.496617e+00
  3.205694e+01    1.229865e+00
  3.208869e+01    1.077606e+00
  3.212044e+01    1.001314e+00
  3.215219e+01    8.947548e-01
  3.218394e+01    8.410969e-01
  3.221570e+01    8.128543e-01
  3.224745e+01    7.734166e-01
  3.227920e+01    7.927556e-01
  3.231095e+01    7.710668e-01
  3.234270e+01    7.225557e-01
  3.237445e+01    7.589787e-01
  3.240620e+01    7.400120e-01
  3.243795e+01    7.340785e-01
  3.246970e+01    7.342270e-01
  3.250146e+01    7.303222e-01
  3.253321e+01    7.468962e-01
  3.254908e+01    7.418910e-01