File: XRD/2024-07-27_002_Ru-CGO-ex_Activtation_ramp_000002_data_000076.dat
# == pyFAI calibration ==
# Distance Sample to Detector: 0.4 m
# PONI: 9.750e-02, 1.135e-01 m
# Rotations: -0.000175 0.000000 -0.000000 rad
#
# == Fit2d calibration ==
# Distance Sample-beamCenter: 400.000 mm
# Center: x=1514.000, y=1300.000 pix
# Tilt: 0.010 deg  TiltPlanRot: 0.010 deg
#
# Detector Detector	 Spline= None	 PixelSize= 7.500e-05, 7.500e-05 m
#    Detector has a mask: False
#    Detector has a dark current: False
#    detector has a flat field: False
#
# Wavelength: 6.888e-11 m
# Mask applied: user provided
# Dark current applied: False
# Flat field applied: False
# Polarization factor: 0.99
# Normalization factor: 1.0
# --> /home/myspot/data/2024_07_Rosario/Ru-CGO-ex/2024-07-27_002_Ru-CGO-ex_Activtation_ramp_000002_data_000076.dat
#       q_nm^-1             I
  2.003187e-02    7.712624e-02
  5.178302e-02    6.857958e-02
  8.353417e-02    1.772976e-01
  1.152853e-01    1.011188e-01
  1.470365e-01    1.610428e-02
  1.787876e-01    7.026000e-02
  2.105388e-01    5.254465e-02
  2.422899e-01    1.105189e-02
  2.740411e-01    3.383880e-02
  3.057922e-01    3.090031e-02
  3.375433e-01    4.586985e-02
  3.692945e-01    4.336828e-02
  4.010456e-01    2.162118e-02
  4.327968e-01    4.569160e-02
  4.645479e-01    3.805071e-02
  4.962991e-01    2.268511e-02
  5.280502e-01    1.919110e-02
  5.598014e-01    4.247131e-02
  5.915525e-01    3.135397e-02
  6.233037e-01    4.622353e-02
  6.550548e-01    6.495120e-02
  6.868060e-01    4.732665e-02
  7.185571e-01    5.906126e-02
  7.503083e-01    7.447303e-02
  7.820594e-01    1.005209e-01
  8.138106e-01    2.266657e-01
  8.455617e-01    2.415007e-01
  8.773129e-01    3.817712e-01
  9.090640e-01    6.065422e-01
  9.408152e-01    6.902112e-01
  9.725663e-01    9.265115e-01
  1.004317e+00    9.507546e-01
  1.036069e+00    1.125556e+00
  1.067820e+00    1.308925e+00
  1.099571e+00    1.294446e+00
  1.131322e+00    1.472543e+00
  1.163073e+00    1.544701e+00
  1.194824e+00    1.681415e+00
  1.226575e+00    2.083579e+00
  1.258327e+00    2.420070e+00
  1.290078e+00    2.443624e+00
  1.321829e+00    2.612113e+00
  1.353580e+00    2.639770e+00
  1.385331e+00    2.807935e+00
  1.417082e+00    2.702600e+00
  1.448834e+00    2.791810e+00
  1.480585e+00    2.858370e+00
  1.512336e+00    2.698344e+00
  1.544087e+00    2.962629e+00
  1.575838e+00    2.909131e+00
  1.607589e+00    2.849018e+00
  1.639340e+00    2.936677e+00
  1.671092e+00    2.766262e+00
  1.702843e+00    2.938108e+00
  1.734594e+00    2.826990e+00
  1.766345e+00    2.866455e+00
  1.798096e+00    2.717480e+00
  1.829847e+00    2.794988e+00
  1.861598e+00    2.828795e+00
  1.893350e+00    2.729827e+00
  1.925101e+00    2.687393e+00
  1.956852e+00    2.837362e+00
  1.988603e+00    2.706852e+00
  2.020354e+00    2.771351e+00
  2.052105e+00    2.641622e+00
  2.083856e+00    2.742801e+00
  2.115608e+00    2.766926e+00
  2.147359e+00    2.798150e+00
  2.179110e+00    2.724630e+00
  2.210861e+00    2.743747e+00
  2.242612e+00    2.688492e+00
  2.274363e+00    2.772703e+00
  2.306115e+00    2.721929e+00
  2.337866e+00    2.645943e+00
  2.369617e+00    2.779928e+00
  2.401368e+00    2.777244e+00
  2.433119e+00    2.888214e+00
  2.464870e+00    2.785775e+00
  2.496621e+00    2.791197e+00
  2.528373e+00    2.732510e+00
  2.560124e+00    2.619802e+00
  2.591875e+00    2.633011e+00
  2.623626e+00    2.825750e+00
  2.655377e+00    2.808186e+00
  2.687128e+00    2.865967e+00
  2.718879e+00    2.907214e+00
  2.750631e+00    2.694584e+00
  2.782382e+00    2.928695e+00
  2.814133e+00    2.820196e+00
  2.845884e+00    2.853524e+00
  2.877635e+00    2.875032e+00
  2.909386e+00    2.840859e+00
  2.941137e+00    2.887616e+00
  2.972889e+00    2.847435e+00
  3.004640e+00    2.785085e+00
  3.036391e+00    2.974055e+00
  3.068142e+00    2.892559e+00
  3.099893e+00    2.874247e+00
  3.131644e+00    2.973902e+00
  3.163395e+00    2.930443e+00
  3.195147e+00    2.900038e+00
  3.226898e+00    2.771164e+00
  3.258649e+00    2.941196e+00
  3.290400e+00    2.864561e+00
  3.322151e+00    2.877473e+00
  3.353902e+00    3.085337e+00
  3.385654e+00    3.003512e+00
  3.417405e+00    2.876061e+00
  3.449156e+00    2.901420e+00
  3.480907e+00    2.980774e+00
  3.512658e+00    2.898935e+00
  3.544409e+00    2.946136e+00
  3.576160e+00    2.913234e+00
  3.607912e+00    2.915805e+00
  3.639663e+00    3.047663e+00
  3.671414e+00    2.911529e+00
  3.703165e+00    2.973032e+00
  3.734916e+00    3.084214e+00
  3.766667e+00    2.971112e+00
  3.798418e+00    2.991192e+00
  3.830170e+00    2.938885e+00
  3.861921e+00    3.018255e+00
  3.893672e+00    3.002438e+00
  3.925423e+00    2.949719e+00
  3.957174e+00    2.976264e+00
  3.988925e+00    3.012399e+00
  4.020676e+00    3.112536e+00
  4.052428e+00    3.028806e+00
  4.084179e+00    3.030374e+00
  4.115930e+00    2.978933e+00
  4.147681e+00    2.985928e+00
  4.179432e+00    2.962207e+00
  4.211183e+00    2.952179e+00
  4.242935e+00    3.006250e+00
  4.274686e+00    3.121818e+00
  4.306437e+00    2.946499e+00
  4.338188e+00    3.013845e+00
  4.369939e+00    2.992136e+00
  4.401690e+00    3.044461e+00
  4.433441e+00    3.024144e+00
  4.465193e+00    3.083975e+00
  4.496944e+00    3.124828e+00
  4.528695e+00    3.128809e+00
  4.560446e+00    3.010968e+00
  4.592197e+00    3.034266e+00
  4.623948e+00    3.144257e+00
  4.655699e+00    3.050487e+00
  4.687451e+00    3.054369e+00
  4.719202e+00    3.050302e+00
  4.750953e+00    3.275458e+00
  4.782704e+00    3.070628e+00
  4.814455e+00    3.061087e+00
  4.846206e+00    3.091419e+00
  4.877957e+00    3.155108e+00
  4.909709e+00    3.092102e+00
  4.941460e+00    3.100741e+00
  4.973211e+00    3.099961e+00
  5.004962e+00    3.133066e+00
  5.036713e+00    3.150515e+00
  5.068464e+00    3.112199e+00
  5.100216e+00    3.191138e+00
  5.131967e+00    3.029224e+00
  5.163718e+00    3.141089e+00
  5.195469e+00    3.037215e+00
  5.227220e+00    3.154595e+00
  5.258971e+00    3.144609e+00
  5.290722e+00    3.105639e+00
  5.322474e+00    3.192212e+00
  5.354225e+00    3.123448e+00
  5.385976e+00    3.086818e+00
  5.417727e+00    3.115893e+00
  5.449478e+00    3.132053e+00
  5.481229e+00    3.052378e+00
  5.512980e+00    3.062191e+00
  5.544732e+00    3.036097e+00
  5.576483e+00    3.011410e+00
  5.608234e+00    2.992783e+00
  5.639985e+00    3.084298e+00
  5.671736e+00    2.950334e+00
  5.703487e+00    3.062570e+00
  5.735238e+00    2.929289e+00
  5.766990e+00    2.993235e+00
  5.798741e+00    3.115326e+00
  5.830492e+00    3.021516e+00
  5.862243e+00    3.050671e+00
  5.893994e+00    3.060476e+00
  5.925745e+00    2.946125e+00
  5.957497e+00    2.967467e+00
  5.989248e+00    2.933324e+00
  6.020999e+00    3.062855e+00
  6.052750e+00    2.959738e+00
  6.084501e+00    3.092914e+00
  6.116252e+00    3.119582e+00
  6.148003e+00    3.079583e+00
  6.179755e+00    3.099292e+00
  6.211506e+00    2.998896e+00
  6.243257e+00    3.053914e+00
  6.275008e+00    3.064879e+00
  6.306759e+00    3.034239e+00
  6.338510e+00    3.028967e+00
  6.370261e+00    2.997825e+00
  6.402013e+00    2.984186e+00
  6.433764e+00    3.016972e+00
  6.465515e+00    3.070956e+00
  6.497266e+00    2.981744e+00
  6.529017e+00    3.039152e+00
  6.560768e+00    3.061398e+00
  6.592519e+00    3.017769e+00
  6.624271e+00    3.021693e+00
  6.656022e+00    3.088741e+00
  6.687773e+00    3.054894e+00
  6.719524e+00    3.067628e+00
  6.751275e+00    2.987329e+00
  6.783026e+00    2.966522e+00
  6.814777e+00    3.039026e+00
  6.846529e+00    3.039569e+00
  6.878280e+00    3.060750e+00
  6.910031e+00    3.093030e+00
  6.941782e+00    3.017829e+00
  6.973533e+00    3.069500e+00
  7.005284e+00    2.987220e+00
  7.037036e+00    3.007314e+00
  7.068787e+00    3.038249e+00
  7.100538e+00    2.970518e+00
  7.132289e+00    3.023401e+00
  7.164040e+00    3.029556e+00
  7.195791e+00    3.034345e+00
  7.227542e+00    2.944831e+00
  7.259294e+00    2.970059e+00
  7.291045e+00    3.018553e+00
  7.322796e+00    2.916379e+00
  7.354547e+00    3.044125e+00
  7.386298e+00    2.966756e+00
  7.418049e+00    3.010834e+00
  7.449800e+00    2.930888e+00
  7.481552e+00    3.025723e+00
  7.513303e+00    3.012113e+00
  7.545054e+00    2.994815e+00
  7.576805e+00    2.879481e+00
  7.608556e+00    2.926541e+00
  7.640307e+00    2.947890e+00
  7.672058e+00    2.907524e+00
  7.703810e+00    2.943227e+00
  7.735561e+00    2.972627e+00
  7.767312e+00    2.893434e+00
  7.799063e+00    2.947640e+00
  7.830814e+00    2.938613e+00
  7.862565e+00    2.906500e+00
  7.894317e+00    2.888809e+00
  7.926068e+00    2.889621e+00
  7.957819e+00    3.006254e+00
  7.989570e+00    2.924940e+00
  8.021321e+00    2.870725e+00
  8.053072e+00    2.907572e+00
  8.084823e+00    2.924462e+00
  8.116575e+00    2.943126e+00
  8.148326e+00    2.928764e+00
  8.180077e+00    2.922909e+00
  8.211828e+00    2.929539e+00
  8.243579e+00    2.981285e+00
  8.275330e+00    2.878801e+00
  8.307081e+00    2.953534e+00
  8.338833e+00    2.855598e+00
  8.370584e+00    2.855247e+00
  8.402335e+00    2.888421e+00
  8.434086e+00    2.814193e+00
  8.465837e+00    2.854139e+00
  8.497588e+00    2.828142e+00
  8.529339e+00    2.805928e+00
  8.561091e+00    2.906083e+00
  8.592842e+00    2.802795e+00
  8.624593e+00    2.891691e+00
  8.656344e+00    2.903363e+00
  8.688095e+00    2.880728e+00
  8.719846e+00    2.886302e+00
  8.751598e+00    2.822978e+00
  8.783349e+00    2.823422e+00
  8.815100e+00    2.813639e+00
  8.846851e+00    2.858184e+00
  8.878602e+00    2.811359e+00
  8.910353e+00    2.837980e+00
  8.942104e+00    2.776613e+00
  8.973856e+00    2.819090e+00
  9.005607e+00    2.807058e+00
  9.037358e+00    2.834835e+00
  9.069109e+00    2.812856e+00
  9.100860e+00    2.819904e+00
  9.132611e+00    2.872227e+00
  9.164362e+00    2.746913e+00
  9.196114e+00    2.824013e+00
  9.227865e+00    2.792476e+00
  9.259616e+00    2.726755e+00
  9.291367e+00    2.750331e+00
  9.323118e+00    2.814733e+00
  9.354869e+00    2.778996e+00
  9.386620e+00    2.745236e+00
  9.418372e+00    2.741208e+00
  9.450123e+00    2.771746e+00
  9.481874e+00    2.690543e+00
  9.513625e+00    2.782544e+00
  9.545376e+00    2.788358e+00
  9.577127e+00    2.756680e+00
  9.608878e+00    2.718254e+00
  9.640630e+00    2.728864e+00
  9.672381e+00    2.690835e+00
  9.704132e+00    2.722484e+00
  9.735883e+00    2.731228e+00
  9.767634e+00    2.666744e+00
  9.799385e+00    2.708260e+00
  9.831137e+00    2.646241e+00
  9.862888e+00    2.642690e+00
  9.894639e+00    2.716430e+00
  9.926390e+00    2.664956e+00
  9.958141e+00    2.705150e+00
  9.989892e+00    2.638003e+00
  1.002164e+01    2.650690e+00
  1.005339e+01    2.660596e+00
  1.008515e+01    2.629785e+00
  1.011690e+01    2.641857e+00
  1.014865e+01    2.658470e+00
  1.018040e+01    2.647145e+00
  1.021215e+01    2.635819e+00
  1.024390e+01    2.618961e+00
  1.027565e+01    2.607679e+00
  1.030740e+01    2.626140e+00
  1.033915e+01    2.674863e+00
  1.037091e+01    2.615738e+00
  1.040266e+01    2.612104e+00
  1.043441e+01    2.618198e+00
  1.046616e+01    2.582677e+00
  1.049791e+01    2.601080e+00
  1.052966e+01    2.569660e+00
  1.056141e+01    2.623715e+00
  1.059316e+01    2.531626e+00
  1.062492e+01    2.561112e+00
  1.065667e+01    2.556718e+00
  1.068842e+01    2.561623e+00
  1.072017e+01    2.477765e+00
  1.075192e+01    2.520988e+00
  1.078367e+01    2.560198e+00
  1.081542e+01    2.508209e+00
  1.084717e+01    2.543962e+00
  1.087892e+01    2.501541e+00
  1.091068e+01    2.466756e+00
  1.094243e+01    2.549011e+00
  1.097418e+01    2.465158e+00
  1.100593e+01    2.448023e+00
  1.103768e+01    2.498166e+00
  1.106943e+01    2.438494e+00
  1.110118e+01    2.430294e+00
  1.113293e+01    2.431744e+00
  1.116468e+01    2.517114e+00
  1.119644e+01    2.492923e+00
  1.122819e+01    2.483406e+00
  1.125994e+01    2.412918e+00
  1.129169e+01    2.414854e+00
  1.132344e+01    2.422754e+00
  1.135519e+01    2.431299e+00
  1.138694e+01    2.417602e+00
  1.141869e+01    2.408819e+00
  1.145045e+01    2.400349e+00
  1.148220e+01    2.411301e+00
  1.151395e+01    2.402695e+00
  1.154570e+01    2.398427e+00
  1.157745e+01    2.342761e+00
  1.160920e+01    2.408034e+00
  1.164095e+01    2.394429e+00
  1.167270e+01    2.376046e+00
  1.170445e+01    2.343854e+00
  1.173621e+01    2.415072e+00
  1.176796e+01    2.346079e+00
  1.179971e+01    2.347669e+00
  1.183146e+01    2.344781e+00
  1.186321e+01    2.308228e+00
  1.189496e+01    2.319902e+00
  1.192671e+01    2.351719e+00
  1.195846e+01    2.295742e+00
  1.199021e+01    2.324745e+00
  1.202197e+01    2.294618e+00
  1.205372e+01    2.339078e+00
  1.208547e+01    2.284077e+00
  1.211722e+01    2.363992e+00
  1.214897e+01    2.330599e+00
  1.218072e+01    2.332799e+00
  1.221247e+01    2.309871e+00
  1.224422e+01    2.310776e+00
  1.227597e+01    2.304781e+00
  1.230773e+01    2.343786e+00
  1.233948e+01    2.282841e+00
  1.237123e+01    2.285447e+00
  1.240298e+01    2.300308e+00
  1.243473e+01    2.324265e+00
  1.246648e+01    2.357315e+00
  1.249823e+01    2.364659e+00
  1.252998e+01    2.344640e+00
  1.256174e+01    2.334269e+00
  1.259349e+01    2.404813e+00
  1.262524e+01    2.413126e+00
  1.265699e+01    2.414542e+00
  1.268874e+01    2.460171e+00
  1.272049e+01    2.464470e+00
  1.275224e+01    2.553814e+00
  1.278399e+01    2.555275e+00
  1.281574e+01    2.718432e+00
  1.284750e+01    2.843590e+00
  1.287925e+01    3.065630e+00
  1.291100e+01    3.256984e+00
  1.294275e+01    3.703217e+00
  1.297450e+01    4.301869e+00
  1.300625e+01    5.293313e+00
  1.303800e+01    6.924871e+00
  1.306975e+01    9.279879e+00
  1.310150e+01    1.215665e+01
  1.313326e+01    1.488373e+01
  1.316501e+01    1.755436e+01
  1.319676e+01    1.853756e+01
  1.322851e+01    1.609192e+01
  1.326026e+01    1.184203e+01
  1.329201e+01    8.242302e+00
  1.332376e+01    6.194696e+00
  1.335551e+01    4.834144e+00
  1.338727e+01    3.987804e+00
  1.341902e+01    3.492522e+00
  1.345077e+01    3.134256e+00
  1.348252e+01    2.844743e+00
  1.351427e+01    2.742597e+00
  1.354602e+01    2.587437e+00
  1.357777e+01    2.499721e+00
  1.360952e+01    2.418411e+00
  1.364127e+01    2.359021e+00
  1.367303e+01    2.269991e+00
  1.370478e+01    2.237227e+00
  1.373653e+01    2.224505e+00
  1.376828e+01    2.209625e+00
  1.380003e+01    2.167492e+00
  1.383178e+01    2.139771e+00
  1.386353e+01    2.155981e+00
  1.389528e+01    2.142737e+00
  1.392703e+01    2.083415e+00
  1.395879e+01    2.084332e+00
  1.399054e+01    2.079402e+00
  1.402229e+01    2.004095e+00
  1.405404e+01    2.028121e+00
  1.408579e+01    2.017173e+00
  1.411754e+01    2.066729e+00
  1.414929e+01    1.969073e+00
  1.418104e+01    1.975270e+00
  1.421279e+01    2.009992e+00
  1.424455e+01    1.953472e+00
  1.427630e+01    1.942313e+00
  1.430805e+01    1.949511e+00
  1.433980e+01    1.962378e+00
  1.437155e+01    1.942800e+00
  1.440330e+01    1.923593e+00
  1.443505e+01    1.942588e+00
  1.446680e+01    1.915957e+00
  1.449856e+01    1.909425e+00
  1.453031e+01    1.911090e+00
  1.456206e+01    1.921858e+00
  1.459381e+01    1.912196e+00
  1.462556e+01    1.905962e+00
  1.465731e+01    1.940209e+00
  1.468906e+01    1.911890e+00
  1.472081e+01    1.880273e+00
  1.475256e+01    1.927265e+00
  1.478432e+01    1.924490e+00
  1.481607e+01    1.905227e+00
  1.484782e+01    1.954723e+00
  1.487957e+01    1.946163e+00
  1.491132e+01    1.903224e+00
  1.494307e+01    2.009235e+00
  1.497482e+01    2.072128e+00
  1.500657e+01    2.134547e+00
  1.503832e+01    2.310756e+00
  1.507008e+01    2.488343e+00
  1.510183e+01    2.807981e+00
  1.513358e+01    3.318553e+00
  1.516533e+01    4.041316e+00
  1.519708e+01    4.854577e+00
  1.522883e+01    5.590028e+00
  1.526058e+01    6.073195e+00
  1.529233e+01    6.203961e+00
  1.532409e+01    5.506845e+00
  1.535584e+01    4.337430e+00
  1.538759e+01    3.418166e+00
  1.541934e+01    2.854383e+00
  1.545109e+01    2.499653e+00
  1.548284e+01    2.223874e+00
  1.551459e+01    2.079482e+00
  1.554634e+01    2.016168e+00
  1.557809e+01    1.905196e+00
  1.560985e+01    1.900197e+00
  1.564160e+01    1.794016e+00
  1.567335e+01    1.817749e+00
  1.570510e+01    1.734889e+00
  1.573685e+01    1.696204e+00
  1.576860e+01    1.708148e+00
  1.580035e+01    1.694695e+00
  1.583210e+01    1.664083e+00
  1.586385e+01    1.651986e+00
  1.589561e+01    1.646974e+00
  1.592736e+01    1.625583e+00
  1.595911e+01    1.639608e+00
  1.599086e+01    1.603679e+00
  1.602261e+01    1.564635e+00
  1.605436e+01    1.604104e+00
  1.608611e+01    1.617000e+00
  1.611786e+01    1.617660e+00
  1.614961e+01    1.576085e+00
  1.618137e+01    1.567403e+00
  1.621312e+01    1.583865e+00
  1.624487e+01    1.562599e+00
  1.627662e+01    1.534809e+00
  1.630837e+01    1.565799e+00
  1.634012e+01    1.559625e+00
  1.637187e+01    1.553138e+00
  1.640362e+01    1.529961e+00
  1.643538e+01    1.529887e+00
  1.646713e+01    1.515628e+00
  1.649888e+01    1.470687e+00
  1.653063e+01    1.531836e+00
  1.656238e+01    1.509852e+00
  1.659413e+01    1.509318e+00
  1.662588e+01    1.512500e+00
  1.665763e+01    1.515509e+00
  1.668938e+01    1.473470e+00
  1.672114e+01    1.486764e+00
  1.675289e+01    1.481305e+00
  1.678464e+01    1.480343e+00
  1.681639e+01    1.471125e+00
  1.684814e+01    1.472785e+00
  1.687989e+01    1.459874e+00
  1.691164e+01    1.425089e+00
  1.694339e+01    1.478872e+00
  1.697514e+01    1.428130e+00
  1.700690e+01    1.449913e+00
  1.703865e+01    1.460953e+00
  1.707040e+01    1.393778e+00
  1.710215e+01    1.426094e+00
  1.713390e+01    1.428341e+00
  1.716565e+01    1.422274e+00
  1.719740e+01    1.409693e+00
  1.722915e+01    1.399549e+00
  1.726091e+01    1.419701e+00
  1.729266e+01    1.412158e+00
  1.732441e+01    1.403440e+00
  1.735616e+01    1.371322e+00
  1.738791e+01    1.374612e+00
  1.741966e+01    1.328571e+00
  1.745141e+01    1.365468e+00
  1.748316e+01    1.338761e+00
  1.751491e+01    1.343538e+00
  1.754667e+01    1.370863e+00
  1.757842e+01    1.349177e+00
  1.761017e+01    1.345336e+00
  1.764192e+01    1.340360e+00
  1.767367e+01    1.370897e+00
  1.770542e+01    1.359418e+00
  1.773717e+01    1.297573e+00
  1.776892e+01    1.301336e+00
  1.780067e+01    1.324583e+00
  1.783243e+01    1.330843e+00
  1.786418e+01    1.309922e+00
  1.789593e+01    1.333128e+00
  1.792768e+01    1.320099e+00
  1.795943e+01    1.294473e+00
  1.799118e+01    1.320132e+00
  1.802293e+01    1.278364e+00
  1.805468e+01    1.313426e+00
  1.808643e+01    1.307383e+00
  1.811819e+01    1.297187e+00
  1.814994e+01    1.288460e+00
  1.818169e+01    1.282632e+00
  1.821344e+01    1.267325e+00
  1.824519e+01    1.305120e+00
  1.827694e+01    1.251498e+00
  1.830869e+01    1.253690e+00
  1.834044e+01    1.247421e+00
  1.837220e+01    1.252023e+00
  1.840395e+01    1.251995e+00
  1.843570e+01    1.270116e+00
  1.846745e+01    1.265808e+00
  1.849920e+01    1.252919e+00
  1.853095e+01    1.241611e+00
  1.856270e+01    1.253362e+00
  1.859445e+01    1.215750e+00
  1.862620e+01    1.212438e+00
  1.865796e+01    1.223132e+00
  1.868971e+01    1.229227e+00
  1.872146e+01    1.220272e+00
  1.875321e+01    1.219458e+00
  1.878496e+01    1.216069e+00
  1.881671e+01    1.205212e+00
  1.884846e+01    1.223757e+00
  1.888021e+01    1.241181e+00
  1.891196e+01    1.235916e+00
  1.894372e+01    1.190578e+00
  1.897547e+01    1.229507e+00
  1.900722e+01    1.201515e+00
  1.903897e+01    1.188744e+00
  1.907072e+01    1.183407e+00
  1.910247e+01    1.207170e+00
  1.913422e+01    1.181385e+00
  1.916597e+01    1.188563e+00
  1.919773e+01    1.203558e+00
  1.922948e+01    1.201721e+00
  1.926123e+01    1.178205e+00
  1.929298e+01    1.173506e+00
  1.932473e+01    1.170084e+00
  1.935648e+01    1.186294e+00
  1.938823e+01    1.175874e+00
  1.941998e+01    1.174515e+00
  1.945173e+01    1.162112e+00
  1.948349e+01    1.163562e+00
  1.951524e+01    1.143278e+00
  1.954699e+01    1.129149e+00
  1.957874e+01    1.147561e+00
  1.961049e+01    1.157847e+00
  1.964224e+01    1.138474e+00
  1.967399e+01    1.163858e+00
  1.970574e+01    1.142804e+00
  1.973749e+01    1.155992e+00
  1.976925e+01    1.143410e+00
  1.980100e+01    1.117488e+00
  1.983275e+01    1.112911e+00
  1.986450e+01    1.136389e+00
  1.989625e+01    1.129904e+00
  1.992800e+01    1.123863e+00
  1.995975e+01    1.106610e+00
  1.999150e+01    1.083839e+00
  2.002325e+01    1.111070e+00
  2.005501e+01    1.098734e+00
  2.008676e+01    1.084465e+00
  2.011851e+01    1.113064e+00
  2.015026e+01    1.117853e+00
  2.018201e+01    1.092037e+00
  2.021376e+01    1.095017e+00
  2.024551e+01    1.092095e+00
  2.027726e+01    1.120636e+00
  2.030902e+01    1.079480e+00
  2.034077e+01    1.095567e+00
  2.037252e+01    1.110608e+00
  2.040427e+01    1.091744e+00
  2.043602e+01    1.095368e+00
  2.046777e+01    1.081666e+00
  2.049952e+01    1.071250e+00
  2.053127e+01    1.095928e+00
  2.056302e+01    1.080377e+00
  2.059478e+01    1.066477e+00
  2.062653e+01    1.074703e+00
  2.065828e+01    1.093466e+00
  2.069003e+01    1.085351e+00
  2.072178e+01    1.073929e+00
  2.075353e+01    1.099108e+00
  2.078528e+01    1.125571e+00
  2.081703e+01    1.060097e+00
  2.084878e+01    1.084524e+00
  2.088054e+01    1.122077e+00
  2.091229e+01    1.055100e+00
  2.094404e+01    1.104080e+00
  2.097579e+01    1.063216e+00
  2.100754e+01    1.066427e+00
  2.103929e+01    1.082607e+00
  2.107104e+01    1.070911e+00
  2.110279e+01    1.088158e+00
  2.113455e+01    1.053168e+00
  2.116630e+01    1.096307e+00
  2.119805e+01    1.088977e+00
  2.122980e+01    1.112230e+00
  2.126155e+01    1.115738e+00
  2.129330e+01    1.105441e+00
  2.132505e+01    1.158759e+00
  2.135680e+01    1.129248e+00
  2.138855e+01    1.153847e+00
  2.142031e+01    1.194393e+00
  2.145206e+01    1.205871e+00
  2.148381e+01    1.250915e+00
  2.151556e+01    1.320552e+00
  2.154731e+01    1.371159e+00
  2.157906e+01    1.454444e+00
  2.161081e+01    1.585666e+00
  2.164256e+01    1.724713e+00
  2.167431e+01    2.034321e+00
  2.170607e+01    2.422013e+00
  2.173782e+01    3.041900e+00
  2.176957e+01    3.914977e+00
  2.180132e+01    5.193136e+00
  2.183307e+01    6.665645e+00
  2.186482e+01    8.256643e+00
  2.189657e+01    9.812165e+00
  2.192832e+01    1.021420e+01
  2.196007e+01    8.885056e+00
  2.199183e+01    6.719736e+00
  2.202358e+01    4.841403e+00
  2.205533e+01    3.560884e+00
  2.208708e+01    2.754711e+00
  2.211883e+01    2.246398e+00
  2.215058e+01    1.860852e+00
  2.218233e+01    1.669503e+00
  2.221408e+01    1.520848e+00
  2.224584e+01    1.397471e+00
  2.227759e+01    1.298278e+00
  2.230934e+01    1.211652e+00
  2.234109e+01    1.168672e+00
  2.237284e+01    1.136487e+00
  2.240459e+01    1.091393e+00
  2.243634e+01    1.088820e+00
  2.246809e+01    1.062381e+00
  2.249984e+01    1.043771e+00
  2.253160e+01    1.021949e+00
  2.256335e+01    1.007940e+00
  2.259510e+01    1.022466e+00
  2.262685e+01    9.733749e-01
  2.265860e+01    9.790298e-01
  2.269035e+01    9.790579e-01
  2.272210e+01    9.565746e-01
  2.275385e+01    9.432476e-01
  2.278560e+01    9.578769e-01
  2.281736e+01    9.374925e-01
  2.284911e+01    9.276149e-01
  2.288086e+01    9.232470e-01
  2.291261e+01    9.177285e-01
  2.294436e+01    9.115914e-01
  2.297611e+01    8.903444e-01
  2.300786e+01    9.027700e-01
  2.303961e+01    8.953664e-01
  2.307137e+01    8.780031e-01
  2.310312e+01    8.950630e-01
  2.313487e+01    9.054077e-01
  2.316662e+01    8.880187e-01
  2.319837e+01    8.540688e-01
  2.323012e+01    8.608875e-01
  2.326187e+01    8.571045e-01
  2.329362e+01    8.575513e-01
  2.332537e+01    8.656203e-01
  2.335713e+01    8.721026e-01
  2.338888e+01    8.701710e-01
  2.342063e+01    8.710738e-01
  2.345238e+01    8.357441e-01
  2.348413e+01    8.379805e-01
  2.351588e+01    8.462780e-01
  2.354763e+01    8.600956e-01
  2.357938e+01    8.407968e-01
  2.361113e+01    8.456853e-01
  2.364289e+01    8.347971e-01
  2.367464e+01    8.376619e-01
  2.370639e+01    8.072595e-01
  2.373814e+01    8.212954e-01
  2.376989e+01    8.194078e-01
  2.380164e+01    8.085747e-01
  2.383339e+01    8.187490e-01
  2.386514e+01    8.134025e-01
  2.389689e+01    7.795786e-01
  2.392865e+01    7.753610e-01
  2.396040e+01    7.911426e-01
  2.399215e+01    7.787737e-01
  2.402390e+01    7.924078e-01
  2.405565e+01    7.786825e-01
  2.408740e+01    7.900773e-01
  2.411915e+01    7.916217e-01
  2.415090e+01    7.877352e-01
  2.418266e+01    7.688607e-01
  2.421441e+01    7.879452e-01
  2.424616e+01    7.995580e-01
  2.427791e+01    7.854676e-01
  2.430966e+01    7.819816e-01
  2.434141e+01    7.886919e-01
  2.437316e+01    7.868916e-01
  2.440491e+01    7.912325e-01
  2.443666e+01    8.145091e-01
  2.446842e+01    7.949661e-01
  2.450017e+01    7.882161e-01
  2.453192e+01    7.979872e-01
  2.456367e+01    8.077072e-01
  2.459542e+01    7.876104e-01
  2.462717e+01    7.981696e-01
  2.465892e+01    8.029504e-01
  2.469067e+01    7.883474e-01
  2.472242e+01    8.023552e-01
  2.475418e+01    8.032402e-01
  2.478593e+01    8.074355e-01
  2.481768e+01    7.853627e-01
  2.484943e+01    8.084292e-01
  2.488118e+01    8.040180e-01
  2.491293e+01    7.969653e-01
  2.494468e+01    7.886422e-01
  2.497643e+01    8.096939e-01
  2.500819e+01    8.048839e-01
  2.503994e+01    8.095190e-01
  2.507169e+01    8.296543e-01
  2.510344e+01    8.131233e-01
  2.513519e+01    8.163435e-01
  2.516694e+01    8.157045e-01
  2.519869e+01    8.103158e-01
  2.523044e+01    8.066139e-01
  2.526219e+01    8.433558e-01
  2.529395e+01    8.628759e-01
  2.532570e+01    8.760724e-01
  2.535745e+01    8.972294e-01
  2.538920e+01    9.040980e-01
  2.542095e+01    9.188381e-01
  2.545270e+01    9.292850e-01
  2.548445e+01    9.490110e-01
  2.551620e+01    9.980350e-01
  2.554795e+01    1.024403e+00
  2.557971e+01    1.077822e+00
  2.561146e+01    1.096860e+00
  2.564321e+01    1.167971e+00
  2.567496e+01    1.267049e+00
  2.570671e+01    1.442315e+00
  2.573846e+01    1.626325e+00
  2.577021e+01    1.965373e+00
  2.580196e+01    2.415680e+00
  2.583371e+01    3.034554e+00
  2.586547e+01    4.024371e+00
  2.589722e+01    5.235100e+00
  2.592897e+01    6.699652e+00
  2.596072e+01    8.006985e+00
  2.599247e+01    8.368531e+00
  2.602422e+01    7.616685e+00
  2.605597e+01    5.997034e+00
  2.608772e+01    4.408229e+00
  2.611948e+01    3.257080e+00
  2.615123e+01    2.515099e+00
  2.618298e+01    2.031331e+00
  2.621473e+01    1.710947e+00
  2.624648e+01    1.496808e+00
  2.627823e+01    1.352109e+00
  2.630998e+01    1.231944e+00
  2.634173e+01    1.135426e+00
  2.637348e+01    1.071684e+00
  2.640524e+01    1.043587e+00
  2.643699e+01    9.833427e-01
  2.646874e+01    9.819380e-01
  2.650049e+01    9.865896e-01
  2.653224e+01    9.601347e-01
  2.656399e+01    9.216032e-01
  2.659574e+01    9.149256e-01
  2.662749e+01    9.132704e-01
  2.665924e+01    9.027219e-01
  2.669100e+01    8.863372e-01
  2.672275e+01    8.901876e-01
  2.675450e+01    9.133118e-01
  2.678625e+01    9.177797e-01
  2.681800e+01    8.947527e-01
  2.684975e+01    9.077258e-01
  2.688150e+01    9.069123e-01
  2.691325e+01    9.358582e-01
  2.694501e+01    9.302683e-01
  2.697676e+01    9.701715e-01
  2.700851e+01    1.028677e+00
  2.704026e+01    1.067702e+00
  2.707201e+01    1.174683e+00
  2.710376e+01    1.303766e+00
  2.713551e+01    1.523855e+00
  2.716726e+01    1.825138e+00
  2.719901e+01    2.127566e+00
  2.723077e+01    2.433431e+00
  2.726252e+01    2.429492e+00
  2.729427e+01    2.178352e+00
  2.732602e+01    1.821479e+00
  2.735777e+01    1.507576e+00
  2.738952e+01    1.279428e+00
  2.742127e+01    1.127122e+00
  2.745302e+01    1.020458e+00
  2.748477e+01    1.000463e+00
  2.751653e+01    9.212709e-01
  2.754828e+01    9.311168e-01
  2.758003e+01    8.948212e-01
  2.761178e+01    8.768049e-01
  2.764353e+01    8.506401e-01
  2.767528e+01    8.576722e-01
  2.770703e+01    8.487669e-01
  2.773878e+01    8.294091e-01
  2.777054e+01    8.191378e-01
  2.780229e+01    8.325751e-01
  2.783404e+01    8.150852e-01
  2.786579e+01    8.239932e-01
  2.789754e+01    8.032411e-01
  2.792929e+01    7.784832e-01
  2.796104e+01    8.203381e-01
  2.799279e+01    7.943321e-01
  2.802454e+01    7.889050e-01
  2.805630e+01    7.777895e-01
  2.808805e+01    7.802590e-01
  2.811980e+01    7.815749e-01
  2.815155e+01    7.895733e-01
  2.818330e+01    7.717517e-01
  2.821505e+01    7.782197e-01
  2.824680e+01    7.857025e-01
  2.827855e+01    7.901836e-01
  2.831030e+01    7.694989e-01
  2.834206e+01    7.625718e-01
  2.837381e+01    7.739051e-01
  2.840556e+01    7.742190e-01
  2.843731e+01    7.684390e-01
  2.846906e+01    7.726482e-01
  2.850081e+01    7.622269e-01
  2.853256e+01    7.543210e-01
  2.856431e+01    7.626280e-01
  2.859606e+01    7.513947e-01
  2.862782e+01    7.551236e-01
  2.865957e+01    7.545000e-01
  2.869132e+01    7.679844e-01
  2.872307e+01    7.556444e-01
  2.875482e+01    7.423732e-01
  2.878657e+01    7.562248e-01
  2.881832e+01    7.458563e-01
  2.885007e+01    7.412844e-01
  2.888183e+01    7.365112e-01
  2.891358e+01    7.526045e-01
  2.894533e+01    7.527708e-01
  2.897708e+01    7.445046e-01
  2.900883e+01    7.500487e-01
  2.904058e+01    7.415978e-01
  2.907233e+01    7.560810e-01
  2.910408e+01    7.478049e-01
  2.913583e+01    7.440027e-01
  2.916759e+01    7.288859e-01
  2.919934e+01    7.305465e-01
  2.923109e+01    7.515672e-01
  2.926284e+01    7.494651e-01
  2.929459e+01    7.503709e-01
  2.932634e+01    7.385818e-01
  2.935809e+01    7.421432e-01
  2.938984e+01    7.687867e-01
  2.942159e+01    7.146264e-01
  2.945335e+01    7.311873e-01
  2.948510e+01    7.107643e-01
  2.951685e+01    7.347166e-01
  2.954860e+01    7.309045e-01
  2.958035e+01    7.377591e-01
  2.961210e+01    7.502418e-01
  2.964385e+01    7.111268e-01
  2.967560e+01    7.156863e-01
  2.970736e+01    7.174411e-01
  2.973911e+01    7.098876e-01
  2.977086e+01    7.020667e-01
  2.980261e+01    7.328113e-01
  2.983436e+01    7.184501e-01
  2.986611e+01    7.219853e-01
  2.989786e+01    7.107437e-01
  2.992961e+01    7.350261e-01
  2.996136e+01    7.360071e-01
  2.999312e+01    7.532735e-01
  3.002487e+01    7.324749e-01
  3.005662e+01    7.606466e-01
  3.008837e+01    7.503155e-01
  3.012012e+01    7.076356e-01
  3.015187e+01    7.216665e-01
  3.018362e+01    7.136554e-01
  3.021537e+01    7.048928e-01
  3.024712e+01    7.030709e-01
  3.027888e+01    7.238195e-01
  3.031063e+01    7.261884e-01
  3.034238e+01    7.060388e-01
  3.037413e+01    7.197791e-01
  3.040588e+01    7.397431e-01
  3.043763e+01    7.006197e-01
  3.046938e+01    7.065300e-01
  3.050113e+01    6.835284e-01
  3.053288e+01    7.177114e-01
  3.056464e+01    7.037203e-01
  3.059639e+01    7.225224e-01
  3.062814e+01    7.063559e-01
  3.065989e+01    7.187932e-01
  3.069164e+01    7.098287e-01
  3.072339e+01    7.128515e-01
  3.075514e+01    7.169425e-01
  3.078689e+01    6.877652e-01
  3.081865e+01    7.097883e-01
  3.085040e+01    7.167600e-01
  3.088215e+01    7.241407e-01
  3.091390e+01    7.114419e-01
  3.094565e+01    7.340342e-01
  3.097740e+01    7.111317e-01
  3.100915e+01    7.053351e-01
  3.104090e+01    7.122698e-01
  3.107265e+01    7.330260e-01
  3.110441e+01    7.113642e-01
  3.113616e+01    7.080489e-01
  3.116791e+01    7.459130e-01
  3.119966e+01    7.401215e-01
  3.123141e+01    7.305888e-01
  3.126316e+01    7.431073e-01
  3.129491e+01    7.288887e-01
  3.132666e+01    7.490135e-01
  3.135841e+01    7.390020e-01
  3.139017e+01    7.241039e-01
  3.142192e+01    7.593718e-01
  3.145367e+01    7.471846e-01
  3.148542e+01    7.743204e-01
  3.151717e+01    7.636285e-01
  3.154892e+01    7.678539e-01
  3.158067e+01    8.014927e-01
  3.161242e+01    8.083500e-01
  3.164418e+01    8.386937e-01
  3.167593e+01    8.894997e-01
  3.170768e+01    9.277418e-01
  3.173943e+01    1.009019e+00
  3.177118e+01    1.070390e+00
  3.180293e+01    1.264788e+00
  3.183468e+01    1.510916e+00
  3.186643e+01    1.803084e+00
  3.189818e+01    2.157886e+00
  3.192994e+01    2.393996e+00
  3.196169e+01    2.379019e+00
  3.199344e+01    2.110674e+00
  3.202519e+01    1.711661e+00
  3.205694e+01    1.446845e+00
  3.208869e+01    1.193775e+00
  3.212044e+01    1.043815e+00
  3.215219e+01    9.562813e-01
  3.218394e+01    9.071932e-01
  3.221570e+01    8.687773e-01
  3.224745e+01    8.275937e-01
  3.227920e+01    7.996089e-01
  3.231095e+01    7.720897e-01
  3.234270e+01    7.696700e-01
  3.237445e+01    7.656286e-01
  3.240620e+01    7.447495e-01
  3.243795e+01    7.295641e-01
  3.246970e+01    7.238939e-01
  3.250146e+01    7.388064e-01
  3.253321e+01    7.353150e-01
  3.254908e+01    7.134153e-01