File: XRD/2024-07-27_002_Ru-CGO-ex_Activtation_ramp_000002_data_000176.dat
# == pyFAI calibration ==
# Distance Sample to Detector: 0.4 m
# PONI: 9.750e-02, 1.135e-01 m
# Rotations: -0.000175 0.000000 -0.000000 rad
#
# == Fit2d calibration ==
# Distance Sample-beamCenter: 400.000 mm
# Center: x=1514.000, y=1300.000 pix
# Tilt: 0.010 deg  TiltPlanRot: 0.010 deg
#
# Detector Detector	 Spline= None	 PixelSize= 7.500e-05, 7.500e-05 m
#    Detector has a mask: False
#    Detector has a dark current: False
#    detector has a flat field: False
#
# Wavelength: 6.888e-11 m
# Mask applied: user provided
# Dark current applied: False
# Flat field applied: False
# Polarization factor: 0.99
# Normalization factor: 1.0
# --> /home/myspot/data/2024_07_Rosario/Ru-CGO-ex/2024-07-27_002_Ru-CGO-ex_Activtation_ramp_000002_data_000176.dat
#       q_nm^-1             I
  2.003187e-02    0.000000e+00
  5.178302e-02    1.902766e-01
  8.353417e-02    2.528161e-02
  1.152853e-01    1.041835e-02
  1.470365e-01    3.046184e-02
  1.787876e-01    1.017733e-01
  2.105388e-01    4.948165e-02
  2.422899e-01    1.294252e-02
  2.740411e-01    1.670472e-02
  3.057922e-01    2.042062e-02
  3.375433e-01    5.131491e-02
  3.692945e-01    3.300054e-02
  4.010456e-01    1.210974e-02
  4.327968e-01    1.764460e-02
  4.645479e-01    5.575437e-02
  4.962991e-01    4.424684e-02
  5.280502e-01    5.382597e-02
  5.598014e-01    2.868986e-02
  5.915525e-01    2.466069e-02
  6.233037e-01    8.418414e-03
  6.550548e-01    3.123464e-02
  6.868060e-01    2.409365e-02
  7.185571e-01    5.326478e-02
  7.503083e-01    7.088135e-02
  7.820594e-01    1.203440e-01
  8.138106e-01    1.815284e-01
  8.455617e-01    3.242828e-01
  8.773129e-01    4.938228e-01
  9.090640e-01    5.542239e-01
  9.408152e-01    6.900820e-01
  9.725663e-01    9.441797e-01
  1.004317e+00    9.246632e-01
  1.036069e+00    1.241402e+00
  1.067820e+00    1.285569e+00
  1.099571e+00    1.321455e+00
  1.131322e+00    1.370866e+00
  1.163073e+00    1.503819e+00
  1.194824e+00    1.540034e+00
  1.226575e+00    1.981202e+00
  1.258327e+00    2.215080e+00
  1.290078e+00    2.412237e+00
  1.321829e+00    2.459850e+00
  1.353580e+00    2.633593e+00
  1.385331e+00    2.523746e+00
  1.417082e+00    2.563062e+00
  1.448834e+00    2.663268e+00
  1.480585e+00    2.708217e+00
  1.512336e+00    2.879360e+00
  1.544087e+00    2.967991e+00
  1.575838e+00    2.835847e+00
  1.607589e+00    2.880237e+00
  1.639340e+00    2.766488e+00
  1.671092e+00    2.873911e+00
  1.702843e+00    2.693142e+00
  1.734594e+00    2.700008e+00
  1.766345e+00    2.742229e+00
  1.798096e+00    2.715129e+00
  1.829847e+00    2.657135e+00
  1.861598e+00    2.666508e+00
  1.893350e+00    2.711541e+00
  1.925101e+00    2.682601e+00
  1.956852e+00    2.672174e+00
  1.988603e+00    2.733538e+00
  2.020354e+00    2.744116e+00
  2.052105e+00    2.656660e+00
  2.083856e+00    2.537950e+00
  2.115608e+00    2.701827e+00
  2.147359e+00    2.660705e+00
  2.179110e+00    2.711477e+00
  2.210861e+00    2.723593e+00
  2.242612e+00    2.791536e+00
  2.274363e+00    2.726333e+00
  2.306115e+00    2.672419e+00
  2.337866e+00    2.672270e+00
  2.369617e+00    2.727799e+00
  2.401368e+00    2.725734e+00
  2.433119e+00    2.790538e+00
  2.464870e+00    2.796144e+00
  2.496621e+00    2.881029e+00
  2.528373e+00    2.860317e+00
  2.560124e+00    2.694562e+00
  2.591875e+00    2.771303e+00
  2.623626e+00    2.708745e+00
  2.655377e+00    2.765043e+00
  2.687128e+00    2.762908e+00
  2.718879e+00    2.834896e+00
  2.750631e+00    2.895782e+00
  2.782382e+00    2.857945e+00
  2.814133e+00    2.879692e+00
  2.845884e+00    2.878028e+00
  2.877635e+00    2.864640e+00
  2.909386e+00    2.948154e+00
  2.941137e+00    2.855943e+00
  2.972889e+00    2.851659e+00
  3.004640e+00    2.754148e+00
  3.036391e+00    2.792471e+00
  3.068142e+00    2.948538e+00
  3.099893e+00    2.935361e+00
  3.131644e+00    2.879291e+00
  3.163395e+00    2.945558e+00
  3.195147e+00    2.868536e+00
  3.226898e+00    2.924039e+00
  3.258649e+00    2.794819e+00
  3.290400e+00    2.941697e+00
  3.322151e+00    2.917042e+00
  3.353902e+00    3.011006e+00
  3.385654e+00    2.967968e+00
  3.417405e+00    2.990949e+00
  3.449156e+00    2.966475e+00
  3.480907e+00    2.871513e+00
  3.512658e+00    2.961539e+00
  3.544409e+00    2.928002e+00
  3.576160e+00    2.983424e+00
  3.607912e+00    2.959911e+00
  3.639663e+00    2.952035e+00
  3.671414e+00    3.073410e+00
  3.703165e+00    2.996141e+00
  3.734916e+00    3.049478e+00
  3.766667e+00    3.018636e+00
  3.798418e+00    2.986760e+00
  3.830170e+00    2.993490e+00
  3.861921e+00    3.058574e+00
  3.893672e+00    3.003076e+00
  3.925423e+00    3.059744e+00
  3.957174e+00    2.984316e+00
  3.988925e+00    3.047226e+00
  4.020676e+00    3.002462e+00
  4.052428e+00    2.902844e+00
  4.084179e+00    2.994452e+00
  4.115930e+00    3.037428e+00
  4.147681e+00    2.967324e+00
  4.179432e+00    3.019915e+00
  4.211183e+00    3.061846e+00
  4.242935e+00    3.055700e+00
  4.274686e+00    3.025347e+00
  4.306437e+00    3.036177e+00
  4.338188e+00    3.068394e+00
  4.369939e+00    3.140662e+00
  4.401690e+00    3.020298e+00
  4.433441e+00    3.052781e+00
  4.465193e+00    2.997803e+00
  4.496944e+00    3.048595e+00
  4.528695e+00    3.051040e+00
  4.560446e+00    3.110668e+00
  4.592197e+00    3.065231e+00
  4.623948e+00    3.091595e+00
  4.655699e+00    3.063998e+00
  4.687451e+00    3.144516e+00
  4.719202e+00    3.109386e+00
  4.750953e+00    3.165115e+00
  4.782704e+00    3.069182e+00
  4.814455e+00    3.198223e+00
  4.846206e+00    3.232245e+00
  4.877957e+00    3.136300e+00
  4.909709e+00    3.102052e+00
  4.941460e+00    3.162668e+00
  4.973211e+00    3.191252e+00
  5.004962e+00    3.140561e+00
  5.036713e+00    3.116990e+00
  5.068464e+00    3.168346e+00
  5.100216e+00    3.169151e+00
  5.131967e+00    3.149728e+00
  5.163718e+00    3.182143e+00
  5.195469e+00    3.131760e+00
  5.227220e+00    3.135823e+00
  5.258971e+00    3.141524e+00
  5.290722e+00    3.160955e+00
  5.322474e+00    3.142510e+00
  5.354225e+00    3.098211e+00
  5.385976e+00    3.109152e+00
  5.417727e+00    3.135458e+00
  5.449478e+00    3.172717e+00
  5.481229e+00    3.046222e+00
  5.512980e+00    2.985249e+00
  5.544732e+00    3.017592e+00
  5.576483e+00    3.062620e+00
  5.608234e+00    3.043413e+00
  5.639985e+00    3.128895e+00
  5.671736e+00    3.130268e+00
  5.703487e+00    3.111276e+00
  5.735238e+00    3.066586e+00
  5.766990e+00    3.029475e+00
  5.798741e+00    3.051860e+00
  5.830492e+00    3.088399e+00
  5.862243e+00    2.990700e+00
  5.893994e+00    3.049374e+00
  5.925745e+00    2.978445e+00
  5.957497e+00    3.057719e+00
  5.989248e+00    3.044769e+00
  6.020999e+00    2.994165e+00
  6.052750e+00    3.112911e+00
  6.084501e+00    3.070691e+00
  6.116252e+00    3.068669e+00
  6.148003e+00    3.086493e+00
  6.179755e+00    3.004693e+00
  6.211506e+00    3.125333e+00
  6.243257e+00    3.099708e+00
  6.275008e+00    3.091577e+00
  6.306759e+00    3.058072e+00
  6.338510e+00    2.964188e+00
  6.370261e+00    3.002053e+00
  6.402013e+00    3.050415e+00
  6.433764e+00    3.035600e+00
  6.465515e+00    3.093971e+00
  6.497266e+00    3.005641e+00
  6.529017e+00    3.046670e+00
  6.560768e+00    3.020154e+00
  6.592519e+00    3.015203e+00
  6.624271e+00    3.085822e+00
  6.656022e+00    3.063361e+00
  6.687773e+00    3.018372e+00
  6.719524e+00    2.980579e+00
  6.751275e+00    3.053562e+00
  6.783026e+00    3.057219e+00
  6.814777e+00    3.000279e+00
  6.846529e+00    3.091164e+00
  6.878280e+00    3.006120e+00
  6.910031e+00    3.037212e+00
  6.941782e+00    3.043581e+00
  6.973533e+00    2.993492e+00
  7.005284e+00    2.939825e+00
  7.037036e+00    2.957187e+00
  7.068787e+00    3.047927e+00
  7.100538e+00    3.052106e+00
  7.132289e+00    2.963682e+00
  7.164040e+00    3.003028e+00
  7.195791e+00    2.955397e+00
  7.227542e+00    3.017797e+00
  7.259294e+00    2.976100e+00
  7.291045e+00    2.996907e+00
  7.322796e+00    3.045174e+00
  7.354547e+00    3.040054e+00
  7.386298e+00    3.028711e+00
  7.418049e+00    3.027684e+00
  7.449800e+00    2.991506e+00
  7.481552e+00    2.949665e+00
  7.513303e+00    2.940081e+00
  7.545054e+00    2.989906e+00
  7.576805e+00    2.977793e+00
  7.608556e+00    2.960730e+00
  7.640307e+00    2.943055e+00
  7.672058e+00    2.987555e+00
  7.703810e+00    2.904988e+00
  7.735561e+00    2.966933e+00
  7.767312e+00    2.943834e+00
  7.799063e+00    2.914395e+00
  7.830814e+00    2.957340e+00
  7.862565e+00    2.913270e+00
  7.894317e+00    2.947930e+00
  7.926068e+00    2.858180e+00
  7.957819e+00    2.940890e+00
  7.989570e+00    2.979612e+00
  8.021321e+00    2.924383e+00
  8.053072e+00    2.966179e+00
  8.084823e+00    2.874826e+00
  8.116575e+00    2.923739e+00
  8.148326e+00    2.958560e+00
  8.180077e+00    2.946670e+00
  8.211828e+00    2.976308e+00
  8.243579e+00    2.931969e+00
  8.275330e+00    2.965925e+00
  8.307081e+00    2.948418e+00
  8.338833e+00    2.877961e+00
  8.370584e+00    2.900720e+00
  8.402335e+00    2.887187e+00
  8.434086e+00    2.907348e+00
  8.465837e+00    2.881824e+00
  8.497588e+00    2.868730e+00
  8.529339e+00    2.892880e+00
  8.561091e+00    2.882480e+00
  8.592842e+00    2.856000e+00
  8.624593e+00    2.891968e+00
  8.656344e+00    2.906230e+00
  8.688095e+00    2.820607e+00
  8.719846e+00    2.855569e+00
  8.751598e+00    2.820501e+00
  8.783349e+00    2.817693e+00
  8.815100e+00    2.886802e+00
  8.846851e+00    2.851672e+00
  8.878602e+00    2.811310e+00
  8.910353e+00    2.777256e+00
  8.942104e+00    2.823648e+00
  8.973856e+00    2.789161e+00
  9.005607e+00    2.775181e+00
  9.037358e+00    2.881389e+00
  9.069109e+00    2.873163e+00
  9.100860e+00    2.790765e+00
  9.132611e+00    2.780407e+00
  9.164362e+00    2.857669e+00
  9.196114e+00    2.757857e+00
  9.227865e+00    2.833938e+00
  9.259616e+00    2.813529e+00
  9.291367e+00    2.768261e+00
  9.323118e+00    2.772171e+00
  9.354869e+00    2.784641e+00
  9.386620e+00    2.724545e+00
  9.418372e+00    2.731270e+00
  9.450123e+00    2.824286e+00
  9.481874e+00    2.747597e+00
  9.513625e+00    2.753335e+00
  9.545376e+00    2.801881e+00
  9.577127e+00    2.768730e+00
  9.608878e+00    2.764847e+00
  9.640630e+00    2.701718e+00
  9.672381e+00    2.728063e+00
  9.704132e+00    2.680346e+00
  9.735883e+00    2.733949e+00
  9.767634e+00    2.708934e+00
  9.799385e+00    2.747063e+00
  9.831137e+00    2.703608e+00
  9.862888e+00    2.687364e+00
  9.894639e+00    2.666315e+00
  9.926390e+00    2.643595e+00
  9.958141e+00    2.730239e+00
  9.989892e+00    2.608735e+00
  1.002164e+01    2.704260e+00
  1.005339e+01    2.674206e+00
  1.008515e+01    2.682602e+00
  1.011690e+01    2.601119e+00
  1.014865e+01    2.615605e+00
  1.018040e+01    2.651428e+00
  1.021215e+01    2.640579e+00
  1.024390e+01    2.676397e+00
  1.027565e+01    2.607406e+00
  1.030740e+01    2.648060e+00
  1.033915e+01    2.608802e+00
  1.037091e+01    2.651953e+00
  1.040266e+01    2.588209e+00
  1.043441e+01    2.558074e+00
  1.046616e+01    2.601877e+00
  1.049791e+01    2.550692e+00
  1.052966e+01    2.587967e+00
  1.056141e+01    2.560884e+00
  1.059316e+01    2.560743e+00
  1.062492e+01    2.549487e+00
  1.065667e+01    2.573329e+00
  1.068842e+01    2.578263e+00
  1.072017e+01    2.509427e+00
  1.075192e+01    2.536954e+00
  1.078367e+01    2.530721e+00
  1.081542e+01    2.495775e+00
  1.084717e+01    2.442710e+00
  1.087892e+01    2.547556e+00
  1.091068e+01    2.512267e+00
  1.094243e+01    2.473765e+00
  1.097418e+01    2.487062e+00
  1.100593e+01    2.513501e+00
  1.103768e+01    2.480303e+00
  1.106943e+01    2.432245e+00
  1.110118e+01    2.492336e+00
  1.113293e+01    2.497239e+00
  1.116468e+01    2.480319e+00
  1.119644e+01    2.432868e+00
  1.122819e+01    2.454439e+00
  1.125994e+01    2.428961e+00
  1.129169e+01    2.411220e+00
  1.132344e+01    2.434780e+00
  1.135519e+01    2.443105e+00
  1.138694e+01    2.386857e+00
  1.141869e+01    2.394401e+00
  1.145045e+01    2.393457e+00
  1.148220e+01    2.381426e+00
  1.151395e+01    2.431680e+00
  1.154570e+01    2.424945e+00
  1.157745e+01    2.400675e+00
  1.160920e+01    2.372363e+00
  1.164095e+01    2.321230e+00
  1.167270e+01    2.361166e+00
  1.170445e+01    2.397556e+00
  1.173621e+01    2.423250e+00
  1.176796e+01    2.350020e+00
  1.179971e+01    2.363757e+00
  1.183146e+01    2.353149e+00
  1.186321e+01    2.331695e+00
  1.189496e+01    2.327921e+00
  1.192671e+01    2.336922e+00
  1.195846e+01    2.340825e+00
  1.199021e+01    2.355119e+00
  1.202197e+01    2.316566e+00
  1.205372e+01    2.336742e+00
  1.208547e+01    2.300392e+00
  1.211722e+01    2.336364e+00
  1.214897e+01    2.315591e+00
  1.218072e+01    2.319289e+00
  1.221247e+01    2.344259e+00
  1.224422e+01    2.302586e+00
  1.227597e+01    2.285210e+00
  1.230773e+01    2.353971e+00
  1.233948e+01    2.306740e+00
  1.237123e+01    2.331175e+00
  1.240298e+01    2.344160e+00
  1.243473e+01    2.302766e+00
  1.246648e+01    2.330098e+00
  1.249823e+01    2.356198e+00
  1.252998e+01    2.377506e+00
  1.256174e+01    2.389921e+00
  1.259349e+01    2.367569e+00
  1.262524e+01    2.392299e+00
  1.265699e+01    2.392677e+00
  1.268874e+01    2.468025e+00
  1.272049e+01    2.439192e+00
  1.275224e+01    2.571752e+00
  1.278399e+01    2.619344e+00
  1.281574e+01    2.729850e+00
  1.284750e+01    2.780892e+00
  1.287925e+01    3.026355e+00
  1.291100e+01    3.267119e+00
  1.294275e+01    3.679799e+00
  1.297450e+01    4.390876e+00
  1.300625e+01    5.505005e+00
  1.303800e+01    7.210661e+00
  1.306975e+01    9.538442e+00
  1.310150e+01    1.200671e+01
  1.313326e+01    1.415784e+01
  1.316501e+01    1.584416e+01
  1.319676e+01    1.543251e+01
  1.322851e+01    1.229907e+01
  1.326026e+01    8.750673e+00
  1.329201e+01    6.395486e+00
  1.332376e+01    4.961845e+00
  1.335551e+01    4.070593e+00
  1.338727e+01    3.443947e+00
  1.341902e+01    3.143305e+00
  1.345077e+01    2.851321e+00
  1.348252e+01    2.685616e+00
  1.351427e+01    2.515826e+00
  1.354602e+01    2.441923e+00
  1.357777e+01    2.363328e+00
  1.360952e+01    2.320064e+00
  1.364127e+01    2.266802e+00
  1.367303e+01    2.276706e+00
  1.370478e+01    2.208263e+00
  1.373653e+01    2.180056e+00
  1.376828e+01    2.190485e+00
  1.380003e+01    2.154811e+00
  1.383178e+01    2.141824e+00
  1.386353e+01    2.102227e+00
  1.389528e+01    2.099270e+00
  1.392703e+01    2.080064e+00
  1.395879e+01    2.095514e+00
  1.399054e+01    2.035152e+00
  1.402229e+01    2.027998e+00
  1.405404e+01    2.053165e+00
  1.408579e+01    2.028480e+00
  1.411754e+01    1.978712e+00
  1.414929e+01    2.010345e+00
  1.418104e+01    2.019581e+00
  1.421279e+01    1.959902e+00
  1.424455e+01    1.976418e+00
  1.427630e+01    1.984829e+00
  1.430805e+01    1.965170e+00
  1.433980e+01    1.981982e+00
  1.437155e+01    1.976359e+00
  1.440330e+01    1.978759e+00
  1.443505e+01    1.936726e+00
  1.446680e+01    1.922737e+00
  1.449856e+01    1.927746e+00
  1.453031e+01    1.968079e+00
  1.456206e+01    1.918140e+00
  1.459381e+01    1.924474e+00
  1.462556e+01    1.914733e+00
  1.465731e+01    1.937163e+00
  1.468906e+01    1.886360e+00
  1.472081e+01    1.934929e+00
  1.475256e+01    1.912110e+00
  1.478432e+01    1.934071e+00
  1.481607e+01    1.934526e+00
  1.484782e+01    1.929375e+00
  1.487957e+01    1.941053e+00
  1.491132e+01    1.977003e+00
  1.494307e+01    2.000269e+00
  1.497482e+01    2.058088e+00
  1.500657e+01    2.145669e+00
  1.503832e+01    2.311613e+00
  1.507008e+01    2.570086e+00
  1.510183e+01    2.900872e+00
  1.513358e+01    3.477986e+00
  1.516533e+01    4.194703e+00
  1.519708e+01    4.823627e+00
  1.522883e+01    5.267404e+00
  1.526058e+01    5.561312e+00
  1.529233e+01    5.255279e+00
  1.532409e+01    4.367420e+00
  1.535584e+01    3.452028e+00
  1.538759e+01    2.839041e+00
  1.541934e+01    2.464037e+00
  1.545109e+01    2.251935e+00
  1.548284e+01    2.084019e+00
  1.551459e+01    1.962637e+00
  1.554634e+01    1.908408e+00
  1.557809e+01    1.887984e+00
  1.560985e+01    1.833195e+00
  1.564160e+01    1.748539e+00
  1.567335e+01    1.769796e+00
  1.570510e+01    1.747015e+00
  1.573685e+01    1.733678e+00
  1.576860e+01    1.674366e+00
  1.580035e+01    1.670074e+00
  1.583210e+01    1.662711e+00
  1.586385e+01    1.653994e+00
  1.589561e+01    1.649488e+00
  1.592736e+01    1.625983e+00
  1.595911e+01    1.620193e+00
  1.599086e+01    1.599766e+00
  1.602261e+01    1.584654e+00
  1.605436e+01    1.624304e+00
  1.608611e+01    1.526125e+00
  1.611786e+01    1.593597e+00
  1.614961e+01    1.577444e+00
  1.618137e+01    1.592493e+00
  1.621312e+01    1.558969e+00
  1.624487e+01    1.563551e+00
  1.627662e+01    1.521685e+00
  1.630837e+01    1.520987e+00
  1.634012e+01    1.543996e+00
  1.637187e+01    1.550862e+00
  1.640362e+01    1.552743e+00
  1.643538e+01    1.501271e+00
  1.646713e+01    1.492354e+00
  1.649888e+01    1.477477e+00
  1.653063e+01    1.504940e+00
  1.656238e+01    1.520885e+00
  1.659413e+01    1.468793e+00
  1.662588e+01    1.475263e+00
  1.665763e+01    1.490557e+00
  1.668938e+01    1.464307e+00
  1.672114e+01    1.520762e+00
  1.675289e+01    1.496147e+00
  1.678464e+01    1.458895e+00
  1.681639e+01    1.483729e+00
  1.684814e+01    1.469824e+00
  1.687989e+01    1.454463e+00
  1.691164e+01    1.473192e+00
  1.694339e+01    1.420286e+00
  1.697514e+01    1.444835e+00
  1.700690e+01    1.435163e+00
  1.703865e+01    1.435207e+00
  1.707040e+01    1.421599e+00
  1.710215e+01    1.429660e+00
  1.713390e+01    1.423119e+00
  1.716565e+01    1.383627e+00
  1.719740e+01    1.425336e+00
  1.722915e+01    1.421561e+00
  1.726091e+01    1.398637e+00
  1.729266e+01    1.386540e+00
  1.732441e+01    1.377068e+00
  1.735616e+01    1.379644e+00
  1.738791e+01    1.369095e+00
  1.741966e+01    1.376544e+00
  1.745141e+01    1.380911e+00
  1.748316e+01    1.378127e+00
  1.751491e+01    1.355170e+00
  1.754667e+01    1.346717e+00
  1.757842e+01    1.370303e+00
  1.761017e+01    1.360587e+00
  1.764192e+01    1.348713e+00
  1.767367e+01    1.363181e+00
  1.770542e+01    1.342489e+00
  1.773717e+01    1.362252e+00
  1.776892e+01    1.364842e+00
  1.780067e+01    1.329505e+00
  1.783243e+01    1.323819e+00
  1.786418e+01    1.322547e+00
  1.789593e+01    1.311805e+00
  1.792768e+01    1.320958e+00
  1.795943e+01    1.333927e+00
  1.799118e+01    1.316707e+00
  1.802293e+01    1.315701e+00
  1.805468e+01    1.298435e+00
  1.808643e+01    1.307238e+00
  1.811819e+01    1.290244e+00
  1.814994e+01    1.286623e+00
  1.818169e+01    1.304598e+00
  1.821344e+01    1.273400e+00
  1.824519e+01    1.265783e+00
  1.827694e+01    1.265376e+00
  1.830869e+01    1.243906e+00
  1.834044e+01    1.254608e+00
  1.837220e+01    1.252396e+00
  1.840395e+01    1.246579e+00
  1.843570e+01    1.238200e+00
  1.846745e+01    1.237152e+00
  1.849920e+01    1.244743e+00
  1.853095e+01    1.207617e+00
  1.856270e+01    1.274933e+00
  1.859445e+01    1.205717e+00
  1.862620e+01    1.241523e+00
  1.865796e+01    1.230909e+00
  1.868971e+01    1.264354e+00
  1.872146e+01    1.220633e+00
  1.875321e+01    1.212982e+00
  1.878496e+01    1.215112e+00
  1.881671e+01    1.198468e+00
  1.884846e+01    1.214821e+00
  1.888021e+01    1.220246e+00
  1.891196e+01    1.217205e+00
  1.894372e+01    1.199522e+00
  1.897547e+01    1.173273e+00
  1.900722e+01    1.200251e+00
  1.903897e+01    1.192347e+00
  1.907072e+01    1.181264e+00
  1.910247e+01    1.183150e+00
  1.913422e+01    1.197657e+00
  1.916597e+01    1.173944e+00
  1.919773e+01    1.170690e+00
  1.922948e+01    1.184476e+00
  1.926123e+01    1.167683e+00
  1.929298e+01    1.191075e+00
  1.932473e+01    1.149945e+00
  1.935648e+01    1.163145e+00
  1.938823e+01    1.168344e+00
  1.941998e+01    1.150819e+00
  1.945173e+01    1.163902e+00
  1.948349e+01    1.168097e+00
  1.951524e+01    1.175005e+00
  1.954699e+01    1.136713e+00
  1.957874e+01    1.144419e+00
  1.961049e+01    1.148469e+00
  1.964224e+01    1.150104e+00
  1.967399e+01    1.117470e+00
  1.970574e+01    1.140768e+00
  1.973749e+01    1.140236e+00
  1.976925e+01    1.116903e+00
  1.980100e+01    1.136774e+00
  1.983275e+01    1.149119e+00
  1.986450e+01    1.108240e+00
  1.989625e+01    1.114549e+00
  1.992800e+01    1.127236e+00
  1.995975e+01    1.133752e+00
  1.999150e+01    1.139678e+00
  2.002325e+01    1.111862e+00
  2.005501e+01    1.104094e+00
  2.008676e+01    1.095274e+00
  2.011851e+01    1.106211e+00
  2.015026e+01    1.104935e+00
  2.018201e+01    1.104664e+00
  2.021376e+01    1.128266e+00
  2.024551e+01    1.109556e+00
  2.027726e+01    1.096003e+00
  2.030902e+01    1.096857e+00
  2.034077e+01    1.088045e+00
  2.037252e+01    1.100458e+00
  2.040427e+01    1.084706e+00
  2.043602e+01    1.093311e+00
  2.046777e+01    1.094107e+00
  2.049952e+01    1.086449e+00
  2.053127e+01    1.110485e+00
  2.056302e+01    1.077554e+00
  2.059478e+01    1.075843e+00
  2.062653e+01    1.089977e+00
  2.065828e+01    1.079787e+00
  2.069003e+01    1.067471e+00
  2.072178e+01    1.089068e+00
  2.075353e+01    1.069261e+00
  2.078528e+01    1.082713e+00
  2.081703e+01    1.036623e+00
  2.084878e+01    1.070206e+00
  2.088054e+01    1.087019e+00
  2.091229e+01    1.079483e+00
  2.094404e+01    1.064242e+00
  2.097579e+01    1.075484e+00
  2.100754e+01    1.094879e+00
  2.103929e+01    1.069208e+00
  2.107104e+01    1.080118e+00
  2.110279e+01    1.083083e+00
  2.113455e+01    1.077350e+00
  2.116630e+01    1.083670e+00
  2.119805e+01    1.081176e+00
  2.122980e+01    1.087530e+00
  2.126155e+01    1.107608e+00
  2.129330e+01    1.116431e+00
  2.132505e+01    1.151089e+00
  2.135680e+01    1.149360e+00
  2.138855e+01    1.158505e+00
  2.142031e+01    1.175840e+00
  2.145206e+01    1.205676e+00
  2.148381e+01    1.271000e+00
  2.151556e+01    1.284003e+00
  2.154731e+01    1.379660e+00
  2.157906e+01    1.467464e+00
  2.161081e+01    1.611778e+00
  2.164256e+01    1.826653e+00
  2.167431e+01    2.153343e+00
  2.170607e+01    2.645555e+00
  2.173782e+01    3.350670e+00
  2.176957e+01    4.410708e+00
  2.180132e+01    5.564311e+00
  2.183307e+01    6.958851e+00
  2.186482e+01    8.194881e+00
  2.189657e+01    8.798825e+00
  2.192832e+01    8.187236e+00
  2.196007e+01    6.397797e+00
  2.199183e+01    4.617276e+00
  2.202358e+01    3.375221e+00
  2.205533e+01    2.635164e+00
  2.208708e+01    2.129886e+00
  2.211883e+01    1.866958e+00
  2.215058e+01    1.610986e+00
  2.218233e+01    1.445435e+00
  2.221408e+01    1.343682e+00
  2.224584e+01    1.257002e+00
  2.227759e+01    1.217727e+00
  2.230934e+01    1.176317e+00
  2.234109e+01    1.104295e+00
  2.237284e+01    1.095005e+00
  2.240459e+01    1.078218e+00
  2.243634e+01    1.035910e+00
  2.246809e+01    1.019271e+00
  2.249984e+01    1.030239e+00
  2.253160e+01    1.009023e+00
  2.256335e+01    9.909479e-01
  2.259510e+01    9.553190e-01
  2.262685e+01    9.589675e-01
  2.265860e+01    9.542965e-01
  2.269035e+01    9.430676e-01
  2.272210e+01    9.453279e-01
  2.275385e+01    9.137197e-01
  2.278560e+01    9.185461e-01
  2.281736e+01    9.205965e-01
  2.284911e+01    9.179254e-01
  2.288086e+01    9.196637e-01
  2.291261e+01    8.959232e-01
  2.294436e+01    8.955604e-01
  2.297611e+01    8.852943e-01
  2.300786e+01    9.013876e-01
  2.303961e+01    8.825796e-01
  2.307137e+01    8.835980e-01
  2.310312e+01    8.748034e-01
  2.313487e+01    8.725135e-01
  2.316662e+01    8.823113e-01
  2.319837e+01    8.882451e-01
  2.323012e+01    8.883026e-01
  2.326187e+01    8.654724e-01
  2.329362e+01    8.653404e-01
  2.332537e+01    8.816016e-01
  2.335713e+01    8.507260e-01
  2.338888e+01    8.595679e-01
  2.342063e+01    8.767767e-01
  2.345238e+01    8.572831e-01
  2.348413e+01    8.555536e-01
  2.351588e+01    8.828510e-01
  2.354763e+01    8.260702e-01
  2.357938e+01    8.323936e-01
  2.361113e+01    8.514495e-01
  2.364289e+01    8.277407e-01
  2.367464e+01    8.300703e-01
  2.370639e+01    8.415226e-01
  2.373814e+01    8.100180e-01
  2.376989e+01    8.136694e-01
  2.380164e+01    8.007902e-01
  2.383339e+01    8.081681e-01
  2.386514e+01    8.052811e-01
  2.389689e+01    7.950747e-01
  2.392865e+01    8.009965e-01
  2.396040e+01    7.914456e-01
  2.399215e+01    7.959259e-01
  2.402390e+01    7.724872e-01
  2.405565e+01    7.863722e-01
  2.408740e+01    7.985882e-01
  2.411915e+01    7.658989e-01
  2.415090e+01    7.838060e-01
  2.418266e+01    7.849404e-01
  2.421441e+01    7.549269e-01
  2.424616e+01    7.851810e-01
  2.427791e+01    8.172576e-01
  2.430966e+01    7.804049e-01
  2.434141e+01    7.786582e-01
  2.437316e+01    7.946324e-01
  2.440491e+01    7.818025e-01
  2.443666e+01    7.803160e-01
  2.446842e+01    7.984797e-01
  2.450017e+01    7.731901e-01
  2.453192e+01    8.061368e-01
  2.456367e+01    7.843124e-01
  2.459542e+01    7.724610e-01
  2.462717e+01    7.797638e-01
  2.465892e+01    7.881641e-01
  2.469067e+01    7.813318e-01
  2.472242e+01    7.853428e-01
  2.475418e+01    7.813141e-01
  2.478593e+01    7.997914e-01
  2.481768e+01    7.878628e-01
  2.484943e+01    7.874810e-01
  2.488118e+01    8.103126e-01
  2.491293e+01    7.629794e-01
  2.494468e+01    7.938901e-01
  2.497643e+01    7.770286e-01
  2.500819e+01    7.843867e-01
  2.503994e+01    7.907616e-01
  2.507169e+01    8.043367e-01
  2.510344e+01    8.028928e-01
  2.513519e+01    8.125430e-01
  2.516694e+01    8.085237e-01
  2.519869e+01    8.211954e-01
  2.523044e+01    8.527213e-01
  2.526219e+01    8.396919e-01
  2.529395e+01    8.707548e-01
  2.532570e+01    8.658573e-01
  2.535745e+01    8.721880e-01
  2.538920e+01    8.854345e-01
  2.542095e+01    9.311518e-01
  2.545270e+01    9.177298e-01
  2.548445e+01    9.444076e-01
  2.551620e+01    9.771427e-01
  2.554795e+01    1.015415e+00
  2.557971e+01    1.079248e+00
  2.561146e+01    1.127359e+00
  2.564321e+01    1.224695e+00
  2.567496e+01    1.340275e+00
  2.570671e+01    1.514502e+00
  2.573846e+01    1.757679e+00
  2.577021e+01    2.142054e+00
  2.580196e+01    2.746379e+00
  2.583371e+01    3.502544e+00
  2.586547e+01    4.587787e+00
  2.589722e+01    5.745493e+00
  2.592897e+01    6.716979e+00
  2.596072e+01    7.069436e+00
  2.599247e+01    6.559689e+00
  2.602422e+01    5.254296e+00
  2.605597e+01    3.866515e+00
  2.608772e+01    2.883180e+00
  2.611948e+01    2.213349e+00
  2.615123e+01    1.854865e+00
  2.618298e+01    1.542281e+00
  2.621473e+01    1.389420e+00
  2.624648e+01    1.246491e+00
  2.627823e+01    1.130546e+00
  2.630998e+01    1.065982e+00
  2.634173e+01    1.022031e+00
  2.637348e+01    9.849362e-01
  2.640524e+01    9.607286e-01
  2.643699e+01    9.316812e-01
  2.646874e+01    9.433417e-01
  2.650049e+01    9.011858e-01
  2.653224e+01    9.010937e-01
  2.656399e+01    8.970002e-01
  2.659574e+01    8.721955e-01
  2.662749e+01    8.785847e-01
  2.665924e+01    8.740598e-01
  2.669100e+01    8.635650e-01
  2.672275e+01    8.582642e-01
  2.675450e+01    8.632930e-01
  2.678625e+01    8.764550e-01
  2.681800e+01    8.642572e-01
  2.684975e+01    9.026431e-01
  2.688150e+01    9.018021e-01
  2.691325e+01    9.206308e-01
  2.694501e+01    8.994619e-01
  2.697676e+01    9.812853e-01
  2.700851e+01    1.034402e+00
  2.704026e+01    1.103498e+00
  2.707201e+01    1.247369e+00
  2.710376e+01    1.417918e+00
  2.713551e+01    1.650415e+00
  2.716726e+01    1.901867e+00
  2.719901e+01    2.100468e+00
  2.723077e+01    2.121661e+00
  2.726252e+01    1.940287e+00
  2.729427e+01    1.637135e+00
  2.732602e+01    1.378132e+00
  2.735777e+01    1.228014e+00
  2.738952e+01    1.062635e+00
  2.742127e+01    9.828305e-01
  2.745302e+01    9.538366e-01
  2.748477e+01    9.039447e-01
  2.751653e+01    8.771108e-01
  2.754828e+01    8.680307e-01
  2.758003e+01    8.506545e-01
  2.761178e+01    8.405167e-01
  2.764353e+01    8.324781e-01
  2.767528e+01    8.036091e-01
  2.770703e+01    8.063684e-01
  2.773878e+01    8.002472e-01
  2.777054e+01    7.723185e-01
  2.780229e+01    8.011860e-01
  2.783404e+01    7.875312e-01
  2.786579e+01    7.807553e-01
  2.789754e+01    7.829514e-01
  2.792929e+01    7.962781e-01
  2.796104e+01    7.719009e-01
  2.799279e+01    7.785277e-01
  2.802454e+01    7.833509e-01
  2.805630e+01    7.855808e-01
  2.808805e+01    7.696081e-01
  2.811980e+01    7.665572e-01
  2.815155e+01    7.551946e-01
  2.818330e+01    7.653633e-01
  2.821505e+01    7.683919e-01
  2.824680e+01    7.505749e-01
  2.827855e+01    7.581850e-01
  2.831030e+01    7.706559e-01
  2.834206e+01    7.717583e-01
  2.837381e+01    7.633091e-01
  2.840556e+01    7.648076e-01
  2.843731e+01    7.737955e-01
  2.846906e+01    7.463205e-01
  2.850081e+01    7.615019e-01
  2.853256e+01    7.532150e-01
  2.856431e+01    7.652788e-01
  2.859606e+01    7.527474e-01
  2.862782e+01    7.449831e-01
  2.865957e+01    7.489918e-01
  2.869132e+01    7.592456e-01
  2.872307e+01    7.292479e-01
  2.875482e+01    7.491659e-01
  2.878657e+01    7.380539e-01
  2.881832e+01    7.451915e-01
  2.885007e+01    7.384825e-01
  2.888183e+01    7.581157e-01
  2.891358e+01    7.533678e-01
  2.894533e+01    7.324692e-01
  2.897708e+01    7.356950e-01
  2.900883e+01    7.449219e-01
  2.904058e+01    7.408878e-01
  2.907233e+01    7.179728e-01
  2.910408e+01    7.168147e-01
  2.913583e+01    7.102309e-01
  2.916759e+01    7.511189e-01
  2.919934e+01    7.194862e-01
  2.923109e+01    7.178282e-01
  2.926284e+01    7.197359e-01
  2.929459e+01    7.271438e-01
  2.932634e+01    7.131399e-01
  2.935809e+01    7.320813e-01
  2.938984e+01    7.029546e-01
  2.942159e+01    7.229204e-01
  2.945335e+01    7.414448e-01
  2.948510e+01    7.317418e-01
  2.951685e+01    7.141259e-01
  2.954860e+01    7.133473e-01
  2.958035e+01    7.221507e-01
  2.961210e+01    7.208655e-01
  2.964385e+01    7.226409e-01
  2.967560e+01    7.138518e-01
  2.970736e+01    7.082074e-01
  2.973911e+01    7.228587e-01
  2.977086e+01    7.116216e-01
  2.980261e+01    6.998566e-01
  2.983436e+01    7.120542e-01
  2.986611e+01    7.025970e-01
  2.989786e+01    7.129807e-01
  2.992961e+01    7.129191e-01
  2.996136e+01    7.177384e-01
  2.999312e+01    7.224446e-01
  3.002487e+01    7.207566e-01
  3.005662e+01    7.334834e-01
  3.008837e+01    7.106050e-01
  3.012012e+01    7.144757e-01
  3.015187e+01    7.104438e-01
  3.018362e+01    6.959762e-01
  3.021537e+01    7.120346e-01
  3.024712e+01    7.214817e-01
  3.027888e+01    7.052515e-01
  3.031063e+01    7.042905e-01
  3.034238e+01    7.239755e-01
  3.037413e+01    6.978449e-01
  3.040588e+01    6.984944e-01
  3.043763e+01    6.809668e-01
  3.046938e+01    7.013422e-01
  3.050113e+01    7.185656e-01
  3.053288e+01    7.147435e-01
  3.056464e+01    7.013494e-01
  3.059639e+01    7.226331e-01
  3.062814e+01    7.137311e-01
  3.065989e+01    7.038668e-01
  3.069164e+01    6.970106e-01
  3.072339e+01    6.865061e-01
  3.075514e+01    7.324301e-01
  3.078689e+01    7.154561e-01
  3.081865e+01    6.933292e-01
  3.085040e+01    7.204671e-01
  3.088215e+01    7.117781e-01
  3.091390e+01    6.924155e-01
  3.094565e+01    7.067733e-01
  3.097740e+01    7.242968e-01
  3.100915e+01    7.085038e-01
  3.104090e+01    7.148085e-01
  3.107265e+01    7.077277e-01
  3.110441e+01    7.019132e-01
  3.113616e+01    7.248102e-01
  3.116791e+01    6.939543e-01
  3.119966e+01    7.179155e-01
  3.123141e+01    7.175639e-01
  3.126316e+01    7.023464e-01
  3.129491e+01    7.318147e-01
  3.132666e+01    7.365596e-01
  3.135841e+01    7.290694e-01
  3.139017e+01    7.484821e-01
  3.142192e+01    7.483038e-01
  3.145367e+01    7.529190e-01
  3.148542e+01    7.598754e-01
  3.151717e+01    7.503950e-01
  3.154892e+01    7.719910e-01
  3.158067e+01    7.816679e-01
  3.161242e+01    8.091347e-01
  3.164418e+01    8.542391e-01
  3.167593e+01    8.771550e-01
  3.170768e+01    9.649920e-01
  3.173943e+01    1.055037e+00
  3.177118e+01    1.218000e+00
  3.180293e+01    1.442411e+00
  3.183468e+01    1.709773e+00
  3.186643e+01    1.962392e+00
  3.189818e+01    2.108734e+00
  3.192994e+01    2.043761e+00
  3.196169e+01    1.827319e+00
  3.199344e+01    1.499239e+00
  3.202519e+01    1.240951e+00
  3.205694e+01    1.089064e+00
  3.208869e+01    9.422314e-01
  3.212044e+01    8.915986e-01
  3.215219e+01    8.712583e-01
  3.218394e+01    8.081622e-01
  3.221570e+01    7.895014e-01
  3.224745e+01    7.708654e-01
  3.227920e+01    7.391294e-01
  3.231095e+01    7.568248e-01
  3.234270e+01    7.467216e-01
  3.237445e+01    7.146556e-01
  3.240620e+01    7.103091e-01
  3.243795e+01    7.144315e-01
  3.246970e+01    7.196857e-01
  3.250146e+01    7.288163e-01
  3.253321e+01    6.987528e-01
  3.254908e+01    7.085871e-01