File: XRD/2024-07-27_002_Ru-CGO-ex_Activtation_ramp_000002_data_000089.dat
# == pyFAI calibration ==
# Distance Sample to Detector: 0.4 m
# PONI: 9.750e-02, 1.135e-01 m
# Rotations: -0.000175 0.000000 -0.000000 rad
#
# == Fit2d calibration ==
# Distance Sample-beamCenter: 400.000 mm
# Center: x=1514.000, y=1300.000 pix
# Tilt: 0.010 deg  TiltPlanRot: 0.010 deg
#
# Detector Detector	 Spline= None	 PixelSize= 7.500e-05, 7.500e-05 m
#    Detector has a mask: False
#    Detector has a dark current: False
#    detector has a flat field: False
#
# Wavelength: 6.888e-11 m
# Mask applied: user provided
# Dark current applied: False
# Flat field applied: False
# Polarization factor: 0.99
# Normalization factor: 1.0
# --> /home/myspot/data/2024_07_Rosario/Ru-CGO-ex/2024-07-27_002_Ru-CGO-ex_Activtation_ramp_000002_data_000089.dat
#       q_nm^-1             I
  2.003187e-02    0.000000e+00
  5.178302e-02    4.781393e-02
  8.353417e-02    1.841540e-01
  1.152853e-01    4.398488e-03
  1.470365e-01    5.460371e-02
  1.787876e-01    1.442458e-02
  2.105388e-01    0.000000e+00
  2.422899e-01    4.227458e-02
  2.740411e-01    4.441398e-02
  3.057922e-01    1.870873e-02
  3.375433e-01    1.238396e-01
  3.692945e-01    1.557611e-02
  4.010456e-01    3.354487e-02
  4.327968e-01    4.587438e-02
  4.645479e-01    3.492605e-02
  4.962991e-01    2.381892e-02
  5.280502e-01    2.955221e-02
  5.598014e-01    5.174350e-02
  5.915525e-01    1.908373e-02
  6.233037e-01    4.530672e-03
  6.550548e-01    2.492289e-02
  6.868060e-01    5.459943e-02
  7.185571e-01    3.802903e-02
  7.503083e-01    5.497793e-02
  7.820594e-01    1.050463e-01
  8.138106e-01    2.124355e-01
  8.455617e-01    3.075166e-01
  8.773129e-01    3.715072e-01
  9.090640e-01    5.920224e-01
  9.408152e-01    7.146293e-01
  9.725663e-01    8.024874e-01
  1.004317e+00    8.786989e-01
  1.036069e+00    1.093776e+00
  1.067820e+00    1.373466e+00
  1.099571e+00    1.394754e+00
  1.131322e+00    1.463256e+00
  1.163073e+00    1.497349e+00
  1.194824e+00    1.569319e+00
  1.226575e+00    2.051282e+00
  1.258327e+00    2.281687e+00
  1.290078e+00    2.480524e+00
  1.321829e+00    2.475171e+00
  1.353580e+00    2.623752e+00
  1.385331e+00    2.525964e+00
  1.417082e+00    2.654415e+00
  1.448834e+00    2.789760e+00
  1.480585e+00    2.954474e+00
  1.512336e+00    2.934412e+00
  1.544087e+00    2.977579e+00
  1.575838e+00    3.069541e+00
  1.607589e+00    2.965633e+00
  1.639340e+00    2.818927e+00
  1.671092e+00    2.777179e+00
  1.702843e+00    2.887089e+00
  1.734594e+00    2.949863e+00
  1.766345e+00    2.739987e+00
  1.798096e+00    2.745287e+00
  1.829847e+00    2.822193e+00
  1.861598e+00    2.790820e+00
  1.893350e+00    2.728670e+00
  1.925101e+00    2.824710e+00
  1.956852e+00    2.838941e+00
  1.988603e+00    2.698699e+00
  2.020354e+00    2.757903e+00
  2.052105e+00    2.693915e+00
  2.083856e+00    2.771745e+00
  2.115608e+00    2.787637e+00
  2.147359e+00    2.715819e+00
  2.179110e+00    2.705136e+00
  2.210861e+00    2.664263e+00
  2.242612e+00    2.802531e+00
  2.274363e+00    2.788729e+00
  2.306115e+00    2.611562e+00
  2.337866e+00    2.676384e+00
  2.369617e+00    2.696488e+00
  2.401368e+00    2.746187e+00
  2.433119e+00    2.759763e+00
  2.464870e+00    2.654803e+00
  2.496621e+00    2.827593e+00
  2.528373e+00    2.837132e+00
  2.560124e+00    2.723567e+00
  2.591875e+00    2.917727e+00
  2.623626e+00    2.939741e+00
  2.655377e+00    2.740831e+00
  2.687128e+00    2.679393e+00
  2.718879e+00    2.760555e+00
  2.750631e+00    2.745574e+00
  2.782382e+00    2.817701e+00
  2.814133e+00    2.749857e+00
  2.845884e+00    2.887379e+00
  2.877635e+00    2.819175e+00
  2.909386e+00    2.761402e+00
  2.941137e+00    2.868535e+00
  2.972889e+00    2.853693e+00
  3.004640e+00    2.798658e+00
  3.036391e+00    2.845951e+00
  3.068142e+00    2.801532e+00
  3.099893e+00    2.807954e+00
  3.131644e+00    2.924140e+00
  3.163395e+00    2.946561e+00
  3.195147e+00    2.914280e+00
  3.226898e+00    2.944657e+00
  3.258649e+00    2.839348e+00
  3.290400e+00    2.942313e+00
  3.322151e+00    2.872452e+00
  3.353902e+00    2.923158e+00
  3.385654e+00    2.893379e+00
  3.417405e+00    2.921402e+00
  3.449156e+00    2.907712e+00
  3.480907e+00    2.862725e+00
  3.512658e+00    2.920306e+00
  3.544409e+00    2.901208e+00
  3.576160e+00    2.882586e+00
  3.607912e+00    2.926439e+00
  3.639663e+00    2.841758e+00
  3.671414e+00    3.022525e+00
  3.703165e+00    2.874873e+00
  3.734916e+00    2.964788e+00
  3.766667e+00    2.890896e+00
  3.798418e+00    2.901275e+00
  3.830170e+00    2.977103e+00
  3.861921e+00    2.916481e+00
  3.893672e+00    2.959779e+00
  3.925423e+00    3.001142e+00
  3.957174e+00    2.937280e+00
  3.988925e+00    2.954679e+00
  4.020676e+00    2.981765e+00
  4.052428e+00    2.991699e+00
  4.084179e+00    2.928547e+00
  4.115930e+00    2.969507e+00
  4.147681e+00    3.008620e+00
  4.179432e+00    3.013190e+00
  4.211183e+00    2.913070e+00
  4.242935e+00    2.994856e+00
  4.274686e+00    3.006710e+00
  4.306437e+00    2.999375e+00
  4.338188e+00    2.938714e+00
  4.369939e+00    3.022216e+00
  4.401690e+00    3.061239e+00
  4.433441e+00    3.020654e+00
  4.465193e+00    3.112276e+00
  4.496944e+00    3.021661e+00
  4.528695e+00    3.131653e+00
  4.560446e+00    3.150901e+00
  4.592197e+00    2.981018e+00
  4.623948e+00    3.025531e+00
  4.655699e+00    3.045878e+00
  4.687451e+00    3.060382e+00
  4.719202e+00    3.097185e+00
  4.750953e+00    3.198097e+00
  4.782704e+00    2.950368e+00
  4.814455e+00    3.015191e+00
  4.846206e+00    3.091725e+00
  4.877957e+00    3.023426e+00
  4.909709e+00    3.038209e+00
  4.941460e+00    3.094474e+00
  4.973211e+00    3.004800e+00
  5.004962e+00    3.095863e+00
  5.036713e+00    3.016992e+00
  5.068464e+00    3.030078e+00
  5.100216e+00    3.131077e+00
  5.131967e+00    3.150149e+00
  5.163718e+00    3.002434e+00
  5.195469e+00    3.017005e+00
  5.227220e+00    3.062537e+00
  5.258971e+00    3.028991e+00
  5.290722e+00    3.066961e+00
  5.322474e+00    3.155088e+00
  5.354225e+00    3.112739e+00
  5.385976e+00    3.130177e+00
  5.417727e+00    3.116660e+00
  5.449478e+00    3.079826e+00
  5.481229e+00    2.956655e+00
  5.512980e+00    3.112826e+00
  5.544732e+00    3.000391e+00
  5.576483e+00    3.084603e+00
  5.608234e+00    3.018159e+00
  5.639985e+00    3.032372e+00
  5.671736e+00    3.021183e+00
  5.703487e+00    3.148878e+00
  5.735238e+00    3.089498e+00
  5.766990e+00    3.102613e+00
  5.798741e+00    2.978089e+00
  5.830492e+00    2.901409e+00
  5.862243e+00    2.966280e+00
  5.893994e+00    3.080582e+00
  5.925745e+00    2.991282e+00
  5.957497e+00    2.952478e+00
  5.989248e+00    2.986746e+00
  6.020999e+00    2.949530e+00
  6.052750e+00    3.011463e+00
  6.084501e+00    3.095063e+00
  6.116252e+00    3.034051e+00
  6.148003e+00    3.007742e+00
  6.179755e+00    3.021979e+00
  6.211506e+00    3.022055e+00
  6.243257e+00    2.953230e+00
  6.275008e+00    3.004487e+00
  6.306759e+00    2.956391e+00
  6.338510e+00    2.985641e+00
  6.370261e+00    3.055989e+00
  6.402013e+00    3.000811e+00
  6.433764e+00    3.022078e+00
  6.465515e+00    3.001791e+00
  6.497266e+00    2.945374e+00
  6.529017e+00    3.076493e+00
  6.560768e+00    2.997651e+00
  6.592519e+00    2.958908e+00
  6.624271e+00    2.970253e+00
  6.656022e+00    2.944087e+00
  6.687773e+00    2.974345e+00
  6.719524e+00    2.928013e+00
  6.751275e+00    2.984801e+00
  6.783026e+00    3.023523e+00
  6.814777e+00    3.011906e+00
  6.846529e+00    3.053533e+00
  6.878280e+00    3.073274e+00
  6.910031e+00    2.945282e+00
  6.941782e+00    3.011909e+00
  6.973533e+00    2.973471e+00
  7.005284e+00    2.984761e+00
  7.037036e+00    2.964814e+00
  7.068787e+00    3.010358e+00
  7.100538e+00    3.082122e+00
  7.132289e+00    2.965201e+00
  7.164040e+00    2.873973e+00
  7.195791e+00    2.977257e+00
  7.227542e+00    2.929655e+00
  7.259294e+00    3.035229e+00
  7.291045e+00    2.959835e+00
  7.322796e+00    2.924706e+00
  7.354547e+00    2.941742e+00
  7.386298e+00    2.886928e+00
  7.418049e+00    2.937384e+00
  7.449800e+00    2.995424e+00
  7.481552e+00    2.901616e+00
  7.513303e+00    2.971793e+00
  7.545054e+00    2.855889e+00
  7.576805e+00    2.889068e+00
  7.608556e+00    2.912725e+00
  7.640307e+00    2.868155e+00
  7.672058e+00    2.862735e+00
  7.703810e+00    2.896037e+00
  7.735561e+00    2.942519e+00
  7.767312e+00    2.892329e+00
  7.799063e+00    2.892559e+00
  7.830814e+00    2.967322e+00
  7.862565e+00    2.888234e+00
  7.894317e+00    2.900411e+00
  7.926068e+00    2.880863e+00
  7.957819e+00    2.839708e+00
  7.989570e+00    2.844615e+00
  8.021321e+00    2.889821e+00
  8.053072e+00    2.892654e+00
  8.084823e+00    2.902719e+00
  8.116575e+00    2.857512e+00
  8.148326e+00    2.912223e+00
  8.180077e+00    2.928303e+00
  8.211828e+00    2.986010e+00
  8.243579e+00    2.962677e+00
  8.275330e+00    2.868916e+00
  8.307081e+00    2.885581e+00
  8.338833e+00    2.873355e+00
  8.370584e+00    2.831964e+00
  8.402335e+00    2.900086e+00
  8.434086e+00    2.883206e+00
  8.465837e+00    2.888946e+00
  8.497588e+00    2.864927e+00
  8.529339e+00    2.820801e+00
  8.561091e+00    2.765698e+00
  8.592842e+00    2.811312e+00
  8.624593e+00    2.836893e+00
  8.656344e+00    2.747125e+00
  8.688095e+00    2.825885e+00
  8.719846e+00    2.738256e+00
  8.751598e+00    2.821428e+00
  8.783349e+00    2.739593e+00
  8.815100e+00    2.826730e+00
  8.846851e+00    2.762334e+00
  8.878602e+00    2.799007e+00
  8.910353e+00    2.819723e+00
  8.942104e+00    2.835208e+00
  8.973856e+00    2.746701e+00
  9.005607e+00    2.731739e+00
  9.037358e+00    2.753492e+00
  9.069109e+00    2.797698e+00
  9.100860e+00    2.762027e+00
  9.132611e+00    2.715691e+00
  9.164362e+00    2.746197e+00
  9.196114e+00    2.777809e+00
  9.227865e+00    2.819806e+00
  9.259616e+00    2.737839e+00
  9.291367e+00    2.767644e+00
  9.323118e+00    2.761014e+00
  9.354869e+00    2.710558e+00
  9.386620e+00    2.743170e+00
  9.418372e+00    2.702580e+00
  9.450123e+00    2.699925e+00
  9.481874e+00    2.710307e+00
  9.513625e+00    2.723689e+00
  9.545376e+00    2.691285e+00
  9.577127e+00    2.690309e+00
  9.608878e+00    2.725474e+00
  9.640630e+00    2.770524e+00
  9.672381e+00    2.715374e+00
  9.704132e+00    2.731569e+00
  9.735883e+00    2.666900e+00
  9.767634e+00    2.596928e+00
  9.799385e+00    2.686645e+00
  9.831137e+00    2.663826e+00
  9.862888e+00    2.678044e+00
  9.894639e+00    2.622212e+00
  9.926390e+00    2.682419e+00
  9.958141e+00    2.647963e+00
  9.989892e+00    2.643616e+00
  1.002164e+01    2.629958e+00
  1.005339e+01    2.651538e+00
  1.008515e+01    2.638643e+00
  1.011690e+01    2.597411e+00
  1.014865e+01    2.601650e+00
  1.018040e+01    2.637591e+00
  1.021215e+01    2.615302e+00
  1.024390e+01    2.572809e+00
  1.027565e+01    2.594254e+00
  1.030740e+01    2.568706e+00
  1.033915e+01    2.625692e+00
  1.037091e+01    2.634136e+00
  1.040266e+01    2.593663e+00
  1.043441e+01    2.584648e+00
  1.046616e+01    2.544369e+00
  1.049791e+01    2.589012e+00
  1.052966e+01    2.579582e+00
  1.056141e+01    2.543576e+00
  1.059316e+01    2.581934e+00
  1.062492e+01    2.541573e+00
  1.065667e+01    2.527766e+00
  1.068842e+01    2.497750e+00
  1.072017e+01    2.471281e+00
  1.075192e+01    2.551235e+00
  1.078367e+01    2.577150e+00
  1.081542e+01    2.512199e+00
  1.084717e+01    2.474795e+00
  1.087892e+01    2.480758e+00
  1.091068e+01    2.462935e+00
  1.094243e+01    2.503138e+00
  1.097418e+01    2.471965e+00
  1.100593e+01    2.434630e+00
  1.103768e+01    2.447948e+00
  1.106943e+01    2.438284e+00
  1.110118e+01    2.439816e+00
  1.113293e+01    2.472403e+00
  1.116468e+01    2.405897e+00
  1.119644e+01    2.429147e+00
  1.122819e+01    2.400256e+00
  1.125994e+01    2.389105e+00
  1.129169e+01    2.390062e+00
  1.132344e+01    2.447573e+00
  1.135519e+01    2.367564e+00
  1.138694e+01    2.365910e+00
  1.141869e+01    2.392799e+00
  1.145045e+01    2.397996e+00
  1.148220e+01    2.391153e+00
  1.151395e+01    2.397620e+00
  1.154570e+01    2.325830e+00
  1.157745e+01    2.350339e+00
  1.160920e+01    2.375242e+00
  1.164095e+01    2.324320e+00
  1.167270e+01    2.368416e+00
  1.170445e+01    2.325331e+00
  1.173621e+01    2.339516e+00
  1.176796e+01    2.318697e+00
  1.179971e+01    2.345974e+00
  1.183146e+01    2.371014e+00
  1.186321e+01    2.263755e+00
  1.189496e+01    2.347604e+00
  1.192671e+01    2.309191e+00
  1.195846e+01    2.342554e+00
  1.199021e+01    2.294918e+00
  1.202197e+01    2.294056e+00
  1.205372e+01    2.286316e+00
  1.208547e+01    2.308891e+00
  1.211722e+01    2.290350e+00
  1.214897e+01    2.341052e+00
  1.218072e+01    2.325839e+00
  1.221247e+01    2.306662e+00
  1.224422e+01    2.298014e+00
  1.227597e+01    2.322500e+00
  1.230773e+01    2.294890e+00
  1.233948e+01    2.292459e+00
  1.237123e+01    2.271984e+00
  1.240298e+01    2.288703e+00
  1.243473e+01    2.341495e+00
  1.246648e+01    2.305772e+00
  1.249823e+01    2.340493e+00
  1.252998e+01    2.386035e+00
  1.256174e+01    2.353997e+00
  1.259349e+01    2.331231e+00
  1.262524e+01    2.341389e+00
  1.265699e+01    2.429034e+00
  1.268874e+01    2.351969e+00
  1.272049e+01    2.475873e+00
  1.275224e+01    2.536941e+00
  1.278399e+01    2.575514e+00
  1.281574e+01    2.722297e+00
  1.284750e+01    2.770706e+00
  1.287925e+01    3.026761e+00
  1.291100e+01    3.267370e+00
  1.294275e+01    3.648578e+00
  1.297450e+01    4.260563e+00
  1.300625e+01    5.275661e+00
  1.303800e+01    6.878930e+00
  1.306975e+01    9.388788e+00
  1.310150e+01    1.211702e+01
  1.313326e+01    1.480250e+01
  1.316501e+01    1.719561e+01
  1.319676e+01    1.784172e+01
  1.322851e+01    1.542416e+01
  1.326026e+01    1.123492e+01
  1.329201e+01    7.954490e+00
  1.332376e+01    5.957296e+00
  1.335551e+01    4.628461e+00
  1.338727e+01    3.960063e+00
  1.341902e+01    3.431166e+00
  1.345077e+01    3.088453e+00
  1.348252e+01    2.806863e+00
  1.351427e+01    2.666369e+00
  1.354602e+01    2.528967e+00
  1.357777e+01    2.447417e+00
  1.360952e+01    2.405499e+00
  1.364127e+01    2.373789e+00
  1.367303e+01    2.279137e+00
  1.370478e+01    2.271216e+00
  1.373653e+01    2.213870e+00
  1.376828e+01    2.153923e+00
  1.380003e+01    2.172182e+00
  1.383178e+01    2.127176e+00
  1.386353e+01    2.091490e+00
  1.389528e+01    2.096678e+00
  1.392703e+01    2.081990e+00
  1.395879e+01    2.063685e+00
  1.399054e+01    2.032219e+00
  1.402229e+01    2.048731e+00
  1.405404e+01    1.970454e+00
  1.408579e+01    2.005211e+00
  1.411754e+01    2.005313e+00
  1.414929e+01    1.960729e+00
  1.418104e+01    1.954746e+00
  1.421279e+01    1.952819e+00
  1.424455e+01    1.982726e+00
  1.427630e+01    1.943651e+00
  1.430805e+01    1.959288e+00
  1.433980e+01    1.937693e+00
  1.437155e+01    1.933242e+00
  1.440330e+01    1.909883e+00
  1.443505e+01    1.875926e+00
  1.446680e+01    1.923270e+00
  1.449856e+01    1.901117e+00
  1.453031e+01    1.893687e+00
  1.456206e+01    1.923367e+00
  1.459381e+01    1.892075e+00
  1.462556e+01    1.890435e+00
  1.465731e+01    1.884359e+00
  1.468906e+01    1.879039e+00
  1.472081e+01    1.910775e+00
  1.475256e+01    1.870817e+00
  1.478432e+01    1.895915e+00
  1.481607e+01    1.925277e+00
  1.484782e+01    1.911229e+00
  1.487957e+01    1.879821e+00
  1.491132e+01    1.911140e+00
  1.494307e+01    1.994852e+00
  1.497482e+01    2.067840e+00
  1.500657e+01    2.124091e+00
  1.503832e+01    2.279666e+00
  1.507008e+01    2.430937e+00
  1.510183e+01    2.783348e+00
  1.513358e+01    3.298856e+00
  1.516533e+01    4.124928e+00
  1.519708e+01    4.871696e+00
  1.522883e+01    5.480178e+00
  1.526058e+01    5.948436e+00
  1.529233e+01    6.055406e+00
  1.532409e+01    5.255927e+00
  1.535584e+01    4.243279e+00
  1.538759e+01    3.284234e+00
  1.541934e+01    2.786597e+00
  1.545109e+01    2.378133e+00
  1.548284e+01    2.230752e+00
  1.551459e+01    2.027920e+00
  1.554634e+01    1.945069e+00
  1.557809e+01    1.886615e+00
  1.560985e+01    1.811386e+00
  1.564160e+01    1.784996e+00
  1.567335e+01    1.707540e+00
  1.570510e+01    1.725120e+00
  1.573685e+01    1.701488e+00
  1.576860e+01    1.689916e+00
  1.580035e+01    1.683009e+00
  1.583210e+01    1.640315e+00
  1.586385e+01    1.673021e+00
  1.589561e+01    1.653662e+00
  1.592736e+01    1.633420e+00
  1.595911e+01    1.605411e+00
  1.599086e+01    1.574081e+00
  1.602261e+01    1.609993e+00
  1.605436e+01    1.597637e+00
  1.608611e+01    1.578465e+00
  1.611786e+01    1.595035e+00
  1.614961e+01    1.572954e+00
  1.618137e+01    1.555695e+00
  1.621312e+01    1.565434e+00
  1.624487e+01    1.532717e+00
  1.627662e+01    1.507992e+00
  1.630837e+01    1.510468e+00
  1.634012e+01    1.525995e+00
  1.637187e+01    1.533189e+00
  1.640362e+01    1.556252e+00
  1.643538e+01    1.487991e+00
  1.646713e+01    1.471306e+00
  1.649888e+01    1.472502e+00
  1.653063e+01    1.484960e+00
  1.656238e+01    1.471619e+00
  1.659413e+01    1.476039e+00
  1.662588e+01    1.478894e+00
  1.665763e+01    1.459134e+00
  1.668938e+01    1.479764e+00
  1.672114e+01    1.456369e+00
  1.675289e+01    1.430601e+00
  1.678464e+01    1.430157e+00
  1.681639e+01    1.416196e+00
  1.684814e+01    1.438156e+00
  1.687989e+01    1.431177e+00
  1.691164e+01    1.447094e+00
  1.694339e+01    1.439051e+00
  1.697514e+01    1.403012e+00
  1.700690e+01    1.407152e+00
  1.703865e+01    1.389847e+00
  1.707040e+01    1.407085e+00
  1.710215e+01    1.421595e+00
  1.713390e+01    1.390545e+00
  1.716565e+01    1.388608e+00
  1.719740e+01    1.376190e+00
  1.722915e+01    1.402710e+00
  1.726091e+01    1.390658e+00
  1.729266e+01    1.353752e+00
  1.732441e+01    1.400432e+00
  1.735616e+01    1.363602e+00
  1.738791e+01    1.372128e+00
  1.741966e+01    1.350770e+00
  1.745141e+01    1.353378e+00
  1.748316e+01    1.350515e+00
  1.751491e+01    1.342840e+00
  1.754667e+01    1.336451e+00
  1.757842e+01    1.352003e+00
  1.761017e+01    1.340653e+00
  1.764192e+01    1.308595e+00
  1.767367e+01    1.336476e+00
  1.770542e+01    1.327763e+00
  1.773717e+01    1.341050e+00
  1.776892e+01    1.308928e+00
  1.780067e+01    1.298542e+00
  1.783243e+01    1.324449e+00
  1.786418e+01    1.302941e+00
  1.789593e+01    1.301814e+00
  1.792768e+01    1.282664e+00
  1.795943e+01    1.294457e+00
  1.799118e+01    1.294116e+00
  1.802293e+01    1.279639e+00
  1.805468e+01    1.286779e+00
  1.808643e+01    1.264027e+00
  1.811819e+01    1.262163e+00
  1.814994e+01    1.292428e+00
  1.818169e+01    1.248338e+00
  1.821344e+01    1.270861e+00
  1.824519e+01    1.273408e+00
  1.827694e+01    1.240253e+00
  1.830869e+01    1.260719e+00
  1.834044e+01    1.246379e+00
  1.837220e+01    1.243865e+00
  1.840395e+01    1.253457e+00
  1.843570e+01    1.269875e+00
  1.846745e+01    1.230362e+00
  1.849920e+01    1.222741e+00
  1.853095e+01    1.247818e+00
  1.856270e+01    1.210796e+00
  1.859445e+01    1.230821e+00
  1.862620e+01    1.213270e+00
  1.865796e+01    1.233194e+00
  1.868971e+01    1.234434e+00
  1.872146e+01    1.224087e+00
  1.875321e+01    1.205253e+00
  1.878496e+01    1.194669e+00
  1.881671e+01    1.216181e+00
  1.884846e+01    1.219461e+00
  1.888021e+01    1.211177e+00
  1.891196e+01    1.186425e+00
  1.894372e+01    1.209917e+00
  1.897547e+01    1.190787e+00
  1.900722e+01    1.205402e+00
  1.903897e+01    1.157407e+00
  1.907072e+01    1.193230e+00
  1.910247e+01    1.170158e+00
  1.913422e+01    1.179630e+00
  1.916597e+01    1.181390e+00
  1.919773e+01    1.173872e+00
  1.922948e+01    1.158163e+00
  1.926123e+01    1.145673e+00
  1.929298e+01    1.149134e+00
  1.932473e+01    1.183957e+00
  1.935648e+01    1.152692e+00
  1.938823e+01    1.153639e+00
  1.941998e+01    1.121258e+00
  1.945173e+01    1.156816e+00
  1.948349e+01    1.143680e+00
  1.951524e+01    1.159061e+00
  1.954699e+01    1.173506e+00
  1.957874e+01    1.136438e+00
  1.961049e+01    1.116990e+00
  1.964224e+01    1.131137e+00
  1.967399e+01    1.151838e+00
  1.970574e+01    1.111853e+00
  1.973749e+01    1.121404e+00
  1.976925e+01    1.122263e+00
  1.980100e+01    1.107812e+00
  1.983275e+01    1.096511e+00
  1.986450e+01    1.106017e+00
  1.989625e+01    1.090170e+00
  1.992800e+01    1.114113e+00
  1.995975e+01    1.112571e+00
  1.999150e+01    1.124866e+00
  2.002325e+01    1.109973e+00
  2.005501e+01    1.100164e+00
  2.008676e+01    1.113926e+00
  2.011851e+01    1.102719e+00
  2.015026e+01    1.113133e+00
  2.018201e+01    1.102522e+00
  2.021376e+01    1.106639e+00
  2.024551e+01    1.087866e+00
  2.027726e+01    1.085621e+00
  2.030902e+01    1.097972e+00
  2.034077e+01    1.101831e+00
  2.037252e+01    1.090718e+00
  2.040427e+01    1.077278e+00
  2.043602e+01    1.066511e+00
  2.046777e+01    1.063815e+00
  2.049952e+01    1.069334e+00
  2.053127e+01    1.086111e+00
  2.056302e+01    1.048393e+00
  2.059478e+01    1.061046e+00
  2.062653e+01    1.061598e+00
  2.065828e+01    1.048230e+00
  2.069003e+01    1.091009e+00
  2.072178e+01    1.090786e+00
  2.075353e+01    1.065338e+00
  2.078528e+01    1.065154e+00
  2.081703e+01    1.061405e+00
  2.084878e+01    1.069180e+00
  2.088054e+01    1.083847e+00
  2.091229e+01    1.066727e+00
  2.094404e+01    1.077006e+00
  2.097579e+01    1.078825e+00
  2.100754e+01    1.069796e+00
  2.103929e+01    1.070129e+00
  2.107104e+01    1.089534e+00
  2.110279e+01    1.055073e+00
  2.113455e+01    1.085232e+00
  2.116630e+01    1.081030e+00
  2.119805e+01    1.086136e+00
  2.122980e+01    1.079974e+00
  2.126155e+01    1.070479e+00
  2.129330e+01    1.114395e+00
  2.132505e+01    1.101102e+00
  2.135680e+01    1.097948e+00
  2.138855e+01    1.132293e+00
  2.142031e+01    1.158308e+00
  2.145206e+01    1.222638e+00
  2.148381e+01    1.237749e+00
  2.151556e+01    1.284376e+00
  2.154731e+01    1.378184e+00
  2.157906e+01    1.442458e+00
  2.161081e+01    1.548456e+00
  2.164256e+01    1.773374e+00
  2.167431e+01    2.013444e+00
  2.170607e+01    2.428247e+00
  2.173782e+01    3.042649e+00
  2.176957e+01    3.980937e+00
  2.180132e+01    5.206512e+00
  2.183307e+01    6.670378e+00
  2.186482e+01    8.218516e+00
  2.189657e+01    9.624086e+00
  2.192832e+01    9.825955e+00
  2.196007e+01    8.484217e+00
  2.199183e+01    6.373984e+00
  2.202358e+01    4.554318e+00
  2.205533e+01    3.352214e+00
  2.208708e+01    2.624773e+00
  2.211883e+01    2.119374e+00
  2.215058e+01    1.838963e+00
  2.218233e+01    1.591792e+00
  2.221408e+01    1.457560e+00
  2.224584e+01    1.345555e+00
  2.227759e+01    1.254901e+00
  2.230934e+01    1.233099e+00
  2.234109e+01    1.146750e+00
  2.237284e+01    1.118226e+00
  2.240459e+01    1.122330e+00
  2.243634e+01    1.071582e+00
  2.246809e+01    1.045003e+00
  2.249984e+01    1.007836e+00
  2.253160e+01    1.009291e+00
  2.256335e+01    1.002875e+00
  2.259510e+01    9.800403e-01
  2.262685e+01    9.504189e-01
  2.265860e+01    9.876186e-01
  2.269035e+01    9.480461e-01
  2.272210e+01    9.618800e-01
  2.275385e+01    9.138598e-01
  2.278560e+01    9.452482e-01
  2.281736e+01    9.254049e-01
  2.284911e+01    9.267154e-01
  2.288086e+01    9.254347e-01
  2.291261e+01    9.046267e-01
  2.294436e+01    9.156166e-01
  2.297611e+01    8.962727e-01
  2.300786e+01    8.845457e-01
  2.303961e+01    8.834937e-01
  2.307137e+01    8.978748e-01
  2.310312e+01    8.562037e-01
  2.313487e+01    8.631576e-01
  2.316662e+01    8.854181e-01
  2.319837e+01    8.742703e-01
  2.323012e+01    8.537947e-01
  2.326187e+01    8.767178e-01
  2.329362e+01    8.580963e-01
  2.332537e+01    8.586555e-01
  2.335713e+01    8.653534e-01
  2.338888e+01    8.620719e-01
  2.342063e+01    8.405889e-01
  2.345238e+01    8.420448e-01
  2.348413e+01    8.438329e-01
  2.351588e+01    8.425409e-01
  2.354763e+01    8.412778e-01
  2.357938e+01    8.313975e-01
  2.361113e+01    8.423952e-01
  2.364289e+01    8.496563e-01
  2.367464e+01    8.403721e-01
  2.370639e+01    8.200083e-01
  2.373814e+01    8.220094e-01
  2.376989e+01    8.077105e-01
  2.380164e+01    8.137681e-01
  2.383339e+01    8.081276e-01
  2.386514e+01    8.018967e-01
  2.389689e+01    7.993128e-01
  2.392865e+01    8.240078e-01
  2.396040e+01    8.173110e-01
  2.399215e+01    7.839413e-01
  2.402390e+01    7.962063e-01
  2.405565e+01    7.629091e-01
  2.408740e+01    7.714637e-01
  2.411915e+01    7.703860e-01
  2.415090e+01    7.831182e-01
  2.418266e+01    7.908782e-01
  2.421441e+01    7.739444e-01
  2.424616e+01    7.845582e-01
  2.427791e+01    7.912840e-01
  2.430966e+01    7.815787e-01
  2.434141e+01    7.799535e-01
  2.437316e+01    7.762446e-01
  2.440491e+01    7.674111e-01
  2.443666e+01    7.925031e-01
  2.446842e+01    7.629901e-01
  2.450017e+01    7.806681e-01
  2.453192e+01    7.854832e-01
  2.456367e+01    8.039604e-01
  2.459542e+01    7.751973e-01
  2.462717e+01    7.829090e-01
  2.465892e+01    7.967499e-01
  2.469067e+01    7.982816e-01
  2.472242e+01    8.016776e-01
  2.475418e+01    7.909627e-01
  2.478593e+01    7.920113e-01
  2.481768e+01    7.555799e-01
  2.484943e+01    7.959931e-01
  2.488118e+01    7.922221e-01
  2.491293e+01    7.893344e-01
  2.494468e+01    7.847634e-01
  2.497643e+01    7.930558e-01
  2.500819e+01    7.877560e-01
  2.503994e+01    7.816241e-01
  2.507169e+01    8.077152e-01
  2.510344e+01    8.288116e-01
  2.513519e+01    8.139999e-01
  2.516694e+01    8.001696e-01
  2.519869e+01    8.298963e-01
  2.523044e+01    8.422830e-01
  2.526219e+01    8.453650e-01
  2.529395e+01    8.500726e-01
  2.532570e+01    8.712035e-01
  2.535745e+01    8.537298e-01
  2.538920e+01    8.797782e-01
  2.542095e+01    8.996490e-01
  2.545270e+01    9.458687e-01
  2.548445e+01    9.724098e-01
  2.551620e+01    9.775026e-01
  2.554795e+01    1.010136e+00
  2.557971e+01    1.080479e+00
  2.561146e+01    1.113653e+00
  2.564321e+01    1.209570e+00
  2.567496e+01    1.299390e+00
  2.570671e+01    1.469093e+00
  2.573846e+01    1.672647e+00
  2.577021e+01    1.944695e+00
  2.580196e+01    2.459685e+00
  2.583371e+01    3.113632e+00
  2.586547e+01    4.129653e+00
  2.589722e+01    5.387035e+00
  2.592897e+01    6.747690e+00
  2.596072e+01    7.912821e+00
  2.599247e+01    8.162746e+00
  2.602422e+01    7.179575e+00
  2.605597e+01    5.583107e+00
  2.608772e+01    4.084588e+00
  2.611948e+01    2.978683e+00
  2.615123e+01    2.330180e+00
  2.618298e+01    1.920206e+00
  2.621473e+01    1.624402e+00
  2.624648e+01    1.397146e+00
  2.627823e+01    1.286610e+00
  2.630998e+01    1.194852e+00
  2.634173e+01    1.113628e+00
  2.637348e+01    1.077403e+00
  2.640524e+01    1.008753e+00
  2.643699e+01    9.883708e-01
  2.646874e+01    9.764499e-01
  2.650049e+01    9.386384e-01
  2.653224e+01    9.283530e-01
  2.656399e+01    9.509622e-01
  2.659574e+01    9.167036e-01
  2.662749e+01    9.070144e-01
  2.665924e+01    9.085075e-01
  2.669100e+01    8.791311e-01
  2.672275e+01    9.033458e-01
  2.675450e+01    8.996578e-01
  2.678625e+01    8.786323e-01
  2.681800e+01    9.032966e-01
  2.684975e+01    8.947795e-01
  2.688150e+01    9.107801e-01
  2.691325e+01    9.109699e-01
  2.694501e+01    9.408119e-01
  2.697676e+01    9.754184e-01
  2.700851e+01    9.989667e-01
  2.704026e+01    1.061764e+00
  2.707201e+01    1.185088e+00
  2.710376e+01    1.319474e+00
  2.713551e+01    1.560525e+00
  2.716726e+01    1.855999e+00
  2.719901e+01    2.120110e+00
  2.723077e+01    2.405279e+00
  2.726252e+01    2.332650e+00
  2.729427e+01    2.061841e+00
  2.732602e+01    1.742288e+00
  2.735777e+01    1.441067e+00
  2.738952e+01    1.237406e+00
  2.742127e+01    1.127000e+00
  2.745302e+01    1.021289e+00
  2.748477e+01    9.499724e-01
  2.751653e+01    9.230535e-01
  2.754828e+01    8.981442e-01
  2.758003e+01    8.811882e-01
  2.761178e+01    8.695085e-01
  2.764353e+01    8.765939e-01
  2.767528e+01    8.085023e-01
  2.770703e+01    8.205553e-01
  2.773878e+01    8.513978e-01
  2.777054e+01    8.187770e-01
  2.780229e+01    8.432636e-01
  2.783404e+01    8.147707e-01
  2.786579e+01    8.019966e-01
  2.789754e+01    8.177381e-01
  2.792929e+01    7.982723e-01
  2.796104e+01    8.222641e-01
  2.799279e+01    7.818780e-01
  2.802454e+01    7.802643e-01
  2.805630e+01    7.816775e-01
  2.808805e+01    7.837512e-01
  2.811980e+01    7.658865e-01
  2.815155e+01    7.645438e-01
  2.818330e+01    7.778320e-01
  2.821505e+01    7.951948e-01
  2.824680e+01    7.747671e-01
  2.827855e+01    7.543913e-01
  2.831030e+01    7.679390e-01
  2.834206e+01    7.698385e-01
  2.837381e+01    7.567195e-01
  2.840556e+01    7.711018e-01
  2.843731e+01    7.643902e-01
  2.846906e+01    7.701628e-01
  2.850081e+01    7.520314e-01
  2.853256e+01    7.460339e-01
  2.856431e+01    7.279094e-01
  2.859606e+01    7.626773e-01
  2.862782e+01    7.412226e-01
  2.865957e+01    7.320517e-01
  2.869132e+01    7.525514e-01
  2.872307e+01    7.511368e-01
  2.875482e+01    7.631197e-01
  2.878657e+01    7.324899e-01
  2.881832e+01    7.332119e-01
  2.885007e+01    7.591421e-01
  2.888183e+01    7.363818e-01
  2.891358e+01    7.381983e-01
  2.894533e+01    7.321883e-01
  2.897708e+01    7.322237e-01
  2.900883e+01    7.164131e-01
  2.904058e+01    7.428474e-01
  2.907233e+01    7.135289e-01
  2.910408e+01    7.273203e-01
  2.913583e+01    7.362078e-01
  2.916759e+01    7.276745e-01
  2.919934e+01    7.312940e-01
  2.923109e+01    7.170004e-01
  2.926284e+01    7.382637e-01
  2.929459e+01    7.261867e-01
  2.932634e+01    7.181743e-01
  2.935809e+01    7.365463e-01
  2.938984e+01    7.037209e-01
  2.942159e+01    7.367861e-01
  2.945335e+01    7.248138e-01
  2.948510e+01    7.283026e-01
  2.951685e+01    7.263504e-01
  2.954860e+01    7.024812e-01
  2.958035e+01    7.271650e-01
  2.961210e+01    7.259670e-01
  2.964385e+01    7.148082e-01
  2.967560e+01    7.153933e-01
  2.970736e+01    7.460288e-01
  2.973911e+01    7.076402e-01
  2.977086e+01    7.171403e-01
  2.980261e+01    7.128016e-01
  2.983436e+01    7.065719e-01
  2.986611e+01    7.108257e-01
  2.989786e+01    6.999415e-01
  2.992961e+01    6.860318e-01
  2.996136e+01    7.159050e-01
  2.999312e+01    7.401168e-01
  3.002487e+01    7.227504e-01
  3.005662e+01    7.275584e-01
  3.008837e+01    7.321672e-01
  3.012012e+01    7.134170e-01
  3.015187e+01    7.080886e-01
  3.018362e+01    7.094560e-01
  3.021537e+01    7.277719e-01
  3.024712e+01    6.903341e-01
  3.027888e+01    7.009920e-01
  3.031063e+01    7.121211e-01
  3.034238e+01    7.333635e-01
  3.037413e+01    7.386336e-01
  3.040588e+01    7.093126e-01
  3.043763e+01    7.256054e-01
  3.046938e+01    7.041600e-01
  3.050113e+01    7.228023e-01
  3.053288e+01    6.972061e-01
  3.056464e+01    7.075368e-01
  3.059639e+01    7.034927e-01
  3.062814e+01    7.064214e-01
  3.065989e+01    7.051432e-01
  3.069164e+01    7.062523e-01
  3.072339e+01    7.146533e-01
  3.075514e+01    6.999127e-01
  3.078689e+01    7.054790e-01
  3.081865e+01    7.237122e-01
  3.085040e+01    7.133171e-01
  3.088215e+01    6.914786e-01
  3.091390e+01    6.992174e-01
  3.094565e+01    7.030710e-01
  3.097740e+01    7.076021e-01
  3.100915e+01    7.001179e-01
  3.104090e+01    7.063987e-01
  3.107265e+01    7.199888e-01
  3.110441e+01    7.101048e-01
  3.113616e+01    7.153823e-01
  3.116791e+01    7.135450e-01
  3.119966e+01    7.343115e-01
  3.123141e+01    7.114424e-01
  3.126316e+01    7.178982e-01
  3.129491e+01    7.249246e-01
  3.132666e+01    7.134792e-01
  3.135841e+01    7.229387e-01
  3.139017e+01    7.148327e-01
  3.142192e+01    7.431138e-01
  3.145367e+01    7.513753e-01
  3.148542e+01    7.651622e-01
  3.151717e+01    7.606476e-01
  3.154892e+01    7.626423e-01
  3.158067e+01    7.768867e-01
  3.161242e+01    8.161873e-01
  3.164418e+01    8.566445e-01
  3.167593e+01    8.942125e-01
  3.170768e+01    9.255378e-01
  3.173943e+01    1.007027e+00
  3.177118e+01    1.094170e+00
  3.180293e+01    1.293224e+00
  3.183468e+01    1.564011e+00
  3.186643e+01    1.865610e+00
  3.189818e+01    2.171361e+00
  3.192994e+01    2.388067e+00
  3.196169e+01    2.305656e+00
  3.199344e+01    1.955214e+00
  3.202519e+01    1.639226e+00
  3.205694e+01    1.350061e+00
  3.208869e+01    1.153502e+00
  3.212044e+01    1.007028e+00
  3.215219e+01    9.303575e-01
  3.218394e+01    8.926136e-01
  3.221570e+01    8.376396e-01
  3.224745e+01    7.939943e-01
  3.227920e+01    7.892547e-01
  3.231095e+01    7.545204e-01
  3.234270e+01    7.660819e-01
  3.237445e+01    7.437640e-01
  3.240620e+01    7.429694e-01
  3.243795e+01    7.124646e-01
  3.246970e+01    7.113561e-01
  3.250146e+01    7.128186e-01
  3.253321e+01    7.237418e-01
  3.254908e+01    7.110068e-01