File: XRD/2024-07-27_002_Ru-CGO-ex_Activtation_ramp_000002_data_000181.dat
# == pyFAI calibration ==
# Distance Sample to Detector: 0.4 m
# PONI: 9.750e-02, 1.135e-01 m
# Rotations: -0.000175 0.000000 -0.000000 rad
#
# == Fit2d calibration ==
# Distance Sample-beamCenter: 400.000 mm
# Center: x=1514.000, y=1300.000 pix
# Tilt: 0.010 deg  TiltPlanRot: 0.010 deg
#
# Detector Detector	 Spline= None	 PixelSize= 7.500e-05, 7.500e-05 m
#    Detector has a mask: False
#    Detector has a dark current: False
#    detector has a flat field: False
#
# Wavelength: 6.888e-11 m
# Mask applied: user provided
# Dark current applied: False
# Flat field applied: False
# Polarization factor: 0.99
# Normalization factor: 1.0
# --> /home/myspot/data/2024_07_Rosario/Ru-CGO-ex/2024-07-27_002_Ru-CGO-ex_Activtation_ramp_000002_data_000181.dat
#       q_nm^-1             I
  2.003187e-02    0.000000e+00
  5.178302e-02    0.000000e+00
  8.353417e-02    5.903240e-02
  1.152853e-01    7.148739e-02
  1.470365e-01    9.635152e-02
  1.787876e-01    3.289542e-02
  2.105388e-01    0.000000e+00
  2.422899e-01    2.979182e-02
  2.740411e-01    5.077140e-02
  3.057922e-01    2.319742e-02
  3.375433e-01    5.038471e-02
  3.692945e-01    5.184374e-02
  4.010456e-01    2.485662e-02
  4.327968e-01    1.115865e-02
  4.645479e-01    2.400850e-02
  4.962991e-01    3.715085e-02
  5.280502e-01    2.521288e-02
  5.598014e-01    4.064637e-02
  5.915525e-01    4.604626e-02
  6.233037e-01    2.495273e-02
  6.550548e-01    4.200739e-02
  6.868060e-01    2.370948e-02
  7.185571e-01    2.790745e-02
  7.503083e-01    6.044830e-02
  7.820594e-01    1.062800e-01
  8.138106e-01    1.504570e-01
  8.455617e-01    3.321261e-01
  8.773129e-01    4.461663e-01
  9.090640e-01    5.578690e-01
  9.408152e-01    7.225853e-01
  9.725663e-01    9.059836e-01
  1.004317e+00    9.129262e-01
  1.036069e+00    1.077600e+00
  1.067820e+00    1.324270e+00
  1.099571e+00    1.380303e+00
  1.131322e+00    1.557451e+00
  1.163073e+00    1.471607e+00
  1.194824e+00    1.723765e+00
  1.226575e+00    2.017780e+00
  1.258327e+00    2.250910e+00
  1.290078e+00    2.394274e+00
  1.321829e+00    2.445622e+00
  1.353580e+00    2.504327e+00
  1.385331e+00    2.627123e+00
  1.417082e+00    2.618437e+00
  1.448834e+00    2.725596e+00
  1.480585e+00    2.724232e+00
  1.512336e+00    2.574528e+00
  1.544087e+00    2.926141e+00
  1.575838e+00    2.824221e+00
  1.607589e+00    2.916926e+00
  1.639340e+00    2.717813e+00
  1.671092e+00    2.818960e+00
  1.702843e+00    2.796585e+00
  1.734594e+00    2.840695e+00
  1.766345e+00    2.812457e+00
  1.798096e+00    2.610698e+00
  1.829847e+00    2.678296e+00
  1.861598e+00    2.734473e+00
  1.893350e+00    2.731175e+00
  1.925101e+00    2.637673e+00
  1.956852e+00    2.723832e+00
  1.988603e+00    2.728950e+00
  2.020354e+00    2.768992e+00
  2.052105e+00    2.741999e+00
  2.083856e+00    2.750787e+00
  2.115608e+00    2.674155e+00
  2.147359e+00    2.706089e+00
  2.179110e+00    2.717756e+00
  2.210861e+00    2.751143e+00
  2.242612e+00    2.832592e+00
  2.274363e+00    2.844598e+00
  2.306115e+00    2.697509e+00
  2.337866e+00    2.767122e+00
  2.369617e+00    2.764177e+00
  2.401368e+00    2.868588e+00
  2.433119e+00    2.825683e+00
  2.464870e+00    2.706248e+00
  2.496621e+00    2.697244e+00
  2.528373e+00    2.750436e+00
  2.560124e+00    2.644590e+00
  2.591875e+00    2.846813e+00
  2.623626e+00    2.821989e+00
  2.655377e+00    2.705014e+00
  2.687128e+00    2.813517e+00
  2.718879e+00    2.819899e+00
  2.750631e+00    2.741895e+00
  2.782382e+00    2.707587e+00
  2.814133e+00    2.879553e+00
  2.845884e+00    2.771530e+00
  2.877635e+00    2.955349e+00
  2.909386e+00    2.848724e+00
  2.941137e+00    2.872976e+00
  2.972889e+00    2.841104e+00
  3.004640e+00    2.896897e+00
  3.036391e+00    2.874656e+00
  3.068142e+00    2.886757e+00
  3.099893e+00    2.776689e+00
  3.131644e+00    2.907925e+00
  3.163395e+00    2.919365e+00
  3.195147e+00    2.876148e+00
  3.226898e+00    2.906628e+00
  3.258649e+00    2.968465e+00
  3.290400e+00    3.030921e+00
  3.322151e+00    2.953199e+00
  3.353902e+00    2.977878e+00
  3.385654e+00    2.917305e+00
  3.417405e+00    2.916535e+00
  3.449156e+00    3.012565e+00
  3.480907e+00    2.959410e+00
  3.512658e+00    2.913136e+00
  3.544409e+00    2.973494e+00
  3.576160e+00    3.021090e+00
  3.607912e+00    2.984957e+00
  3.639663e+00    3.050720e+00
  3.671414e+00    3.018057e+00
  3.703165e+00    2.997239e+00
  3.734916e+00    3.149884e+00
  3.766667e+00    3.081739e+00
  3.798418e+00    3.008914e+00
  3.830170e+00    3.044317e+00
  3.861921e+00    3.030002e+00
  3.893672e+00    2.983346e+00
  3.925423e+00    3.021054e+00
  3.957174e+00    2.985142e+00
  3.988925e+00    2.900281e+00
  4.020676e+00    3.028581e+00
  4.052428e+00    3.035881e+00
  4.084179e+00    3.119106e+00
  4.115930e+00    2.958524e+00
  4.147681e+00    3.104583e+00
  4.179432e+00    3.050786e+00
  4.211183e+00    3.066205e+00
  4.242935e+00    3.110365e+00
  4.274686e+00    3.062478e+00
  4.306437e+00    3.171697e+00
  4.338188e+00    3.053419e+00
  4.369939e+00    3.108270e+00
  4.401690e+00    3.010192e+00
  4.433441e+00    3.033198e+00
  4.465193e+00    3.133438e+00
  4.496944e+00    3.152569e+00
  4.528695e+00    3.118030e+00
  4.560446e+00    3.067049e+00
  4.592197e+00    3.135794e+00
  4.623948e+00    3.117223e+00
  4.655699e+00    3.178354e+00
  4.687451e+00    3.166940e+00
  4.719202e+00    3.100698e+00
  4.750953e+00    3.148880e+00
  4.782704e+00    3.119042e+00
  4.814455e+00    3.076530e+00
  4.846206e+00    3.130448e+00
  4.877957e+00    3.090900e+00
  4.909709e+00    3.145538e+00
  4.941460e+00    3.198098e+00
  4.973211e+00    3.189216e+00
  5.004962e+00    3.205036e+00
  5.036713e+00    3.105988e+00
  5.068464e+00    3.181123e+00
  5.100216e+00    3.118933e+00
  5.131967e+00    3.105400e+00
  5.163718e+00    3.158006e+00
  5.195469e+00    3.110920e+00
  5.227220e+00    3.049816e+00
  5.258971e+00    3.222153e+00
  5.290722e+00    3.153632e+00
  5.322474e+00    3.156502e+00
  5.354225e+00    3.158455e+00
  5.385976e+00    3.105072e+00
  5.417727e+00    3.072452e+00
  5.449478e+00    3.082101e+00
  5.481229e+00    3.127789e+00
  5.512980e+00    3.068190e+00
  5.544732e+00    3.105047e+00
  5.576483e+00    3.015488e+00
  5.608234e+00    3.050640e+00
  5.639985e+00    3.079242e+00
  5.671736e+00    3.140470e+00
  5.703487e+00    3.134263e+00
  5.735238e+00    3.036006e+00
  5.766990e+00    3.134375e+00
  5.798741e+00    3.081719e+00
  5.830492e+00    3.003737e+00
  5.862243e+00    3.064391e+00
  5.893994e+00    3.024370e+00
  5.925745e+00    2.982982e+00
  5.957497e+00    3.028870e+00
  5.989248e+00    3.062596e+00
  6.020999e+00    2.969765e+00
  6.052750e+00    3.080909e+00
  6.084501e+00    3.041484e+00
  6.116252e+00    3.019271e+00
  6.148003e+00    3.061900e+00
  6.179755e+00    3.081321e+00
  6.211506e+00    3.056196e+00
  6.243257e+00    3.115481e+00
  6.275008e+00    3.041797e+00
  6.306759e+00    3.090311e+00
  6.338510e+00    2.977026e+00
  6.370261e+00    3.123417e+00
  6.402013e+00    2.990556e+00
  6.433764e+00    3.049417e+00
  6.465515e+00    3.051585e+00
  6.497266e+00    3.048519e+00
  6.529017e+00    3.031898e+00
  6.560768e+00    3.010069e+00
  6.592519e+00    3.014067e+00
  6.624271e+00    3.121155e+00
  6.656022e+00    3.016338e+00
  6.687773e+00    3.100043e+00
  6.719524e+00    3.016165e+00
  6.751275e+00    3.026469e+00
  6.783026e+00    3.008844e+00
  6.814777e+00    3.010544e+00
  6.846529e+00    3.026234e+00
  6.878280e+00    2.964329e+00
  6.910031e+00    3.058811e+00
  6.941782e+00    3.100672e+00
  6.973533e+00    3.045688e+00
  7.005284e+00    3.069620e+00
  7.037036e+00    3.006002e+00
  7.068787e+00    3.039165e+00
  7.100538e+00    3.001915e+00
  7.132289e+00    3.014383e+00
  7.164040e+00    3.028711e+00
  7.195791e+00    3.004595e+00
  7.227542e+00    3.032838e+00
  7.259294e+00    3.044207e+00
  7.291045e+00    2.934247e+00
  7.322796e+00    3.018693e+00
  7.354547e+00    2.959505e+00
  7.386298e+00    3.031033e+00
  7.418049e+00    3.034769e+00
  7.449800e+00    2.988517e+00
  7.481552e+00    2.985357e+00
  7.513303e+00    3.032166e+00
  7.545054e+00    2.969678e+00
  7.576805e+00    2.958660e+00
  7.608556e+00    2.933090e+00
  7.640307e+00    3.045755e+00
  7.672058e+00    2.983025e+00
  7.703810e+00    2.956117e+00
  7.735561e+00    2.907477e+00
  7.767312e+00    3.000123e+00
  7.799063e+00    2.928943e+00
  7.830814e+00    2.974887e+00
  7.862565e+00    2.909800e+00
  7.894317e+00    2.901379e+00
  7.926068e+00    2.954313e+00
  7.957819e+00    2.865700e+00
  7.989570e+00    2.938455e+00
  8.021321e+00    2.920573e+00
  8.053072e+00    3.004932e+00
  8.084823e+00    2.948008e+00
  8.116575e+00    3.020636e+00
  8.148326e+00    2.992069e+00
  8.180077e+00    2.957156e+00
  8.211828e+00    2.974689e+00
  8.243579e+00    3.014646e+00
  8.275330e+00    2.960650e+00
  8.307081e+00    2.986631e+00
  8.338833e+00    2.898700e+00
  8.370584e+00    2.930211e+00
  8.402335e+00    2.897647e+00
  8.434086e+00    2.880034e+00
  8.465837e+00    2.941399e+00
  8.497588e+00    2.900468e+00
  8.529339e+00    2.904629e+00
  8.561091e+00    2.880468e+00
  8.592842e+00    2.855055e+00
  8.624593e+00    2.908701e+00
  8.656344e+00    2.872260e+00
  8.688095e+00    2.887046e+00
  8.719846e+00    2.876470e+00
  8.751598e+00    2.863470e+00
  8.783349e+00    2.883213e+00
  8.815100e+00    2.875462e+00
  8.846851e+00    2.859044e+00
  8.878602e+00    2.855547e+00
  8.910353e+00    2.889542e+00
  8.942104e+00    2.887366e+00
  8.973856e+00    2.864685e+00
  9.005607e+00    2.842744e+00
  9.037358e+00    2.820856e+00
  9.069109e+00    2.858053e+00
  9.100860e+00    2.851555e+00
  9.132611e+00    2.795604e+00
  9.164362e+00    2.779316e+00
  9.196114e+00    2.788683e+00
  9.227865e+00    2.752623e+00
  9.259616e+00    2.812059e+00
  9.291367e+00    2.737596e+00
  9.323118e+00    2.746006e+00
  9.354869e+00    2.757933e+00
  9.386620e+00    2.821008e+00
  9.418372e+00    2.812735e+00
  9.450123e+00    2.733571e+00
  9.481874e+00    2.778215e+00
  9.513625e+00    2.772887e+00
  9.545376e+00    2.805363e+00
  9.577127e+00    2.850371e+00
  9.608878e+00    2.734785e+00
  9.640630e+00    2.777553e+00
  9.672381e+00    2.725732e+00
  9.704132e+00    2.806841e+00
  9.735883e+00    2.729926e+00
  9.767634e+00    2.674484e+00
  9.799385e+00    2.774169e+00
  9.831137e+00    2.708520e+00
  9.862888e+00    2.699327e+00
  9.894639e+00    2.704399e+00
  9.926390e+00    2.724951e+00
  9.958141e+00    2.659446e+00
  9.989892e+00    2.676546e+00
  1.002164e+01    2.617414e+00
  1.005339e+01    2.666677e+00
  1.008515e+01    2.661380e+00
  1.011690e+01    2.649571e+00
  1.014865e+01    2.633441e+00
  1.018040e+01    2.665880e+00
  1.021215e+01    2.606848e+00
  1.024390e+01    2.617213e+00
  1.027565e+01    2.626991e+00
  1.030740e+01    2.627717e+00
  1.033915e+01    2.641791e+00
  1.037091e+01    2.607019e+00
  1.040266e+01    2.602026e+00
  1.043441e+01    2.619226e+00
  1.046616e+01    2.580927e+00
  1.049791e+01    2.594012e+00
  1.052966e+01    2.583953e+00
  1.056141e+01    2.619591e+00
  1.059316e+01    2.579021e+00
  1.062492e+01    2.535076e+00
  1.065667e+01    2.538606e+00
  1.068842e+01    2.572479e+00
  1.072017e+01    2.570610e+00
  1.075192e+01    2.549281e+00
  1.078367e+01    2.581220e+00
  1.081542e+01    2.572392e+00
  1.084717e+01    2.508873e+00
  1.087892e+01    2.520080e+00
  1.091068e+01    2.522775e+00
  1.094243e+01    2.480175e+00
  1.097418e+01    2.525810e+00
  1.100593e+01    2.511277e+00
  1.103768e+01    2.486272e+00
  1.106943e+01    2.516622e+00
  1.110118e+01    2.455567e+00
  1.113293e+01    2.426681e+00
  1.116468e+01    2.435548e+00
  1.119644e+01    2.473748e+00
  1.122819e+01    2.525622e+00
  1.125994e+01    2.449847e+00
  1.129169e+01    2.473905e+00
  1.132344e+01    2.414427e+00
  1.135519e+01    2.477638e+00
  1.138694e+01    2.416349e+00
  1.141869e+01    2.458169e+00
  1.145045e+01    2.437505e+00
  1.148220e+01    2.403162e+00
  1.151395e+01    2.410971e+00
  1.154570e+01    2.379639e+00
  1.157745e+01    2.372716e+00
  1.160920e+01    2.365181e+00
  1.164095e+01    2.346551e+00
  1.167270e+01    2.377890e+00
  1.170445e+01    2.350905e+00
  1.173621e+01    2.395823e+00
  1.176796e+01    2.337175e+00
  1.179971e+01    2.382296e+00
  1.183146e+01    2.362600e+00
  1.186321e+01    2.353688e+00
  1.189496e+01    2.403840e+00
  1.192671e+01    2.370313e+00
  1.195846e+01    2.316475e+00
  1.199021e+01    2.327802e+00
  1.202197e+01    2.365113e+00
  1.205372e+01    2.370278e+00
  1.208547e+01    2.328417e+00
  1.211722e+01    2.349581e+00
  1.214897e+01    2.314456e+00
  1.218072e+01    2.310377e+00
  1.221247e+01    2.353623e+00
  1.224422e+01    2.328886e+00
  1.227597e+01    2.358011e+00
  1.230773e+01    2.345196e+00
  1.233948e+01    2.326898e+00
  1.237123e+01    2.325707e+00
  1.240298e+01    2.336499e+00
  1.243473e+01    2.363819e+00
  1.246648e+01    2.330692e+00
  1.249823e+01    2.297659e+00
  1.252998e+01    2.381390e+00
  1.256174e+01    2.415437e+00
  1.259349e+01    2.402413e+00
  1.262524e+01    2.380112e+00
  1.265699e+01    2.429849e+00
  1.268874e+01    2.450798e+00
  1.272049e+01    2.462481e+00
  1.275224e+01    2.529134e+00
  1.278399e+01    2.591011e+00
  1.281574e+01    2.701644e+00
  1.284750e+01    2.832291e+00
  1.287925e+01    2.985119e+00
  1.291100e+01    3.278032e+00
  1.294275e+01    3.657203e+00
  1.297450e+01    4.379949e+00
  1.300625e+01    5.336403e+00
  1.303800e+01    7.081316e+00
  1.306975e+01    9.462144e+00
  1.310150e+01    1.185623e+01
  1.313326e+01    1.405960e+01
  1.316501e+01    1.562181e+01
  1.319676e+01    1.538816e+01
  1.322851e+01    1.241217e+01
  1.326026e+01    8.983331e+00
  1.329201e+01    6.409185e+00
  1.332376e+01    4.962476e+00
  1.335551e+01    4.111503e+00
  1.338727e+01    3.482955e+00
  1.341902e+01    3.165192e+00
  1.345077e+01    2.912301e+00
  1.348252e+01    2.666694e+00
  1.351427e+01    2.571308e+00
  1.354602e+01    2.439251e+00
  1.357777e+01    2.439428e+00
  1.360952e+01    2.347251e+00
  1.364127e+01    2.341717e+00
  1.367303e+01    2.223148e+00
  1.370478e+01    2.203905e+00
  1.373653e+01    2.201235e+00
  1.376828e+01    2.188679e+00
  1.380003e+01    2.155459e+00
  1.383178e+01    2.135736e+00
  1.386353e+01    2.078676e+00
  1.389528e+01    2.123186e+00
  1.392703e+01    2.123219e+00
  1.395879e+01    2.073659e+00
  1.399054e+01    2.052191e+00
  1.402229e+01    2.043700e+00
  1.405404e+01    2.031387e+00
  1.408579e+01    2.070320e+00
  1.411754e+01    2.057249e+00
  1.414929e+01    1.988655e+00
  1.418104e+01    1.984041e+00
  1.421279e+01    1.997944e+00
  1.424455e+01    1.960245e+00
  1.427630e+01    1.990452e+00
  1.430805e+01    1.949381e+00
  1.433980e+01    1.946060e+00
  1.437155e+01    1.971413e+00
  1.440330e+01    1.950366e+00
  1.443505e+01    1.921606e+00
  1.446680e+01    1.903688e+00
  1.449856e+01    1.939358e+00
  1.453031e+01    1.941078e+00
  1.456206e+01    1.930380e+00
  1.459381e+01    1.919697e+00
  1.462556e+01    1.877111e+00
  1.465731e+01    1.947931e+00
  1.468906e+01    1.913146e+00
  1.472081e+01    1.897554e+00
  1.475256e+01    1.909886e+00
  1.478432e+01    1.877971e+00
  1.481607e+01    1.896532e+00
  1.484782e+01    1.939162e+00
  1.487957e+01    1.946777e+00
  1.491132e+01    1.932539e+00
  1.494307e+01    1.986600e+00
  1.497482e+01    2.057370e+00
  1.500657e+01    2.194453e+00
  1.503832e+01    2.280158e+00
  1.507008e+01    2.485811e+00
  1.510183e+01    2.845140e+00
  1.513358e+01    3.435199e+00
  1.516533e+01    4.099429e+00
  1.519708e+01    4.763317e+00
  1.522883e+01    5.276330e+00
  1.526058e+01    5.529263e+00
  1.529233e+01    5.218668e+00
  1.532409e+01    4.533823e+00
  1.535584e+01    3.536116e+00
  1.538759e+01    2.852945e+00
  1.541934e+01    2.492671e+00
  1.545109e+01    2.249684e+00
  1.548284e+01    2.130429e+00
  1.551459e+01    1.991078e+00
  1.554634e+01    1.942238e+00
  1.557809e+01    1.860315e+00
  1.560985e+01    1.798344e+00
  1.564160e+01    1.769732e+00
  1.567335e+01    1.723444e+00
  1.570510e+01    1.716389e+00
  1.573685e+01    1.749667e+00
  1.576860e+01    1.681666e+00
  1.580035e+01    1.686951e+00
  1.583210e+01    1.700331e+00
  1.586385e+01    1.708451e+00
  1.589561e+01    1.657155e+00
  1.592736e+01    1.675339e+00
  1.595911e+01    1.667660e+00
  1.599086e+01    1.598226e+00
  1.602261e+01    1.603953e+00
  1.605436e+01    1.627045e+00
  1.608611e+01    1.623059e+00
  1.611786e+01    1.609282e+00
  1.614961e+01    1.606408e+00
  1.618137e+01    1.548970e+00
  1.621312e+01    1.567878e+00
  1.624487e+01    1.531636e+00
  1.627662e+01    1.597296e+00
  1.630837e+01    1.533406e+00
  1.634012e+01    1.567181e+00
  1.637187e+01    1.561496e+00
  1.640362e+01    1.554654e+00
  1.643538e+01    1.536858e+00
  1.646713e+01    1.477462e+00
  1.649888e+01    1.521628e+00
  1.653063e+01    1.511869e+00
  1.656238e+01    1.518524e+00
  1.659413e+01    1.507289e+00
  1.662588e+01    1.500657e+00
  1.665763e+01    1.497503e+00
  1.668938e+01    1.502414e+00
  1.672114e+01    1.498764e+00
  1.675289e+01    1.489756e+00
  1.678464e+01    1.467682e+00
  1.681639e+01    1.479320e+00
  1.684814e+01    1.485195e+00
  1.687989e+01    1.450390e+00
  1.691164e+01    1.459690e+00
  1.694339e+01    1.427066e+00
  1.697514e+01    1.430219e+00
  1.700690e+01    1.438719e+00
  1.703865e+01    1.454541e+00
  1.707040e+01    1.473069e+00
  1.710215e+01    1.442590e+00
  1.713390e+01    1.455175e+00
  1.716565e+01    1.427300e+00
  1.719740e+01    1.412550e+00
  1.722915e+01    1.422971e+00
  1.726091e+01    1.394599e+00
  1.729266e+01    1.397489e+00
  1.732441e+01    1.369709e+00
  1.735616e+01    1.383137e+00
  1.738791e+01    1.372922e+00
  1.741966e+01    1.392904e+00
  1.745141e+01    1.374206e+00
  1.748316e+01    1.370942e+00
  1.751491e+01    1.417612e+00
  1.754667e+01    1.345045e+00
  1.757842e+01    1.368393e+00
  1.761017e+01    1.344537e+00
  1.764192e+01    1.376345e+00
  1.767367e+01    1.361749e+00
  1.770542e+01    1.328180e+00
  1.773717e+01    1.316021e+00
  1.776892e+01    1.364256e+00
  1.780067e+01    1.344798e+00
  1.783243e+01    1.314638e+00
  1.786418e+01    1.315323e+00
  1.789593e+01    1.335125e+00
  1.792768e+01    1.339087e+00
  1.795943e+01    1.307869e+00
  1.799118e+01    1.309277e+00
  1.802293e+01    1.304916e+00
  1.805468e+01    1.261010e+00
  1.808643e+01    1.291353e+00
  1.811819e+01    1.300525e+00
  1.814994e+01    1.286701e+00
  1.818169e+01    1.305083e+00
  1.821344e+01    1.304104e+00
  1.824519e+01    1.303705e+00
  1.827694e+01    1.289551e+00
  1.830869e+01    1.279171e+00
  1.834044e+01    1.278444e+00
  1.837220e+01    1.284777e+00
  1.840395e+01    1.257346e+00
  1.843570e+01    1.251735e+00
  1.846745e+01    1.237217e+00
  1.849920e+01    1.239443e+00
  1.853095e+01    1.263888e+00
  1.856270e+01    1.279168e+00
  1.859445e+01    1.243099e+00
  1.862620e+01    1.233499e+00
  1.865796e+01    1.230385e+00
  1.868971e+01    1.242099e+00
  1.872146e+01    1.240294e+00
  1.875321e+01    1.198058e+00
  1.878496e+01    1.251366e+00
  1.881671e+01    1.209630e+00
  1.884846e+01    1.214649e+00
  1.888021e+01    1.204024e+00
  1.891196e+01    1.231974e+00
  1.894372e+01    1.221169e+00
  1.897547e+01    1.188465e+00
  1.900722e+01    1.211802e+00
  1.903897e+01    1.202130e+00
  1.907072e+01    1.196903e+00
  1.910247e+01    1.206440e+00
  1.913422e+01    1.216223e+00
  1.916597e+01    1.185998e+00
  1.919773e+01    1.211760e+00
  1.922948e+01    1.224663e+00
  1.926123e+01    1.174468e+00
  1.929298e+01    1.155640e+00
  1.932473e+01    1.192441e+00
  1.935648e+01    1.181895e+00
  1.938823e+01    1.167860e+00
  1.941998e+01    1.182792e+00
  1.945173e+01    1.158484e+00
  1.948349e+01    1.159091e+00
  1.951524e+01    1.165472e+00
  1.954699e+01    1.165526e+00
  1.957874e+01    1.162475e+00
  1.961049e+01    1.156392e+00
  1.964224e+01    1.161724e+00
  1.967399e+01    1.130625e+00
  1.970574e+01    1.171687e+00
  1.973749e+01    1.158018e+00
  1.976925e+01    1.123082e+00
  1.980100e+01    1.143222e+00
  1.983275e+01    1.137220e+00
  1.986450e+01    1.125035e+00
  1.989625e+01    1.121084e+00
  1.992800e+01    1.112383e+00
  1.995975e+01    1.125374e+00
  1.999150e+01    1.113953e+00
  2.002325e+01    1.107036e+00
  2.005501e+01    1.113078e+00
  2.008676e+01    1.130985e+00
  2.011851e+01    1.089005e+00
  2.015026e+01    1.103120e+00
  2.018201e+01    1.113901e+00
  2.021376e+01    1.104231e+00
  2.024551e+01    1.106363e+00
  2.027726e+01    1.092996e+00
  2.030902e+01    1.094203e+00
  2.034077e+01    1.104950e+00
  2.037252e+01    1.099629e+00
  2.040427e+01    1.075083e+00
  2.043602e+01    1.103487e+00
  2.046777e+01    1.103758e+00
  2.049952e+01    1.115860e+00
  2.053127e+01    1.093015e+00
  2.056302e+01    1.067900e+00
  2.059478e+01    1.077275e+00
  2.062653e+01    1.053417e+00
  2.065828e+01    1.069367e+00
  2.069003e+01    1.069409e+00
  2.072178e+01    1.081201e+00
  2.075353e+01    1.084958e+00
  2.078528e+01    1.070548e+00
  2.081703e+01    1.092599e+00
  2.084878e+01    1.078491e+00
  2.088054e+01    1.049265e+00
  2.091229e+01    1.083991e+00
  2.094404e+01    1.096512e+00
  2.097579e+01    1.061418e+00
  2.100754e+01    1.055846e+00
  2.103929e+01    1.091743e+00
  2.107104e+01    1.063403e+00
  2.110279e+01    1.064270e+00
  2.113455e+01    1.097684e+00
  2.116630e+01    1.082221e+00
  2.119805e+01    1.089752e+00
  2.122980e+01    1.110274e+00
  2.126155e+01    1.108966e+00
  2.129330e+01    1.125417e+00
  2.132505e+01    1.140951e+00
  2.135680e+01    1.124704e+00
  2.138855e+01    1.136774e+00
  2.142031e+01    1.164916e+00
  2.145206e+01    1.206721e+00
  2.148381e+01    1.228329e+00
  2.151556e+01    1.310934e+00
  2.154731e+01    1.385416e+00
  2.157906e+01    1.478278e+00
  2.161081e+01    1.582885e+00
  2.164256e+01    1.803040e+00
  2.167431e+01    2.107720e+00
  2.170607e+01    2.608819e+00
  2.173782e+01    3.304094e+00
  2.176957e+01    4.288946e+00
  2.180132e+01    5.476863e+00
  2.183307e+01    6.854953e+00
  2.186482e+01    8.098569e+00
  2.189657e+01    8.725287e+00
  2.192832e+01    8.245914e+00
  2.196007e+01    6.512199e+00
  2.199183e+01    4.716555e+00
  2.202358e+01    3.482419e+00
  2.205533e+01    2.650580e+00
  2.208708e+01    2.184458e+00
  2.211883e+01    1.850720e+00
  2.215058e+01    1.612269e+00
  2.218233e+01    1.446065e+00
  2.221408e+01    1.349732e+00
  2.224584e+01    1.296004e+00
  2.227759e+01    1.214757e+00
  2.230934e+01    1.157805e+00
  2.234109e+01    1.130724e+00
  2.237284e+01    1.072883e+00
  2.240459e+01    1.074961e+00
  2.243634e+01    1.037161e+00
  2.246809e+01    1.037735e+00
  2.249984e+01    1.004040e+00
  2.253160e+01    9.845397e-01
  2.256335e+01    9.952077e-01
  2.259510e+01    9.953898e-01
  2.262685e+01    9.727200e-01
  2.265860e+01    9.709681e-01
  2.269035e+01    9.310526e-01
  2.272210e+01    9.548491e-01
  2.275385e+01    9.304770e-01
  2.278560e+01    9.517189e-01
  2.281736e+01    9.349673e-01
  2.284911e+01    9.253386e-01
  2.288086e+01    9.109393e-01
  2.291261e+01    9.298630e-01
  2.294436e+01    8.909927e-01
  2.297611e+01    9.168513e-01
  2.300786e+01    8.771586e-01
  2.303961e+01    9.126599e-01
  2.307137e+01    8.934191e-01
  2.310312e+01    8.735548e-01
  2.313487e+01    8.733756e-01
  2.316662e+01    8.468556e-01
  2.319837e+01    8.778830e-01
  2.323012e+01    8.907987e-01
  2.326187e+01    8.535296e-01
  2.329362e+01    8.612469e-01
  2.332537e+01    8.681371e-01
  2.335713e+01    8.782495e-01
  2.338888e+01    8.588731e-01
  2.342063e+01    8.619083e-01
  2.345238e+01    8.475508e-01
  2.348413e+01    8.503645e-01
  2.351588e+01    8.346107e-01
  2.354763e+01    8.357635e-01
  2.357938e+01    8.353058e-01
  2.361113e+01    8.414684e-01
  2.364289e+01    8.351012e-01
  2.367464e+01    8.457481e-01
  2.370639e+01    8.362285e-01
  2.373814e+01    8.245961e-01
  2.376989e+01    8.004206e-01
  2.380164e+01    8.188378e-01
  2.383339e+01    8.069293e-01
  2.386514e+01    8.145877e-01
  2.389689e+01    8.211405e-01
  2.392865e+01    7.929482e-01
  2.396040e+01    8.095950e-01
  2.399215e+01    7.976387e-01
  2.402390e+01    8.004337e-01
  2.405565e+01    7.904009e-01
  2.408740e+01    7.863387e-01
  2.411915e+01    7.954590e-01
  2.415090e+01    7.721475e-01
  2.418266e+01    7.932070e-01
  2.421441e+01    7.850132e-01
  2.424616e+01    7.913494e-01
  2.427791e+01    7.882823e-01
  2.430966e+01    7.907217e-01
  2.434141e+01    7.869943e-01
  2.437316e+01    7.990988e-01
  2.440491e+01    7.947739e-01
  2.443666e+01    7.982047e-01
  2.446842e+01    8.059784e-01
  2.450017e+01    7.726572e-01
  2.453192e+01    7.965735e-01
  2.456367e+01    7.875860e-01
  2.459542e+01    8.013285e-01
  2.462717e+01    7.840025e-01
  2.465892e+01    7.966870e-01
  2.469067e+01    7.943383e-01
  2.472242e+01    7.730316e-01
  2.475418e+01    8.022711e-01
  2.478593e+01    7.766163e-01
  2.481768e+01    7.738577e-01
  2.484943e+01    7.989672e-01
  2.488118e+01    7.744078e-01
  2.491293e+01    7.893452e-01
  2.494468e+01    7.865766e-01
  2.497643e+01    7.970488e-01
  2.500819e+01    8.043136e-01
  2.503994e+01    7.662171e-01
  2.507169e+01    8.004817e-01
  2.510344e+01    7.963514e-01
  2.513519e+01    8.041952e-01
  2.516694e+01    8.274784e-01
  2.519869e+01    8.449200e-01
  2.523044e+01    8.321111e-01
  2.526219e+01    8.309393e-01
  2.529395e+01    8.607279e-01
  2.532570e+01    8.598241e-01
  2.535745e+01    8.839896e-01
  2.538920e+01    8.797261e-01
  2.542095e+01    8.982503e-01
  2.545270e+01    9.400619e-01
  2.548445e+01    9.466995e-01
  2.551620e+01    9.756095e-01
  2.554795e+01    1.037759e+00
  2.557971e+01    1.062288e+00
  2.561146e+01    1.116255e+00
  2.564321e+01    1.205204e+00
  2.567496e+01    1.325680e+00
  2.570671e+01    1.486443e+00
  2.573846e+01    1.740392e+00
  2.577021e+01    2.075091e+00
  2.580196e+01    2.646390e+00
  2.583371e+01    3.436082e+00
  2.586547e+01    4.458328e+00
  2.589722e+01    5.593552e+00
  2.592897e+01    6.647492e+00
  2.596072e+01    7.088272e+00
  2.599247e+01    6.602131e+00
  2.602422e+01    5.378433e+00
  2.605597e+01    4.048291e+00
  2.608772e+01    2.999415e+00
  2.611948e+01    2.256242e+00
  2.615123e+01    1.864569e+00
  2.618298e+01    1.559246e+00
  2.621473e+01    1.361656e+00
  2.624648e+01    1.226228e+00
  2.627823e+01    1.153164e+00
  2.630998e+01    1.083952e+00
  2.634173e+01    1.027634e+00
  2.637348e+01    9.765605e-01
  2.640524e+01    9.668166e-01
  2.643699e+01    9.193847e-01
  2.646874e+01    9.209573e-01
  2.650049e+01    9.271311e-01
  2.653224e+01    9.055920e-01
  2.656399e+01    9.076130e-01
  2.659574e+01    8.835537e-01
  2.662749e+01    8.708551e-01
  2.665924e+01    8.880176e-01
  2.669100e+01    8.942650e-01
  2.672275e+01    8.827464e-01
  2.675450e+01    9.056066e-01
  2.678625e+01    8.960211e-01
  2.681800e+01    8.630266e-01
  2.684975e+01    8.724543e-01
  2.688150e+01    9.214543e-01
  2.691325e+01    9.041355e-01
  2.694501e+01    9.388942e-01
  2.697676e+01    9.539919e-01
  2.700851e+01    1.012495e+00
  2.704026e+01    1.097884e+00
  2.707201e+01    1.213786e+00
  2.710376e+01    1.401618e+00
  2.713551e+01    1.631997e+00
  2.716726e+01    1.890265e+00
  2.719901e+01    2.078083e+00
  2.723077e+01    2.146598e+00
  2.726252e+01    1.966850e+00
  2.729427e+01    1.679104e+00
  2.732602e+01    1.375661e+00
  2.735777e+01    1.199263e+00
  2.738952e+01    1.082220e+00
  2.742127e+01    1.034552e+00
  2.745302e+01    9.443883e-01
  2.748477e+01    9.311848e-01
  2.751653e+01    8.877650e-01
  2.754828e+01    8.619493e-01
  2.758003e+01    8.454235e-01
  2.761178e+01    8.269141e-01
  2.764353e+01    8.338335e-01
  2.767528e+01    8.213511e-01
  2.770703e+01    8.196796e-01
  2.773878e+01    7.998108e-01
  2.777054e+01    8.149329e-01
  2.780229e+01    7.882474e-01
  2.783404e+01    7.960938e-01
  2.786579e+01    7.889138e-01
  2.789754e+01    8.020957e-01
  2.792929e+01    8.091755e-01
  2.796104e+01    7.823151e-01
  2.799279e+01    7.788843e-01
  2.802454e+01    7.759724e-01
  2.805630e+01    7.685177e-01
  2.808805e+01    7.716528e-01
  2.811980e+01    7.402200e-01
  2.815155e+01    7.544164e-01
  2.818330e+01    7.716835e-01
  2.821505e+01    7.444910e-01
  2.824680e+01    7.709049e-01
  2.827855e+01    7.656861e-01
  2.831030e+01    7.671176e-01
  2.834206e+01    7.457930e-01
  2.837381e+01    7.474380e-01
  2.840556e+01    7.692150e-01
  2.843731e+01    7.519261e-01
  2.846906e+01    7.551588e-01
  2.850081e+01    7.592794e-01
  2.853256e+01    7.304887e-01
  2.856431e+01    7.437213e-01
  2.859606e+01    7.589017e-01
  2.862782e+01    7.462487e-01
  2.865957e+01    7.331411e-01
  2.869132e+01    7.512873e-01
  2.872307e+01    7.411860e-01
  2.875482e+01    7.493731e-01
  2.878657e+01    7.396152e-01
  2.881832e+01    7.419778e-01
  2.885007e+01    7.270556e-01
  2.888183e+01    7.655330e-01
  2.891358e+01    7.421629e-01
  2.894533e+01    7.292275e-01
  2.897708e+01    7.293910e-01
  2.900883e+01    7.363012e-01
  2.904058e+01    7.307535e-01
  2.907233e+01    7.210141e-01
  2.910408e+01    7.298010e-01
  2.913583e+01    7.240120e-01
  2.916759e+01    7.356678e-01
  2.919934e+01    7.166004e-01
  2.923109e+01    7.223643e-01
  2.926284e+01    7.255946e-01
  2.929459e+01    7.223812e-01
  2.932634e+01    7.261713e-01
  2.935809e+01    7.234560e-01
  2.938984e+01    7.034132e-01
  2.942159e+01    7.278062e-01
  2.945335e+01    7.210323e-01
  2.948510e+01    7.041889e-01
  2.951685e+01    7.312323e-01
  2.954860e+01    7.347410e-01
  2.958035e+01    7.409164e-01
  2.961210e+01    6.984350e-01
  2.964385e+01    7.282908e-01
  2.967560e+01    7.339130e-01
  2.970736e+01    7.207198e-01
  2.973911e+01    7.423081e-01
  2.977086e+01    7.106391e-01
  2.980261e+01    7.331611e-01
  2.983436e+01    7.158360e-01
  2.986611e+01    7.216657e-01
  2.989786e+01    7.191531e-01
  2.992961e+01    7.229981e-01
  2.996136e+01    7.258494e-01
  2.999312e+01    7.235193e-01
  3.002487e+01    7.220663e-01
  3.005662e+01    7.324904e-01
  3.008837e+01    7.092934e-01
  3.012012e+01    7.279073e-01
  3.015187e+01    7.055317e-01
  3.018362e+01    7.045734e-01
  3.021537e+01    6.980556e-01
  3.024712e+01    7.132171e-01
  3.027888e+01    7.066396e-01
  3.031063e+01    7.227378e-01
  3.034238e+01    6.930215e-01
  3.037413e+01    7.133530e-01
  3.040588e+01    6.921347e-01
  3.043763e+01    6.801507e-01
  3.046938e+01    7.256512e-01
  3.050113e+01    7.049753e-01
  3.053288e+01    7.104238e-01
  3.056464e+01    6.970376e-01
  3.059639e+01    7.097741e-01
  3.062814e+01    7.156354e-01
  3.065989e+01    7.129971e-01
  3.069164e+01    7.149870e-01
  3.072339e+01    7.135782e-01
  3.075514e+01    7.162536e-01
  3.078689e+01    7.073452e-01
  3.081865e+01    7.223355e-01
  3.085040e+01    7.245564e-01
  3.088215e+01    6.965633e-01
  3.091390e+01    6.992252e-01
  3.094565e+01    7.154033e-01
  3.097740e+01    7.230132e-01
  3.100915e+01    6.962751e-01
  3.104090e+01    7.290265e-01
  3.107265e+01    7.125686e-01
  3.110441e+01    7.204734e-01
  3.113616e+01    7.191058e-01
  3.116791e+01    6.900651e-01
  3.119966e+01    7.245909e-01
  3.123141e+01    7.169456e-01
  3.126316e+01    7.408627e-01
  3.129491e+01    7.281799e-01
  3.132666e+01    6.878574e-01
  3.135841e+01    7.327565e-01
  3.139017e+01    7.424816e-01
  3.142192e+01    7.548847e-01
  3.145367e+01    7.328104e-01
  3.148542e+01    7.411299e-01
  3.151717e+01    7.610035e-01
  3.154892e+01    7.638348e-01
  3.158067e+01    7.813281e-01
  3.161242e+01    8.326297e-01
  3.164418e+01    8.555667e-01
  3.167593e+01    9.049298e-01
  3.170768e+01    9.627342e-01
  3.173943e+01    1.033412e+00
  3.177118e+01    1.217655e+00
  3.180293e+01    1.386771e+00
  3.183468e+01    1.668100e+00
  3.186643e+01    1.944604e+00
  3.189818e+01    2.115618e+00
  3.192994e+01    2.076151e+00
  3.196169e+01    1.829468e+00
  3.199344e+01    1.514583e+00
  3.202519e+01    1.284543e+00
  3.205694e+01    1.116422e+00
  3.208869e+01    9.681074e-01
  3.212044e+01    9.146495e-01
  3.215219e+01    8.448331e-01
  3.218394e+01    8.150645e-01
  3.221570e+01    7.960954e-01
  3.224745e+01    7.742047e-01
  3.227920e+01    7.479966e-01
  3.231095e+01    7.467830e-01
  3.234270e+01    7.416817e-01
  3.237445e+01    7.384923e-01
  3.240620e+01    6.958225e-01
  3.243795e+01    7.308524e-01
  3.246970e+01    7.169560e-01
  3.250146e+01    7.236624e-01
  3.253321e+01    6.986708e-01
  3.254908e+01    7.031366e-01