File: XRD/2024-07-27_002_Ru-CGO-ex_Activtation_ramp_000002_data_000039.dat
# == pyFAI calibration ==
# Distance Sample to Detector: 0.4 m
# PONI: 9.750e-02, 1.135e-01 m
# Rotations: -0.000175 0.000000 -0.000000 rad
#
# == Fit2d calibration ==
# Distance Sample-beamCenter: 400.000 mm
# Center: x=1514.000, y=1300.000 pix
# Tilt: 0.010 deg  TiltPlanRot: 0.010 deg
#
# Detector Detector	 Spline= None	 PixelSize= 7.500e-05, 7.500e-05 m
#    Detector has a mask: False
#    Detector has a dark current: False
#    detector has a flat field: False
#
# Wavelength: 6.888e-11 m
# Mask applied: user provided
# Dark current applied: False
# Flat field applied: False
# Polarization factor: 0.99
# Normalization factor: 1.0
# --> /home/myspot/data/2024_07_Rosario/Ru-CGO-ex/2024-07-27_002_Ru-CGO-ex_Activtation_ramp_000002_data_000039.dat
#       q_nm^-1             I
  2.003187e-02    0.000000e+00
  5.178302e-02    9.498685e-02
  8.353417e-02    6.532367e-02
  1.152853e-01    2.007114e-01
  1.470365e-01    1.405152e-01
  1.787876e-01    2.043732e-03
  2.105388e-01    4.962958e-02
  2.422899e-01    7.071993e-02
  2.740411e-01    9.261700e-04
  3.057922e-01    3.558065e-02
  3.375433e-01    2.395309e-02
  3.692945e-01    3.284403e-02
  4.010456e-01    2.933195e-02
  4.327968e-01    3.565953e-02
  4.645479e-01    6.614006e-02
  4.962991e-01    5.167970e-02
  5.280502e-01    3.504387e-02
  5.598014e-01    5.721927e-02
  5.915525e-01    3.546764e-02
  6.233037e-01    3.081753e-02
  6.550548e-01    5.368066e-02
  6.868060e-01    3.922617e-02
  7.185571e-01    4.358053e-02
  7.503083e-01    4.234963e-02
  7.820594e-01    1.145674e-01
  8.138106e-01    1.484115e-01
  8.455617e-01    3.714277e-01
  8.773129e-01    4.121849e-01
  9.090640e-01    5.824500e-01
  9.408152e-01    7.288147e-01
  9.725663e-01    9.017425e-01
  1.004317e+00    1.036434e+00
  1.036069e+00    1.248410e+00
  1.067820e+00    1.289074e+00
  1.099571e+00    1.440434e+00
  1.131322e+00    1.475367e+00
  1.163073e+00    1.386368e+00
  1.194824e+00    1.643704e+00
  1.226575e+00    2.140754e+00
  1.258327e+00    2.283589e+00
  1.290078e+00    2.481302e+00
  1.321829e+00    2.592264e+00
  1.353580e+00    2.527114e+00
  1.385331e+00    2.720156e+00
  1.417082e+00    2.712396e+00
  1.448834e+00    2.812024e+00
  1.480585e+00    2.878028e+00
  1.512336e+00    2.854475e+00
  1.544087e+00    3.099566e+00
  1.575838e+00    3.020975e+00
  1.607589e+00    2.980048e+00
  1.639340e+00    2.842619e+00
  1.671092e+00    2.854343e+00
  1.702843e+00    2.955561e+00
  1.734594e+00    2.921462e+00
  1.766345e+00    2.772944e+00
  1.798096e+00    2.864258e+00
  1.829847e+00    2.875563e+00
  1.861598e+00    2.767253e+00
  1.893350e+00    2.906220e+00
  1.925101e+00    2.751299e+00
  1.956852e+00    2.767201e+00
  1.988603e+00    2.821183e+00
  2.020354e+00    2.772496e+00
  2.052105e+00    2.759816e+00
  2.083856e+00    2.766894e+00
  2.115608e+00    2.751145e+00
  2.147359e+00    2.755623e+00
  2.179110e+00    2.711918e+00
  2.210861e+00    2.705814e+00
  2.242612e+00    2.708571e+00
  2.274363e+00    2.747450e+00
  2.306115e+00    2.759427e+00
  2.337866e+00    2.808592e+00
  2.369617e+00    2.712741e+00
  2.401368e+00    2.700260e+00
  2.433119e+00    2.811396e+00
  2.464870e+00    2.875663e+00
  2.496621e+00    2.798693e+00
  2.528373e+00    2.876020e+00
  2.560124e+00    2.775700e+00
  2.591875e+00    2.834629e+00
  2.623626e+00    2.842593e+00
  2.655377e+00    2.783935e+00
  2.687128e+00    2.851904e+00
  2.718879e+00    2.785651e+00
  2.750631e+00    2.891370e+00
  2.782382e+00    2.919538e+00
  2.814133e+00    2.883714e+00
  2.845884e+00    2.922529e+00
  2.877635e+00    2.841702e+00
  2.909386e+00    2.902642e+00
  2.941137e+00    2.880131e+00
  2.972889e+00    2.890286e+00
  3.004640e+00    2.829731e+00
  3.036391e+00    3.019325e+00
  3.068142e+00    2.884387e+00
  3.099893e+00    2.911130e+00
  3.131644e+00    3.007298e+00
  3.163395e+00    2.838881e+00
  3.195147e+00    3.055898e+00
  3.226898e+00    2.994809e+00
  3.258649e+00    2.906348e+00
  3.290400e+00    2.942780e+00
  3.322151e+00    3.007035e+00
  3.353902e+00    2.909600e+00
  3.385654e+00    2.975149e+00
  3.417405e+00    3.002605e+00
  3.449156e+00    2.936151e+00
  3.480907e+00    2.961647e+00
  3.512658e+00    2.957947e+00
  3.544409e+00    2.994433e+00
  3.576160e+00    2.982614e+00
  3.607912e+00    2.948167e+00
  3.639663e+00    2.954683e+00
  3.671414e+00    2.910379e+00
  3.703165e+00    3.015261e+00
  3.734916e+00    2.922834e+00
  3.766667e+00    2.959996e+00
  3.798418e+00    3.002826e+00
  3.830170e+00    2.983865e+00
  3.861921e+00    2.909296e+00
  3.893672e+00    3.037021e+00
  3.925423e+00    3.075748e+00
  3.957174e+00    3.090506e+00
  3.988925e+00    3.006232e+00
  4.020676e+00    3.056468e+00
  4.052428e+00    3.009748e+00
  4.084179e+00    3.068405e+00
  4.115930e+00    3.060652e+00
  4.147681e+00    3.008027e+00
  4.179432e+00    3.052602e+00
  4.211183e+00    2.947937e+00
  4.242935e+00    2.991796e+00
  4.274686e+00    3.005961e+00
  4.306437e+00    3.067973e+00
  4.338188e+00    3.027630e+00
  4.369939e+00    3.002105e+00
  4.401690e+00    3.031339e+00
  4.433441e+00    3.058239e+00
  4.465193e+00    3.061404e+00
  4.496944e+00    3.064514e+00
  4.528695e+00    3.112706e+00
  4.560446e+00    3.102021e+00
  4.592197e+00    3.052665e+00
  4.623948e+00    3.050253e+00
  4.655699e+00    3.052089e+00
  4.687451e+00    3.070841e+00
  4.719202e+00    3.137379e+00
  4.750953e+00    3.170869e+00
  4.782704e+00    3.137734e+00
  4.814455e+00    3.171585e+00
  4.846206e+00    3.121000e+00
  4.877957e+00    3.200509e+00
  4.909709e+00    3.159890e+00
  4.941460e+00    3.142037e+00
  4.973211e+00    3.141562e+00
  5.004962e+00    3.114799e+00
  5.036713e+00    3.097653e+00
  5.068464e+00    3.164388e+00
  5.100216e+00    3.213151e+00
  5.131967e+00    3.186778e+00
  5.163718e+00    3.094025e+00
  5.195469e+00    3.118180e+00
  5.227220e+00    3.069302e+00
  5.258971e+00    3.143109e+00
  5.290722e+00    3.128840e+00
  5.322474e+00    3.144731e+00
  5.354225e+00    3.087326e+00
  5.385976e+00    3.159641e+00
  5.417727e+00    3.063255e+00
  5.449478e+00    2.958720e+00
  5.481229e+00    2.985580e+00
  5.512980e+00    3.106719e+00
  5.544732e+00    3.004136e+00
  5.576483e+00    3.163311e+00
  5.608234e+00    3.099315e+00
  5.639985e+00    3.141960e+00
  5.671736e+00    3.065921e+00
  5.703487e+00    3.060431e+00
  5.735238e+00    3.180807e+00
  5.766990e+00    3.033131e+00
  5.798741e+00    3.065996e+00
  5.830492e+00    3.058547e+00
  5.862243e+00    2.986516e+00
  5.893994e+00    3.065281e+00
  5.925745e+00    2.955819e+00
  5.957497e+00    3.000988e+00
  5.989248e+00    2.996741e+00
  6.020999e+00    2.995948e+00
  6.052750e+00    3.136968e+00
  6.084501e+00    3.139158e+00
  6.116252e+00    2.999013e+00
  6.148003e+00    3.024448e+00
  6.179755e+00    3.128135e+00
  6.211506e+00    3.031989e+00
  6.243257e+00    3.071110e+00
  6.275008e+00    3.132861e+00
  6.306759e+00    3.011236e+00
  6.338510e+00    2.948630e+00
  6.370261e+00    3.036191e+00
  6.402013e+00    2.930333e+00
  6.433764e+00    3.010175e+00
  6.465515e+00    3.095433e+00
  6.497266e+00    3.037927e+00
  6.529017e+00    2.981173e+00
  6.560768e+00    2.981215e+00
  6.592519e+00    3.078920e+00
  6.624271e+00    3.051467e+00
  6.656022e+00    3.005967e+00
  6.687773e+00    3.035838e+00
  6.719524e+00    3.041416e+00
  6.751275e+00    3.001922e+00
  6.783026e+00    3.091063e+00
  6.814777e+00    3.047319e+00
  6.846529e+00    3.002307e+00
  6.878280e+00    3.036619e+00
  6.910031e+00    3.009084e+00
  6.941782e+00    3.021935e+00
  6.973533e+00    2.936520e+00
  7.005284e+00    3.036967e+00
  7.037036e+00    3.089465e+00
  7.068787e+00    3.037048e+00
  7.100538e+00    2.991544e+00
  7.132289e+00    2.950258e+00
  7.164040e+00    3.049169e+00
  7.195791e+00    3.046253e+00
  7.227542e+00    2.995576e+00
  7.259294e+00    2.962354e+00
  7.291045e+00    3.006171e+00
  7.322796e+00    2.993820e+00
  7.354547e+00    3.028882e+00
  7.386298e+00    2.981138e+00
  7.418049e+00    3.024895e+00
  7.449800e+00    3.014434e+00
  7.481552e+00    3.042154e+00
  7.513303e+00    2.985118e+00
  7.545054e+00    3.024897e+00
  7.576805e+00    3.020667e+00
  7.608556e+00    2.928725e+00
  7.640307e+00    2.945227e+00
  7.672058e+00    3.007349e+00
  7.703810e+00    2.942629e+00
  7.735561e+00    2.968762e+00
  7.767312e+00    3.013837e+00
  7.799063e+00    2.995138e+00
  7.830814e+00    2.953387e+00
  7.862565e+00    2.890348e+00
  7.894317e+00    2.960727e+00
  7.926068e+00    2.972607e+00
  7.957819e+00    2.967340e+00
  7.989570e+00    2.959725e+00
  8.021321e+00    2.921450e+00
  8.053072e+00    2.923926e+00
  8.084823e+00    2.950673e+00
  8.116575e+00    2.927917e+00
  8.148326e+00    2.972950e+00
  8.180077e+00    2.917422e+00
  8.211828e+00    2.974907e+00
  8.243579e+00    2.971226e+00
  8.275330e+00    2.947229e+00
  8.307081e+00    2.925516e+00
  8.338833e+00    2.882831e+00
  8.370584e+00    2.933181e+00
  8.402335e+00    2.878318e+00
  8.434086e+00    2.860115e+00
  8.465837e+00    2.835182e+00
  8.497588e+00    2.922362e+00
  8.529339e+00    2.834432e+00
  8.561091e+00    2.894344e+00
  8.592842e+00    2.902285e+00
  8.624593e+00    2.889048e+00
  8.656344e+00    2.893667e+00
  8.688095e+00    2.904553e+00
  8.719846e+00    2.902189e+00
  8.751598e+00    2.848478e+00
  8.783349e+00    2.870829e+00
  8.815100e+00    2.831844e+00
  8.846851e+00    2.877835e+00
  8.878602e+00    2.843562e+00
  8.910353e+00    2.877887e+00
  8.942104e+00    2.885748e+00
  8.973856e+00    2.893043e+00
  9.005607e+00    2.822448e+00
  9.037358e+00    2.817447e+00
  9.069109e+00    2.776421e+00
  9.100860e+00    2.821602e+00
  9.132611e+00    2.823824e+00
  9.164362e+00    2.814388e+00
  9.196114e+00    2.814823e+00
  9.227865e+00    2.805903e+00
  9.259616e+00    2.722365e+00
  9.291367e+00    2.782580e+00
  9.323118e+00    2.781092e+00
  9.354869e+00    2.801101e+00
  9.386620e+00    2.839489e+00
  9.418372e+00    2.809789e+00
  9.450123e+00    2.741946e+00
  9.481874e+00    2.777943e+00
  9.513625e+00    2.754143e+00
  9.545376e+00    2.752137e+00
  9.577127e+00    2.708231e+00
  9.608878e+00    2.750221e+00
  9.640630e+00    2.784596e+00
  9.672381e+00    2.732451e+00
  9.704132e+00    2.774508e+00
  9.735883e+00    2.724656e+00
  9.767634e+00    2.722045e+00
  9.799385e+00    2.713792e+00
  9.831137e+00    2.715513e+00
  9.862888e+00    2.718214e+00
  9.894639e+00    2.650725e+00
  9.926390e+00    2.720186e+00
  9.958141e+00    2.732650e+00
  9.989892e+00    2.672483e+00
  1.002164e+01    2.674187e+00
  1.005339e+01    2.609874e+00
  1.008515e+01    2.678542e+00
  1.011690e+01    2.679387e+00
  1.014865e+01    2.743459e+00
  1.018040e+01    2.621857e+00
  1.021215e+01    2.677896e+00
  1.024390e+01    2.591755e+00
  1.027565e+01    2.624685e+00
  1.030740e+01    2.639938e+00
  1.033915e+01    2.637233e+00
  1.037091e+01    2.620573e+00
  1.040266e+01    2.605977e+00
  1.043441e+01    2.646502e+00
  1.046616e+01    2.601584e+00
  1.049791e+01    2.585068e+00
  1.052966e+01    2.642941e+00
  1.056141e+01    2.565017e+00
  1.059316e+01    2.580333e+00
  1.062492e+01    2.505432e+00
  1.065667e+01    2.574373e+00
  1.068842e+01    2.553355e+00
  1.072017e+01    2.576777e+00
  1.075192e+01    2.554843e+00
  1.078367e+01    2.607228e+00
  1.081542e+01    2.563999e+00
  1.084717e+01    2.507972e+00
  1.087892e+01    2.551616e+00
  1.091068e+01    2.550826e+00
  1.094243e+01    2.477360e+00
  1.097418e+01    2.520187e+00
  1.100593e+01    2.507318e+00
  1.103768e+01    2.496155e+00
  1.106943e+01    2.495653e+00
  1.110118e+01    2.455225e+00
  1.113293e+01    2.475789e+00
  1.116468e+01    2.471382e+00
  1.119644e+01    2.491189e+00
  1.122819e+01    2.459841e+00
  1.125994e+01    2.478886e+00
  1.129169e+01    2.450459e+00
  1.132344e+01    2.478419e+00
  1.135519e+01    2.432632e+00
  1.138694e+01    2.431778e+00
  1.141869e+01    2.372397e+00
  1.145045e+01    2.418527e+00
  1.148220e+01    2.420901e+00
  1.151395e+01    2.449577e+00
  1.154570e+01    2.412959e+00
  1.157745e+01    2.402526e+00
  1.160920e+01    2.446996e+00
  1.164095e+01    2.393170e+00
  1.167270e+01    2.365953e+00
  1.170445e+01    2.395637e+00
  1.173621e+01    2.394155e+00
  1.176796e+01    2.391484e+00
  1.179971e+01    2.405709e+00
  1.183146e+01    2.399742e+00
  1.186321e+01    2.343276e+00
  1.189496e+01    2.369077e+00
  1.192671e+01    2.357401e+00
  1.195846e+01    2.313910e+00
  1.199021e+01    2.337086e+00
  1.202197e+01    2.374800e+00
  1.205372e+01    2.370995e+00
  1.208547e+01    2.333139e+00
  1.211722e+01    2.313635e+00
  1.214897e+01    2.322697e+00
  1.218072e+01    2.324880e+00
  1.221247e+01    2.325187e+00
  1.224422e+01    2.342443e+00
  1.227597e+01    2.327554e+00
  1.230773e+01    2.367626e+00
  1.233948e+01    2.344134e+00
  1.237123e+01    2.317541e+00
  1.240298e+01    2.390934e+00
  1.243473e+01    2.387577e+00
  1.246648e+01    2.310628e+00
  1.249823e+01    2.404485e+00
  1.252998e+01    2.419388e+00
  1.256174e+01    2.401998e+00
  1.259349e+01    2.422903e+00
  1.262524e+01    2.382659e+00
  1.265699e+01    2.477729e+00
  1.268874e+01    2.426053e+00
  1.272049e+01    2.532676e+00
  1.275224e+01    2.564421e+00
  1.278399e+01    2.655999e+00
  1.281574e+01    2.716061e+00
  1.284750e+01    2.873904e+00
  1.287925e+01    3.081917e+00
  1.291100e+01    3.259735e+00
  1.294275e+01    3.704520e+00
  1.297450e+01    4.297066e+00
  1.300625e+01    5.278410e+00
  1.303800e+01    6.741614e+00
  1.306975e+01    9.140033e+00
  1.310150e+01    1.204477e+01
  1.313326e+01    1.514724e+01
  1.316501e+01    1.790700e+01
  1.319676e+01    1.946775e+01
  1.322851e+01    1.777559e+01
  1.326026e+01    1.340559e+01
  1.329201e+01    9.399246e+00
  1.332376e+01    6.812309e+00
  1.335551e+01    5.235240e+00
  1.338727e+01    4.290327e+00
  1.341902e+01    3.716154e+00
  1.345077e+01    3.251780e+00
  1.348252e+01    3.009539e+00
  1.351427e+01    2.803131e+00
  1.354602e+01    2.692863e+00
  1.357777e+01    2.591691e+00
  1.360952e+01    2.457517e+00
  1.364127e+01    2.391223e+00
  1.367303e+01    2.401760e+00
  1.370478e+01    2.318578e+00
  1.373653e+01    2.244750e+00
  1.376828e+01    2.229024e+00
  1.380003e+01    2.189514e+00
  1.383178e+01    2.210002e+00
  1.386353e+01    2.174546e+00
  1.389528e+01    2.137899e+00
  1.392703e+01    2.094539e+00
  1.395879e+01    2.088733e+00
  1.399054e+01    2.087974e+00
  1.402229e+01    2.081269e+00
  1.405404e+01    2.099820e+00
  1.408579e+01    2.056322e+00
  1.411754e+01    2.042595e+00
  1.414929e+01    2.047004e+00
  1.418104e+01    2.059856e+00
  1.421279e+01    2.013239e+00
  1.424455e+01    2.012640e+00
  1.427630e+01    1.989344e+00
  1.430805e+01    1.966895e+00
  1.433980e+01    2.030579e+00
  1.437155e+01    1.970723e+00
  1.440330e+01    1.950523e+00
  1.443505e+01    1.956921e+00
  1.446680e+01    2.003156e+00
  1.449856e+01    1.939699e+00
  1.453031e+01    1.910023e+00
  1.456206e+01    1.915120e+00
  1.459381e+01    1.957702e+00
  1.462556e+01    1.937830e+00
  1.465731e+01    1.876431e+00
  1.468906e+01    1.953224e+00
  1.472081e+01    1.890888e+00
  1.475256e+01    1.968344e+00
  1.478432e+01    1.916758e+00
  1.481607e+01    1.950579e+00
  1.484782e+01    1.956223e+00
  1.487957e+01    1.958209e+00
  1.491132e+01    1.962284e+00
  1.494307e+01    1.979212e+00
  1.497482e+01    2.091763e+00
  1.500657e+01    2.148629e+00
  1.503832e+01    2.294212e+00
  1.507008e+01    2.493069e+00
  1.510183e+01    2.775979e+00
  1.513358e+01    3.264721e+00
  1.516533e+01    3.977675e+00
  1.519708e+01    4.825500e+00
  1.522883e+01    5.661942e+00
  1.526058e+01    6.280717e+00
  1.529233e+01    6.676039e+00
  1.532409e+01    5.994029e+00
  1.535584e+01    4.829621e+00
  1.538759e+01    3.788216e+00
  1.541934e+01    3.054230e+00
  1.545109e+01    2.586491e+00
  1.548284e+01    2.347451e+00
  1.551459e+01    2.126420e+00
  1.554634e+01    2.089962e+00
  1.557809e+01    1.960681e+00
  1.560985e+01    1.863645e+00
  1.564160e+01    1.846665e+00
  1.567335e+01    1.826696e+00
  1.570510e+01    1.793675e+00
  1.573685e+01    1.765165e+00
  1.576860e+01    1.732218e+00
  1.580035e+01    1.723480e+00
  1.583210e+01    1.703054e+00
  1.586385e+01    1.734180e+00
  1.589561e+01    1.671945e+00
  1.592736e+01    1.658429e+00
  1.595911e+01    1.618507e+00
  1.599086e+01    1.626839e+00
  1.602261e+01    1.609578e+00
  1.605436e+01    1.603607e+00
  1.608611e+01    1.600738e+00
  1.611786e+01    1.600003e+00
  1.614961e+01    1.601264e+00
  1.618137e+01    1.585224e+00
  1.621312e+01    1.588078e+00
  1.624487e+01    1.567329e+00
  1.627662e+01    1.531528e+00
  1.630837e+01    1.534139e+00
  1.634012e+01    1.562884e+00
  1.637187e+01    1.544145e+00
  1.640362e+01    1.527860e+00
  1.643538e+01    1.547161e+00
  1.646713e+01    1.529003e+00
  1.649888e+01    1.552066e+00
  1.653063e+01    1.532252e+00
  1.656238e+01    1.463789e+00
  1.659413e+01    1.519248e+00
  1.662588e+01    1.497283e+00
  1.665763e+01    1.479125e+00
  1.668938e+01    1.492146e+00
  1.672114e+01    1.520570e+00
  1.675289e+01    1.512081e+00
  1.678464e+01    1.495564e+00
  1.681639e+01    1.491836e+00
  1.684814e+01    1.477097e+00
  1.687989e+01    1.470182e+00
  1.691164e+01    1.478034e+00
  1.694339e+01    1.472639e+00
  1.697514e+01    1.464848e+00
  1.700690e+01    1.453060e+00
  1.703865e+01    1.435768e+00
  1.707040e+01    1.466570e+00
  1.710215e+01    1.394057e+00
  1.713390e+01    1.425576e+00
  1.716565e+01    1.428577e+00
  1.719740e+01    1.402331e+00
  1.722915e+01    1.440715e+00
  1.726091e+01    1.440922e+00
  1.729266e+01    1.401159e+00
  1.732441e+01    1.400312e+00
  1.735616e+01    1.402572e+00
  1.738791e+01    1.403735e+00
  1.741966e+01    1.369004e+00
  1.745141e+01    1.358333e+00
  1.748316e+01    1.383169e+00
  1.751491e+01    1.362926e+00
  1.754667e+01    1.377747e+00
  1.757842e+01    1.369138e+00
  1.761017e+01    1.330730e+00
  1.764192e+01    1.367178e+00
  1.767367e+01    1.357626e+00
  1.770542e+01    1.343291e+00
  1.773717e+01    1.363372e+00
  1.776892e+01    1.331220e+00
  1.780067e+01    1.374300e+00
  1.783243e+01    1.360325e+00
  1.786418e+01    1.355801e+00
  1.789593e+01    1.334914e+00
  1.792768e+01    1.350732e+00
  1.795943e+01    1.313940e+00
  1.799118e+01    1.319575e+00
  1.802293e+01    1.311572e+00
  1.805468e+01    1.299046e+00
  1.808643e+01    1.327091e+00
  1.811819e+01    1.294812e+00
  1.814994e+01    1.292173e+00
  1.818169e+01    1.301936e+00
  1.821344e+01    1.285619e+00
  1.824519e+01    1.283568e+00
  1.827694e+01    1.292315e+00
  1.830869e+01    1.246523e+00
  1.834044e+01    1.289819e+00
  1.837220e+01    1.268811e+00
  1.840395e+01    1.261004e+00
  1.843570e+01    1.259334e+00
  1.846745e+01    1.236079e+00
  1.849920e+01    1.247476e+00
  1.853095e+01    1.218410e+00
  1.856270e+01    1.261401e+00
  1.859445e+01    1.258158e+00
  1.862620e+01    1.232991e+00
  1.865796e+01    1.260832e+00
  1.868971e+01    1.235695e+00
  1.872146e+01    1.252340e+00
  1.875321e+01    1.228965e+00
  1.878496e+01    1.249059e+00
  1.881671e+01    1.199917e+00
  1.884846e+01    1.203691e+00
  1.888021e+01    1.244677e+00
  1.891196e+01    1.240498e+00
  1.894372e+01    1.208144e+00
  1.897547e+01    1.208401e+00
  1.900722e+01    1.223246e+00
  1.903897e+01    1.207746e+00
  1.907072e+01    1.219548e+00
  1.910247e+01    1.168442e+00
  1.913422e+01    1.188717e+00
  1.916597e+01    1.199660e+00
  1.919773e+01    1.196158e+00
  1.922948e+01    1.180360e+00
  1.926123e+01    1.190195e+00
  1.929298e+01    1.194285e+00
  1.932473e+01    1.179151e+00
  1.935648e+01    1.172379e+00
  1.938823e+01    1.167559e+00
  1.941998e+01    1.175639e+00
  1.945173e+01    1.155483e+00
  1.948349e+01    1.186183e+00
  1.951524e+01    1.178490e+00
  1.954699e+01    1.152507e+00
  1.957874e+01    1.161431e+00
  1.961049e+01    1.166848e+00
  1.964224e+01    1.140642e+00
  1.967399e+01    1.160185e+00
  1.970574e+01    1.146048e+00
  1.973749e+01    1.150403e+00
  1.976925e+01    1.168604e+00
  1.980100e+01    1.154283e+00
  1.983275e+01    1.152399e+00
  1.986450e+01    1.144525e+00
  1.989625e+01    1.161434e+00
  1.992800e+01    1.148551e+00
  1.995975e+01    1.142697e+00
  1.999150e+01    1.148649e+00
  2.002325e+01    1.133109e+00
  2.005501e+01    1.117062e+00
  2.008676e+01    1.118949e+00
  2.011851e+01    1.128234e+00
  2.015026e+01    1.130795e+00
  2.018201e+01    1.110739e+00
  2.021376e+01    1.122554e+00
  2.024551e+01    1.113701e+00
  2.027726e+01    1.100815e+00
  2.030902e+01    1.134827e+00
  2.034077e+01    1.108768e+00
  2.037252e+01    1.111719e+00
  2.040427e+01    1.100210e+00
  2.043602e+01    1.093663e+00
  2.046777e+01    1.099194e+00
  2.049952e+01    1.071957e+00
  2.053127e+01    1.094407e+00
  2.056302e+01    1.107262e+00
  2.059478e+01    1.073296e+00
  2.062653e+01    1.095272e+00
  2.065828e+01    1.113967e+00
  2.069003e+01    1.084846e+00
  2.072178e+01    1.082507e+00
  2.075353e+01    1.084710e+00
  2.078528e+01    1.094945e+00
  2.081703e+01    1.104268e+00
  2.084878e+01    1.107620e+00
  2.088054e+01    1.115901e+00
  2.091229e+01    1.084910e+00
  2.094404e+01    1.093424e+00
  2.097579e+01    1.100576e+00
  2.100754e+01    1.111277e+00
  2.103929e+01    1.092124e+00
  2.107104e+01    1.092897e+00
  2.110279e+01    1.080752e+00
  2.113455e+01    1.108364e+00
  2.116630e+01    1.116159e+00
  2.119805e+01    1.101748e+00
  2.122980e+01    1.140906e+00
  2.126155e+01    1.123459e+00
  2.129330e+01    1.146749e+00
  2.132505e+01    1.140117e+00
  2.135680e+01    1.175011e+00
  2.138855e+01    1.185705e+00
  2.142031e+01    1.220901e+00
  2.145206e+01    1.229976e+00
  2.148381e+01    1.251634e+00
  2.151556e+01    1.287363e+00
  2.154731e+01    1.374892e+00
  2.157906e+01    1.456563e+00
  2.161081e+01    1.601910e+00
  2.164256e+01    1.730767e+00
  2.167431e+01    1.973329e+00
  2.170607e+01    2.358815e+00
  2.173782e+01    2.905711e+00
  2.176957e+01    3.788650e+00
  2.180132e+01    4.957839e+00
  2.183307e+01    6.483472e+00
  2.186482e+01    8.153290e+00
  2.189657e+01    9.881807e+00
  2.192832e+01    1.078718e+01
  2.196007e+01    1.007739e+01
  2.199183e+01    8.004056e+00
  2.202358e+01    5.709392e+00
  2.205533e+01    4.135759e+00
  2.208708e+01    3.125577e+00
  2.211883e+01    2.444319e+00
  2.215058e+01    2.086628e+00
  2.218233e+01    1.778863e+00
  2.221408e+01    1.596331e+00
  2.224584e+01    1.452192e+00
  2.227759e+01    1.358024e+00
  2.230934e+01    1.276530e+00
  2.234109e+01    1.193898e+00
  2.237284e+01    1.185490e+00
  2.240459e+01    1.130777e+00
  2.243634e+01    1.108083e+00
  2.246809e+01    1.055547e+00
  2.249984e+01    1.057454e+00
  2.253160e+01    1.033884e+00
  2.256335e+01    1.027695e+00
  2.259510e+01    1.010632e+00
  2.262685e+01    1.009696e+00
  2.265860e+01    1.000920e+00
  2.269035e+01    9.803964e-01
  2.272210e+01    9.921417e-01
  2.275385e+01    9.601453e-01
  2.278560e+01    9.502602e-01
  2.281736e+01    9.514931e-01
  2.284911e+01    9.460253e-01
  2.288086e+01    9.507713e-01
  2.291261e+01    9.292057e-01
  2.294436e+01    9.283458e-01
  2.297611e+01    9.183071e-01
  2.300786e+01    9.164038e-01
  2.303961e+01    9.004269e-01
  2.307137e+01    8.938787e-01
  2.310312e+01    8.992254e-01
  2.313487e+01    9.172298e-01
  2.316662e+01    8.878079e-01
  2.319837e+01    9.059734e-01
  2.323012e+01    8.803791e-01
  2.326187e+01    8.811367e-01
  2.329362e+01    8.879036e-01
  2.332537e+01    8.834975e-01
  2.335713e+01    8.778779e-01
  2.338888e+01    8.669419e-01
  2.342063e+01    8.731647e-01
  2.345238e+01    8.595269e-01
  2.348413e+01    8.818762e-01
  2.351588e+01    8.606232e-01
  2.354763e+01    8.759325e-01
  2.357938e+01    8.564548e-01
  2.361113e+01    8.614862e-01
  2.364289e+01    8.574452e-01
  2.367464e+01    8.348824e-01
  2.370639e+01    8.284538e-01
  2.373814e+01    8.280904e-01
  2.376989e+01    8.259099e-01
  2.380164e+01    8.170580e-01
  2.383339e+01    8.215886e-01
  2.386514e+01    8.329551e-01
  2.389689e+01    8.270472e-01
  2.392865e+01    8.166954e-01
  2.396040e+01    8.118745e-01
  2.399215e+01    8.154483e-01
  2.402390e+01    8.068925e-01
  2.405565e+01    8.182433e-01
  2.408740e+01    7.964132e-01
  2.411915e+01    7.935461e-01
  2.415090e+01    7.867559e-01
  2.418266e+01    7.920773e-01
  2.421441e+01    7.915280e-01
  2.424616e+01    7.907128e-01
  2.427791e+01    7.787808e-01
  2.430966e+01    8.010478e-01
  2.434141e+01    7.879922e-01
  2.437316e+01    8.125989e-01
  2.440491e+01    7.870160e-01
  2.443666e+01    7.958335e-01
  2.446842e+01    8.045425e-01
  2.450017e+01    8.038717e-01
  2.453192e+01    8.087901e-01
  2.456367e+01    8.054109e-01
  2.459542e+01    8.049461e-01
  2.462717e+01    8.038015e-01
  2.465892e+01    8.037013e-01
  2.469067e+01    7.862886e-01
  2.472242e+01    8.052192e-01
  2.475418e+01    8.089243e-01
  2.478593e+01    7.956350e-01
  2.481768e+01    7.926701e-01
  2.484943e+01    8.023399e-01
  2.488118e+01    8.185390e-01
  2.491293e+01    8.143226e-01
  2.494468e+01    7.940542e-01
  2.497643e+01    7.996722e-01
  2.500819e+01    8.119611e-01
  2.503994e+01    8.247269e-01
  2.507169e+01    8.260801e-01
  2.510344e+01    8.349597e-01
  2.513519e+01    8.217360e-01
  2.516694e+01    8.401362e-01
  2.519869e+01    8.533603e-01
  2.523044e+01    8.488985e-01
  2.526219e+01    8.709463e-01
  2.529395e+01    8.926013e-01
  2.532570e+01    9.016114e-01
  2.535745e+01    8.928276e-01
  2.538920e+01    9.218913e-01
  2.542095e+01    9.289509e-01
  2.545270e+01    9.320216e-01
  2.548445e+01    9.562103e-01
  2.551620e+01    1.023043e+00
  2.554795e+01    1.029432e+00
  2.557971e+01    1.031626e+00
  2.561146e+01    1.120103e+00
  2.564321e+01    1.198328e+00
  2.567496e+01    1.275020e+00
  2.570671e+01    1.409112e+00
  2.573846e+01    1.568990e+00
  2.577021e+01    1.842602e+00
  2.580196e+01    2.298798e+00
  2.583371e+01    2.899382e+00
  2.586547e+01    3.702749e+00
  2.589722e+01    4.970345e+00
  2.592897e+01    6.482037e+00
  2.596072e+01    7.995629e+00
  2.599247e+01    8.921664e+00
  2.602422e+01    8.598515e+00
  2.605597e+01    7.129044e+00
  2.608772e+01    5.303086e+00
  2.611948e+01    3.869373e+00
  2.615123e+01    2.888076e+00
  2.618298e+01    2.326539e+00
  2.621473e+01    1.899423e+00
  2.624648e+01    1.617466e+00
  2.627823e+01    1.449390e+00
  2.630998e+01    1.324354e+00
  2.634173e+01    1.221801e+00
  2.637348e+01    1.124153e+00
  2.640524e+01    1.090578e+00
  2.643699e+01    1.050783e+00
  2.646874e+01    9.891735e-01
  2.650049e+01    9.922109e-01
  2.653224e+01    9.821222e-01
  2.656399e+01    9.299600e-01
  2.659574e+01    9.418564e-01
  2.662749e+01    9.330035e-01
  2.665924e+01    9.394464e-01
  2.669100e+01    9.093910e-01
  2.672275e+01    9.343390e-01
  2.675450e+01    9.104468e-01
  2.678625e+01    9.088339e-01
  2.681800e+01    9.035998e-01
  2.684975e+01    9.115247e-01
  2.688150e+01    9.428622e-01
  2.691325e+01    9.289411e-01
  2.694501e+01    9.525585e-01
  2.697676e+01    9.862313e-01
  2.700851e+01    1.016407e+00
  2.704026e+01    1.061581e+00
  2.707201e+01    1.144814e+00
  2.710376e+01    1.283048e+00
  2.713551e+01    1.480946e+00
  2.716726e+01    1.764217e+00
  2.719901e+01    2.103613e+00
  2.723077e+01    2.402885e+00
  2.726252e+01    2.583373e+00
  2.729427e+01    2.404306e+00
  2.732602e+01    2.023858e+00
  2.735777e+01    1.726926e+00
  2.738952e+01    1.417058e+00
  2.742127e+01    1.244874e+00
  2.745302e+01    1.125324e+00
  2.748477e+01    1.057240e+00
  2.751653e+01    9.969686e-01
  2.754828e+01    9.459774e-01
  2.758003e+01    9.219560e-01
  2.761178e+01    8.858961e-01
  2.764353e+01    8.932965e-01
  2.767528e+01    8.987108e-01
  2.770703e+01    8.517486e-01
  2.773878e+01    8.637897e-01
  2.777054e+01    8.509709e-01
  2.780229e+01    8.370416e-01
  2.783404e+01    8.367866e-01
  2.786579e+01    8.440392e-01
  2.789754e+01    8.223985e-01
  2.792929e+01    8.334314e-01
  2.796104e+01    7.991058e-01
  2.799279e+01    7.924690e-01
  2.802454e+01    8.090907e-01
  2.805630e+01    8.193240e-01
  2.808805e+01    8.057694e-01
  2.811980e+01    7.992429e-01
  2.815155e+01    8.053695e-01
  2.818330e+01    7.977207e-01
  2.821505e+01    7.922211e-01
  2.824680e+01    7.973500e-01
  2.827855e+01    7.771161e-01
  2.831030e+01    7.653888e-01
  2.834206e+01    8.049927e-01
  2.837381e+01    7.964206e-01
  2.840556e+01    7.883992e-01
  2.843731e+01    7.758924e-01
  2.846906e+01    7.798051e-01
  2.850081e+01    7.834709e-01
  2.853256e+01    7.691543e-01
  2.856431e+01    7.691936e-01
  2.859606e+01    7.608014e-01
  2.862782e+01    7.846217e-01
  2.865957e+01    7.584049e-01
  2.869132e+01    7.674015e-01
  2.872307e+01    7.637739e-01
  2.875482e+01    7.615198e-01
  2.878657e+01    7.636802e-01
  2.881832e+01    7.715268e-01
  2.885007e+01    7.571853e-01
  2.888183e+01    7.629641e-01
  2.891358e+01    7.566177e-01
  2.894533e+01    7.516496e-01
  2.897708e+01    7.651797e-01
  2.900883e+01    7.546378e-01
  2.904058e+01    7.424446e-01
  2.907233e+01    7.571269e-01
  2.910408e+01    7.686501e-01
  2.913583e+01    7.405952e-01
  2.916759e+01    7.566642e-01
  2.919934e+01    7.375760e-01
  2.923109e+01    7.535792e-01
  2.926284e+01    7.382373e-01
  2.929459e+01    7.427051e-01
  2.932634e+01    7.343761e-01
  2.935809e+01    7.273523e-01
  2.938984e+01    7.535624e-01
  2.942159e+01    7.435086e-01
  2.945335e+01    7.531202e-01
  2.948510e+01    7.323691e-01
  2.951685e+01    7.407552e-01
  2.954860e+01    7.161229e-01
  2.958035e+01    7.438562e-01
  2.961210e+01    7.381353e-01
  2.964385e+01    7.207839e-01
  2.967560e+01    7.360904e-01
  2.970736e+01    7.436008e-01
  2.973911e+01    7.320611e-01
  2.977086e+01    7.298053e-01
  2.980261e+01    7.417315e-01
  2.983436e+01    7.465674e-01
  2.986611e+01    7.424491e-01
  2.989786e+01    7.237897e-01
  2.992961e+01    7.134858e-01
  2.996136e+01    7.416252e-01
  2.999312e+01    7.297816e-01
  3.002487e+01    7.402318e-01
  3.005662e+01    7.488325e-01
  3.008837e+01    7.194380e-01
  3.012012e+01    7.472067e-01
  3.015187e+01    7.324347e-01
  3.018362e+01    7.256013e-01
  3.021537e+01    7.277128e-01
  3.024712e+01    7.263719e-01
  3.027888e+01    7.329903e-01
  3.031063e+01    7.105456e-01
  3.034238e+01    7.386222e-01
  3.037413e+01    7.230473e-01
  3.040588e+01    7.148460e-01
  3.043763e+01    7.292384e-01
  3.046938e+01    7.346226e-01
  3.050113e+01    7.196895e-01
  3.053288e+01    7.305150e-01
  3.056464e+01    7.251748e-01
  3.059639e+01    7.120155e-01
  3.062814e+01    7.082453e-01
  3.065989e+01    7.204020e-01
  3.069164e+01    7.277995e-01
  3.072339e+01    7.147202e-01
  3.075514e+01    7.120379e-01
  3.078689e+01    7.396739e-01
  3.081865e+01    7.238696e-01
  3.085040e+01    7.416139e-01
  3.088215e+01    7.202353e-01
  3.091390e+01    7.305455e-01
  3.094565e+01    7.352932e-01
  3.097740e+01    7.380953e-01
  3.100915e+01    7.164998e-01
  3.104090e+01    7.271039e-01
  3.107265e+01    7.376722e-01
  3.110441e+01    7.473498e-01
  3.113616e+01    7.438469e-01
  3.116791e+01    7.234449e-01
  3.119966e+01    7.394413e-01
  3.123141e+01    7.259097e-01
  3.126316e+01    7.393115e-01
  3.129491e+01    7.521873e-01
  3.132666e+01    7.574537e-01
  3.135841e+01    7.413738e-01
  3.139017e+01    7.625222e-01
  3.142192e+01    7.746322e-01
  3.145367e+01    7.590784e-01
  3.148542e+01    7.766444e-01
  3.151717e+01    7.885655e-01
  3.154892e+01    7.877077e-01
  3.158067e+01    8.182369e-01
  3.161242e+01    7.883806e-01
  3.164418e+01    8.526926e-01
  3.167593e+01    8.782786e-01
  3.170768e+01    9.501591e-01
  3.173943e+01    9.422163e-01
  3.177118e+01    1.076512e+00
  3.180293e+01    1.221507e+00
  3.183468e+01    1.431402e+00
  3.186643e+01    1.703011e+00
  3.189818e+01    2.077384e+00
  3.192994e+01    2.410035e+00
  3.196169e+01    2.565015e+00
  3.199344e+01    2.358397e+00
  3.202519e+01    2.033507e+00
  3.205694e+01    1.681188e+00
  3.208869e+01    1.348749e+00
  3.212044e+01    1.138231e+00
  3.215219e+01    1.024153e+00
  3.218394e+01    9.387417e-01
  3.221570e+01    8.722770e-01
  3.224745e+01    8.645923e-01
  3.227920e+01    8.324837e-01
  3.231095e+01    8.103678e-01
  3.234270e+01    7.873290e-01
  3.237445e+01    8.238208e-01
  3.240620e+01    7.929955e-01
  3.243795e+01    7.484709e-01
  3.246970e+01    7.377309e-01
  3.250146e+01    7.311133e-01
  3.253321e+01    7.344612e-01
  3.254908e+01    7.361647e-01