File: XRD/2024-07-27_002_Ru-CGO-ex_Activtation_ramp_000002_data_000019.dat
# == pyFAI calibration ==
# Distance Sample to Detector: 0.4 m
# PONI: 9.750e-02, 1.135e-01 m
# Rotations: -0.000175 0.000000 -0.000000 rad
#
# == Fit2d calibration ==
# Distance Sample-beamCenter: 400.000 mm
# Center: x=1514.000, y=1300.000 pix
# Tilt: 0.010 deg  TiltPlanRot: 0.010 deg
#
# Detector Detector	 Spline= None	 PixelSize= 7.500e-05, 7.500e-05 m
#    Detector has a mask: False
#    Detector has a dark current: False
#    detector has a flat field: False
#
# Wavelength: 6.888e-11 m
# Mask applied: user provided
# Dark current applied: False
# Flat field applied: False
# Polarization factor: 0.99
# Normalization factor: 1.0
# --> /home/myspot/data/2024_07_Rosario/Ru-CGO-ex/2024-07-27_002_Ru-CGO-ex_Activtation_ramp_000002_data_000019.dat
#       q_nm^-1             I
  2.003187e-02    7.712225e-02
  5.178302e-02    1.032420e-01
  8.353417e-02    2.159227e-02
  1.152853e-01    9.327448e-02
  1.470365e-01    0.000000e+00
  1.787876e-01    4.063154e-02
  2.105388e-01    5.131192e-02
  2.422899e-01    2.164237e-02
  2.740411e-01    4.804418e-02
  3.057922e-01    4.761810e-02
  3.375433e-01    3.342805e-02
  3.692945e-01    2.185290e-02
  4.010456e-01    1.253827e-02
  4.327968e-01    2.936539e-02
  4.645479e-01    6.559074e-02
  4.962991e-01    2.315447e-02
  5.280502e-01    3.045695e-02
  5.598014e-01    3.502025e-02
  5.915525e-01    4.144012e-02
  6.233037e-01    4.557496e-02
  6.550548e-01    3.660570e-02
  6.868060e-01    4.331751e-02
  7.185571e-01    3.519668e-02
  7.503083e-01    7.169302e-02
  7.820594e-01    8.381602e-02
  8.138106e-01    1.820458e-01
  8.455617e-01    2.859637e-01
  8.773129e-01    3.915223e-01
  9.090640e-01    5.558136e-01
  9.408152e-01    6.850876e-01
  9.725663e-01    8.135483e-01
  1.004317e+00    1.015142e+00
  1.036069e+00    1.141245e+00
  1.067820e+00    1.435994e+00
  1.099571e+00    1.316978e+00
  1.131322e+00    1.591171e+00
  1.163073e+00    1.531981e+00
  1.194824e+00    1.683963e+00
  1.226575e+00    2.138710e+00
  1.258327e+00    2.219033e+00
  1.290078e+00    2.522169e+00
  1.321829e+00    2.425174e+00
  1.353580e+00    2.673666e+00
  1.385331e+00    2.668688e+00
  1.417082e+00    2.754462e+00
  1.448834e+00    2.808756e+00
  1.480585e+00    2.874761e+00
  1.512336e+00    2.951926e+00
  1.544087e+00    3.198352e+00
  1.575838e+00    3.205093e+00
  1.607589e+00    2.931175e+00
  1.639340e+00    2.898986e+00
  1.671092e+00    2.960420e+00
  1.702843e+00    2.790726e+00
  1.734594e+00    2.819193e+00
  1.766345e+00    2.876149e+00
  1.798096e+00    2.811023e+00
  1.829847e+00    2.714253e+00
  1.861598e+00    2.786885e+00
  1.893350e+00    2.738232e+00
  1.925101e+00    2.881079e+00
  1.956852e+00    2.818175e+00
  1.988603e+00    2.943810e+00
  2.020354e+00    2.757701e+00
  2.052105e+00    2.829025e+00
  2.083856e+00    2.857898e+00
  2.115608e+00    2.778911e+00
  2.147359e+00    2.938076e+00
  2.179110e+00    2.754011e+00
  2.210861e+00    2.785433e+00
  2.242612e+00    2.901916e+00
  2.274363e+00    2.674537e+00
  2.306115e+00    2.734219e+00
  2.337866e+00    2.760773e+00
  2.369617e+00    2.805245e+00
  2.401368e+00    2.885765e+00
  2.433119e+00    2.798388e+00
  2.464870e+00    2.822762e+00
  2.496621e+00    2.875741e+00
  2.528373e+00    2.833011e+00
  2.560124e+00    2.967599e+00
  2.591875e+00    2.798563e+00
  2.623626e+00    2.843117e+00
  2.655377e+00    2.779890e+00
  2.687128e+00    2.937791e+00
  2.718879e+00    2.909559e+00
  2.750631e+00    2.877060e+00
  2.782382e+00    2.907861e+00
  2.814133e+00    2.888880e+00
  2.845884e+00    2.923446e+00
  2.877635e+00    2.876641e+00
  2.909386e+00    2.967116e+00
  2.941137e+00    2.816032e+00
  2.972889e+00    2.862414e+00
  3.004640e+00    2.941323e+00
  3.036391e+00    2.826359e+00
  3.068142e+00    2.850613e+00
  3.099893e+00    2.900786e+00
  3.131644e+00    2.966795e+00
  3.163395e+00    2.989345e+00
  3.195147e+00    2.947865e+00
  3.226898e+00    2.863692e+00
  3.258649e+00    3.026223e+00
  3.290400e+00    2.909510e+00
  3.322151e+00    2.953692e+00
  3.353902e+00    3.002267e+00
  3.385654e+00    2.870879e+00
  3.417405e+00    2.932477e+00
  3.449156e+00    2.986990e+00
  3.480907e+00    3.017433e+00
  3.512658e+00    3.014282e+00
  3.544409e+00    3.033431e+00
  3.576160e+00    2.945850e+00
  3.607912e+00    2.968423e+00
  3.639663e+00    2.999608e+00
  3.671414e+00    2.937365e+00
  3.703165e+00    2.987213e+00
  3.734916e+00    3.087474e+00
  3.766667e+00    3.054342e+00
  3.798418e+00    3.011637e+00
  3.830170e+00    3.066137e+00
  3.861921e+00    3.099111e+00
  3.893672e+00    3.006104e+00
  3.925423e+00    2.928408e+00
  3.957174e+00    3.069611e+00
  3.988925e+00    3.059551e+00
  4.020676e+00    3.014361e+00
  4.052428e+00    2.928560e+00
  4.084179e+00    3.109469e+00
  4.115930e+00    3.049808e+00
  4.147681e+00    3.009590e+00
  4.179432e+00    3.102614e+00
  4.211183e+00    3.061419e+00
  4.242935e+00    3.099146e+00
  4.274686e+00    3.125532e+00
  4.306437e+00    2.996622e+00
  4.338188e+00    3.122684e+00
  4.369939e+00    3.084755e+00
  4.401690e+00    2.994635e+00
  4.433441e+00    3.084876e+00
  4.465193e+00    3.020012e+00
  4.496944e+00    3.177644e+00
  4.528695e+00    3.092068e+00
  4.560446e+00    3.108978e+00
  4.592197e+00    3.094197e+00
  4.623948e+00    3.084453e+00
  4.655699e+00    3.059141e+00
  4.687451e+00    3.158439e+00
  4.719202e+00    3.122492e+00
  4.750953e+00    3.165558e+00
  4.782704e+00    3.163860e+00
  4.814455e+00    3.213368e+00
  4.846206e+00    3.098857e+00
  4.877957e+00    3.164088e+00
  4.909709e+00    3.131164e+00
  4.941460e+00    3.110949e+00
  4.973211e+00    3.109037e+00
  5.004962e+00    3.114617e+00
  5.036713e+00    3.132442e+00
  5.068464e+00    3.119434e+00
  5.100216e+00    3.132302e+00
  5.131967e+00    3.109809e+00
  5.163718e+00    3.206541e+00
  5.195469e+00    3.165223e+00
  5.227220e+00    3.126899e+00
  5.258971e+00    3.069659e+00
  5.290722e+00    3.141185e+00
  5.322474e+00    3.084522e+00
  5.354225e+00    3.117350e+00
  5.385976e+00    3.212236e+00
  5.417727e+00    3.092292e+00
  5.449478e+00    3.050208e+00
  5.481229e+00    3.007139e+00
  5.512980e+00    3.054269e+00
  5.544732e+00    3.105281e+00
  5.576483e+00    3.116297e+00
  5.608234e+00    3.084648e+00
  5.639985e+00    3.061742e+00
  5.671736e+00    3.059899e+00
  5.703487e+00    3.050812e+00
  5.735238e+00    3.029659e+00
  5.766990e+00    3.045606e+00
  5.798741e+00    2.972594e+00
  5.830492e+00    3.101986e+00
  5.862243e+00    3.105407e+00
  5.893994e+00    3.056645e+00
  5.925745e+00    3.119170e+00
  5.957497e+00    2.973136e+00
  5.989248e+00    3.033214e+00
  6.020999e+00    2.936092e+00
  6.052750e+00    3.081544e+00
  6.084501e+00    3.094867e+00
  6.116252e+00    3.024483e+00
  6.148003e+00    3.144564e+00
  6.179755e+00    3.115556e+00
  6.211506e+00    3.060446e+00
  6.243257e+00    3.045086e+00
  6.275008e+00    3.139507e+00
  6.306759e+00    3.097950e+00
  6.338510e+00    3.069672e+00
  6.370261e+00    3.108349e+00
  6.402013e+00    3.041802e+00
  6.433764e+00    3.064074e+00
  6.465515e+00    2.963072e+00
  6.497266e+00    3.097477e+00
  6.529017e+00    3.118026e+00
  6.560768e+00    3.057555e+00
  6.592519e+00    3.051313e+00
  6.624271e+00    3.053528e+00
  6.656022e+00    3.052928e+00
  6.687773e+00    3.058213e+00
  6.719524e+00    3.035182e+00
  6.751275e+00    3.018687e+00
  6.783026e+00    3.069900e+00
  6.814777e+00    3.020336e+00
  6.846529e+00    3.048501e+00
  6.878280e+00    2.918124e+00
  6.910031e+00    3.095196e+00
  6.941782e+00    3.028922e+00
  6.973533e+00    3.042364e+00
  7.005284e+00    3.053848e+00
  7.037036e+00    3.007712e+00
  7.068787e+00    2.998681e+00
  7.100538e+00    3.049999e+00
  7.132289e+00    3.038874e+00
  7.164040e+00    2.975546e+00
  7.195791e+00    3.025961e+00
  7.227542e+00    3.038504e+00
  7.259294e+00    3.025741e+00
  7.291045e+00    3.024708e+00
  7.322796e+00    3.016678e+00
  7.354547e+00    3.016306e+00
  7.386298e+00    2.970818e+00
  7.418049e+00    2.987858e+00
  7.449800e+00    3.054170e+00
  7.481552e+00    2.982751e+00
  7.513303e+00    3.018142e+00
  7.545054e+00    3.001690e+00
  7.576805e+00    2.981112e+00
  7.608556e+00    3.028695e+00
  7.640307e+00    2.966444e+00
  7.672058e+00    2.948336e+00
  7.703810e+00    2.994141e+00
  7.735561e+00    2.927691e+00
  7.767312e+00    2.925632e+00
  7.799063e+00    3.020954e+00
  7.830814e+00    2.923401e+00
  7.862565e+00    2.942993e+00
  7.894317e+00    2.962577e+00
  7.926068e+00    2.939619e+00
  7.957819e+00    2.963693e+00
  7.989570e+00    2.898931e+00
  8.021321e+00    2.936805e+00
  8.053072e+00    2.926245e+00
  8.084823e+00    2.933490e+00
  8.116575e+00    2.909460e+00
  8.148326e+00    2.954696e+00
  8.180077e+00    3.018925e+00
  8.211828e+00    2.979691e+00
  8.243579e+00    3.022528e+00
  8.275330e+00    2.932829e+00
  8.307081e+00    2.917247e+00
  8.338833e+00    2.958039e+00
  8.370584e+00    2.893275e+00
  8.402335e+00    2.835623e+00
  8.434086e+00    2.925131e+00
  8.465837e+00    2.903394e+00
  8.497588e+00    2.911811e+00
  8.529339e+00    2.866575e+00
  8.561091e+00    2.867806e+00
  8.592842e+00    2.865117e+00
  8.624593e+00    2.927212e+00
  8.656344e+00    2.877633e+00
  8.688095e+00    2.864926e+00
  8.719846e+00    2.891289e+00
  8.751598e+00    2.849131e+00
  8.783349e+00    2.923494e+00
  8.815100e+00    2.793779e+00
  8.846851e+00    2.852046e+00
  8.878602e+00    2.883162e+00
  8.910353e+00    2.845683e+00
  8.942104e+00    2.855585e+00
  8.973856e+00    2.846653e+00
  9.005607e+00    2.883895e+00
  9.037358e+00    2.852483e+00
  9.069109e+00    2.868957e+00
  9.100860e+00    2.851269e+00
  9.132611e+00    2.894820e+00
  9.164362e+00    2.831525e+00
  9.196114e+00    2.812384e+00
  9.227865e+00    2.820812e+00
  9.259616e+00    2.793709e+00
  9.291367e+00    2.748951e+00
  9.323118e+00    2.798918e+00
  9.354869e+00    2.797025e+00
  9.386620e+00    2.810251e+00
  9.418372e+00    2.742888e+00
  9.450123e+00    2.787446e+00
  9.481874e+00    2.816515e+00
  9.513625e+00    2.791864e+00
  9.545376e+00    2.773419e+00
  9.577127e+00    2.800475e+00
  9.608878e+00    2.780131e+00
  9.640630e+00    2.782676e+00
  9.672381e+00    2.758984e+00
  9.704132e+00    2.742374e+00
  9.735883e+00    2.767537e+00
  9.767634e+00    2.783199e+00
  9.799385e+00    2.740983e+00
  9.831137e+00    2.682627e+00
  9.862888e+00    2.727186e+00
  9.894639e+00    2.743093e+00
  9.926390e+00    2.687650e+00
  9.958141e+00    2.645798e+00
  9.989892e+00    2.669734e+00
  1.002164e+01    2.686719e+00
  1.005339e+01    2.675974e+00
  1.008515e+01    2.659985e+00
  1.011690e+01    2.680583e+00
  1.014865e+01    2.677319e+00
  1.018040e+01    2.632220e+00
  1.021215e+01    2.637305e+00
  1.024390e+01    2.712281e+00
  1.027565e+01    2.646385e+00
  1.030740e+01    2.671514e+00
  1.033915e+01    2.657141e+00
  1.037091e+01    2.608470e+00
  1.040266e+01    2.688606e+00
  1.043441e+01    2.646223e+00
  1.046616e+01    2.698436e+00
  1.049791e+01    2.637963e+00
  1.052966e+01    2.625424e+00
  1.056141e+01    2.580080e+00
  1.059316e+01    2.602289e+00
  1.062492e+01    2.561430e+00
  1.065667e+01    2.524248e+00
  1.068842e+01    2.589105e+00
  1.072017e+01    2.567198e+00
  1.075192e+01    2.596374e+00
  1.078367e+01    2.544593e+00
  1.081542e+01    2.541163e+00
  1.084717e+01    2.536826e+00
  1.087892e+01    2.559599e+00
  1.091068e+01    2.569702e+00
  1.094243e+01    2.511246e+00
  1.097418e+01    2.553196e+00
  1.100593e+01    2.544483e+00
  1.103768e+01    2.484889e+00
  1.106943e+01    2.500252e+00
  1.110118e+01    2.477326e+00
  1.113293e+01    2.464592e+00
  1.116468e+01    2.432122e+00
  1.119644e+01    2.441351e+00
  1.122819e+01    2.473675e+00
  1.125994e+01    2.485365e+00
  1.129169e+01    2.487234e+00
  1.132344e+01    2.453678e+00
  1.135519e+01    2.435897e+00
  1.138694e+01    2.457947e+00
  1.141869e+01    2.451731e+00
  1.145045e+01    2.421908e+00
  1.148220e+01    2.406260e+00
  1.151395e+01    2.414215e+00
  1.154570e+01    2.403768e+00
  1.157745e+01    2.445113e+00
  1.160920e+01    2.370247e+00
  1.164095e+01    2.422598e+00
  1.167270e+01    2.376554e+00
  1.170445e+01    2.365817e+00
  1.173621e+01    2.438821e+00
  1.176796e+01    2.408483e+00
  1.179971e+01    2.374440e+00
  1.183146e+01    2.391489e+00
  1.186321e+01    2.319441e+00
  1.189496e+01    2.362045e+00
  1.192671e+01    2.369894e+00
  1.195846e+01    2.355140e+00
  1.199021e+01    2.366195e+00
  1.202197e+01    2.324721e+00
  1.205372e+01    2.308039e+00
  1.208547e+01    2.358701e+00
  1.211722e+01    2.373923e+00
  1.214897e+01    2.337365e+00
  1.218072e+01    2.335924e+00
  1.221247e+01    2.324587e+00
  1.224422e+01    2.342810e+00
  1.227597e+01    2.361727e+00
  1.230773e+01    2.318647e+00
  1.233948e+01    2.370111e+00
  1.237123e+01    2.367100e+00
  1.240298e+01    2.321752e+00
  1.243473e+01    2.369908e+00
  1.246648e+01    2.369110e+00
  1.249823e+01    2.345311e+00
  1.252998e+01    2.391364e+00
  1.256174e+01    2.432639e+00
  1.259349e+01    2.355485e+00
  1.262524e+01    2.423997e+00
  1.265699e+01    2.462379e+00
  1.268874e+01    2.479705e+00
  1.272049e+01    2.505547e+00
  1.275224e+01    2.564373e+00
  1.278399e+01    2.649267e+00
  1.281574e+01    2.707870e+00
  1.284750e+01    2.837431e+00
  1.287925e+01    3.065796e+00
  1.291100e+01    3.256857e+00
  1.294275e+01    3.659335e+00
  1.297450e+01    4.302663e+00
  1.300625e+01    5.203312e+00
  1.303800e+01    6.624266e+00
  1.306975e+01    8.991283e+00
  1.310150e+01    1.193736e+01
  1.313326e+01    1.501350e+01
  1.316501e+01    1.787008e+01
  1.319676e+01    1.974652e+01
  1.322851e+01    1.830400e+01
  1.326026e+01    1.409826e+01
  1.329201e+01    9.895056e+00
  1.332376e+01    7.110251e+00
  1.335551e+01    5.509358e+00
  1.338727e+01    4.502677e+00
  1.341902e+01    3.811081e+00
  1.345077e+01    3.340744e+00
  1.348252e+01    3.101502e+00
  1.351427e+01    2.837287e+00
  1.354602e+01    2.670332e+00
  1.357777e+01    2.593836e+00
  1.360952e+01    2.518153e+00
  1.364127e+01    2.392184e+00
  1.367303e+01    2.341832e+00
  1.370478e+01    2.314736e+00
  1.373653e+01    2.273073e+00
  1.376828e+01    2.189972e+00
  1.380003e+01    2.208743e+00
  1.383178e+01    2.206538e+00
  1.386353e+01    2.216964e+00
  1.389528e+01    2.147955e+00
  1.392703e+01    2.110818e+00
  1.395879e+01    2.064410e+00
  1.399054e+01    2.082779e+00
  1.402229e+01    2.044659e+00
  1.405404e+01    2.118221e+00
  1.408579e+01    2.053019e+00
  1.411754e+01    2.040616e+00
  1.414929e+01    2.033417e+00
  1.418104e+01    2.032245e+00
  1.421279e+01    2.048377e+00
  1.424455e+01    1.986394e+00
  1.427630e+01    1.976133e+00
  1.430805e+01    1.958479e+00
  1.433980e+01    1.939548e+00
  1.437155e+01    1.971398e+00
  1.440330e+01    1.960478e+00
  1.443505e+01    1.979430e+00
  1.446680e+01    1.956401e+00
  1.449856e+01    1.960701e+00
  1.453031e+01    1.944040e+00
  1.456206e+01    1.961725e+00
  1.459381e+01    1.950973e+00
  1.462556e+01    1.937045e+00
  1.465731e+01    1.952933e+00
  1.468906e+01    1.895123e+00
  1.472081e+01    1.941227e+00
  1.475256e+01    1.937378e+00
  1.478432e+01    1.951951e+00
  1.481607e+01    1.924566e+00
  1.484782e+01    1.940517e+00
  1.487957e+01    1.975883e+00
  1.491132e+01    1.973539e+00
  1.494307e+01    1.988333e+00
  1.497482e+01    2.055559e+00
  1.500657e+01    2.163155e+00
  1.503832e+01    2.243817e+00
  1.507008e+01    2.475609e+00
  1.510183e+01    2.735483e+00
  1.513358e+01    3.251143e+00
  1.516533e+01    3.907693e+00
  1.519708e+01    4.813997e+00
  1.522883e+01    5.683528e+00
  1.526058e+01    6.320828e+00
  1.529233e+01    6.671889e+00
  1.532409e+01    6.274529e+00
  1.535584e+01    5.003013e+00
  1.538759e+01    3.891078e+00
  1.541934e+01    3.071475e+00
  1.545109e+01    2.695409e+00
  1.548284e+01    2.422516e+00
  1.551459e+01    2.243115e+00
  1.554634e+01    2.097393e+00
  1.557809e+01    1.918645e+00
  1.560985e+01    1.876526e+00
  1.564160e+01    1.901657e+00
  1.567335e+01    1.820854e+00
  1.570510e+01    1.772218e+00
  1.573685e+01    1.772946e+00
  1.576860e+01    1.728435e+00
  1.580035e+01    1.758437e+00
  1.583210e+01    1.693904e+00
  1.586385e+01    1.658206e+00
  1.589561e+01    1.660540e+00
  1.592736e+01    1.668556e+00
  1.595911e+01    1.660516e+00
  1.599086e+01    1.649624e+00
  1.602261e+01    1.584215e+00
  1.605436e+01    1.619307e+00
  1.608611e+01    1.632029e+00
  1.611786e+01    1.607030e+00
  1.614961e+01    1.593324e+00
  1.618137e+01    1.618325e+00
  1.621312e+01    1.559015e+00
  1.624487e+01    1.592726e+00
  1.627662e+01    1.551847e+00
  1.630837e+01    1.553536e+00
  1.634012e+01    1.550751e+00
  1.637187e+01    1.520105e+00
  1.640362e+01    1.536633e+00
  1.643538e+01    1.536751e+00
  1.646713e+01    1.550868e+00
  1.649888e+01    1.514924e+00
  1.653063e+01    1.581568e+00
  1.656238e+01    1.535779e+00
  1.659413e+01    1.527705e+00
  1.662588e+01    1.459933e+00
  1.665763e+01    1.503418e+00
  1.668938e+01    1.534792e+00
  1.672114e+01    1.496885e+00
  1.675289e+01    1.442068e+00
  1.678464e+01    1.468157e+00
  1.681639e+01    1.480598e+00
  1.684814e+01    1.489661e+00
  1.687989e+01    1.444321e+00
  1.691164e+01    1.462809e+00
  1.694339e+01    1.481239e+00
  1.697514e+01    1.453014e+00
  1.700690e+01    1.447162e+00
  1.703865e+01    1.416471e+00
  1.707040e+01    1.445600e+00
  1.710215e+01    1.449734e+00
  1.713390e+01    1.413820e+00
  1.716565e+01    1.451187e+00
  1.719740e+01    1.394930e+00
  1.722915e+01    1.412409e+00
  1.726091e+01    1.410837e+00
  1.729266e+01    1.388411e+00
  1.732441e+01    1.393598e+00
  1.735616e+01    1.419435e+00
  1.738791e+01    1.356354e+00
  1.741966e+01    1.401860e+00
  1.745141e+01    1.369049e+00
  1.748316e+01    1.382772e+00
  1.751491e+01    1.379102e+00
  1.754667e+01    1.396836e+00
  1.757842e+01    1.383932e+00
  1.761017e+01    1.362626e+00
  1.764192e+01    1.351547e+00
  1.767367e+01    1.382171e+00
  1.770542e+01    1.330433e+00
  1.773717e+01    1.352093e+00
  1.776892e+01    1.342424e+00
  1.780067e+01    1.339746e+00
  1.783243e+01    1.355527e+00
  1.786418e+01    1.309045e+00
  1.789593e+01    1.306102e+00
  1.792768e+01    1.305267e+00
  1.795943e+01    1.313614e+00
  1.799118e+01    1.319466e+00
  1.802293e+01    1.305213e+00
  1.805468e+01    1.335511e+00
  1.808643e+01    1.304587e+00
  1.811819e+01    1.281389e+00
  1.814994e+01    1.288947e+00
  1.818169e+01    1.297014e+00
  1.821344e+01    1.296022e+00
  1.824519e+01    1.278593e+00
  1.827694e+01    1.280935e+00
  1.830869e+01    1.293272e+00
  1.834044e+01    1.293981e+00
  1.837220e+01    1.270471e+00
  1.840395e+01    1.263758e+00
  1.843570e+01    1.247339e+00
  1.846745e+01    1.233718e+00
  1.849920e+01    1.270279e+00
  1.853095e+01    1.263240e+00
  1.856270e+01    1.256444e+00
  1.859445e+01    1.251344e+00
  1.862620e+01    1.279703e+00
  1.865796e+01    1.222792e+00
  1.868971e+01    1.259382e+00
  1.872146e+01    1.247709e+00
  1.875321e+01    1.237175e+00
  1.878496e+01    1.224168e+00
  1.881671e+01    1.255558e+00
  1.884846e+01    1.244874e+00
  1.888021e+01    1.211120e+00
  1.891196e+01    1.207188e+00
  1.894372e+01    1.235955e+00
  1.897547e+01    1.224698e+00
  1.900722e+01    1.205985e+00
  1.903897e+01    1.198476e+00
  1.907072e+01    1.220503e+00
  1.910247e+01    1.192855e+00
  1.913422e+01    1.210491e+00
  1.916597e+01    1.208953e+00
  1.919773e+01    1.199008e+00
  1.922948e+01    1.213997e+00
  1.926123e+01    1.192657e+00
  1.929298e+01    1.230375e+00
  1.932473e+01    1.188918e+00
  1.935648e+01    1.194863e+00
  1.938823e+01    1.175600e+00
  1.941998e+01    1.203934e+00
  1.945173e+01    1.188142e+00
  1.948349e+01    1.188405e+00
  1.951524e+01    1.174076e+00
  1.954699e+01    1.187551e+00
  1.957874e+01    1.171626e+00
  1.961049e+01    1.206329e+00
  1.964224e+01    1.161791e+00
  1.967399e+01    1.163798e+00
  1.970574e+01    1.161057e+00
  1.973749e+01    1.149672e+00
  1.976925e+01    1.158878e+00
  1.980100e+01    1.154752e+00
  1.983275e+01    1.133252e+00
  1.986450e+01    1.138061e+00
  1.989625e+01    1.165402e+00
  1.992800e+01    1.130393e+00
  1.995975e+01    1.135985e+00
  1.999150e+01    1.162606e+00
  2.002325e+01    1.116987e+00
  2.005501e+01    1.143432e+00
  2.008676e+01    1.140253e+00
  2.011851e+01    1.134215e+00
  2.015026e+01    1.128242e+00
  2.018201e+01    1.141095e+00
  2.021376e+01    1.123992e+00
  2.024551e+01    1.135437e+00
  2.027726e+01    1.114646e+00
  2.030902e+01    1.134300e+00
  2.034077e+01    1.104822e+00
  2.037252e+01    1.131663e+00
  2.040427e+01    1.111513e+00
  2.043602e+01    1.120498e+00
  2.046777e+01    1.078708e+00
  2.049952e+01    1.085349e+00
  2.053127e+01    1.103639e+00
  2.056302e+01    1.101767e+00
  2.059478e+01    1.087609e+00
  2.062653e+01    1.090457e+00
  2.065828e+01    1.111030e+00
  2.069003e+01    1.076306e+00
  2.072178e+01    1.120246e+00
  2.075353e+01    1.111485e+00
  2.078528e+01    1.098543e+00
  2.081703e+01    1.083318e+00
  2.084878e+01    1.084477e+00
  2.088054e+01    1.100610e+00
  2.091229e+01    1.106834e+00
  2.094404e+01    1.113005e+00
  2.097579e+01    1.110258e+00
  2.100754e+01    1.089678e+00
  2.103929e+01    1.071012e+00
  2.107104e+01    1.082146e+00
  2.110279e+01    1.095987e+00
  2.113455e+01    1.101099e+00
  2.116630e+01    1.108369e+00
  2.119805e+01    1.120855e+00
  2.122980e+01    1.113078e+00
  2.126155e+01    1.129793e+00
  2.129330e+01    1.135551e+00
  2.132505e+01    1.131752e+00
  2.135680e+01    1.176420e+00
  2.138855e+01    1.169203e+00
  2.142031e+01    1.198578e+00
  2.145206e+01    1.239644e+00
  2.148381e+01    1.255559e+00
  2.151556e+01    1.335005e+00
  2.154731e+01    1.347044e+00
  2.157906e+01    1.438940e+00
  2.161081e+01    1.548386e+00
  2.164256e+01    1.677957e+00
  2.167431e+01    1.952664e+00
  2.170607e+01    2.303725e+00
  2.173782e+01    2.829806e+00
  2.176957e+01    3.609397e+00
  2.180132e+01    4.769326e+00
  2.183307e+01    6.310600e+00
  2.186482e+01    8.074086e+00
  2.189657e+01    9.786640e+00
  2.192832e+01    1.102577e+01
  2.196007e+01    1.061913e+01
  2.199183e+01    8.527251e+00
  2.202358e+01    6.178978e+00
  2.205533e+01    4.471639e+00
  2.208708e+01    3.317352e+00
  2.211883e+01    2.643630e+00
  2.215058e+01    2.192499e+00
  2.218233e+01    1.831559e+00
  2.221408e+01    1.630640e+00
  2.224584e+01    1.494414e+00
  2.227759e+01    1.393064e+00
  2.230934e+01    1.304065e+00
  2.234109e+01    1.214660e+00
  2.237284e+01    1.197041e+00
  2.240459e+01    1.180302e+00
  2.243634e+01    1.136521e+00
  2.246809e+01    1.099550e+00
  2.249984e+01    1.082784e+00
  2.253160e+01    1.055039e+00
  2.256335e+01    1.047746e+00
  2.259510e+01    1.037521e+00
  2.262685e+01    1.013759e+00
  2.265860e+01    9.952119e-01
  2.269035e+01    9.916947e-01
  2.272210e+01    9.709154e-01
  2.275385e+01    9.608062e-01
  2.278560e+01    9.729175e-01
  2.281736e+01    9.623115e-01
  2.284911e+01    9.194123e-01
  2.288086e+01    9.191347e-01
  2.291261e+01    9.544610e-01
  2.294436e+01    9.414104e-01
  2.297611e+01    9.179888e-01
  2.300786e+01    9.306192e-01
  2.303961e+01    9.348645e-01
  2.307137e+01    9.299918e-01
  2.310312e+01    9.046373e-01
  2.313487e+01    8.995906e-01
  2.316662e+01    9.070686e-01
  2.319837e+01    8.842988e-01
  2.323012e+01    8.852502e-01
  2.326187e+01    8.690809e-01
  2.329362e+01    8.835258e-01
  2.332537e+01    8.799170e-01
  2.335713e+01    8.842645e-01
  2.338888e+01    8.991869e-01
  2.342063e+01    8.721613e-01
  2.345238e+01    8.710449e-01
  2.348413e+01    8.582610e-01
  2.351588e+01    8.701650e-01
  2.354763e+01    8.798838e-01
  2.357938e+01    8.508496e-01
  2.361113e+01    8.593146e-01
  2.364289e+01    8.724182e-01
  2.367464e+01    8.419710e-01
  2.370639e+01    8.526230e-01
  2.373814e+01    8.317687e-01
  2.376989e+01    8.165922e-01
  2.380164e+01    8.380271e-01
  2.383339e+01    8.282678e-01
  2.386514e+01    8.192466e-01
  2.389689e+01    8.062938e-01
  2.392865e+01    8.127906e-01
  2.396040e+01    8.174455e-01
  2.399215e+01    8.217713e-01
  2.402390e+01    8.106237e-01
  2.405565e+01    8.152204e-01
  2.408740e+01    8.154119e-01
  2.411915e+01    8.123966e-01
  2.415090e+01    7.843688e-01
  2.418266e+01    7.712138e-01
  2.421441e+01    7.892315e-01
  2.424616e+01    7.688195e-01
  2.427791e+01    8.151068e-01
  2.430966e+01    8.188783e-01
  2.434141e+01    7.920038e-01
  2.437316e+01    8.027255e-01
  2.440491e+01    7.989110e-01
  2.443666e+01    8.052043e-01
  2.446842e+01    8.196961e-01
  2.450017e+01    7.992580e-01
  2.453192e+01    8.145465e-01
  2.456367e+01    8.178850e-01
  2.459542e+01    7.904930e-01
  2.462717e+01    7.983609e-01
  2.465892e+01    7.987294e-01
  2.469067e+01    8.029169e-01
  2.472242e+01    7.914757e-01
  2.475418e+01    8.298471e-01
  2.478593e+01    8.209137e-01
  2.481768e+01    8.193175e-01
  2.484943e+01    8.123251e-01
  2.488118e+01    8.186728e-01
  2.491293e+01    8.104502e-01
  2.494468e+01    8.209247e-01
  2.497643e+01    8.174264e-01
  2.500819e+01    8.135582e-01
  2.503994e+01    8.217557e-01
  2.507169e+01    8.299854e-01
  2.510344e+01    8.446985e-01
  2.513519e+01    8.252853e-01
  2.516694e+01    8.469836e-01
  2.519869e+01    8.422064e-01
  2.523044e+01    8.517672e-01
  2.526219e+01    8.470045e-01
  2.529395e+01    8.827509e-01
  2.532570e+01    8.841488e-01
  2.535745e+01    9.046552e-01
  2.538920e+01    9.229734e-01
  2.542095e+01    9.173391e-01
  2.545270e+01    9.531616e-01
  2.548445e+01    9.686071e-01
  2.551620e+01    9.967356e-01
  2.554795e+01    1.010179e+00
  2.557971e+01    1.055734e+00
  2.561146e+01    1.104172e+00
  2.564321e+01    1.165852e+00
  2.567496e+01    1.262366e+00
  2.570671e+01    1.407398e+00
  2.573846e+01    1.548529e+00
  2.577021e+01    1.801778e+00
  2.580196e+01    2.166777e+00
  2.583371e+01    2.739793e+00
  2.586547e+01    3.595782e+00
  2.589722e+01    4.722246e+00
  2.592897e+01    6.261040e+00
  2.596072e+01    7.795976e+00
  2.599247e+01    9.002329e+00
  2.602422e+01    9.048020e+00
  2.605597e+01    7.660367e+00
  2.608772e+01    5.796089e+00
  2.611948e+01    4.262959e+00
  2.615123e+01    3.166506e+00
  2.618298e+01    2.451964e+00
  2.621473e+01    2.007719e+00
  2.624648e+01    1.726211e+00
  2.627823e+01    1.494893e+00
  2.630998e+01    1.347941e+00
  2.634173e+01    1.237397e+00
  2.637348e+01    1.166968e+00
  2.640524e+01    1.116032e+00
  2.643699e+01    1.063310e+00
  2.646874e+01    1.007894e+00
  2.650049e+01    1.023880e+00
  2.653224e+01    9.966085e-01
  2.656399e+01    9.914466e-01
  2.659574e+01    9.460658e-01
  2.662749e+01    9.326431e-01
  2.665924e+01    9.469861e-01
  2.669100e+01    9.089636e-01
  2.672275e+01    9.488910e-01
  2.675450e+01    9.222383e-01
  2.678625e+01    9.115856e-01
  2.681800e+01    9.226998e-01
  2.684975e+01    9.229658e-01
  2.688150e+01    9.364191e-01
  2.691325e+01    9.449551e-01
  2.694501e+01    9.484701e-01
  2.697676e+01    9.873238e-01
  2.700851e+01    1.036980e+00
  2.704026e+01    1.054885e+00
  2.707201e+01    1.148978e+00
  2.710376e+01    1.245315e+00
  2.713551e+01    1.439230e+00
  2.716726e+01    1.715065e+00
  2.719901e+01    2.013130e+00
  2.723077e+01    2.375088e+00
  2.726252e+01    2.558225e+00
  2.729427e+01    2.564545e+00
  2.732602e+01    2.124017e+00
  2.735777e+01    1.812109e+00
  2.738952e+01    1.480329e+00
  2.742127e+01    1.294215e+00
  2.745302e+01    1.175971e+00
  2.748477e+01    1.063955e+00
  2.751653e+01    1.023935e+00
  2.754828e+01    9.539031e-01
  2.758003e+01    9.334984e-01
  2.761178e+01    9.022444e-01
  2.764353e+01    8.958118e-01
  2.767528e+01    8.794220e-01
  2.770703e+01    8.500081e-01
  2.773878e+01    8.263265e-01
  2.777054e+01    8.093271e-01
  2.780229e+01    8.273523e-01
  2.783404e+01    8.228233e-01
  2.786579e+01    8.307204e-01
  2.789754e+01    8.299621e-01
  2.792929e+01    8.235002e-01
  2.796104e+01    8.198912e-01
  2.799279e+01    8.212265e-01
  2.802454e+01    8.214561e-01
  2.805630e+01    8.032320e-01
  2.808805e+01    8.281041e-01
  2.811980e+01    8.120778e-01
  2.815155e+01    7.902938e-01
  2.818330e+01    7.950240e-01
  2.821505e+01    8.024000e-01
  2.824680e+01    7.848449e-01
  2.827855e+01    8.155535e-01
  2.831030e+01    7.737980e-01
  2.834206e+01    8.014598e-01
  2.837381e+01    7.821630e-01
  2.840556e+01    7.796700e-01
  2.843731e+01    7.640472e-01
  2.846906e+01    7.925353e-01
  2.850081e+01    7.743309e-01
  2.853256e+01    7.621145e-01
  2.856431e+01    7.721326e-01
  2.859606e+01    7.745216e-01
  2.862782e+01    7.736287e-01
  2.865957e+01    7.680871e-01
  2.869132e+01    7.771071e-01
  2.872307e+01    7.582844e-01
  2.875482e+01    7.625630e-01
  2.878657e+01    7.768688e-01
  2.881832e+01    7.701316e-01
  2.885007e+01    7.760195e-01
  2.888183e+01    7.495525e-01
  2.891358e+01    7.759365e-01
  2.894533e+01    7.578983e-01
  2.897708e+01    7.740073e-01
  2.900883e+01    7.652566e-01
  2.904058e+01    7.527879e-01
  2.907233e+01    7.403574e-01
  2.910408e+01    7.486501e-01
  2.913583e+01    7.518992e-01
  2.916759e+01    7.491728e-01
  2.919934e+01    7.516955e-01
  2.923109e+01    7.502731e-01
  2.926284e+01    7.526621e-01
  2.929459e+01    7.437254e-01
  2.932634e+01    7.453315e-01
  2.935809e+01    7.429231e-01
  2.938984e+01    7.245707e-01
  2.942159e+01    7.624957e-01
  2.945335e+01    7.441077e-01
  2.948510e+01    7.229979e-01
  2.951685e+01    7.348292e-01
  2.954860e+01    7.281353e-01
  2.958035e+01    7.315809e-01
  2.961210e+01    7.187690e-01
  2.964385e+01    7.446567e-01
  2.967560e+01    7.409504e-01
  2.970736e+01    7.306308e-01
  2.973911e+01    7.151811e-01
  2.977086e+01    7.350041e-01
  2.980261e+01    7.401174e-01
  2.983436e+01    7.389838e-01
  2.986611e+01    7.467171e-01
  2.989786e+01    7.424129e-01
  2.992961e+01    7.364022e-01
  2.996136e+01    7.272878e-01
  2.999312e+01    7.354237e-01
  3.002487e+01    7.394261e-01
  3.005662e+01    7.458770e-01
  3.008837e+01    7.345882e-01
  3.012012e+01    7.420465e-01
  3.015187e+01    7.453864e-01
  3.018362e+01    7.176750e-01
  3.021537e+01    7.366679e-01
  3.024712e+01    7.427698e-01
  3.027888e+01    7.264588e-01
  3.031063e+01    7.294185e-01
  3.034238e+01    7.335064e-01
  3.037413e+01    7.293820e-01
  3.040588e+01    7.167590e-01
  3.043763e+01    7.214128e-01
  3.046938e+01    7.270551e-01
  3.050113e+01    7.340658e-01
  3.053288e+01    7.041349e-01
  3.056464e+01    7.013031e-01
  3.059639e+01    7.157823e-01
  3.062814e+01    7.322490e-01
  3.065989e+01    7.514659e-01
  3.069164e+01    7.286904e-01
  3.072339e+01    7.042536e-01
  3.075514e+01    7.217950e-01
  3.078689e+01    7.065119e-01
  3.081865e+01    7.219028e-01
  3.085040e+01    7.359284e-01
  3.088215e+01    7.160942e-01
  3.091390e+01    7.522131e-01
  3.094565e+01    7.330301e-01
  3.097740e+01    7.137761e-01
  3.100915e+01    7.326546e-01
  3.104090e+01    7.267547e-01
  3.107265e+01    7.249123e-01
  3.110441e+01    7.523455e-01
  3.113616e+01    7.309212e-01
  3.116791e+01    7.445509e-01
  3.119966e+01    7.420402e-01
  3.123141e+01    7.517673e-01
  3.126316e+01    7.387452e-01
  3.129491e+01    7.315627e-01
  3.132666e+01    7.459587e-01
  3.135841e+01    7.650552e-01
  3.139017e+01    7.390602e-01
  3.142192e+01    7.661023e-01
  3.145367e+01    7.643013e-01
  3.148542e+01    7.497783e-01
  3.151717e+01    7.852223e-01
  3.154892e+01    7.971520e-01
  3.158067e+01    7.717705e-01
  3.161242e+01    8.105176e-01
  3.164418e+01    8.338847e-01
  3.167593e+01    8.789099e-01
  3.170768e+01    8.924977e-01
  3.173943e+01    9.650425e-01
  3.177118e+01    1.042451e+00
  3.180293e+01    1.207423e+00
  3.183468e+01    1.380806e+00
  3.186643e+01    1.688882e+00
  3.189818e+01    1.993476e+00
  3.192994e+01    2.384725e+00
  3.196169e+01    2.574405e+00
  3.199344e+01    2.510068e+00
  3.202519e+01    2.188598e+00
  3.205694e+01    1.775310e+00
  3.208869e+01    1.465432e+00
  3.212044e+01    1.198260e+00
  3.215219e+01    1.064065e+00
  3.218394e+01    9.869144e-01
  3.221570e+01    9.165839e-01
  3.224745e+01    8.697041e-01
  3.227920e+01    8.512176e-01
  3.231095e+01    8.024798e-01
  3.234270e+01    8.008353e-01
  3.237445e+01    7.947564e-01
  3.240620e+01    7.795398e-01
  3.243795e+01    7.801470e-01
  3.246970e+01    7.345421e-01
  3.250146e+01    7.463122e-01
  3.253321e+01    7.477277e-01
  3.254908e+01    7.450415e-01