File: XRD/2024-07-27_002_Ru-CGO-ex_Activtation_ramp_000002_data_000043.dat
# == pyFAI calibration ==
# Distance Sample to Detector: 0.4 m
# PONI: 9.750e-02, 1.135e-01 m
# Rotations: -0.000175 0.000000 -0.000000 rad
#
# == Fit2d calibration ==
# Distance Sample-beamCenter: 400.000 mm
# Center: x=1514.000, y=1300.000 pix
# Tilt: 0.010 deg  TiltPlanRot: 0.010 deg
#
# Detector Detector	 Spline= None	 PixelSize= 7.500e-05, 7.500e-05 m
#    Detector has a mask: False
#    Detector has a dark current: False
#    detector has a flat field: False
#
# Wavelength: 6.888e-11 m
# Mask applied: user provided
# Dark current applied: False
# Flat field applied: False
# Polarization factor: 0.99
# Normalization factor: 1.0
# --> /home/myspot/data/2024_07_Rosario/Ru-CGO-ex/2024-07-27_002_Ru-CGO-ex_Activtation_ramp_000002_data_000043.dat
#       q_nm^-1             I
  2.003187e-02    0.000000e+00
  5.178302e-02    9.498685e-02
  8.353417e-02    1.559171e-01
  1.152853e-01    5.508306e-02
  1.470365e-01    4.265416e-02
  1.787876e-01    2.964572e-02
  2.105388e-01    7.028057e-03
  2.422899e-01    4.873676e-02
  2.740411e-01    1.306759e-02
  3.057922e-01    8.533859e-02
  3.375433e-01    7.672479e-02
  3.692945e-01    3.572510e-02
  4.010456e-01    3.704825e-02
  4.327968e-01    2.516989e-02
  4.645479e-01    2.811612e-02
  4.962991e-01    3.855750e-02
  5.280502e-01    2.172082e-02
  5.598014e-01    4.417368e-02
  5.915525e-01    2.961951e-02
  6.233037e-01    2.807014e-02
  6.550548e-01    2.549112e-02
  6.868060e-01    3.700177e-02
  7.185571e-01    3.746808e-02
  7.503083e-01    7.262377e-02
  7.820594e-01    1.242374e-01
  8.138106e-01    2.170352e-01
  8.455617e-01    3.036204e-01
  8.773129e-01    4.286043e-01
  9.090640e-01    6.298797e-01
  9.408152e-01    7.135507e-01
  9.725663e-01    8.320370e-01
  1.004317e+00    1.070410e+00
  1.036069e+00    1.164144e+00
  1.067820e+00    1.346916e+00
  1.099571e+00    1.211003e+00
  1.131322e+00    1.430566e+00
  1.163073e+00    1.493554e+00
  1.194824e+00    1.671002e+00
  1.226575e+00    2.106883e+00
  1.258327e+00    2.253664e+00
  1.290078e+00    2.541806e+00
  1.321829e+00    2.463803e+00
  1.353580e+00    2.510134e+00
  1.385331e+00    2.660008e+00
  1.417082e+00    2.611017e+00
  1.448834e+00    2.653206e+00
  1.480585e+00    2.933912e+00
  1.512336e+00    3.122842e+00
  1.544087e+00    3.107800e+00
  1.575838e+00    2.914702e+00
  1.607589e+00    3.100002e+00
  1.639340e+00    2.985079e+00
  1.671092e+00    2.939246e+00
  1.702843e+00    2.830582e+00
  1.734594e+00    2.972164e+00
  1.766345e+00    2.738113e+00
  1.798096e+00    2.757108e+00
  1.829847e+00    2.722019e+00
  1.861598e+00    2.828372e+00
  1.893350e+00    2.735263e+00
  1.925101e+00    2.857620e+00
  1.956852e+00    2.865067e+00
  1.988603e+00    2.734321e+00
  2.020354e+00    2.824851e+00
  2.052105e+00    2.833158e+00
  2.083856e+00    2.820723e+00
  2.115608e+00    2.775271e+00
  2.147359e+00    2.747436e+00
  2.179110e+00    2.771941e+00
  2.210861e+00    2.750188e+00
  2.242612e+00    2.834404e+00
  2.274363e+00    2.755574e+00
  2.306115e+00    2.778612e+00
  2.337866e+00    2.782803e+00
  2.369617e+00    2.726601e+00
  2.401368e+00    2.743747e+00
  2.433119e+00    2.896839e+00
  2.464870e+00    2.802454e+00
  2.496621e+00    2.703338e+00
  2.528373e+00    2.831012e+00
  2.560124e+00    2.847843e+00
  2.591875e+00    2.782086e+00
  2.623626e+00    2.888343e+00
  2.655377e+00    2.901072e+00
  2.687128e+00    2.812368e+00
  2.718879e+00    2.976787e+00
  2.750631e+00    2.830282e+00
  2.782382e+00    2.838754e+00
  2.814133e+00    2.894274e+00
  2.845884e+00    2.824296e+00
  2.877635e+00    2.935411e+00
  2.909386e+00    2.795292e+00
  2.941137e+00    2.832435e+00
  2.972889e+00    2.884683e+00
  3.004640e+00    2.862478e+00
  3.036391e+00    2.831182e+00
  3.068142e+00    2.896999e+00
  3.099893e+00    2.849304e+00
  3.131644e+00    2.876628e+00
  3.163395e+00    2.968952e+00
  3.195147e+00    2.932514e+00
  3.226898e+00    2.920811e+00
  3.258649e+00    2.977567e+00
  3.290400e+00    2.953569e+00
  3.322151e+00    2.975486e+00
  3.353902e+00    2.955239e+00
  3.385654e+00    2.873608e+00
  3.417405e+00    2.912753e+00
  3.449156e+00    2.906318e+00
  3.480907e+00    2.939582e+00
  3.512658e+00    2.901030e+00
  3.544409e+00    3.004538e+00
  3.576160e+00    2.965760e+00
  3.607912e+00    2.855711e+00
  3.639663e+00    2.968765e+00
  3.671414e+00    2.909190e+00
  3.703165e+00    3.080822e+00
  3.734916e+00    2.986829e+00
  3.766667e+00    2.978721e+00
  3.798418e+00    2.988323e+00
  3.830170e+00    2.990421e+00
  3.861921e+00    2.958435e+00
  3.893672e+00    3.057857e+00
  3.925423e+00    3.068537e+00
  3.957174e+00    3.054433e+00
  3.988925e+00    3.111647e+00
  4.020676e+00    3.045133e+00
  4.052428e+00    3.075130e+00
  4.084179e+00    3.070047e+00
  4.115930e+00    2.946127e+00
  4.147681e+00    3.012138e+00
  4.179432e+00    2.994555e+00
  4.211183e+00    3.026503e+00
  4.242935e+00    3.085387e+00
  4.274686e+00    3.000949e+00
  4.306437e+00    3.057731e+00
  4.338188e+00    3.043715e+00
  4.369939e+00    3.119555e+00
  4.401690e+00    3.132251e+00
  4.433441e+00    3.096537e+00
  4.465193e+00    3.018603e+00
  4.496944e+00    3.097185e+00
  4.528695e+00    3.143643e+00
  4.560446e+00    2.989604e+00
  4.592197e+00    3.062161e+00
  4.623948e+00    3.084643e+00
  4.655699e+00    3.018159e+00
  4.687451e+00    3.024764e+00
  4.719202e+00    3.044427e+00
  4.750953e+00    3.100006e+00
  4.782704e+00    3.082572e+00
  4.814455e+00    3.055019e+00
  4.846206e+00    3.146731e+00
  4.877957e+00    3.098851e+00
  4.909709e+00    3.098356e+00
  4.941460e+00    3.034864e+00
  4.973211e+00    3.116698e+00
  5.004962e+00    3.242601e+00
  5.036713e+00    3.101362e+00
  5.068464e+00    3.173656e+00
  5.100216e+00    3.049261e+00
  5.131967e+00    3.193119e+00
  5.163718e+00    3.091014e+00
  5.195469e+00    3.119473e+00
  5.227220e+00    3.063673e+00
  5.258971e+00    3.196936e+00
  5.290722e+00    3.074825e+00
  5.322474e+00    3.057405e+00
  5.354225e+00    3.092625e+00
  5.385976e+00    3.089540e+00
  5.417727e+00    3.132241e+00
  5.449478e+00    3.086057e+00
  5.481229e+00    3.027157e+00
  5.512980e+00    3.063946e+00
  5.544732e+00    3.133256e+00
  5.576483e+00    3.049735e+00
  5.608234e+00    3.087188e+00
  5.639985e+00    3.127821e+00
  5.671736e+00    3.057657e+00
  5.703487e+00    3.080225e+00
  5.735238e+00    3.093896e+00
  5.766990e+00    2.969433e+00
  5.798741e+00    2.984744e+00
  5.830492e+00    3.081017e+00
  5.862243e+00    3.059599e+00
  5.893994e+00    2.986563e+00
  5.925745e+00    3.036406e+00
  5.957497e+00    3.048611e+00
  5.989248e+00    2.967872e+00
  6.020999e+00    2.992365e+00
  6.052750e+00    3.073251e+00
  6.084501e+00    3.031260e+00
  6.116252e+00    3.102473e+00
  6.148003e+00    3.085594e+00
  6.179755e+00    3.064309e+00
  6.211506e+00    3.112662e+00
  6.243257e+00    3.097253e+00
  6.275008e+00    2.996717e+00
  6.306759e+00    3.006776e+00
  6.338510e+00    3.017633e+00
  6.370261e+00    3.021716e+00
  6.402013e+00    3.031479e+00
  6.433764e+00    3.001506e+00
  6.465515e+00    2.976589e+00
  6.497266e+00    3.046279e+00
  6.529017e+00    3.014406e+00
  6.560768e+00    3.013257e+00
  6.592519e+00    3.027762e+00
  6.624271e+00    3.048245e+00
  6.656022e+00    3.056449e+00
  6.687773e+00    2.977354e+00
  6.719524e+00    2.985720e+00
  6.751275e+00    3.005987e+00
  6.783026e+00    3.002328e+00
  6.814777e+00    2.966964e+00
  6.846529e+00    3.019652e+00
  6.878280e+00    2.929314e+00
  6.910031e+00    3.003292e+00
  6.941782e+00    3.050291e+00
  6.973533e+00    2.971390e+00
  7.005284e+00    3.032125e+00
  7.037036e+00    3.043989e+00
  7.068787e+00    3.016363e+00
  7.100538e+00    2.969725e+00
  7.132289e+00    2.907837e+00
  7.164040e+00    3.038479e+00
  7.195791e+00    2.996279e+00
  7.227542e+00    2.973964e+00
  7.259294e+00    2.988598e+00
  7.291045e+00    2.938635e+00
  7.322796e+00    3.042072e+00
  7.354547e+00    3.035879e+00
  7.386298e+00    3.053409e+00
  7.418049e+00    3.018188e+00
  7.449800e+00    3.019956e+00
  7.481552e+00    3.063780e+00
  7.513303e+00    2.958363e+00
  7.545054e+00    2.898986e+00
  7.576805e+00    2.941561e+00
  7.608556e+00    3.033204e+00
  7.640307e+00    2.882963e+00
  7.672058e+00    2.928643e+00
  7.703810e+00    2.938144e+00
  7.735561e+00    2.888957e+00
  7.767312e+00    3.027529e+00
  7.799063e+00    3.011534e+00
  7.830814e+00    3.021202e+00
  7.862565e+00    2.885190e+00
  7.894317e+00    3.001489e+00
  7.926068e+00    2.905522e+00
  7.957819e+00    2.951237e+00
  7.989570e+00    2.920098e+00
  8.021321e+00    2.899304e+00
  8.053072e+00    2.935793e+00
  8.084823e+00    2.893348e+00
  8.116575e+00    3.011732e+00
  8.148326e+00    2.980705e+00
  8.180077e+00    3.006169e+00
  8.211828e+00    2.965155e+00
  8.243579e+00    2.940087e+00
  8.275330e+00    2.911453e+00
  8.307081e+00    2.896039e+00
  8.338833e+00    2.926602e+00
  8.370584e+00    2.882011e+00
  8.402335e+00    2.855156e+00
  8.434086e+00    2.909554e+00
  8.465837e+00    2.837717e+00
  8.497588e+00    2.853452e+00
  8.529339e+00    2.904248e+00
  8.561091e+00    2.897043e+00
  8.592842e+00    2.892021e+00
  8.624593e+00    2.890771e+00
  8.656344e+00    2.830352e+00
  8.688095e+00    2.875600e+00
  8.719846e+00    2.902728e+00
  8.751598e+00    2.881502e+00
  8.783349e+00    2.848815e+00
  8.815100e+00    2.880220e+00
  8.846851e+00    2.874858e+00
  8.878602e+00    2.833114e+00
  8.910353e+00    2.862253e+00
  8.942104e+00    2.800222e+00
  8.973856e+00    2.857393e+00
  9.005607e+00    2.813480e+00
  9.037358e+00    2.833400e+00
  9.069109e+00    2.827895e+00
  9.100860e+00    2.853435e+00
  9.132611e+00    2.808161e+00
  9.164362e+00    2.769568e+00
  9.196114e+00    2.810555e+00
  9.227865e+00    2.860655e+00
  9.259616e+00    2.741564e+00
  9.291367e+00    2.815971e+00
  9.323118e+00    2.785928e+00
  9.354869e+00    2.755048e+00
  9.386620e+00    2.777418e+00
  9.418372e+00    2.784992e+00
  9.450123e+00    2.800417e+00
  9.481874e+00    2.849977e+00
  9.513625e+00    2.695552e+00
  9.545376e+00    2.796754e+00
  9.577127e+00    2.776011e+00
  9.608878e+00    2.792494e+00
  9.640630e+00    2.803830e+00
  9.672381e+00    2.754735e+00
  9.704132e+00    2.804507e+00
  9.735883e+00    2.719538e+00
  9.767634e+00    2.711281e+00
  9.799385e+00    2.685715e+00
  9.831137e+00    2.667952e+00
  9.862888e+00    2.742058e+00
  9.894639e+00    2.676836e+00
  9.926390e+00    2.700256e+00
  9.958141e+00    2.678296e+00
  9.989892e+00    2.693201e+00
  1.002164e+01    2.700087e+00
  1.005339e+01    2.651822e+00
  1.008515e+01    2.707148e+00
  1.011690e+01    2.675637e+00
  1.014865e+01    2.684044e+00
  1.018040e+01    2.640539e+00
  1.021215e+01    2.702017e+00
  1.024390e+01    2.664637e+00
  1.027565e+01    2.652537e+00
  1.030740e+01    2.675803e+00
  1.033915e+01    2.608141e+00
  1.037091e+01    2.674704e+00
  1.040266e+01    2.680732e+00
  1.043441e+01    2.649566e+00
  1.046616e+01    2.598124e+00
  1.049791e+01    2.560303e+00
  1.052966e+01    2.541017e+00
  1.056141e+01    2.548661e+00
  1.059316e+01    2.593424e+00
  1.062492e+01    2.593471e+00
  1.065667e+01    2.579804e+00
  1.068842e+01    2.530012e+00
  1.072017e+01    2.553733e+00
  1.075192e+01    2.544553e+00
  1.078367e+01    2.528400e+00
  1.081542e+01    2.551274e+00
  1.084717e+01    2.520994e+00
  1.087892e+01    2.522527e+00
  1.091068e+01    2.504115e+00
  1.094243e+01    2.502141e+00
  1.097418e+01    2.545389e+00
  1.100593e+01    2.457320e+00
  1.103768e+01    2.446822e+00
  1.106943e+01    2.470986e+00
  1.110118e+01    2.456434e+00
  1.113293e+01    2.444384e+00
  1.116468e+01    2.477987e+00
  1.119644e+01    2.468165e+00
  1.122819e+01    2.444257e+00
  1.125994e+01    2.450926e+00
  1.129169e+01    2.435115e+00
  1.132344e+01    2.474802e+00
  1.135519e+01    2.453717e+00
  1.138694e+01    2.434174e+00
  1.141869e+01    2.431963e+00
  1.145045e+01    2.432624e+00
  1.148220e+01    2.423836e+00
  1.151395e+01    2.435428e+00
  1.154570e+01    2.410820e+00
  1.157745e+01    2.407841e+00
  1.160920e+01    2.424893e+00
  1.164095e+01    2.376544e+00
  1.167270e+01    2.369314e+00
  1.170445e+01    2.384090e+00
  1.173621e+01    2.413407e+00
  1.176796e+01    2.351483e+00
  1.179971e+01    2.299239e+00
  1.183146e+01    2.364488e+00
  1.186321e+01    2.343331e+00
  1.189496e+01    2.357839e+00
  1.192671e+01    2.298898e+00
  1.195846e+01    2.357846e+00
  1.199021e+01    2.348522e+00
  1.202197e+01    2.328892e+00
  1.205372e+01    2.313038e+00
  1.208547e+01    2.352480e+00
  1.211722e+01    2.328800e+00
  1.214897e+01    2.354357e+00
  1.218072e+01    2.318347e+00
  1.221247e+01    2.344311e+00
  1.224422e+01    2.295717e+00
  1.227597e+01    2.265691e+00
  1.230773e+01    2.330271e+00
  1.233948e+01    2.297678e+00
  1.237123e+01    2.343235e+00
  1.240298e+01    2.382940e+00
  1.243473e+01    2.326114e+00
  1.246648e+01    2.373017e+00
  1.249823e+01    2.366308e+00
  1.252998e+01    2.333683e+00
  1.256174e+01    2.352726e+00
  1.259349e+01    2.443189e+00
  1.262524e+01    2.444816e+00
  1.265699e+01    2.465011e+00
  1.268874e+01    2.460294e+00
  1.272049e+01    2.529318e+00
  1.275224e+01    2.597128e+00
  1.278399e+01    2.660455e+00
  1.281574e+01    2.742032e+00
  1.284750e+01    2.819637e+00
  1.287925e+01    3.036248e+00
  1.291100e+01    3.310514e+00
  1.294275e+01    3.662494e+00
  1.297450e+01    4.307472e+00
  1.300625e+01    5.310280e+00
  1.303800e+01    6.733794e+00
  1.306975e+01    9.132357e+00
  1.310150e+01    1.209639e+01
  1.313326e+01    1.498908e+01
  1.316501e+01    1.781740e+01
  1.319676e+01    1.947310e+01
  1.322851e+01    1.754834e+01
  1.326026e+01    1.318222e+01
  1.329201e+01    9.218315e+00
  1.332376e+01    6.810496e+00
  1.335551e+01    5.177909e+00
  1.338727e+01    4.283687e+00
  1.341902e+01    3.672025e+00
  1.345077e+01    3.235802e+00
  1.348252e+01    3.000001e+00
  1.351427e+01    2.822262e+00
  1.354602e+01    2.663729e+00
  1.357777e+01    2.581143e+00
  1.360952e+01    2.492800e+00
  1.364127e+01    2.372488e+00
  1.367303e+01    2.384400e+00
  1.370478e+01    2.339388e+00
  1.373653e+01    2.300862e+00
  1.376828e+01    2.236250e+00
  1.380003e+01    2.208981e+00
  1.383178e+01    2.193846e+00
  1.386353e+01    2.120327e+00
  1.389528e+01    2.119870e+00
  1.392703e+01    2.114491e+00
  1.395879e+01    2.086720e+00
  1.399054e+01    2.069364e+00
  1.402229e+01    2.045205e+00
  1.405404e+01    2.043796e+00
  1.408579e+01    2.066156e+00
  1.411754e+01    2.027891e+00
  1.414929e+01    2.040668e+00
  1.418104e+01    2.029587e+00
  1.421279e+01    2.021348e+00
  1.424455e+01    1.958620e+00
  1.427630e+01    1.992327e+00
  1.430805e+01    1.968006e+00
  1.433980e+01    1.963138e+00
  1.437155e+01    1.943386e+00
  1.440330e+01    1.935086e+00
  1.443505e+01    1.991960e+00
  1.446680e+01    1.944109e+00
  1.449856e+01    1.927447e+00
  1.453031e+01    1.928939e+00
  1.456206e+01    1.923574e+00
  1.459381e+01    1.946115e+00
  1.462556e+01    1.946760e+00
  1.465731e+01    1.931801e+00
  1.468906e+01    1.914250e+00
  1.472081e+01    1.939273e+00
  1.475256e+01    1.938808e+00
  1.478432e+01    1.901226e+00
  1.481607e+01    1.963071e+00
  1.484782e+01    1.930361e+00
  1.487957e+01    1.972994e+00
  1.491132e+01    1.977600e+00
  1.494307e+01    2.015068e+00
  1.497482e+01    2.048541e+00
  1.500657e+01    2.107284e+00
  1.503832e+01    2.277535e+00
  1.507008e+01    2.457664e+00
  1.510183e+01    2.766003e+00
  1.513358e+01    3.232997e+00
  1.516533e+01    4.031157e+00
  1.519708e+01    4.913739e+00
  1.522883e+01    5.651965e+00
  1.526058e+01    6.226656e+00
  1.529233e+01    6.447954e+00
  1.532409e+01    5.975896e+00
  1.535584e+01    4.781568e+00
  1.538759e+01    3.739259e+00
  1.541934e+01    3.014060e+00
  1.545109e+01    2.559997e+00
  1.548284e+01    2.331216e+00
  1.551459e+01    2.168089e+00
  1.554634e+01    2.030272e+00
  1.557809e+01    1.969582e+00
  1.560985e+01    1.886289e+00
  1.564160e+01    1.839266e+00
  1.567335e+01    1.805848e+00
  1.570510e+01    1.811947e+00
  1.573685e+01    1.725009e+00
  1.576860e+01    1.721107e+00
  1.580035e+01    1.739838e+00
  1.583210e+01    1.702268e+00
  1.586385e+01    1.669661e+00
  1.589561e+01    1.686356e+00
  1.592736e+01    1.656017e+00
  1.595911e+01    1.678570e+00
  1.599086e+01    1.611829e+00
  1.602261e+01    1.609095e+00
  1.605436e+01    1.613730e+00
  1.608611e+01    1.604672e+00
  1.611786e+01    1.577299e+00
  1.614961e+01    1.590184e+00
  1.618137e+01    1.607843e+00
  1.621312e+01    1.548091e+00
  1.624487e+01    1.570308e+00
  1.627662e+01    1.547091e+00
  1.630837e+01    1.547564e+00
  1.634012e+01    1.535165e+00
  1.637187e+01    1.573993e+00
  1.640362e+01    1.522247e+00
  1.643538e+01    1.501088e+00
  1.646713e+01    1.519819e+00
  1.649888e+01    1.510437e+00
  1.653063e+01    1.538498e+00
  1.656238e+01    1.535642e+00
  1.659413e+01    1.500136e+00
  1.662588e+01    1.515938e+00
  1.665763e+01    1.500567e+00
  1.668938e+01    1.467896e+00
  1.672114e+01    1.471060e+00
  1.675289e+01    1.470700e+00
  1.678464e+01    1.494651e+00
  1.681639e+01    1.478122e+00
  1.684814e+01    1.445320e+00
  1.687989e+01    1.460076e+00
  1.691164e+01    1.416604e+00
  1.694339e+01    1.408728e+00
  1.697514e+01    1.411797e+00
  1.700690e+01    1.414648e+00
  1.703865e+01    1.447903e+00
  1.707040e+01    1.437695e+00
  1.710215e+01    1.439605e+00
  1.713390e+01    1.422076e+00
  1.716565e+01    1.446922e+00
  1.719740e+01    1.411148e+00
  1.722915e+01    1.453165e+00
  1.726091e+01    1.385942e+00
  1.729266e+01    1.397323e+00
  1.732441e+01    1.419141e+00
  1.735616e+01    1.404520e+00
  1.738791e+01    1.372620e+00
  1.741966e+01    1.377255e+00
  1.745141e+01    1.380065e+00
  1.748316e+01    1.383797e+00
  1.751491e+01    1.349070e+00
  1.754667e+01    1.364479e+00
  1.757842e+01    1.368129e+00
  1.761017e+01    1.351545e+00
  1.764192e+01    1.357533e+00
  1.767367e+01    1.362111e+00
  1.770542e+01    1.364921e+00
  1.773717e+01    1.358193e+00
  1.776892e+01    1.357026e+00
  1.780067e+01    1.339433e+00
  1.783243e+01    1.321394e+00
  1.786418e+01    1.325346e+00
  1.789593e+01    1.322262e+00
  1.792768e+01    1.316400e+00
  1.795943e+01    1.294054e+00
  1.799118e+01    1.296056e+00
  1.802293e+01    1.324840e+00
  1.805468e+01    1.305731e+00
  1.808643e+01    1.286214e+00
  1.811819e+01    1.251967e+00
  1.814994e+01    1.309689e+00
  1.818169e+01    1.278556e+00
  1.821344e+01    1.286732e+00
  1.824519e+01    1.310249e+00
  1.827694e+01    1.293392e+00
  1.830869e+01    1.304603e+00
  1.834044e+01    1.262347e+00
  1.837220e+01    1.263662e+00
  1.840395e+01    1.287798e+00
  1.843570e+01    1.250114e+00
  1.846745e+01    1.238505e+00
  1.849920e+01    1.272365e+00
  1.853095e+01    1.226323e+00
  1.856270e+01    1.265842e+00
  1.859445e+01    1.245751e+00
  1.862620e+01    1.270433e+00
  1.865796e+01    1.265041e+00
  1.868971e+01    1.254469e+00
  1.872146e+01    1.252070e+00
  1.875321e+01    1.216580e+00
  1.878496e+01    1.217925e+00
  1.881671e+01    1.236669e+00
  1.884846e+01    1.206939e+00
  1.888021e+01    1.216985e+00
  1.891196e+01    1.209908e+00
  1.894372e+01    1.225678e+00
  1.897547e+01    1.234338e+00
  1.900722e+01    1.212920e+00
  1.903897e+01    1.213234e+00
  1.907072e+01    1.218325e+00
  1.910247e+01    1.196005e+00
  1.913422e+01    1.203087e+00
  1.916597e+01    1.227709e+00
  1.919773e+01    1.205389e+00
  1.922948e+01    1.200045e+00
  1.926123e+01    1.203941e+00
  1.929298e+01    1.169677e+00
  1.932473e+01    1.185851e+00
  1.935648e+01    1.194037e+00
  1.938823e+01    1.170630e+00
  1.941998e+01    1.183314e+00
  1.945173e+01    1.179764e+00
  1.948349e+01    1.177013e+00
  1.951524e+01    1.152535e+00
  1.954699e+01    1.162452e+00
  1.957874e+01    1.181977e+00
  1.961049e+01    1.167191e+00
  1.964224e+01    1.166933e+00
  1.967399e+01    1.162369e+00
  1.970574e+01    1.166889e+00
  1.973749e+01    1.136069e+00
  1.976925e+01    1.132819e+00
  1.980100e+01    1.135859e+00
  1.983275e+01    1.125897e+00
  1.986450e+01    1.133102e+00
  1.989625e+01    1.147109e+00
  1.992800e+01    1.146613e+00
  1.995975e+01    1.142881e+00
  1.999150e+01    1.148349e+00
  2.002325e+01    1.112163e+00
  2.005501e+01    1.124500e+00
  2.008676e+01    1.143725e+00
  2.011851e+01    1.139759e+00
  2.015026e+01    1.104352e+00
  2.018201e+01    1.120552e+00
  2.021376e+01    1.143199e+00
  2.024551e+01    1.138044e+00
  2.027726e+01    1.100557e+00
  2.030902e+01    1.107045e+00
  2.034077e+01    1.118654e+00
  2.037252e+01    1.083446e+00
  2.040427e+01    1.113281e+00
  2.043602e+01    1.092807e+00
  2.046777e+01    1.131458e+00
  2.049952e+01    1.115476e+00
  2.053127e+01    1.089283e+00
  2.056302e+01    1.090774e+00
  2.059478e+01    1.103476e+00
  2.062653e+01    1.095655e+00
  2.065828e+01    1.093951e+00
  2.069003e+01    1.094389e+00
  2.072178e+01    1.102516e+00
  2.075353e+01    1.104518e+00
  2.078528e+01    1.110883e+00
  2.081703e+01    1.078317e+00
  2.084878e+01    1.090251e+00
  2.088054e+01    1.107613e+00
  2.091229e+01    1.096790e+00
  2.094404e+01    1.083443e+00
  2.097579e+01    1.074564e+00
  2.100754e+01    1.076119e+00
  2.103929e+01    1.104020e+00
  2.107104e+01    1.099987e+00
  2.110279e+01    1.102140e+00
  2.113455e+01    1.108493e+00
  2.116630e+01    1.151313e+00
  2.119805e+01    1.125971e+00
  2.122980e+01    1.119218e+00
  2.126155e+01    1.096803e+00
  2.129330e+01    1.109535e+00
  2.132505e+01    1.124036e+00
  2.135680e+01    1.134852e+00
  2.138855e+01    1.171247e+00
  2.142031e+01    1.183598e+00
  2.145206e+01    1.211387e+00
  2.148381e+01    1.252483e+00
  2.151556e+01    1.279193e+00
  2.154731e+01    1.370698e+00
  2.157906e+01    1.427963e+00
  2.161081e+01    1.541465e+00
  2.164256e+01    1.742473e+00
  2.167431e+01    1.986024e+00
  2.170607e+01    2.324478e+00
  2.173782e+01    2.855433e+00
  2.176957e+01    3.759706e+00
  2.180132e+01    4.908137e+00
  2.183307e+01    6.418765e+00
  2.186482e+01    8.152573e+00
  2.189657e+01    9.834316e+00
  2.192832e+01    1.062158e+01
  2.196007e+01    9.978920e+00
  2.199183e+01    7.884853e+00
  2.202358e+01    5.647271e+00
  2.205533e+01    4.073016e+00
  2.208708e+01    3.085891e+00
  2.211883e+01    2.443769e+00
  2.215058e+01    2.048563e+00
  2.218233e+01    1.793851e+00
  2.221408e+01    1.589704e+00
  2.224584e+01    1.455386e+00
  2.227759e+01    1.356486e+00
  2.230934e+01    1.304327e+00
  2.234109e+01    1.195138e+00
  2.237284e+01    1.172330e+00
  2.240459e+01    1.154983e+00
  2.243634e+01    1.109571e+00
  2.246809e+01    1.089413e+00
  2.249984e+01    1.046941e+00
  2.253160e+01    1.045641e+00
  2.256335e+01    1.032481e+00
  2.259510e+01    1.016205e+00
  2.262685e+01    1.017736e+00
  2.265860e+01    9.953551e-01
  2.269035e+01    9.819764e-01
  2.272210e+01    9.896065e-01
  2.275385e+01    9.658723e-01
  2.278560e+01    9.477374e-01
  2.281736e+01    9.417459e-01
  2.284911e+01    9.329132e-01
  2.288086e+01    9.444281e-01
  2.291261e+01    9.208009e-01
  2.294436e+01    9.246023e-01
  2.297611e+01    9.284148e-01
  2.300786e+01    8.979930e-01
  2.303961e+01    9.199215e-01
  2.307137e+01    9.158117e-01
  2.310312e+01    9.115960e-01
  2.313487e+01    9.143800e-01
  2.316662e+01    8.826355e-01
  2.319837e+01    8.891740e-01
  2.323012e+01    8.900945e-01
  2.326187e+01    8.839095e-01
  2.329362e+01    8.789566e-01
  2.332537e+01    8.692924e-01
  2.335713e+01    8.828321e-01
  2.338888e+01    8.658414e-01
  2.342063e+01    8.714897e-01
  2.345238e+01    8.512747e-01
  2.348413e+01    8.512246e-01
  2.351588e+01    8.672648e-01
  2.354763e+01    8.347142e-01
  2.357938e+01    8.561550e-01
  2.361113e+01    8.358902e-01
  2.364289e+01    8.492120e-01
  2.367464e+01    8.474898e-01
  2.370639e+01    8.302785e-01
  2.373814e+01    8.227013e-01
  2.376989e+01    8.367720e-01
  2.380164e+01    8.296224e-01
  2.383339e+01    8.238658e-01
  2.386514e+01    8.174139e-01
  2.389689e+01    7.983087e-01
  2.392865e+01    8.007514e-01
  2.396040e+01    8.149202e-01
  2.399215e+01    8.046702e-01
  2.402390e+01    7.852212e-01
  2.405565e+01    7.974873e-01
  2.408740e+01    8.020901e-01
  2.411915e+01    7.847018e-01
  2.415090e+01    7.841266e-01
  2.418266e+01    8.121689e-01
  2.421441e+01    7.738691e-01
  2.424616e+01    7.887194e-01
  2.427791e+01    8.096560e-01
  2.430966e+01    7.794862e-01
  2.434141e+01    7.855092e-01
  2.437316e+01    8.027104e-01
  2.440491e+01    7.865615e-01
  2.443666e+01    7.994493e-01
  2.446842e+01    7.819418e-01
  2.450017e+01    8.222386e-01
  2.453192e+01    8.027580e-01
  2.456367e+01    7.968732e-01
  2.459542e+01    7.938846e-01
  2.462717e+01    7.881807e-01
  2.465892e+01    8.189315e-01
  2.469067e+01    8.088587e-01
  2.472242e+01    7.933701e-01
  2.475418e+01    8.073647e-01
  2.478593e+01    7.950113e-01
  2.481768e+01    7.901123e-01
  2.484943e+01    8.089345e-01
  2.488118e+01    7.825015e-01
  2.491293e+01    7.997218e-01
  2.494468e+01    8.055222e-01
  2.497643e+01    7.910427e-01
  2.500819e+01    8.184115e-01
  2.503994e+01    8.205701e-01
  2.507169e+01    8.238247e-01
  2.510344e+01    8.016271e-01
  2.513519e+01    8.170237e-01
  2.516694e+01    8.327325e-01
  2.519869e+01    8.431568e-01
  2.523044e+01    8.388727e-01
  2.526219e+01    8.652622e-01
  2.529395e+01    8.762496e-01
  2.532570e+01    8.928909e-01
  2.535745e+01    9.095892e-01
  2.538920e+01    9.112114e-01
  2.542095e+01    9.181930e-01
  2.545270e+01    9.411522e-01
  2.548445e+01    9.960442e-01
  2.551620e+01    1.006254e+00
  2.554795e+01    1.017711e+00
  2.557971e+01    1.070377e+00
  2.561146e+01    1.129119e+00
  2.564321e+01    1.173176e+00
  2.567496e+01    1.266747e+00
  2.570671e+01    1.427882e+00
  2.573846e+01    1.591642e+00
  2.577021e+01    1.852419e+00
  2.580196e+01    2.228074e+00
  2.583371e+01    2.854679e+00
  2.586547e+01    3.759349e+00
  2.589722e+01    5.022960e+00
  2.592897e+01    6.468560e+00
  2.596072e+01    7.924274e+00
  2.599247e+01    8.850254e+00
  2.602422e+01    8.582661e+00
  2.605597e+01    7.014651e+00
  2.608772e+01    5.236978e+00
  2.611948e+01    3.812981e+00
  2.615123e+01    2.885876e+00
  2.618298e+01    2.293747e+00
  2.621473e+01    1.907080e+00
  2.624648e+01    1.617859e+00
  2.627823e+01    1.436272e+00
  2.630998e+01    1.298512e+00
  2.634173e+01    1.196657e+00
  2.637348e+01    1.143987e+00
  2.640524e+01    1.063810e+00
  2.643699e+01    1.037811e+00
  2.646874e+01    1.015832e+00
  2.650049e+01    1.018612e+00
  2.653224e+01    9.664997e-01
  2.656399e+01    9.668670e-01
  2.659574e+01    9.355053e-01
  2.662749e+01    9.148903e-01
  2.665924e+01    9.137301e-01
  2.669100e+01    9.395257e-01
  2.672275e+01    9.310821e-01
  2.675450e+01    9.148476e-01
  2.678625e+01    9.179670e-01
  2.681800e+01    9.307292e-01
  2.684975e+01    9.017467e-01
  2.688150e+01    8.999891e-01
  2.691325e+01    9.123425e-01
  2.694501e+01    9.623790e-01
  2.697676e+01    9.730686e-01
  2.700851e+01    9.751178e-01
  2.704026e+01    1.055538e+00
  2.707201e+01    1.138304e+00
  2.710376e+01    1.298544e+00
  2.713551e+01    1.451444e+00
  2.716726e+01    1.735247e+00
  2.719901e+01    2.103194e+00
  2.723077e+01    2.406274e+00
  2.726252e+01    2.550614e+00
  2.729427e+01    2.427230e+00
  2.732602e+01    2.016789e+00
  2.735777e+01    1.714259e+00
  2.738952e+01    1.429874e+00
  2.742127e+01    1.221146e+00
  2.745302e+01    1.128809e+00
  2.748477e+01    1.046764e+00
  2.751653e+01    9.955058e-01
  2.754828e+01    9.368833e-01
  2.758003e+01    9.092966e-01
  2.761178e+01    8.834496e-01
  2.764353e+01    8.567714e-01
  2.767528e+01    8.506063e-01
  2.770703e+01    8.534389e-01
  2.773878e+01    8.448073e-01
  2.777054e+01    8.410327e-01
  2.780229e+01    8.625421e-01
  2.783404e+01    8.206902e-01
  2.786579e+01    8.021812e-01
  2.789754e+01    8.177221e-01
  2.792929e+01    8.145500e-01
  2.796104e+01    8.157445e-01
  2.799279e+01    7.994407e-01
  2.802454e+01    7.947575e-01
  2.805630e+01    8.052256e-01
  2.808805e+01    7.942056e-01
  2.811980e+01    7.956750e-01
  2.815155e+01    8.151941e-01
  2.818330e+01    7.749916e-01
  2.821505e+01    7.786168e-01
  2.824680e+01    7.945015e-01
  2.827855e+01    7.760584e-01
  2.831030e+01    7.780776e-01
  2.834206e+01    7.871988e-01
  2.837381e+01    7.928653e-01
  2.840556e+01    7.532902e-01
  2.843731e+01    7.762452e-01
  2.846906e+01    7.511370e-01
  2.850081e+01    7.646299e-01
  2.853256e+01    7.646120e-01
  2.856431e+01    7.647409e-01
  2.859606e+01    7.659305e-01
  2.862782e+01    7.772433e-01
  2.865957e+01    7.570097e-01
  2.869132e+01    7.525964e-01
  2.872307e+01    7.576253e-01
  2.875482e+01    7.663749e-01
  2.878657e+01    7.691008e-01
  2.881832e+01    7.735049e-01
  2.885007e+01    7.583238e-01
  2.888183e+01    7.626234e-01
  2.891358e+01    7.457227e-01
  2.894533e+01    7.671283e-01
  2.897708e+01    7.533853e-01
  2.900883e+01    7.571287e-01
  2.904058e+01    7.469707e-01
  2.907233e+01    7.479863e-01
  2.910408e+01    7.416620e-01
  2.913583e+01    7.350051e-01
  2.916759e+01    7.428287e-01
  2.919934e+01    7.261717e-01
  2.923109e+01    7.564955e-01
  2.926284e+01    7.385169e-01
  2.929459e+01    7.466860e-01
  2.932634e+01    7.502009e-01
  2.935809e+01    7.402920e-01
  2.938984e+01    7.442631e-01
  2.942159e+01    7.379192e-01
  2.945335e+01    7.273645e-01
  2.948510e+01    7.364028e-01
  2.951685e+01    7.376119e-01
  2.954860e+01    7.418791e-01
  2.958035e+01    7.447525e-01
  2.961210e+01    7.257794e-01
  2.964385e+01    7.322177e-01
  2.967560e+01    7.273225e-01
  2.970736e+01    7.373231e-01
  2.973911e+01    7.540124e-01
  2.977086e+01    7.237747e-01
  2.980261e+01    7.243411e-01
  2.983436e+01    7.227148e-01
  2.986611e+01    7.312788e-01
  2.989786e+01    7.440950e-01
  2.992961e+01    7.294425e-01
  2.996136e+01    7.370895e-01
  2.999312e+01    7.114638e-01
  3.002487e+01    7.301938e-01
  3.005662e+01    7.340184e-01
  3.008837e+01    7.452815e-01
  3.012012e+01    7.359439e-01
  3.015187e+01    7.321758e-01
  3.018362e+01    7.148256e-01
  3.021537e+01    7.256032e-01
  3.024712e+01    6.971267e-01
  3.027888e+01    7.105716e-01
  3.031063e+01    7.103258e-01
  3.034238e+01    7.198187e-01
  3.037413e+01    7.357174e-01
  3.040588e+01    7.287481e-01
  3.043763e+01    7.224592e-01
  3.046938e+01    7.096781e-01
  3.050113e+01    6.977838e-01
  3.053288e+01    7.316839e-01
  3.056464e+01    7.364003e-01
  3.059639e+01    7.201938e-01
  3.062814e+01    7.406926e-01
  3.065989e+01    7.202893e-01
  3.069164e+01    7.377285e-01
  3.072339e+01    7.256981e-01
  3.075514e+01    7.139460e-01
  3.078689e+01    7.119224e-01
  3.081865e+01    7.331216e-01
  3.085040e+01    7.039443e-01
  3.088215e+01    7.235714e-01
  3.091390e+01    7.273129e-01
  3.094565e+01    7.287427e-01
  3.097740e+01    7.157698e-01
  3.100915e+01    7.200872e-01
  3.104090e+01    7.261356e-01
  3.107265e+01    7.047241e-01
  3.110441e+01    7.415862e-01
  3.113616e+01    7.200042e-01
  3.116791e+01    7.363785e-01
  3.119966e+01    7.430091e-01
  3.123141e+01    7.019431e-01
  3.126316e+01    7.386703e-01
  3.129491e+01    7.433045e-01
  3.132666e+01    7.471595e-01
  3.135841e+01    7.424105e-01
  3.139017e+01    7.376993e-01
  3.142192e+01    7.486615e-01
  3.145367e+01    7.671701e-01
  3.148542e+01    7.769501e-01
  3.151717e+01    7.796056e-01
  3.154892e+01    7.843453e-01
  3.158067e+01    8.044605e-01
  3.161242e+01    8.363609e-01
  3.164418e+01    8.529037e-01
  3.167593e+01    9.016450e-01
  3.170768e+01    9.262717e-01
  3.173943e+01    9.768537e-01
  3.177118e+01    1.099321e+00
  3.180293e+01    1.229391e+00
  3.183468e+01    1.415061e+00
  3.186643e+01    1.768035e+00
  3.189818e+01    2.082276e+00
  3.192994e+01    2.381767e+00
  3.196169e+01    2.563590e+00
  3.199344e+01    2.332966e+00
  3.202519e+01    2.026628e+00
  3.205694e+01    1.626335e+00
  3.208869e+01    1.319144e+00
  3.212044e+01    1.180503e+00
  3.215219e+01    1.011862e+00
  3.218394e+01    9.586823e-01
  3.221570e+01    9.013380e-01
  3.224745e+01    8.320907e-01
  3.227920e+01    8.178452e-01
  3.231095e+01    8.072906e-01
  3.234270e+01    8.187871e-01
  3.237445e+01    7.580271e-01
  3.240620e+01    7.779042e-01
  3.243795e+01    7.695780e-01
  3.246970e+01    7.435609e-01
  3.250146e+01    7.561046e-01
  3.253321e+01    7.606382e-01
  3.254908e+01    7.341883e-01