File: XRD/2024-07-27_002_Ru-CGO-ex_Activtation_ramp_000002_data_000090.dat
# == pyFAI calibration ==
# Distance Sample to Detector: 0.4 m
# PONI: 9.750e-02, 1.135e-01 m
# Rotations: -0.000175 0.000000 -0.000000 rad
#
# == Fit2d calibration ==
# Distance Sample-beamCenter: 400.000 mm
# Center: x=1514.000, y=1300.000 pix
# Tilt: 0.010 deg  TiltPlanRot: 0.010 deg
#
# Detector Detector	 Spline= None	 PixelSize= 7.500e-05, 7.500e-05 m
#    Detector has a mask: False
#    Detector has a dark current: False
#    detector has a flat field: False
#
# Wavelength: 6.888e-11 m
# Mask applied: user provided
# Dark current applied: False
# Flat field applied: False
# Polarization factor: 0.99
# Normalization factor: 1.0
# --> /home/myspot/data/2024_07_Rosario/Ru-CGO-ex/2024-07-27_002_Ru-CGO-ex_Activtation_ramp_000002_data_000090.dat
#       q_nm^-1             I
  2.003187e-02    0.000000e+00
  5.178302e-02    1.217103e-01
  8.353417e-02    1.899742e-02
  1.152853e-01    8.994205e-03
  1.470365e-01    7.551357e-02
  1.787876e-01    4.372874e-02
  2.105388e-01    2.510582e-02
  2.422899e-01    3.786743e-02
  2.740411e-01    2.899043e-02
  3.057922e-01    1.359842e-02
  3.375433e-01    3.746084e-02
  3.692945e-01    3.348384e-02
  4.010456e-01    2.745821e-02
  4.327968e-01    6.165205e-02
  4.645479e-01    3.556432e-02
  4.962991e-01    4.762000e-02
  5.280502e-01    2.960142e-02
  5.598014e-01    6.368944e-02
  5.915525e-01    5.221606e-02
  6.233037e-01    5.169337e-02
  6.550548e-01    6.445317e-02
  6.868060e-01    1.306329e-02
  7.185571e-01    4.940221e-02
  7.503083e-01    6.214862e-02
  7.820594e-01    9.557852e-02
  8.138106e-01    1.882385e-01
  8.455617e-01    2.613666e-01
  8.773129e-01    4.184786e-01
  9.090640e-01    5.755985e-01
  9.408152e-01    6.323995e-01
  9.725663e-01    7.940016e-01
  1.004317e+00    1.115805e+00
  1.036069e+00    1.229035e+00
  1.067820e+00    1.273266e+00
  1.099571e+00    1.404564e+00
  1.131322e+00    1.384956e+00
  1.163073e+00    1.500532e+00
  1.194824e+00    1.579941e+00
  1.226575e+00    2.119703e+00
  1.258327e+00    2.400807e+00
  1.290078e+00    2.448883e+00
  1.321829e+00    2.477288e+00
  1.353580e+00    2.680951e+00
  1.385331e+00    2.466298e+00
  1.417082e+00    2.670051e+00
  1.448834e+00    2.686885e+00
  1.480585e+00    2.690730e+00
  1.512336e+00    2.770953e+00
  1.544087e+00    2.995150e+00
  1.575838e+00    2.962744e+00
  1.607589e+00    2.828169e+00
  1.639340e+00    2.815307e+00
  1.671092e+00    2.970392e+00
  1.702843e+00    2.946687e+00
  1.734594e+00    2.681683e+00
  1.766345e+00    2.763503e+00
  1.798096e+00    2.674454e+00
  1.829847e+00    2.800246e+00
  1.861598e+00    2.706545e+00
  1.893350e+00    2.705795e+00
  1.925101e+00    2.610969e+00
  1.956852e+00    2.566676e+00
  1.988603e+00    2.741405e+00
  2.020354e+00    2.641088e+00
  2.052105e+00    2.711055e+00
  2.083856e+00    2.702323e+00
  2.115608e+00    2.726307e+00
  2.147359e+00    2.765121e+00
  2.179110e+00    2.713425e+00
  2.210861e+00    2.742163e+00
  2.242612e+00    2.627510e+00
  2.274363e+00    2.708698e+00
  2.306115e+00    2.590223e+00
  2.337866e+00    2.738285e+00
  2.369617e+00    2.697683e+00
  2.401368e+00    2.773231e+00
  2.433119e+00    2.777592e+00
  2.464870e+00    2.682257e+00
  2.496621e+00    2.744161e+00
  2.528373e+00    2.733925e+00
  2.560124e+00    2.908045e+00
  2.591875e+00    2.802154e+00
  2.623626e+00    2.694544e+00
  2.655377e+00    2.845683e+00
  2.687128e+00    2.767587e+00
  2.718879e+00    2.795651e+00
  2.750631e+00    2.778576e+00
  2.782382e+00    2.784314e+00
  2.814133e+00    2.855177e+00
  2.845884e+00    2.797459e+00
  2.877635e+00    2.863329e+00
  2.909386e+00    2.794621e+00
  2.941137e+00    2.910412e+00
  2.972889e+00    2.827500e+00
  3.004640e+00    2.815833e+00
  3.036391e+00    2.860506e+00
  3.068142e+00    2.819960e+00
  3.099893e+00    2.769701e+00
  3.131644e+00    2.843715e+00
  3.163395e+00    2.902498e+00
  3.195147e+00    2.876968e+00
  3.226898e+00    2.828439e+00
  3.258649e+00    2.857606e+00
  3.290400e+00    2.884559e+00
  3.322151e+00    2.933039e+00
  3.353902e+00    2.884472e+00
  3.385654e+00    2.986739e+00
  3.417405e+00    2.784657e+00
  3.449156e+00    2.907199e+00
  3.480907e+00    2.908133e+00
  3.512658e+00    2.928012e+00
  3.544409e+00    2.902693e+00
  3.576160e+00    2.898375e+00
  3.607912e+00    2.909483e+00
  3.639663e+00    3.011455e+00
  3.671414e+00    2.926861e+00
  3.703165e+00    2.902617e+00
  3.734916e+00    2.994421e+00
  3.766667e+00    2.975007e+00
  3.798418e+00    2.866936e+00
  3.830170e+00    2.934010e+00
  3.861921e+00    3.006273e+00
  3.893672e+00    3.009636e+00
  3.925423e+00    2.963782e+00
  3.957174e+00    2.905033e+00
  3.988925e+00    2.999472e+00
  4.020676e+00    2.943937e+00
  4.052428e+00    2.971087e+00
  4.084179e+00    2.961213e+00
  4.115930e+00    2.960244e+00
  4.147681e+00    2.984012e+00
  4.179432e+00    2.987645e+00
  4.211183e+00    2.958065e+00
  4.242935e+00    2.998307e+00
  4.274686e+00    2.971786e+00
  4.306437e+00    3.057632e+00
  4.338188e+00    3.055623e+00
  4.369939e+00    3.075152e+00
  4.401690e+00    3.030041e+00
  4.433441e+00    3.028837e+00
  4.465193e+00    3.032506e+00
  4.496944e+00    2.969833e+00
  4.528695e+00    2.997845e+00
  4.560446e+00    3.034572e+00
  4.592197e+00    2.993988e+00
  4.623948e+00    3.068702e+00
  4.655699e+00    3.071483e+00
  4.687451e+00    3.014055e+00
  4.719202e+00    3.124879e+00
  4.750953e+00    3.011603e+00
  4.782704e+00    3.012546e+00
  4.814455e+00    2.970531e+00
  4.846206e+00    2.985970e+00
  4.877957e+00    3.085516e+00
  4.909709e+00    3.095381e+00
  4.941460e+00    3.016760e+00
  4.973211e+00    3.092803e+00
  5.004962e+00    3.025938e+00
  5.036713e+00    2.996914e+00
  5.068464e+00    3.069885e+00
  5.100216e+00    2.998389e+00
  5.131967e+00    3.101236e+00
  5.163718e+00    3.035844e+00
  5.195469e+00    3.038354e+00
  5.227220e+00    3.060967e+00
  5.258971e+00    3.120410e+00
  5.290722e+00    3.068630e+00
  5.322474e+00    3.104049e+00
  5.354225e+00    3.099115e+00
  5.385976e+00    3.056362e+00
  5.417727e+00    3.019693e+00
  5.449478e+00    3.026145e+00
  5.481229e+00    3.006789e+00
  5.512980e+00    2.960963e+00
  5.544732e+00    3.093532e+00
  5.576483e+00    2.961064e+00
  5.608234e+00    3.034121e+00
  5.639985e+00    3.031131e+00
  5.671736e+00    3.105359e+00
  5.703487e+00    3.072267e+00
  5.735238e+00    2.956375e+00
  5.766990e+00    3.017400e+00
  5.798741e+00    2.949092e+00
  5.830492e+00    3.017577e+00
  5.862243e+00    2.992905e+00
  5.893994e+00    2.974196e+00
  5.925745e+00    2.983121e+00
  5.957497e+00    2.978598e+00
  5.989248e+00    2.975101e+00
  6.020999e+00    2.869518e+00
  6.052750e+00    2.960897e+00
  6.084501e+00    2.966550e+00
  6.116252e+00    3.100482e+00
  6.148003e+00    3.074468e+00
  6.179755e+00    2.992315e+00
  6.211506e+00    2.926665e+00
  6.243257e+00    2.985043e+00
  6.275008e+00    2.944302e+00
  6.306759e+00    3.074636e+00
  6.338510e+00    2.966659e+00
  6.370261e+00    2.916485e+00
  6.402013e+00    3.058712e+00
  6.433764e+00    3.035111e+00
  6.465515e+00    2.955487e+00
  6.497266e+00    2.869021e+00
  6.529017e+00    3.007223e+00
  6.560768e+00    3.013812e+00
  6.592519e+00    2.970026e+00
  6.624271e+00    3.003310e+00
  6.656022e+00    3.015626e+00
  6.687773e+00    2.946815e+00
  6.719524e+00    2.995302e+00
  6.751275e+00    3.044576e+00
  6.783026e+00    2.944744e+00
  6.814777e+00    3.004961e+00
  6.846529e+00    2.992609e+00
  6.878280e+00    2.890712e+00
  6.910031e+00    2.984165e+00
  6.941782e+00    2.941224e+00
  6.973533e+00    2.948548e+00
  7.005284e+00    2.936686e+00
  7.037036e+00    2.977222e+00
  7.068787e+00    2.988796e+00
  7.100538e+00    2.978750e+00
  7.132289e+00    2.953012e+00
  7.164040e+00    2.927970e+00
  7.195791e+00    2.972814e+00
  7.227542e+00    2.891696e+00
  7.259294e+00    2.930879e+00
  7.291045e+00    2.913277e+00
  7.322796e+00    2.836693e+00
  7.354547e+00    2.934575e+00
  7.386298e+00    2.918271e+00
  7.418049e+00    2.917952e+00
  7.449800e+00    2.914659e+00
  7.481552e+00    2.898043e+00
  7.513303e+00    2.932315e+00
  7.545054e+00    2.942927e+00
  7.576805e+00    2.912241e+00
  7.608556e+00    2.924455e+00
  7.640307e+00    2.884072e+00
  7.672058e+00    2.902976e+00
  7.703810e+00    2.865190e+00
  7.735561e+00    2.915539e+00
  7.767312e+00    2.930228e+00
  7.799063e+00    2.861339e+00
  7.830814e+00    2.925736e+00
  7.862565e+00    2.946573e+00
  7.894317e+00    2.839702e+00
  7.926068e+00    2.867218e+00
  7.957819e+00    2.837981e+00
  7.989570e+00    2.870547e+00
  8.021321e+00    2.866405e+00
  8.053072e+00    2.953703e+00
  8.084823e+00    2.851732e+00
  8.116575e+00    2.860096e+00
  8.148326e+00    2.937717e+00
  8.180077e+00    2.876104e+00
  8.211828e+00    2.824558e+00
  8.243579e+00    2.928630e+00
  8.275330e+00    2.895786e+00
  8.307081e+00    2.896792e+00
  8.338833e+00    2.856725e+00
  8.370584e+00    2.836678e+00
  8.402335e+00    2.853569e+00
  8.434086e+00    2.872491e+00
  8.465837e+00    2.861934e+00
  8.497588e+00    2.776690e+00
  8.529339e+00    2.749413e+00
  8.561091e+00    2.792816e+00
  8.592842e+00    2.819756e+00
  8.624593e+00    2.822859e+00
  8.656344e+00    2.855962e+00
  8.688095e+00    2.816175e+00
  8.719846e+00    2.859839e+00
  8.751598e+00    2.857378e+00
  8.783349e+00    2.794263e+00
  8.815100e+00    2.840574e+00
  8.846851e+00    2.813020e+00
  8.878602e+00    2.805130e+00
  8.910353e+00    2.767544e+00
  8.942104e+00    2.767542e+00
  8.973856e+00    2.787010e+00
  9.005607e+00    2.774960e+00
  9.037358e+00    2.760235e+00
  9.069109e+00    2.749076e+00
  9.100860e+00    2.760320e+00
  9.132611e+00    2.812360e+00
  9.164362e+00    2.718907e+00
  9.196114e+00    2.750755e+00
  9.227865e+00    2.717074e+00
  9.259616e+00    2.658554e+00
  9.291367e+00    2.768692e+00
  9.323118e+00    2.749299e+00
  9.354869e+00    2.712611e+00
  9.386620e+00    2.702488e+00
  9.418372e+00    2.715995e+00
  9.450123e+00    2.702549e+00
  9.481874e+00    2.735306e+00
  9.513625e+00    2.672154e+00
  9.545376e+00    2.769643e+00
  9.577127e+00    2.701440e+00
  9.608878e+00    2.664900e+00
  9.640630e+00    2.715388e+00
  9.672381e+00    2.666906e+00
  9.704132e+00    2.666220e+00
  9.735883e+00    2.683619e+00
  9.767634e+00    2.637443e+00
  9.799385e+00    2.686440e+00
  9.831137e+00    2.670245e+00
  9.862888e+00    2.682514e+00
  9.894639e+00    2.623953e+00
  9.926390e+00    2.699244e+00
  9.958141e+00    2.662685e+00
  9.989892e+00    2.679561e+00
  1.002164e+01    2.629450e+00
  1.005339e+01    2.677143e+00
  1.008515e+01    2.604567e+00
  1.011690e+01    2.611373e+00
  1.014865e+01    2.589502e+00
  1.018040e+01    2.609987e+00
  1.021215e+01    2.598803e+00
  1.024390e+01    2.572522e+00
  1.027565e+01    2.577009e+00
  1.030740e+01    2.561601e+00
  1.033915e+01    2.570163e+00
  1.037091e+01    2.587297e+00
  1.040266e+01    2.528063e+00
  1.043441e+01    2.555398e+00
  1.046616e+01    2.553878e+00
  1.049791e+01    2.567575e+00
  1.052966e+01    2.600959e+00
  1.056141e+01    2.557542e+00
  1.059316e+01    2.508090e+00
  1.062492e+01    2.545077e+00
  1.065667e+01    2.463973e+00
  1.068842e+01    2.602320e+00
  1.072017e+01    2.541314e+00
  1.075192e+01    2.515170e+00
  1.078367e+01    2.508362e+00
  1.081542e+01    2.473647e+00
  1.084717e+01    2.492377e+00
  1.087892e+01    2.424625e+00
  1.091068e+01    2.504366e+00
  1.094243e+01    2.480345e+00
  1.097418e+01    2.458943e+00
  1.100593e+01    2.451122e+00
  1.103768e+01    2.428932e+00
  1.106943e+01    2.432481e+00
  1.110118e+01    2.481433e+00
  1.113293e+01    2.421578e+00
  1.116468e+01    2.462777e+00
  1.119644e+01    2.383796e+00
  1.122819e+01    2.412675e+00
  1.125994e+01    2.429434e+00
  1.129169e+01    2.387817e+00
  1.132344e+01    2.419439e+00
  1.135519e+01    2.455086e+00
  1.138694e+01    2.333647e+00
  1.141869e+01    2.373177e+00
  1.145045e+01    2.347315e+00
  1.148220e+01    2.373729e+00
  1.151395e+01    2.406619e+00
  1.154570e+01    2.331220e+00
  1.157745e+01    2.354327e+00
  1.160920e+01    2.333721e+00
  1.164095e+01    2.373166e+00
  1.167270e+01    2.347647e+00
  1.170445e+01    2.308347e+00
  1.173621e+01    2.307142e+00
  1.176796e+01    2.297745e+00
  1.179971e+01    2.331138e+00
  1.183146e+01    2.317852e+00
  1.186321e+01    2.296862e+00
  1.189496e+01    2.335972e+00
  1.192671e+01    2.330152e+00
  1.195846e+01    2.297601e+00
  1.199021e+01    2.297567e+00
  1.202197e+01    2.313434e+00
  1.205372e+01    2.303246e+00
  1.208547e+01    2.282259e+00
  1.211722e+01    2.301895e+00
  1.214897e+01    2.324332e+00
  1.218072e+01    2.297169e+00
  1.221247e+01    2.254324e+00
  1.224422e+01    2.298663e+00
  1.227597e+01    2.305121e+00
  1.230773e+01    2.268465e+00
  1.233948e+01    2.321809e+00
  1.237123e+01    2.320903e+00
  1.240298e+01    2.294822e+00
  1.243473e+01    2.319408e+00
  1.246648e+01    2.276289e+00
  1.249823e+01    2.345688e+00
  1.252998e+01    2.324987e+00
  1.256174e+01    2.341592e+00
  1.259349e+01    2.327015e+00
  1.262524e+01    2.351037e+00
  1.265699e+01    2.372008e+00
  1.268874e+01    2.478520e+00
  1.272049e+01    2.444289e+00
  1.275224e+01    2.489764e+00
  1.278399e+01    2.582979e+00
  1.281574e+01    2.674680e+00
  1.284750e+01    2.844057e+00
  1.287925e+01    2.997554e+00
  1.291100e+01    3.284905e+00
  1.294275e+01    3.643471e+00
  1.297450e+01    4.230625e+00
  1.300625e+01    5.298605e+00
  1.303800e+01    6.932526e+00
  1.306975e+01    9.370811e+00
  1.310150e+01    1.208743e+01
  1.313326e+01    1.476169e+01
  1.316501e+01    1.721836e+01
  1.319676e+01    1.792454e+01
  1.322851e+01    1.541327e+01
  1.326026e+01    1.115071e+01
  1.329201e+01    7.970255e+00
  1.332376e+01    5.970249e+00
  1.335551e+01    4.747879e+00
  1.338727e+01    3.918475e+00
  1.341902e+01    3.323344e+00
  1.345077e+01    3.079003e+00
  1.348252e+01    2.814773e+00
  1.351427e+01    2.632629e+00
  1.354602e+01    2.546987e+00
  1.357777e+01    2.459751e+00
  1.360952e+01    2.409955e+00
  1.364127e+01    2.312376e+00
  1.367303e+01    2.270787e+00
  1.370478e+01    2.231779e+00
  1.373653e+01    2.167736e+00
  1.376828e+01    2.128725e+00
  1.380003e+01    2.103982e+00
  1.383178e+01    2.168045e+00
  1.386353e+01    2.117793e+00
  1.389528e+01    2.051669e+00
  1.392703e+01    2.039112e+00
  1.395879e+01    2.083817e+00
  1.399054e+01    2.061008e+00
  1.402229e+01    2.058385e+00
  1.405404e+01    1.999494e+00
  1.408579e+01    2.024153e+00
  1.411754e+01    2.006157e+00
  1.414929e+01    2.041524e+00
  1.418104e+01    1.984521e+00
  1.421279e+01    1.966250e+00
  1.424455e+01    1.975984e+00
  1.427630e+01    1.916452e+00
  1.430805e+01    1.955381e+00
  1.433980e+01    1.924674e+00
  1.437155e+01    1.916806e+00
  1.440330e+01    1.892753e+00
  1.443505e+01    1.905969e+00
  1.446680e+01    1.896192e+00
  1.449856e+01    1.899185e+00
  1.453031e+01    1.912880e+00
  1.456206e+01    1.913041e+00
  1.459381e+01    1.882892e+00
  1.462556e+01    1.885796e+00
  1.465731e+01    1.897140e+00
  1.468906e+01    1.876232e+00
  1.472081e+01    1.889099e+00
  1.475256e+01    1.870705e+00
  1.478432e+01    1.887469e+00
  1.481607e+01    1.869018e+00
  1.484782e+01    1.907359e+00
  1.487957e+01    1.912385e+00
  1.491132e+01    1.977059e+00
  1.494307e+01    1.996070e+00
  1.497482e+01    2.033462e+00
  1.500657e+01    2.132288e+00
  1.503832e+01    2.252863e+00
  1.507008e+01    2.449920e+00
  1.510183e+01    2.805712e+00
  1.513358e+01    3.359161e+00
  1.516533e+01    4.049032e+00
  1.519708e+01    4.875572e+00
  1.522883e+01    5.543231e+00
  1.526058e+01    6.039051e+00
  1.529233e+01    5.988047e+00
  1.532409e+01    5.360175e+00
  1.535584e+01    4.264256e+00
  1.538759e+01    3.325117e+00
  1.541934e+01    2.735203e+00
  1.545109e+01    2.360167e+00
  1.548284e+01    2.137972e+00
  1.551459e+01    2.008810e+00
  1.554634e+01    1.966446e+00
  1.557809e+01    1.888841e+00
  1.560985e+01    1.837389e+00
  1.564160e+01    1.814068e+00
  1.567335e+01    1.752837e+00
  1.570510e+01    1.756043e+00
  1.573685e+01    1.693341e+00
  1.576860e+01    1.669136e+00
  1.580035e+01    1.621523e+00
  1.583210e+01    1.665716e+00
  1.586385e+01    1.634894e+00
  1.589561e+01    1.653352e+00
  1.592736e+01    1.609336e+00
  1.595911e+01    1.606481e+00
  1.599086e+01    1.617842e+00
  1.602261e+01    1.567773e+00
  1.605436e+01    1.571219e+00
  1.608611e+01    1.588766e+00
  1.611786e+01    1.561071e+00
  1.614961e+01    1.568311e+00
  1.618137e+01    1.585984e+00
  1.621312e+01    1.535742e+00
  1.624487e+01    1.532509e+00
  1.627662e+01    1.538838e+00
  1.630837e+01    1.505051e+00
  1.634012e+01    1.512871e+00
  1.637187e+01    1.550955e+00
  1.640362e+01    1.500387e+00
  1.643538e+01    1.510825e+00
  1.646713e+01    1.498146e+00
  1.649888e+01    1.508532e+00
  1.653063e+01    1.511035e+00
  1.656238e+01    1.492919e+00
  1.659413e+01    1.460974e+00
  1.662588e+01    1.456018e+00
  1.665763e+01    1.468289e+00
  1.668938e+01    1.451946e+00
  1.672114e+01    1.464359e+00
  1.675289e+01    1.443399e+00
  1.678464e+01    1.416803e+00
  1.681639e+01    1.422524e+00
  1.684814e+01    1.427125e+00
  1.687989e+01    1.460040e+00
  1.691164e+01    1.434309e+00
  1.694339e+01    1.438288e+00
  1.697514e+01    1.420454e+00
  1.700690e+01    1.417591e+00
  1.703865e+01    1.413732e+00
  1.707040e+01    1.383453e+00
  1.710215e+01    1.409055e+00
  1.713390e+01    1.412654e+00
  1.716565e+01    1.362176e+00
  1.719740e+01    1.379722e+00
  1.722915e+01    1.397739e+00
  1.726091e+01    1.353158e+00
  1.729266e+01    1.401425e+00
  1.732441e+01    1.380897e+00
  1.735616e+01    1.373415e+00
  1.738791e+01    1.335134e+00
  1.741966e+01    1.377004e+00
  1.745141e+01    1.374673e+00
  1.748316e+01    1.378040e+00
  1.751491e+01    1.362036e+00
  1.754667e+01    1.343059e+00
  1.757842e+01    1.354657e+00
  1.761017e+01    1.343926e+00
  1.764192e+01    1.328201e+00
  1.767367e+01    1.338551e+00
  1.770542e+01    1.327538e+00
  1.773717e+01    1.336065e+00
  1.776892e+01    1.322638e+00
  1.780067e+01    1.330930e+00
  1.783243e+01    1.294844e+00
  1.786418e+01    1.281956e+00
  1.789593e+01    1.311586e+00
  1.792768e+01    1.311510e+00
  1.795943e+01    1.277303e+00
  1.799118e+01    1.284274e+00
  1.802293e+01    1.270841e+00
  1.805468e+01    1.303082e+00
  1.808643e+01    1.253145e+00
  1.811819e+01    1.253119e+00
  1.814994e+01    1.299007e+00
  1.818169e+01    1.255084e+00
  1.821344e+01    1.271677e+00
  1.824519e+01    1.262688e+00
  1.827694e+01    1.244868e+00
  1.830869e+01    1.276848e+00
  1.834044e+01    1.271123e+00
  1.837220e+01    1.274357e+00
  1.840395e+01    1.245198e+00
  1.843570e+01    1.216874e+00
  1.846745e+01    1.233838e+00
  1.849920e+01    1.231829e+00
  1.853095e+01    1.202983e+00
  1.856270e+01    1.245497e+00
  1.859445e+01    1.224248e+00
  1.862620e+01    1.202667e+00
  1.865796e+01    1.178413e+00
  1.868971e+01    1.206671e+00
  1.872146e+01    1.208442e+00
  1.875321e+01    1.198651e+00
  1.878496e+01    1.204782e+00
  1.881671e+01    1.212910e+00
  1.884846e+01    1.198907e+00
  1.888021e+01    1.181468e+00
  1.891196e+01    1.194995e+00
  1.894372e+01    1.215491e+00
  1.897547e+01    1.186642e+00
  1.900722e+01    1.184489e+00
  1.903897e+01    1.188239e+00
  1.907072e+01    1.182123e+00
  1.910247e+01    1.137051e+00
  1.913422e+01    1.178088e+00
  1.916597e+01    1.185075e+00
  1.919773e+01    1.185711e+00
  1.922948e+01    1.161485e+00
  1.926123e+01    1.179989e+00
  1.929298e+01    1.159631e+00
  1.932473e+01    1.148270e+00
  1.935648e+01    1.203922e+00
  1.938823e+01    1.169275e+00
  1.941998e+01    1.152951e+00
  1.945173e+01    1.174076e+00
  1.948349e+01    1.142214e+00
  1.951524e+01    1.141070e+00
  1.954699e+01    1.129619e+00
  1.957874e+01    1.140359e+00
  1.961049e+01    1.149170e+00
  1.964224e+01    1.139780e+00
  1.967399e+01    1.126074e+00
  1.970574e+01    1.120426e+00
  1.973749e+01    1.109562e+00
  1.976925e+01    1.145121e+00
  1.980100e+01    1.130423e+00
  1.983275e+01    1.120332e+00
  1.986450e+01    1.107159e+00
  1.989625e+01    1.080316e+00
  1.992800e+01    1.115595e+00
  1.995975e+01    1.126170e+00
  1.999150e+01    1.101487e+00
  2.002325e+01    1.111156e+00
  2.005501e+01    1.102576e+00
  2.008676e+01    1.100105e+00
  2.011851e+01    1.078103e+00
  2.015026e+01    1.095781e+00
  2.018201e+01    1.094504e+00
  2.021376e+01    1.098414e+00
  2.024551e+01    1.092966e+00
  2.027726e+01    1.076043e+00
  2.030902e+01    1.102940e+00
  2.034077e+01    1.089481e+00
  2.037252e+01    1.084100e+00
  2.040427e+01    1.086482e+00
  2.043602e+01    1.070773e+00
  2.046777e+01    1.059883e+00
  2.049952e+01    1.078638e+00
  2.053127e+01    1.072396e+00
  2.056302e+01    1.087897e+00
  2.059478e+01    1.086043e+00
  2.062653e+01    1.065113e+00
  2.065828e+01    1.073752e+00
  2.069003e+01    1.049758e+00
  2.072178e+01    1.056948e+00
  2.075353e+01    1.066133e+00
  2.078528e+01    1.052682e+00
  2.081703e+01    1.076753e+00
  2.084878e+01    1.061155e+00
  2.088054e+01    1.061859e+00
  2.091229e+01    1.076663e+00
  2.094404e+01    1.053580e+00
  2.097579e+01    1.088400e+00
  2.100754e+01    1.056213e+00
  2.103929e+01    1.067770e+00
  2.107104e+01    1.088519e+00
  2.110279e+01    1.077425e+00
  2.113455e+01    1.106359e+00
  2.116630e+01    1.081455e+00
  2.119805e+01    1.073849e+00
  2.122980e+01    1.074208e+00
  2.126155e+01    1.089236e+00
  2.129330e+01    1.117705e+00
  2.132505e+01    1.142010e+00
  2.135680e+01    1.123151e+00
  2.138855e+01    1.138517e+00
  2.142031e+01    1.172140e+00
  2.145206e+01    1.194530e+00
  2.148381e+01    1.237918e+00
  2.151556e+01    1.304715e+00
  2.154731e+01    1.363744e+00
  2.157906e+01    1.426069e+00
  2.161081e+01    1.563281e+00
  2.164256e+01    1.749081e+00
  2.167431e+01    2.015240e+00
  2.170607e+01    2.427491e+00
  2.173782e+01    3.040427e+00
  2.176957e+01    3.952099e+00
  2.180132e+01    5.265741e+00
  2.183307e+01    6.683374e+00
  2.186482e+01    8.245108e+00
  2.189657e+01    9.550605e+00
  2.192832e+01    9.801037e+00
  2.196007e+01    8.442270e+00
  2.199183e+01    6.388369e+00
  2.202358e+01    4.579821e+00
  2.205533e+01    3.333647e+00
  2.208708e+01    2.585096e+00
  2.211883e+01    2.084682e+00
  2.215058e+01    1.827053e+00
  2.218233e+01    1.630060e+00
  2.221408e+01    1.455395e+00
  2.224584e+01    1.342167e+00
  2.227759e+01    1.251829e+00
  2.230934e+01    1.229693e+00
  2.234109e+01    1.190826e+00
  2.237284e+01    1.144292e+00
  2.240459e+01    1.109376e+00
  2.243634e+01    1.054473e+00
  2.246809e+01    1.050139e+00
  2.249984e+01    1.006630e+00
  2.253160e+01    1.026900e+00
  2.256335e+01    1.001207e+00
  2.259510e+01    9.740136e-01
  2.262685e+01    9.706063e-01
  2.265860e+01    9.692635e-01
  2.269035e+01    9.398404e-01
  2.272210e+01    9.623045e-01
  2.275385e+01    9.611463e-01
  2.278560e+01    9.499837e-01
  2.281736e+01    9.483898e-01
  2.284911e+01    9.134024e-01
  2.288086e+01    9.021848e-01
  2.291261e+01    9.061745e-01
  2.294436e+01    8.998987e-01
  2.297611e+01    9.111778e-01
  2.300786e+01    8.844823e-01
  2.303961e+01    8.946409e-01
  2.307137e+01    8.870484e-01
  2.310312e+01    8.906797e-01
  2.313487e+01    8.827456e-01
  2.316662e+01    8.659477e-01
  2.319837e+01    8.635806e-01
  2.323012e+01    8.671854e-01
  2.326187e+01    8.508040e-01
  2.329362e+01    8.792826e-01
  2.332537e+01    8.527023e-01
  2.335713e+01    8.500057e-01
  2.338888e+01    8.480024e-01
  2.342063e+01    8.603388e-01
  2.345238e+01    8.343582e-01
  2.348413e+01    8.642527e-01
  2.351588e+01    8.514100e-01
  2.354763e+01    8.352895e-01
  2.357938e+01    8.203056e-01
  2.361113e+01    8.350006e-01
  2.364289e+01    8.217385e-01
  2.367464e+01    8.195601e-01
  2.370639e+01    8.248972e-01
  2.373814e+01    8.169129e-01
  2.376989e+01    7.987155e-01
  2.380164e+01    8.130063e-01
  2.383339e+01    7.949538e-01
  2.386514e+01    7.897921e-01
  2.389689e+01    7.863069e-01
  2.392865e+01    7.807029e-01
  2.396040e+01    7.967476e-01
  2.399215e+01    7.752717e-01
  2.402390e+01    7.709107e-01
  2.405565e+01    8.066714e-01
  2.408740e+01    7.743956e-01
  2.411915e+01    7.455615e-01
  2.415090e+01    7.694795e-01
  2.418266e+01    7.734884e-01
  2.421441e+01    7.642059e-01
  2.424616e+01    7.923558e-01
  2.427791e+01    7.813378e-01
  2.430966e+01    7.846477e-01
  2.434141e+01    7.901330e-01
  2.437316e+01    7.597824e-01
  2.440491e+01    7.773273e-01
  2.443666e+01    7.888955e-01
  2.446842e+01    7.920355e-01
  2.450017e+01    7.801646e-01
  2.453192e+01    7.677969e-01
  2.456367e+01    7.997628e-01
  2.459542e+01    7.740736e-01
  2.462717e+01    7.857926e-01
  2.465892e+01    8.049186e-01
  2.469067e+01    8.002608e-01
  2.472242e+01    7.702295e-01
  2.475418e+01    7.861073e-01
  2.478593e+01    7.670344e-01
  2.481768e+01    7.792763e-01
  2.484943e+01    7.922652e-01
  2.488118e+01    7.833683e-01
  2.491293e+01    7.899824e-01
  2.494468e+01    7.974551e-01
  2.497643e+01    7.717925e-01
  2.500819e+01    8.084629e-01
  2.503994e+01    7.948498e-01
  2.507169e+01    7.898183e-01
  2.510344e+01    7.898586e-01
  2.513519e+01    8.100166e-01
  2.516694e+01    8.091762e-01
  2.519869e+01    8.365789e-01
  2.523044e+01    8.450960e-01
  2.526219e+01    8.447382e-01
  2.529395e+01    8.428000e-01
  2.532570e+01    8.736505e-01
  2.535745e+01    8.905440e-01
  2.538920e+01    8.756617e-01
  2.542095e+01    8.836759e-01
  2.545270e+01    9.230452e-01
  2.548445e+01    9.363692e-01
  2.551620e+01    9.755278e-01
  2.554795e+01    1.010338e+00
  2.557971e+01    1.078579e+00
  2.561146e+01    1.114243e+00
  2.564321e+01    1.164510e+00
  2.567496e+01    1.296267e+00
  2.570671e+01    1.456900e+00
  2.573846e+01    1.620341e+00
  2.577021e+01    1.930796e+00
  2.580196e+01    2.404000e+00
  2.583371e+01    3.088067e+00
  2.586547e+01    4.046446e+00
  2.589722e+01    5.339295e+00
  2.592897e+01    6.711928e+00
  2.596072e+01    7.843398e+00
  2.599247e+01    8.160836e+00
  2.602422e+01    7.211926e+00
  2.605597e+01    5.603940e+00
  2.608772e+01    4.084536e+00
  2.611948e+01    3.038334e+00
  2.615123e+01    2.351294e+00
  2.618298e+01    1.904837e+00
  2.621473e+01    1.640701e+00
  2.624648e+01    1.428794e+00
  2.627823e+01    1.289112e+00
  2.630998e+01    1.187563e+00
  2.634173e+01    1.111255e+00
  2.637348e+01    1.060148e+00
  2.640524e+01    1.012824e+00
  2.643699e+01    9.837862e-01
  2.646874e+01    9.618114e-01
  2.650049e+01    9.470176e-01
  2.653224e+01    9.245798e-01
  2.656399e+01    9.162664e-01
  2.659574e+01    9.246150e-01
  2.662749e+01    9.067265e-01
  2.665924e+01    8.975479e-01
  2.669100e+01    9.003364e-01
  2.672275e+01    9.117329e-01
  2.675450e+01    9.071646e-01
  2.678625e+01    9.020115e-01
  2.681800e+01    8.785496e-01
  2.684975e+01    8.816302e-01
  2.688150e+01    8.950356e-01
  2.691325e+01    9.224282e-01
  2.694501e+01    9.413957e-01
  2.697676e+01    9.659283e-01
  2.700851e+01    1.021822e+00
  2.704026e+01    1.049827e+00
  2.707201e+01    1.165809e+00
  2.710376e+01    1.321080e+00
  2.713551e+01    1.519569e+00
  2.716726e+01    1.798745e+00
  2.719901e+01    2.142961e+00
  2.723077e+01    2.362181e+00
  2.726252e+01    2.327192e+00
  2.729427e+01    2.025130e+00
  2.732602e+01    1.736400e+00
  2.735777e+01    1.468487e+00
  2.738952e+01    1.248251e+00
  2.742127e+01    1.145743e+00
  2.745302e+01    1.020961e+00
  2.748477e+01    9.759110e-01
  2.751653e+01    9.234390e-01
  2.754828e+01    9.298836e-01
  2.758003e+01    8.596436e-01
  2.761178e+01    8.783267e-01
  2.764353e+01    8.454299e-01
  2.767528e+01    8.364188e-01
  2.770703e+01    8.424556e-01
  2.773878e+01    8.145179e-01
  2.777054e+01    8.124077e-01
  2.780229e+01    8.160507e-01
  2.783404e+01    7.965309e-01
  2.786579e+01    8.208562e-01
  2.789754e+01    8.137418e-01
  2.792929e+01    7.712325e-01
  2.796104e+01    7.748917e-01
  2.799279e+01    7.663145e-01
  2.802454e+01    7.877300e-01
  2.805630e+01    7.875879e-01
  2.808805e+01    7.739934e-01
  2.811980e+01    7.797986e-01
  2.815155e+01    7.731677e-01
  2.818330e+01    7.682312e-01
  2.821505e+01    7.792124e-01
  2.824680e+01    7.701736e-01
  2.827855e+01    7.544908e-01
  2.831030e+01    7.771152e-01
  2.834206e+01    7.659909e-01
  2.837381e+01    7.573128e-01
  2.840556e+01    7.688074e-01
  2.843731e+01    7.640209e-01
  2.846906e+01    7.610195e-01
  2.850081e+01    7.679582e-01
  2.853256e+01    7.488753e-01
  2.856431e+01    7.307844e-01
  2.859606e+01    7.279776e-01
  2.862782e+01    7.824383e-01
  2.865957e+01    7.429968e-01
  2.869132e+01    7.703037e-01
  2.872307e+01    7.616736e-01
  2.875482e+01    7.583603e-01
  2.878657e+01    7.314652e-01
  2.881832e+01    7.351699e-01
  2.885007e+01    7.446298e-01
  2.888183e+01    7.464877e-01
  2.891358e+01    7.420179e-01
  2.894533e+01    7.259130e-01
  2.897708e+01    7.569284e-01
  2.900883e+01    7.295711e-01
  2.904058e+01    7.288787e-01
  2.907233e+01    7.366297e-01
  2.910408e+01    7.240577e-01
  2.913583e+01    7.371299e-01
  2.916759e+01    7.258431e-01
  2.919934e+01    7.323089e-01
  2.923109e+01    7.382410e-01
  2.926284e+01    7.277767e-01
  2.929459e+01    7.350557e-01
  2.932634e+01    6.963915e-01
  2.935809e+01    7.110315e-01
  2.938984e+01    7.310778e-01
  2.942159e+01    7.385470e-01
  2.945335e+01    7.230827e-01
  2.948510e+01    7.321611e-01
  2.951685e+01    7.090776e-01
  2.954860e+01    7.218696e-01
  2.958035e+01    7.208082e-01
  2.961210e+01    7.499746e-01
  2.964385e+01    7.053305e-01
  2.967560e+01    7.270511e-01
  2.970736e+01    7.148204e-01
  2.973911e+01    7.193443e-01
  2.977086e+01    7.169986e-01
  2.980261e+01    7.084205e-01
  2.983436e+01    6.843147e-01
  2.986611e+01    7.091053e-01
  2.989786e+01    7.190425e-01
  2.992961e+01    7.209290e-01
  2.996136e+01    7.275181e-01
  2.999312e+01    7.319944e-01
  3.002487e+01    7.132090e-01
  3.005662e+01    7.262202e-01
  3.008837e+01    7.284077e-01
  3.012012e+01    7.256833e-01
  3.015187e+01    7.110556e-01
  3.018362e+01    7.088356e-01
  3.021537e+01    6.745181e-01
  3.024712e+01    7.126741e-01
  3.027888e+01    6.982059e-01
  3.031063e+01    6.868638e-01
  3.034238e+01    6.855538e-01
  3.037413e+01    7.073154e-01
  3.040588e+01    6.776279e-01
  3.043763e+01    7.054979e-01
  3.046938e+01    7.090036e-01
  3.050113e+01    7.036582e-01
  3.053288e+01    7.182358e-01
  3.056464e+01    7.149768e-01
  3.059639e+01    7.048395e-01
  3.062814e+01    6.983451e-01
  3.065989e+01    7.032890e-01
  3.069164e+01    7.216738e-01
  3.072339e+01    6.957245e-01
  3.075514e+01    7.542149e-01
  3.078689e+01    7.116185e-01
  3.081865e+01    7.098192e-01
  3.085040e+01    7.119631e-01
  3.088215e+01    7.020290e-01
  3.091390e+01    7.296122e-01
  3.094565e+01    7.201108e-01
  3.097740e+01    7.235917e-01
  3.100915e+01    7.160886e-01
  3.104090e+01    6.908792e-01
  3.107265e+01    7.288139e-01
  3.110441e+01    7.140884e-01
  3.113616e+01    7.330736e-01
  3.116791e+01    7.294915e-01
  3.119966e+01    7.235231e-01
  3.123141e+01    7.228079e-01
  3.126316e+01    7.302581e-01
  3.129491e+01    7.323047e-01
  3.132666e+01    7.050115e-01
  3.135841e+01    7.157207e-01
  3.139017e+01    7.514774e-01
  3.142192e+01    7.384220e-01
  3.145367e+01    7.413705e-01
  3.148542e+01    7.389795e-01
  3.151717e+01    7.496976e-01
  3.154892e+01    7.756697e-01
  3.158067e+01    7.879418e-01
  3.161242e+01    8.041423e-01
  3.164418e+01    8.399775e-01
  3.167593e+01    8.873160e-01
  3.170768e+01    9.539430e-01
  3.173943e+01    1.012574e+00
  3.177118e+01    1.115618e+00
  3.180293e+01    1.287261e+00
  3.183468e+01    1.520921e+00
  3.186643e+01    1.851930e+00
  3.189818e+01    2.140207e+00
  3.192994e+01    2.374091e+00
  3.196169e+01    2.291616e+00
  3.199344e+01    1.989184e+00
  3.202519e+01    1.592534e+00
  3.205694e+01    1.378745e+00
  3.208869e+01    1.146040e+00
  3.212044e+01    1.038667e+00
  3.215219e+01    9.203292e-01
  3.218394e+01    8.826109e-01
  3.221570e+01    8.397807e-01
  3.224745e+01    8.018994e-01
  3.227920e+01    7.684757e-01
  3.231095e+01    7.620392e-01
  3.234270e+01    7.525595e-01
  3.237445e+01    7.542786e-01
  3.240620e+01    7.442670e-01
  3.243795e+01    7.287497e-01
  3.246970e+01    7.373900e-01
  3.250146e+01    7.179443e-01
  3.253321e+01    7.047431e-01
  3.254908e+01    6.997581e-01