File: XRD/2024-07-27_002_Ru-CGO-ex_Activtation_ramp_000002_data_000138.dat
# == pyFAI calibration ==
# Distance Sample to Detector: 0.4 m
# PONI: 9.750e-02, 1.135e-01 m
# Rotations: -0.000175 0.000000 -0.000000 rad
#
# == Fit2d calibration ==
# Distance Sample-beamCenter: 400.000 mm
# Center: x=1514.000, y=1300.000 pix
# Tilt: 0.010 deg  TiltPlanRot: 0.010 deg
#
# Detector Detector	 Spline= None	 PixelSize= 7.500e-05, 7.500e-05 m
#    Detector has a mask: False
#    Detector has a dark current: False
#    detector has a flat field: False
#
# Wavelength: 6.888e-11 m
# Mask applied: user provided
# Dark current applied: False
# Flat field applied: False
# Polarization factor: 0.99
# Normalization factor: 1.0
# --> /home/myspot/data/2024_07_Rosario/Ru-CGO-ex/2024-07-27_002_Ru-CGO-ex_Activtation_ramp_000002_data_000138.dat
#       q_nm^-1             I
  2.003187e-02    7.712624e-02
  5.178302e-02    0.000000e+00
  8.353417e-02    1.046373e-01
  1.152853e-01    8.056903e-02
  1.470365e-01    6.656499e-02
  1.787876e-01    1.416245e-02
  2.105388e-01    6.417663e-02
  2.422899e-01    7.841557e-02
  2.740411e-01    1.680842e-02
  3.057922e-01    2.588983e-02
  3.375433e-01    5.746020e-02
  3.692945e-01    4.563693e-02
  4.010456e-01    1.720289e-02
  4.327968e-01    4.620028e-02
  4.645479e-01    5.594723e-02
  4.962991e-01    3.184427e-02
  5.280502e-01    3.972142e-02
  5.598014e-01    3.320536e-02
  5.915525e-01    2.190715e-02
  6.233037e-01    6.864882e-02
  6.550548e-01    1.639285e-02
  6.868060e-01    3.758280e-02
  7.185571e-01    5.254720e-02
  7.503083e-01    5.645797e-02
  7.820594e-01    8.480561e-02
  8.138106e-01    1.522521e-01
  8.455617e-01    3.993208e-01
  8.773129e-01    4.147297e-01
  9.090640e-01    5.200474e-01
  9.408152e-01    7.701952e-01
  9.725663e-01    9.488459e-01
  1.004317e+00    1.133635e+00
  1.036069e+00    1.197666e+00
  1.067820e+00    1.242321e+00
  1.099571e+00    1.335555e+00
  1.131322e+00    1.552764e+00
  1.163073e+00    1.482101e+00
  1.194824e+00    1.696706e+00
  1.226575e+00    1.996295e+00
  1.258327e+00    2.152107e+00
  1.290078e+00    2.482691e+00
  1.321829e+00    2.511494e+00
  1.353580e+00    2.423581e+00
  1.385331e+00    2.533331e+00
  1.417082e+00    2.565189e+00
  1.448834e+00    2.707215e+00
  1.480585e+00    2.733045e+00
  1.512336e+00    2.681695e+00
  1.544087e+00    2.893293e+00
  1.575838e+00    2.873158e+00
  1.607589e+00    2.875748e+00
  1.639340e+00    2.771414e+00
  1.671092e+00    2.855095e+00
  1.702843e+00    2.795595e+00
  1.734594e+00    2.683095e+00
  1.766345e+00    2.778086e+00
  1.798096e+00    2.737302e+00
  1.829847e+00    2.769516e+00
  1.861598e+00    2.720950e+00
  1.893350e+00    2.704386e+00
  1.925101e+00    2.789082e+00
  1.956852e+00    2.749409e+00
  1.988603e+00    2.679103e+00
  2.020354e+00    2.742197e+00
  2.052105e+00    2.590720e+00
  2.083856e+00    2.681426e+00
  2.115608e+00    2.626152e+00
  2.147359e+00    2.674199e+00
  2.179110e+00    2.758028e+00
  2.210861e+00    2.752649e+00
  2.242612e+00    2.672328e+00
  2.274363e+00    2.844429e+00
  2.306115e+00    2.654285e+00
  2.337866e+00    2.746804e+00
  2.369617e+00    2.703495e+00
  2.401368e+00    2.574784e+00
  2.433119e+00    2.677734e+00
  2.464870e+00    2.791854e+00
  2.496621e+00    2.782797e+00
  2.528373e+00    2.700273e+00
  2.560124e+00    2.889462e+00
  2.591875e+00    2.761420e+00
  2.623626e+00    2.710807e+00
  2.655377e+00    2.814037e+00
  2.687128e+00    2.782329e+00
  2.718879e+00    2.850504e+00
  2.750631e+00    2.722202e+00
  2.782382e+00    2.852120e+00
  2.814133e+00    2.824885e+00
  2.845884e+00    2.800292e+00
  2.877635e+00    2.833237e+00
  2.909386e+00    2.793800e+00
  2.941137e+00    2.843315e+00
  2.972889e+00    2.877495e+00
  3.004640e+00    2.776705e+00
  3.036391e+00    2.801474e+00
  3.068142e+00    2.922448e+00
  3.099893e+00    2.929284e+00
  3.131644e+00    2.890846e+00
  3.163395e+00    2.934988e+00
  3.195147e+00    2.922438e+00
  3.226898e+00    2.888878e+00
  3.258649e+00    2.925267e+00
  3.290400e+00    2.866622e+00
  3.322151e+00    2.897059e+00
  3.353902e+00    2.926995e+00
  3.385654e+00    2.800011e+00
  3.417405e+00    2.954633e+00
  3.449156e+00    2.953521e+00
  3.480907e+00    3.023252e+00
  3.512658e+00    2.881120e+00
  3.544409e+00    2.923932e+00
  3.576160e+00    2.941452e+00
  3.607912e+00    2.819771e+00
  3.639663e+00    2.944802e+00
  3.671414e+00    2.977602e+00
  3.703165e+00    2.976855e+00
  3.734916e+00    2.995079e+00
  3.766667e+00    2.922516e+00
  3.798418e+00    2.824560e+00
  3.830170e+00    2.968475e+00
  3.861921e+00    3.006179e+00
  3.893672e+00    3.047473e+00
  3.925423e+00    2.957922e+00
  3.957174e+00    3.017234e+00
  3.988925e+00    2.949190e+00
  4.020676e+00    3.033655e+00
  4.052428e+00    2.926465e+00
  4.084179e+00    2.990276e+00
  4.115930e+00    3.067705e+00
  4.147681e+00    3.013251e+00
  4.179432e+00    2.997682e+00
  4.211183e+00    3.029523e+00
  4.242935e+00    2.981017e+00
  4.274686e+00    2.935630e+00
  4.306437e+00    2.984117e+00
  4.338188e+00    3.048958e+00
  4.369939e+00    3.127917e+00
  4.401690e+00    2.999696e+00
  4.433441e+00    2.991784e+00
  4.465193e+00    3.075740e+00
  4.496944e+00    3.062966e+00
  4.528695e+00    3.024098e+00
  4.560446e+00    2.985145e+00
  4.592197e+00    3.192177e+00
  4.623948e+00    3.073226e+00
  4.655699e+00    3.102809e+00
  4.687451e+00    3.072146e+00
  4.719202e+00    3.068029e+00
  4.750953e+00    3.048767e+00
  4.782704e+00    3.097683e+00
  4.814455e+00    3.100338e+00
  4.846206e+00    3.067991e+00
  4.877957e+00    3.129932e+00
  4.909709e+00    3.098720e+00
  4.941460e+00    3.061268e+00
  4.973211e+00    3.093834e+00
  5.004962e+00    3.056671e+00
  5.036713e+00    3.114762e+00
  5.068464e+00    3.026948e+00
  5.100216e+00    3.096483e+00
  5.131967e+00    3.099991e+00
  5.163718e+00    3.130270e+00
  5.195469e+00    3.074440e+00
  5.227220e+00    3.129515e+00
  5.258971e+00    3.048596e+00
  5.290722e+00    3.019174e+00
  5.322474e+00    3.106757e+00
  5.354225e+00    3.078859e+00
  5.385976e+00    3.073078e+00
  5.417727e+00    3.105961e+00
  5.449478e+00    3.100037e+00
  5.481229e+00    3.140112e+00
  5.512980e+00    2.980182e+00
  5.544732e+00    3.020875e+00
  5.576483e+00    3.069896e+00
  5.608234e+00    3.030943e+00
  5.639985e+00    3.128548e+00
  5.671736e+00    3.002283e+00
  5.703487e+00    3.103184e+00
  5.735238e+00    3.035178e+00
  5.766990e+00    2.979645e+00
  5.798741e+00    3.011752e+00
  5.830492e+00    2.980660e+00
  5.862243e+00    2.969679e+00
  5.893994e+00    2.991933e+00
  5.925745e+00    2.936838e+00
  5.957497e+00    3.004530e+00
  5.989248e+00    3.082471e+00
  6.020999e+00    2.987101e+00
  6.052750e+00    2.958500e+00
  6.084501e+00    3.102382e+00
  6.116252e+00    3.047066e+00
  6.148003e+00    2.996772e+00
  6.179755e+00    3.081301e+00
  6.211506e+00    2.970130e+00
  6.243257e+00    3.090079e+00
  6.275008e+00    3.082132e+00
  6.306759e+00    3.000831e+00
  6.338510e+00    3.066577e+00
  6.370261e+00    3.012546e+00
  6.402013e+00    3.013347e+00
  6.433764e+00    3.044415e+00
  6.465515e+00    3.017186e+00
  6.497266e+00    2.982521e+00
  6.529017e+00    2.973586e+00
  6.560768e+00    2.930406e+00
  6.592519e+00    2.985352e+00
  6.624271e+00    3.030493e+00
  6.656022e+00    3.050207e+00
  6.687773e+00    3.032303e+00
  6.719524e+00    2.934609e+00
  6.751275e+00    3.037796e+00
  6.783026e+00    2.968890e+00
  6.814777e+00    3.079531e+00
  6.846529e+00    2.996641e+00
  6.878280e+00    3.063337e+00
  6.910031e+00    2.956920e+00
  6.941782e+00    2.966620e+00
  6.973533e+00    2.983058e+00
  7.005284e+00    3.022710e+00
  7.037036e+00    2.922328e+00
  7.068787e+00    2.994285e+00
  7.100538e+00    3.019060e+00
  7.132289e+00    2.958488e+00
  7.164040e+00    2.989851e+00
  7.195791e+00    2.943252e+00
  7.227542e+00    2.954902e+00
  7.259294e+00    2.997239e+00
  7.291045e+00    3.002168e+00
  7.322796e+00    2.929201e+00
  7.354547e+00    2.890067e+00
  7.386298e+00    2.957750e+00
  7.418049e+00    3.014573e+00
  7.449800e+00    2.961485e+00
  7.481552e+00    2.941427e+00
  7.513303e+00    2.900770e+00
  7.545054e+00    3.001410e+00
  7.576805e+00    2.973610e+00
  7.608556e+00    2.913473e+00
  7.640307e+00    2.929332e+00
  7.672058e+00    2.958556e+00
  7.703810e+00    2.915622e+00
  7.735561e+00    2.945832e+00
  7.767312e+00    2.933088e+00
  7.799063e+00    2.997857e+00
  7.830814e+00    2.920690e+00
  7.862565e+00    2.922364e+00
  7.894317e+00    2.867996e+00
  7.926068e+00    2.984083e+00
  7.957819e+00    2.986208e+00
  7.989570e+00    2.879109e+00
  8.021321e+00    2.903310e+00
  8.053072e+00    2.904321e+00
  8.084823e+00    2.909462e+00
  8.116575e+00    2.915509e+00
  8.148326e+00    2.917579e+00
  8.180077e+00    2.887564e+00
  8.211828e+00    2.878126e+00
  8.243579e+00    2.902074e+00
  8.275330e+00    2.902103e+00
  8.307081e+00    2.892442e+00
  8.338833e+00    2.855995e+00
  8.370584e+00    2.875914e+00
  8.402335e+00    2.889519e+00
  8.434086e+00    2.901896e+00
  8.465837e+00    2.863339e+00
  8.497588e+00    2.843817e+00
  8.529339e+00    2.891138e+00
  8.561091e+00    2.887671e+00
  8.592842e+00    2.814925e+00
  8.624593e+00    2.838941e+00
  8.656344e+00    2.874290e+00
  8.688095e+00    2.871753e+00
  8.719846e+00    2.950972e+00
  8.751598e+00    2.824754e+00
  8.783349e+00    2.825262e+00
  8.815100e+00    2.785722e+00
  8.846851e+00    2.810277e+00
  8.878602e+00    2.822145e+00
  8.910353e+00    2.786554e+00
  8.942104e+00    2.774676e+00
  8.973856e+00    2.727422e+00
  9.005607e+00    2.841238e+00
  9.037358e+00    2.746134e+00
  9.069109e+00    2.776999e+00
  9.100860e+00    2.744809e+00
  9.132611e+00    2.743961e+00
  9.164362e+00    2.777122e+00
  9.196114e+00    2.735684e+00
  9.227865e+00    2.749251e+00
  9.259616e+00    2.797202e+00
  9.291367e+00    2.728151e+00
  9.323118e+00    2.722581e+00
  9.354869e+00    2.747249e+00
  9.386620e+00    2.748444e+00
  9.418372e+00    2.779972e+00
  9.450123e+00    2.772488e+00
  9.481874e+00    2.705045e+00
  9.513625e+00    2.756342e+00
  9.545376e+00    2.729916e+00
  9.577127e+00    2.702399e+00
  9.608878e+00    2.708673e+00
  9.640630e+00    2.722038e+00
  9.672381e+00    2.703200e+00
  9.704132e+00    2.731922e+00
  9.735883e+00    2.650980e+00
  9.767634e+00    2.723560e+00
  9.799385e+00    2.640089e+00
  9.831137e+00    2.699571e+00
  9.862888e+00    2.687504e+00
  9.894639e+00    2.654760e+00
  9.926390e+00    2.678002e+00
  9.958141e+00    2.681315e+00
  9.989892e+00    2.621740e+00
  1.002164e+01    2.653346e+00
  1.005339e+01    2.637711e+00
  1.008515e+01    2.645014e+00
  1.011690e+01    2.660801e+00
  1.014865e+01    2.659921e+00
  1.018040e+01    2.649649e+00
  1.021215e+01    2.665041e+00
  1.024390e+01    2.602574e+00
  1.027565e+01    2.646504e+00
  1.030740e+01    2.615029e+00
  1.033915e+01    2.615368e+00
  1.037091e+01    2.610864e+00
  1.040266e+01    2.633804e+00
  1.043441e+01    2.534263e+00
  1.046616e+01    2.596778e+00
  1.049791e+01    2.538699e+00
  1.052966e+01    2.520576e+00
  1.056141e+01    2.593397e+00
  1.059316e+01    2.480286e+00
  1.062492e+01    2.544513e+00
  1.065667e+01    2.503578e+00
  1.068842e+01    2.510935e+00
  1.072017e+01    2.552862e+00
  1.075192e+01    2.545521e+00
  1.078367e+01    2.497532e+00
  1.081542e+01    2.526004e+00
  1.084717e+01    2.499832e+00
  1.087892e+01    2.477849e+00
  1.091068e+01    2.561376e+00
  1.094243e+01    2.473090e+00
  1.097418e+01    2.497351e+00
  1.100593e+01    2.496199e+00
  1.103768e+01    2.490214e+00
  1.106943e+01    2.413933e+00
  1.110118e+01    2.452509e+00
  1.113293e+01    2.481337e+00
  1.116468e+01    2.421777e+00
  1.119644e+01    2.428148e+00
  1.122819e+01    2.421151e+00
  1.125994e+01    2.436752e+00
  1.129169e+01    2.468588e+00
  1.132344e+01    2.391952e+00
  1.135519e+01    2.414606e+00
  1.138694e+01    2.418984e+00
  1.141869e+01    2.375967e+00
  1.145045e+01    2.440224e+00
  1.148220e+01    2.397051e+00
  1.151395e+01    2.371671e+00
  1.154570e+01    2.378486e+00
  1.157745e+01    2.396451e+00
  1.160920e+01    2.352056e+00
  1.164095e+01    2.373166e+00
  1.167270e+01    2.360578e+00
  1.170445e+01    2.332586e+00
  1.173621e+01    2.325623e+00
  1.176796e+01    2.331815e+00
  1.179971e+01    2.331841e+00
  1.183146e+01    2.340296e+00
  1.186321e+01    2.351456e+00
  1.189496e+01    2.358846e+00
  1.192671e+01    2.341856e+00
  1.195846e+01    2.274871e+00
  1.199021e+01    2.307029e+00
  1.202197e+01    2.311672e+00
  1.205372e+01    2.331047e+00
  1.208547e+01    2.294250e+00
  1.211722e+01    2.273459e+00
  1.214897e+01    2.268000e+00
  1.218072e+01    2.325978e+00
  1.221247e+01    2.350565e+00
  1.224422e+01    2.280416e+00
  1.227597e+01    2.272985e+00
  1.230773e+01    2.317880e+00
  1.233948e+01    2.345045e+00
  1.237123e+01    2.315886e+00
  1.240298e+01    2.303171e+00
  1.243473e+01    2.351630e+00
  1.246648e+01    2.354871e+00
  1.249823e+01    2.299812e+00
  1.252998e+01    2.300688e+00
  1.256174e+01    2.358726e+00
  1.259349e+01    2.386782e+00
  1.262524e+01    2.367611e+00
  1.265699e+01    2.406812e+00
  1.268874e+01    2.429050e+00
  1.272049e+01    2.466971e+00
  1.275224e+01    2.443632e+00
  1.278399e+01    2.582530e+00
  1.281574e+01    2.660599e+00
  1.284750e+01    2.823360e+00
  1.287925e+01    2.979928e+00
  1.291100e+01    3.275670e+00
  1.294275e+01    3.743923e+00
  1.297450e+01    4.349626e+00
  1.300625e+01    5.409796e+00
  1.303800e+01    7.109512e+00
  1.306975e+01    9.443025e+00
  1.310150e+01    1.212005e+01
  1.313326e+01    1.451060e+01
  1.316501e+01    1.661378e+01
  1.319676e+01    1.663420e+01
  1.322851e+01    1.368283e+01
  1.326026e+01    9.751566e+00
  1.329201e+01    7.073225e+00
  1.332376e+01    5.306440e+00
  1.335551e+01    4.313904e+00
  1.338727e+01    3.670607e+00
  1.341902e+01    3.238553e+00
  1.345077e+01    2.957059e+00
  1.348252e+01    2.801977e+00
  1.351427e+01    2.599966e+00
  1.354602e+01    2.505212e+00
  1.357777e+01    2.395746e+00
  1.360952e+01    2.325603e+00
  1.364127e+01    2.266047e+00
  1.367303e+01    2.254436e+00
  1.370478e+01    2.213767e+00
  1.373653e+01    2.183907e+00
  1.376828e+01    2.155282e+00
  1.380003e+01    2.140490e+00
  1.383178e+01    2.134431e+00
  1.386353e+01    2.129439e+00
  1.389528e+01    2.082995e+00
  1.392703e+01    2.063501e+00
  1.395879e+01    2.066176e+00
  1.399054e+01    2.021107e+00
  1.402229e+01    2.013788e+00
  1.405404e+01    2.022108e+00
  1.408579e+01    2.013834e+00
  1.411754e+01    2.022509e+00
  1.414929e+01    2.003287e+00
  1.418104e+01    2.011033e+00
  1.421279e+01    2.003971e+00
  1.424455e+01    1.975486e+00
  1.427630e+01    1.990577e+00
  1.430805e+01    1.961593e+00
  1.433980e+01    1.897870e+00
  1.437155e+01    1.948142e+00
  1.440330e+01    1.946977e+00
  1.443505e+01    1.916371e+00
  1.446680e+01    1.940465e+00
  1.449856e+01    1.924104e+00
  1.453031e+01    1.901445e+00
  1.456206e+01    1.922225e+00
  1.459381e+01    1.916306e+00
  1.462556e+01    1.932633e+00
  1.465731e+01    1.882903e+00
  1.468906e+01    1.881661e+00
  1.472081e+01    1.870782e+00
  1.475256e+01    1.885836e+00
  1.478432e+01    1.914230e+00
  1.481607e+01    1.897637e+00
  1.484782e+01    1.918571e+00
  1.487957e+01    1.928599e+00
  1.491132e+01    1.962546e+00
  1.494307e+01    2.009320e+00
  1.497482e+01    2.037067e+00
  1.500657e+01    2.134944e+00
  1.503832e+01    2.256175e+00
  1.507008e+01    2.470790e+00
  1.510183e+01    2.872884e+00
  1.513358e+01    3.372259e+00
  1.516533e+01    4.136424e+00
  1.519708e+01    4.877530e+00
  1.522883e+01    5.357566e+00
  1.526058e+01    5.706928e+00
  1.529233e+01    5.643937e+00
  1.532409e+01    4.823701e+00
  1.535584e+01    3.732158e+00
  1.538759e+01    3.010325e+00
  1.541934e+01    2.593049e+00
  1.545109e+01    2.314424e+00
  1.548284e+01    2.112314e+00
  1.551459e+01    1.978330e+00
  1.554634e+01    1.901904e+00
  1.557809e+01    1.842766e+00
  1.560985e+01    1.827313e+00
  1.564160e+01    1.815498e+00
  1.567335e+01    1.749855e+00
  1.570510e+01    1.723413e+00
  1.573685e+01    1.699146e+00
  1.576860e+01    1.709545e+00
  1.580035e+01    1.663099e+00
  1.583210e+01    1.664221e+00
  1.586385e+01    1.639838e+00
  1.589561e+01    1.656980e+00
  1.592736e+01    1.587823e+00
  1.595911e+01    1.584351e+00
  1.599086e+01    1.570793e+00
  1.602261e+01    1.589396e+00
  1.605436e+01    1.590074e+00
  1.608611e+01    1.606469e+00
  1.611786e+01    1.576762e+00
  1.614961e+01    1.578480e+00
  1.618137e+01    1.578144e+00
  1.621312e+01    1.559040e+00
  1.624487e+01    1.583490e+00
  1.627662e+01    1.547168e+00
  1.630837e+01    1.522663e+00
  1.634012e+01    1.551908e+00
  1.637187e+01    1.511209e+00
  1.640362e+01    1.519842e+00
  1.643538e+01    1.507669e+00
  1.646713e+01    1.507025e+00
  1.649888e+01    1.486385e+00
  1.653063e+01    1.500536e+00
  1.656238e+01    1.491007e+00
  1.659413e+01    1.495274e+00
  1.662588e+01    1.487445e+00
  1.665763e+01    1.486384e+00
  1.668938e+01    1.454940e+00
  1.672114e+01    1.483916e+00
  1.675289e+01    1.466301e+00
  1.678464e+01    1.452423e+00
  1.681639e+01    1.460678e+00
  1.684814e+01    1.419372e+00
  1.687989e+01    1.425943e+00
  1.691164e+01    1.424389e+00
  1.694339e+01    1.454159e+00
  1.697514e+01    1.413148e+00
  1.700690e+01    1.446480e+00
  1.703865e+01    1.414742e+00
  1.707040e+01    1.374930e+00
  1.710215e+01    1.414574e+00
  1.713390e+01    1.406345e+00
  1.716565e+01    1.413542e+00
  1.719740e+01    1.399877e+00
  1.722915e+01    1.413616e+00
  1.726091e+01    1.392244e+00
  1.729266e+01    1.372419e+00
  1.732441e+01    1.381950e+00
  1.735616e+01    1.362905e+00
  1.738791e+01    1.386345e+00
  1.741966e+01    1.329190e+00
  1.745141e+01    1.361689e+00
  1.748316e+01    1.353583e+00
  1.751491e+01    1.351871e+00
  1.754667e+01    1.363609e+00
  1.757842e+01    1.350740e+00
  1.761017e+01    1.346901e+00
  1.764192e+01    1.340168e+00
  1.767367e+01    1.339405e+00
  1.770542e+01    1.332228e+00
  1.773717e+01    1.347692e+00
  1.776892e+01    1.323729e+00
  1.780067e+01    1.296852e+00
  1.783243e+01    1.314868e+00
  1.786418e+01    1.289086e+00
  1.789593e+01    1.337098e+00
  1.792768e+01    1.299925e+00
  1.795943e+01    1.288842e+00
  1.799118e+01    1.318311e+00
  1.802293e+01    1.306424e+00
  1.805468e+01    1.313299e+00
  1.808643e+01    1.286595e+00
  1.811819e+01    1.276976e+00
  1.814994e+01    1.279316e+00
  1.818169e+01    1.253629e+00
  1.821344e+01    1.253117e+00
  1.824519e+01    1.273254e+00
  1.827694e+01    1.247686e+00
  1.830869e+01    1.264851e+00
  1.834044e+01    1.249225e+00
  1.837220e+01    1.257840e+00
  1.840395e+01    1.243113e+00
  1.843570e+01    1.259036e+00
  1.846745e+01    1.262634e+00
  1.849920e+01    1.241548e+00
  1.853095e+01    1.215543e+00
  1.856270e+01    1.237574e+00
  1.859445e+01    1.257791e+00
  1.862620e+01    1.215342e+00
  1.865796e+01    1.203690e+00
  1.868971e+01    1.215001e+00
  1.872146e+01    1.233561e+00
  1.875321e+01    1.198407e+00
  1.878496e+01    1.218702e+00
  1.881671e+01    1.218383e+00
  1.884846e+01    1.221054e+00
  1.888021e+01    1.191922e+00
  1.891196e+01    1.202590e+00
  1.894372e+01    1.169449e+00
  1.897547e+01    1.195775e+00
  1.900722e+01    1.194701e+00
  1.903897e+01    1.165251e+00
  1.907072e+01    1.177850e+00
  1.910247e+01    1.183589e+00
  1.913422e+01    1.166635e+00
  1.916597e+01    1.149615e+00
  1.919773e+01    1.202979e+00
  1.922948e+01    1.177259e+00
  1.926123e+01    1.189011e+00
  1.929298e+01    1.159251e+00
  1.932473e+01    1.193192e+00
  1.935648e+01    1.156822e+00
  1.938823e+01    1.171792e+00
  1.941998e+01    1.159367e+00
  1.945173e+01    1.167053e+00
  1.948349e+01    1.150602e+00
  1.951524e+01    1.153978e+00
  1.954699e+01    1.107732e+00
  1.957874e+01    1.169965e+00
  1.961049e+01    1.150429e+00
  1.964224e+01    1.134645e+00
  1.967399e+01    1.151726e+00
  1.970574e+01    1.116878e+00
  1.973749e+01    1.131029e+00
  1.976925e+01    1.137721e+00
  1.980100e+01    1.131279e+00
  1.983275e+01    1.108356e+00
  1.986450e+01    1.109793e+00
  1.989625e+01    1.108570e+00
  1.992800e+01    1.119076e+00
  1.995975e+01    1.094728e+00
  1.999150e+01    1.095428e+00
  2.002325e+01    1.120595e+00
  2.005501e+01    1.124673e+00
  2.008676e+01    1.103305e+00
  2.011851e+01    1.117386e+00
  2.015026e+01    1.100622e+00
  2.018201e+01    1.106104e+00
  2.021376e+01    1.104469e+00
  2.024551e+01    1.077631e+00
  2.027726e+01    1.124087e+00
  2.030902e+01    1.070636e+00
  2.034077e+01    1.096731e+00
  2.037252e+01    1.080170e+00
  2.040427e+01    1.087356e+00
  2.043602e+01    1.089969e+00
  2.046777e+01    1.084099e+00
  2.049952e+01    1.062801e+00
  2.053127e+01    1.054661e+00
  2.056302e+01    1.095933e+00
  2.059478e+01    1.044814e+00
  2.062653e+01    1.062513e+00
  2.065828e+01    1.077664e+00
  2.069003e+01    1.078202e+00
  2.072178e+01    1.070876e+00
  2.075353e+01    1.097011e+00
  2.078528e+01    1.083909e+00
  2.081703e+01    1.100649e+00
  2.084878e+01    1.076969e+00
  2.088054e+01    1.059173e+00
  2.091229e+01    1.094752e+00
  2.094404e+01    1.085164e+00
  2.097579e+01    1.095019e+00
  2.100754e+01    1.041961e+00
  2.103929e+01    1.065600e+00
  2.107104e+01    1.069947e+00
  2.110279e+01    1.079114e+00
  2.113455e+01    1.084208e+00
  2.116630e+01    1.113007e+00
  2.119805e+01    1.072010e+00
  2.122980e+01    1.106290e+00
  2.126155e+01    1.089765e+00
  2.129330e+01    1.111823e+00
  2.132505e+01    1.110792e+00
  2.135680e+01    1.146560e+00
  2.138855e+01    1.154967e+00
  2.142031e+01    1.187608e+00
  2.145206e+01    1.233158e+00
  2.148381e+01    1.235435e+00
  2.151556e+01    1.308635e+00
  2.154731e+01    1.374997e+00
  2.157906e+01    1.447351e+00
  2.161081e+01    1.587706e+00
  2.164256e+01    1.793597e+00
  2.167431e+01    2.103492e+00
  2.170607e+01    2.551796e+00
  2.173782e+01    3.238956e+00
  2.176957e+01    4.202194e+00
  2.180132e+01    5.477510e+00
  2.183307e+01    6.924451e+00
  2.186482e+01    8.313232e+00
  2.189657e+01    9.294117e+00
  2.192832e+01    9.035728e+00
  2.196007e+01    7.250597e+00
  2.199183e+01    5.327835e+00
  2.202358e+01    3.863442e+00
  2.205533e+01    2.950602e+00
  2.208708e+01    2.339895e+00
  2.211883e+01    1.975273e+00
  2.215058e+01    1.703566e+00
  2.218233e+01    1.522772e+00
  2.221408e+01    1.390832e+00
  2.224584e+01    1.306244e+00
  2.227759e+01    1.221064e+00
  2.230934e+01    1.162069e+00
  2.234109e+01    1.138172e+00
  2.237284e+01    1.096398e+00
  2.240459e+01    1.062181e+00
  2.243634e+01    1.045370e+00
  2.246809e+01    1.056140e+00
  2.249984e+01    1.009858e+00
  2.253160e+01    1.013699e+00
  2.256335e+01    9.971296e-01
  2.259510e+01    1.005346e+00
  2.262685e+01    9.769125e-01
  2.265860e+01    9.755627e-01
  2.269035e+01    9.442102e-01
  2.272210e+01    9.175035e-01
  2.275385e+01    9.300565e-01
  2.278560e+01    9.318726e-01
  2.281736e+01    8.975594e-01
  2.284911e+01    9.285788e-01
  2.288086e+01    9.256070e-01
  2.291261e+01    9.067186e-01
  2.294436e+01    9.227578e-01
  2.297611e+01    9.071482e-01
  2.300786e+01    9.004604e-01
  2.303961e+01    8.689281e-01
  2.307137e+01    8.882754e-01
  2.310312e+01    8.761483e-01
  2.313487e+01    8.862873e-01
  2.316662e+01    8.703576e-01
  2.319837e+01    8.572393e-01
  2.323012e+01    8.663669e-01
  2.326187e+01    8.630580e-01
  2.329362e+01    8.464019e-01
  2.332537e+01    8.459154e-01
  2.335713e+01    8.460409e-01
  2.338888e+01    8.452673e-01
  2.342063e+01    8.560426e-01
  2.345238e+01    8.482603e-01
  2.348413e+01    8.326501e-01
  2.351588e+01    8.258302e-01
  2.354763e+01    8.412953e-01
  2.357938e+01    8.262695e-01
  2.361113e+01    8.121940e-01
  2.364289e+01    8.279989e-01
  2.367464e+01    8.255645e-01
  2.370639e+01    8.263127e-01
  2.373814e+01    8.119112e-01
  2.376989e+01    8.231399e-01
  2.380164e+01    8.295872e-01
  2.383339e+01    7.877885e-01
  2.386514e+01    8.130052e-01
  2.389689e+01    8.000798e-01
  2.392865e+01    7.972417e-01
  2.396040e+01    7.607892e-01
  2.399215e+01    7.949195e-01
  2.402390e+01    7.808190e-01
  2.405565e+01    7.565944e-01
  2.408740e+01    7.632961e-01
  2.411915e+01    7.606636e-01
  2.415090e+01    7.851979e-01
  2.418266e+01    7.953004e-01
  2.421441e+01    8.098326e-01
  2.424616e+01    7.757692e-01
  2.427791e+01    7.796898e-01
  2.430966e+01    7.874843e-01
  2.434141e+01    7.936009e-01
  2.437316e+01    7.830917e-01
  2.440491e+01    7.819209e-01
  2.443666e+01    7.959607e-01
  2.446842e+01    7.892537e-01
  2.450017e+01    7.860960e-01
  2.453192e+01    7.829139e-01
  2.456367e+01    7.983868e-01
  2.459542e+01    7.741780e-01
  2.462717e+01    7.755034e-01
  2.465892e+01    7.953941e-01
  2.469067e+01    7.809552e-01
  2.472242e+01    7.841676e-01
  2.475418e+01    8.040374e-01
  2.478593e+01    7.826407e-01
  2.481768e+01    8.018394e-01
  2.484943e+01    7.833556e-01
  2.488118e+01    7.862829e-01
  2.491293e+01    7.805030e-01
  2.494468e+01    8.062757e-01
  2.497643e+01    7.835625e-01
  2.500819e+01    8.008169e-01
  2.503994e+01    7.971432e-01
  2.507169e+01    7.982662e-01
  2.510344e+01    8.026648e-01
  2.513519e+01    7.915962e-01
  2.516694e+01    8.125632e-01
  2.519869e+01    8.074467e-01
  2.523044e+01    8.297272e-01
  2.526219e+01    8.409652e-01
  2.529395e+01    8.661730e-01
  2.532570e+01    8.581147e-01
  2.535745e+01    8.530530e-01
  2.538920e+01    8.900943e-01
  2.542095e+01    9.135939e-01
  2.545270e+01    9.346643e-01
  2.548445e+01    9.508470e-01
  2.551620e+01    9.954378e-01
  2.554795e+01    1.020375e+00
  2.557971e+01    1.046889e+00
  2.561146e+01    1.143502e+00
  2.564321e+01    1.215657e+00
  2.567496e+01    1.290647e+00
  2.570671e+01    1.479132e+00
  2.573846e+01    1.708608e+00
  2.577021e+01    2.073212e+00
  2.580196e+01    2.581801e+00
  2.583371e+01    3.346409e+00
  2.586547e+01    4.344625e+00
  2.589722e+01    5.569141e+00
  2.592897e+01    6.837942e+00
  2.596072e+01    7.645477e+00
  2.599247e+01    7.330209e+00
  2.602422e+01    6.052681e+00
  2.605597e+01    4.601998e+00
  2.608772e+01    3.378937e+00
  2.611948e+01    2.546385e+00
  2.615123e+01    2.032958e+00
  2.618298e+01    1.718231e+00
  2.621473e+01    1.482144e+00
  2.624648e+01    1.332128e+00
  2.627823e+01    1.208307e+00
  2.630998e+01    1.092113e+00
  2.634173e+01    1.064271e+00
  2.637348e+01    1.037020e+00
  2.640524e+01    9.739531e-01
  2.643699e+01    9.709209e-01
  2.646874e+01    9.415974e-01
  2.650049e+01    9.616498e-01
  2.653224e+01    9.309561e-01
  2.656399e+01    9.174703e-01
  2.659574e+01    8.844354e-01
  2.662749e+01    8.599173e-01
  2.665924e+01    8.927510e-01
  2.669100e+01    8.899568e-01
  2.672275e+01    8.748110e-01
  2.675450e+01    9.075655e-01
  2.678625e+01    8.645628e-01
  2.681800e+01    8.891301e-01
  2.684975e+01    8.895811e-01
  2.688150e+01    9.031748e-01
  2.691325e+01    9.136716e-01
  2.694501e+01    9.154206e-01
  2.697676e+01    9.743846e-01
  2.700851e+01    1.028851e+00
  2.704026e+01    1.112814e+00
  2.707201e+01    1.189252e+00
  2.710376e+01    1.367638e+00
  2.713551e+01    1.597548e+00
  2.716726e+01    1.893124e+00
  2.719901e+01    2.133280e+00
  2.723077e+01    2.267787e+00
  2.726252e+01    2.119899e+00
  2.729427e+01    1.821182e+00
  2.732602e+01    1.513659e+00
  2.735777e+01    1.306455e+00
  2.738952e+01    1.140122e+00
  2.742127e+01    1.032327e+00
  2.745302e+01    9.714246e-01
  2.748477e+01    9.168859e-01
  2.751653e+01    8.917225e-01
  2.754828e+01    8.632380e-01
  2.758003e+01    8.496954e-01
  2.761178e+01    8.477299e-01
  2.764353e+01    8.224902e-01
  2.767528e+01    8.010343e-01
  2.770703e+01    8.162357e-01
  2.773878e+01    8.151922e-01
  2.777054e+01    8.107389e-01
  2.780229e+01    7.938132e-01
  2.783404e+01    7.894218e-01
  2.786579e+01    7.912919e-01
  2.789754e+01    7.937480e-01
  2.792929e+01    7.995799e-01
  2.796104e+01    7.871188e-01
  2.799279e+01    7.972540e-01
  2.802454e+01    7.664498e-01
  2.805630e+01    7.760112e-01
  2.808805e+01    7.657877e-01
  2.811980e+01    7.680768e-01
  2.815155e+01    7.865228e-01
  2.818330e+01    7.624565e-01
  2.821505e+01    7.859588e-01
  2.824680e+01    7.382045e-01
  2.827855e+01    7.664423e-01
  2.831030e+01    7.493027e-01
  2.834206e+01    7.719110e-01
  2.837381e+01    7.560944e-01
  2.840556e+01    7.493255e-01
  2.843731e+01    7.636008e-01
  2.846906e+01    7.640105e-01
  2.850081e+01    7.463065e-01
  2.853256e+01    7.658048e-01
  2.856431e+01    7.429535e-01
  2.859606e+01    7.616345e-01
  2.862782e+01    7.456551e-01
  2.865957e+01    7.499346e-01
  2.869132e+01    7.252864e-01
  2.872307e+01    7.419226e-01
  2.875482e+01    7.394023e-01
  2.878657e+01    7.734917e-01
  2.881832e+01    7.432206e-01
  2.885007e+01    7.480637e-01
  2.888183e+01    7.457054e-01
  2.891358e+01    7.319961e-01
  2.894533e+01    7.463151e-01
  2.897708e+01    7.262865e-01
  2.900883e+01    7.273198e-01
  2.904058e+01    7.371668e-01
  2.907233e+01    7.350867e-01
  2.910408e+01    7.357054e-01
  2.913583e+01    7.503209e-01
  2.916759e+01    7.361303e-01
  2.919934e+01    7.415146e-01
  2.923109e+01    7.208128e-01
  2.926284e+01    7.294583e-01
  2.929459e+01    7.316470e-01
  2.932634e+01    7.369314e-01
  2.935809e+01    7.168862e-01
  2.938984e+01    7.479762e-01
  2.942159e+01    7.216769e-01
  2.945335e+01    7.129223e-01
  2.948510e+01    6.933742e-01
  2.951685e+01    7.226870e-01
  2.954860e+01    7.136984e-01
  2.958035e+01    7.096690e-01
  2.961210e+01    7.284839e-01
  2.964385e+01    7.169854e-01
  2.967560e+01    7.339771e-01
  2.970736e+01    7.052644e-01
  2.973911e+01    7.100782e-01
  2.977086e+01    7.046311e-01
  2.980261e+01    6.986986e-01
  2.983436e+01    7.206049e-01
  2.986611e+01    7.191634e-01
  2.989786e+01    7.153363e-01
  2.992961e+01    7.033732e-01
  2.996136e+01    7.233274e-01
  2.999312e+01    7.331589e-01
  3.002487e+01    7.334820e-01
  3.005662e+01    7.503666e-01
  3.008837e+01    7.295869e-01
  3.012012e+01    7.125255e-01
  3.015187e+01    7.091479e-01
  3.018362e+01    7.078623e-01
  3.021537e+01    6.899355e-01
  3.024712e+01    7.095138e-01
  3.027888e+01    7.029341e-01
  3.031063e+01    7.201183e-01
  3.034238e+01    6.995234e-01
  3.037413e+01    7.064779e-01
  3.040588e+01    7.077204e-01
  3.043763e+01    6.974873e-01
  3.046938e+01    7.159307e-01
  3.050113e+01    7.060488e-01
  3.053288e+01    6.776021e-01
  3.056464e+01    7.103491e-01
  3.059639e+01    7.102276e-01
  3.062814e+01    7.068794e-01
  3.065989e+01    7.066307e-01
  3.069164e+01    7.011657e-01
  3.072339e+01    7.143298e-01
  3.075514e+01    7.083346e-01
  3.078689e+01    7.070723e-01
  3.081865e+01    6.938066e-01
  3.085040e+01    6.989602e-01
  3.088215e+01    6.850527e-01
  3.091390e+01    6.955464e-01
  3.094565e+01    7.061557e-01
  3.097740e+01    6.910806e-01
  3.100915e+01    7.231860e-01
  3.104090e+01    6.947622e-01
  3.107265e+01    7.291688e-01
  3.110441e+01    7.025777e-01
  3.113616e+01    7.252516e-01
  3.116791e+01    7.296696e-01
  3.119966e+01    7.237621e-01
  3.123141e+01    7.172354e-01
  3.126316e+01    7.125174e-01
  3.129491e+01    7.306230e-01
  3.132666e+01    7.175760e-01
  3.135841e+01    7.214790e-01
  3.139017e+01    7.552749e-01
  3.142192e+01    7.660837e-01
  3.145367e+01    7.540489e-01
  3.148542e+01    7.457916e-01
  3.151717e+01    7.576985e-01
  3.154892e+01    7.592485e-01
  3.158067e+01    7.903326e-01
  3.161242e+01    8.260518e-01
  3.164418e+01    8.431410e-01
  3.167593e+01    8.966546e-01
  3.170768e+01    9.423879e-01
  3.173943e+01    1.037300e+00
  3.177118e+01    1.154944e+00
  3.180293e+01    1.376285e+00
  3.183468e+01    1.624465e+00
  3.186643e+01    1.941591e+00
  3.189818e+01    2.179938e+00
  3.192994e+01    2.239794e+00
  3.196169e+01    2.034230e+00
  3.199344e+01    1.688518e+00
  3.202519e+01    1.443815e+00
  3.205694e+01    1.171978e+00
  3.208869e+01    1.023451e+00
  3.212044e+01    9.413034e-01
  3.215219e+01    8.631808e-01
  3.218394e+01    8.384575e-01
  3.221570e+01    8.045884e-01
  3.224745e+01    7.936102e-01
  3.227920e+01    7.878430e-01
  3.231095e+01    7.558436e-01
  3.234270e+01    7.422906e-01
  3.237445e+01    7.445428e-01
  3.240620e+01    7.482386e-01
  3.243795e+01    7.092085e-01
  3.246970e+01    7.485487e-01
  3.250146e+01    6.968575e-01
  3.253321e+01    6.980464e-01
  3.254908e+01    7.171421e-01