File: XRD/2024-07-27_002_Ru-CGO-ex_Activtation_ramp_000002_data_000129.dat
# == pyFAI calibration ==
# Distance Sample to Detector: 0.4 m
# PONI: 9.750e-02, 1.135e-01 m
# Rotations: -0.000175 0.000000 -0.000000 rad
#
# == Fit2d calibration ==
# Distance Sample-beamCenter: 400.000 mm
# Center: x=1514.000, y=1300.000 pix
# Tilt: 0.010 deg  TiltPlanRot: 0.010 deg
#
# Detector Detector	 Spline= None	 PixelSize= 7.500e-05, 7.500e-05 m
#    Detector has a mask: False
#    Detector has a dark current: False
#    detector has a flat field: False
#
# Wavelength: 6.888e-11 m
# Mask applied: user provided
# Dark current applied: False
# Flat field applied: False
# Polarization factor: 0.99
# Normalization factor: 1.0
# --> /home/myspot/data/2024_07_Rosario/Ru-CGO-ex/2024-07-27_002_Ru-CGO-ex_Activtation_ramp_000002_data_000129.dat
#       q_nm^-1             I
  2.003187e-02    1.424646e-01
  5.178302e-02    1.184101e-01
  8.353417e-02    2.268616e-02
  1.152853e-01    1.985332e-01
  1.470365e-01    8.463340e-02
  1.787876e-01    4.834687e-02
  2.105388e-01    4.665522e-02
  2.422899e-01    8.157353e-03
  2.740411e-01    3.697116e-02
  3.057922e-01    2.132488e-02
  3.375433e-01    7.596146e-02
  3.692945e-01    2.846278e-02
  4.010456e-01    3.669731e-02
  4.327968e-01    1.521523e-02
  4.645479e-01    3.575258e-02
  4.962991e-01    4.141136e-02
  5.280502e-01    9.302517e-03
  5.598014e-01    3.379768e-02
  5.915525e-01    6.337460e-02
  6.233037e-01    2.743960e-02
  6.550548e-01    3.371907e-02
  6.868060e-01    4.002064e-02
  7.185571e-01    2.016162e-02
  7.503083e-01    3.354464e-02
  7.820594e-01    1.148781e-01
  8.138106e-01    1.691849e-01
  8.455617e-01    2.434987e-01
  8.773129e-01    4.003000e-01
  9.090640e-01    6.409338e-01
  9.408152e-01    7.391236e-01
  9.725663e-01    8.878189e-01
  1.004317e+00    1.036353e+00
  1.036069e+00    1.195468e+00
  1.067820e+00    1.225928e+00
  1.099571e+00    1.356345e+00
  1.131322e+00    1.350042e+00
  1.163073e+00    1.514648e+00
  1.194824e+00    1.648259e+00
  1.226575e+00    2.087587e+00
  1.258327e+00    2.435513e+00
  1.290078e+00    2.480099e+00
  1.321829e+00    2.328221e+00
  1.353580e+00    2.556100e+00
  1.385331e+00    2.525703e+00
  1.417082e+00    2.644634e+00
  1.448834e+00    2.690761e+00
  1.480585e+00    2.850802e+00
  1.512336e+00    2.856683e+00
  1.544087e+00    2.949583e+00
  1.575838e+00    2.809178e+00
  1.607589e+00    2.785785e+00
  1.639340e+00    2.821536e+00
  1.671092e+00    2.783181e+00
  1.702843e+00    2.913060e+00
  1.734594e+00    2.776710e+00
  1.766345e+00    2.913724e+00
  1.798096e+00    2.714666e+00
  1.829847e+00    2.796025e+00
  1.861598e+00    2.755673e+00
  1.893350e+00    2.762872e+00
  1.925101e+00    2.765618e+00
  1.956852e+00    2.693182e+00
  1.988603e+00    2.582617e+00
  2.020354e+00    2.758467e+00
  2.052105e+00    2.881712e+00
  2.083856e+00    2.619202e+00
  2.115608e+00    2.709184e+00
  2.147359e+00    2.631788e+00
  2.179110e+00    2.761595e+00
  2.210861e+00    2.611567e+00
  2.242612e+00    2.630836e+00
  2.274363e+00    2.741194e+00
  2.306115e+00    2.689961e+00
  2.337866e+00    2.861801e+00
  2.369617e+00    2.713615e+00
  2.401368e+00    2.801505e+00
  2.433119e+00    2.724261e+00
  2.464870e+00    2.783314e+00
  2.496621e+00    2.701924e+00
  2.528373e+00    2.633538e+00
  2.560124e+00    2.823390e+00
  2.591875e+00    2.885545e+00
  2.623626e+00    2.730357e+00
  2.655377e+00    2.858224e+00
  2.687128e+00    2.765745e+00
  2.718879e+00    2.881763e+00
  2.750631e+00    2.786494e+00
  2.782382e+00    2.910492e+00
  2.814133e+00    2.903313e+00
  2.845884e+00    2.819870e+00
  2.877635e+00    2.800263e+00
  2.909386e+00    2.929782e+00
  2.941137e+00    2.819376e+00
  2.972889e+00    2.794054e+00
  3.004640e+00    2.815028e+00
  3.036391e+00    2.838515e+00
  3.068142e+00    2.862943e+00
  3.099893e+00    2.921409e+00
  3.131644e+00    2.887266e+00
  3.163395e+00    2.938846e+00
  3.195147e+00    2.870813e+00
  3.226898e+00    2.843011e+00
  3.258649e+00    2.975756e+00
  3.290400e+00    2.952284e+00
  3.322151e+00    2.922230e+00
  3.353902e+00    2.981253e+00
  3.385654e+00    2.913981e+00
  3.417405e+00    2.873550e+00
  3.449156e+00    2.899676e+00
  3.480907e+00    2.847420e+00
  3.512658e+00    2.917444e+00
  3.544409e+00    2.889827e+00
  3.576160e+00    2.920650e+00
  3.607912e+00    2.914946e+00
  3.639663e+00    2.871841e+00
  3.671414e+00    2.947605e+00
  3.703165e+00    2.951542e+00
  3.734916e+00    2.954746e+00
  3.766667e+00    3.004384e+00
  3.798418e+00    2.928743e+00
  3.830170e+00    3.060435e+00
  3.861921e+00    2.941764e+00
  3.893672e+00    2.921290e+00
  3.925423e+00    2.975489e+00
  3.957174e+00    2.970889e+00
  3.988925e+00    3.018365e+00
  4.020676e+00    2.987255e+00
  4.052428e+00    2.978381e+00
  4.084179e+00    2.945659e+00
  4.115930e+00    3.032550e+00
  4.147681e+00    2.996160e+00
  4.179432e+00    3.013502e+00
  4.211183e+00    2.973609e+00
  4.242935e+00    3.041278e+00
  4.274686e+00    2.964716e+00
  4.306437e+00    2.985331e+00
  4.338188e+00    3.022723e+00
  4.369939e+00    3.027240e+00
  4.401690e+00    2.919983e+00
  4.433441e+00    3.058722e+00
  4.465193e+00    3.027798e+00
  4.496944e+00    2.993766e+00
  4.528695e+00    3.026536e+00
  4.560446e+00    3.039841e+00
  4.592197e+00    3.086579e+00
  4.623948e+00    3.045650e+00
  4.655699e+00    3.035990e+00
  4.687451e+00    3.004621e+00
  4.719202e+00    3.047587e+00
  4.750953e+00    3.201792e+00
  4.782704e+00    3.031041e+00
  4.814455e+00    3.135426e+00
  4.846206e+00    3.058203e+00
  4.877957e+00    3.126308e+00
  4.909709e+00    3.059160e+00
  4.941460e+00    3.042656e+00
  4.973211e+00    3.074235e+00
  5.004962e+00    3.098375e+00
  5.036713e+00    3.120465e+00
  5.068464e+00    3.092330e+00
  5.100216e+00    3.095973e+00
  5.131967e+00    3.206354e+00
  5.163718e+00    3.105332e+00
  5.195469e+00    3.062500e+00
  5.227220e+00    3.006068e+00
  5.258971e+00    3.120758e+00
  5.290722e+00    3.059840e+00
  5.322474e+00    3.084708e+00
  5.354225e+00    3.127270e+00
  5.385976e+00    3.081696e+00
  5.417727e+00    3.076155e+00
  5.449478e+00    3.026620e+00
  5.481229e+00    3.019437e+00
  5.512980e+00    3.028178e+00
  5.544732e+00    3.068528e+00
  5.576483e+00    2.981837e+00
  5.608234e+00    3.005504e+00
  5.639985e+00    3.051132e+00
  5.671736e+00    3.103887e+00
  5.703487e+00    2.965060e+00
  5.735238e+00    3.062246e+00
  5.766990e+00    3.049016e+00
  5.798741e+00    3.023457e+00
  5.830492e+00    2.955882e+00
  5.862243e+00    2.980075e+00
  5.893994e+00    3.078900e+00
  5.925745e+00    3.037167e+00
  5.957497e+00    2.912178e+00
  5.989248e+00    2.932163e+00
  6.020999e+00    2.857085e+00
  6.052750e+00    2.977791e+00
  6.084501e+00    2.957142e+00
  6.116252e+00    3.028660e+00
  6.148003e+00    3.031746e+00
  6.179755e+00    3.049608e+00
  6.211506e+00    3.087517e+00
  6.243257e+00    3.005641e+00
  6.275008e+00    3.032916e+00
  6.306759e+00    3.038141e+00
  6.338510e+00    3.028220e+00
  6.370261e+00    3.000898e+00
  6.402013e+00    3.039621e+00
  6.433764e+00    2.974756e+00
  6.465515e+00    2.995802e+00
  6.497266e+00    3.000098e+00
  6.529017e+00    3.084972e+00
  6.560768e+00    3.069502e+00
  6.592519e+00    2.953344e+00
  6.624271e+00    3.016470e+00
  6.656022e+00    2.957240e+00
  6.687773e+00    2.989709e+00
  6.719524e+00    2.967078e+00
  6.751275e+00    2.965820e+00
  6.783026e+00    2.945420e+00
  6.814777e+00    3.015700e+00
  6.846529e+00    2.908492e+00
  6.878280e+00    2.981611e+00
  6.910031e+00    3.013700e+00
  6.941782e+00    3.004454e+00
  6.973533e+00    2.950320e+00
  7.005284e+00    3.027856e+00
  7.037036e+00    2.915903e+00
  7.068787e+00    2.935005e+00
  7.100538e+00    2.918954e+00
  7.132289e+00    2.944095e+00
  7.164040e+00    2.936645e+00
  7.195791e+00    2.976697e+00
  7.227542e+00    2.988557e+00
  7.259294e+00    2.966761e+00
  7.291045e+00    3.009149e+00
  7.322796e+00    2.977010e+00
  7.354547e+00    3.009655e+00
  7.386298e+00    2.848526e+00
  7.418049e+00    3.034921e+00
  7.449800e+00    2.913205e+00
  7.481552e+00    2.944881e+00
  7.513303e+00    2.996573e+00
  7.545054e+00    3.028477e+00
  7.576805e+00    2.941408e+00
  7.608556e+00    3.047053e+00
  7.640307e+00    2.923129e+00
  7.672058e+00    2.911884e+00
  7.703810e+00    2.942920e+00
  7.735561e+00    2.857143e+00
  7.767312e+00    2.920162e+00
  7.799063e+00    2.925555e+00
  7.830814e+00    2.872781e+00
  7.862565e+00    2.987601e+00
  7.894317e+00    2.887362e+00
  7.926068e+00    2.881721e+00
  7.957819e+00    2.860102e+00
  7.989570e+00    2.845337e+00
  8.021321e+00    2.834830e+00
  8.053072e+00    2.967251e+00
  8.084823e+00    2.941969e+00
  8.116575e+00    2.972528e+00
  8.148326e+00    2.865488e+00
  8.180077e+00    3.000410e+00
  8.211828e+00    2.937375e+00
  8.243579e+00    2.899376e+00
  8.275330e+00    2.903370e+00
  8.307081e+00    2.871623e+00
  8.338833e+00    2.798989e+00
  8.370584e+00    2.862216e+00
  8.402335e+00    2.859659e+00
  8.434086e+00    2.885039e+00
  8.465837e+00    2.893373e+00
  8.497588e+00    2.889074e+00
  8.529339e+00    2.913846e+00
  8.561091e+00    2.881375e+00
  8.592842e+00    2.806277e+00
  8.624593e+00    2.899645e+00
  8.656344e+00    2.829626e+00
  8.688095e+00    2.881195e+00
  8.719846e+00    2.854863e+00
  8.751598e+00    2.799450e+00
  8.783349e+00    2.872278e+00
  8.815100e+00    2.821512e+00
  8.846851e+00    2.845175e+00
  8.878602e+00    2.749911e+00
  8.910353e+00    2.793415e+00
  8.942104e+00    2.795764e+00
  8.973856e+00    2.876342e+00
  9.005607e+00    2.724192e+00
  9.037358e+00    2.789905e+00
  9.069109e+00    2.810219e+00
  9.100860e+00    2.809625e+00
  9.132611e+00    2.763767e+00
  9.164362e+00    2.764100e+00
  9.196114e+00    2.745017e+00
  9.227865e+00    2.755542e+00
  9.259616e+00    2.752489e+00
  9.291367e+00    2.706874e+00
  9.323118e+00    2.762166e+00
  9.354869e+00    2.764720e+00
  9.386620e+00    2.758198e+00
  9.418372e+00    2.732964e+00
  9.450123e+00    2.683471e+00
  9.481874e+00    2.702835e+00
  9.513625e+00    2.748647e+00
  9.545376e+00    2.733318e+00
  9.577127e+00    2.741520e+00
  9.608878e+00    2.725905e+00
  9.640630e+00    2.658573e+00
  9.672381e+00    2.721389e+00
  9.704132e+00    2.712143e+00
  9.735883e+00    2.710808e+00
  9.767634e+00    2.724788e+00
  9.799385e+00    2.653959e+00
  9.831137e+00    2.639105e+00
  9.862888e+00    2.681013e+00
  9.894639e+00    2.662962e+00
  9.926390e+00    2.646305e+00
  9.958141e+00    2.639300e+00
  9.989892e+00    2.696701e+00
  1.002164e+01    2.641720e+00
  1.005339e+01    2.637331e+00
  1.008515e+01    2.591170e+00
  1.011690e+01    2.614307e+00
  1.014865e+01    2.621940e+00
  1.018040e+01    2.584299e+00
  1.021215e+01    2.666816e+00
  1.024390e+01    2.636390e+00
  1.027565e+01    2.639635e+00
  1.030740e+01    2.621340e+00
  1.033915e+01    2.615862e+00
  1.037091e+01    2.594093e+00
  1.040266e+01    2.588841e+00
  1.043441e+01    2.663270e+00
  1.046616e+01    2.624999e+00
  1.049791e+01    2.594147e+00
  1.052966e+01    2.581439e+00
  1.056141e+01    2.550826e+00
  1.059316e+01    2.614295e+00
  1.062492e+01    2.541663e+00
  1.065667e+01    2.564708e+00
  1.068842e+01    2.553827e+00
  1.072017e+01    2.518500e+00
  1.075192e+01    2.550744e+00
  1.078367e+01    2.479414e+00
  1.081542e+01    2.580930e+00
  1.084717e+01    2.531627e+00
  1.087892e+01    2.530599e+00
  1.091068e+01    2.429346e+00
  1.094243e+01    2.511666e+00
  1.097418e+01    2.534811e+00
  1.100593e+01    2.500944e+00
  1.103768e+01    2.475748e+00
  1.106943e+01    2.498289e+00
  1.110118e+01    2.432629e+00
  1.113293e+01    2.481692e+00
  1.116468e+01    2.460858e+00
  1.119644e+01    2.436307e+00
  1.122819e+01    2.456159e+00
  1.125994e+01    2.383393e+00
  1.129169e+01    2.385490e+00
  1.132344e+01    2.393666e+00
  1.135519e+01    2.391037e+00
  1.138694e+01    2.370129e+00
  1.141869e+01    2.406676e+00
  1.145045e+01    2.457695e+00
  1.148220e+01    2.389192e+00
  1.151395e+01    2.395116e+00
  1.154570e+01    2.386485e+00
  1.157745e+01    2.375454e+00
  1.160920e+01    2.360532e+00
  1.164095e+01    2.385026e+00
  1.167270e+01    2.340367e+00
  1.170445e+01    2.332159e+00
  1.173621e+01    2.362618e+00
  1.176796e+01    2.385745e+00
  1.179971e+01    2.327875e+00
  1.183146e+01    2.370825e+00
  1.186321e+01    2.330233e+00
  1.189496e+01    2.301880e+00
  1.192671e+01    2.306963e+00
  1.195846e+01    2.311244e+00
  1.199021e+01    2.336071e+00
  1.202197e+01    2.293920e+00
  1.205372e+01    2.363668e+00
  1.208547e+01    2.293025e+00
  1.211722e+01    2.271101e+00
  1.214897e+01    2.290943e+00
  1.218072e+01    2.250043e+00
  1.221247e+01    2.308099e+00
  1.224422e+01    2.297456e+00
  1.227597e+01    2.286987e+00
  1.230773e+01    2.287814e+00
  1.233948e+01    2.301774e+00
  1.237123e+01    2.340961e+00
  1.240298e+01    2.299467e+00
  1.243473e+01    2.337766e+00
  1.246648e+01    2.310383e+00
  1.249823e+01    2.339472e+00
  1.252998e+01    2.311740e+00
  1.256174e+01    2.325890e+00
  1.259349e+01    2.397489e+00
  1.262524e+01    2.398577e+00
  1.265699e+01    2.358630e+00
  1.268874e+01    2.429332e+00
  1.272049e+01    2.474890e+00
  1.275224e+01    2.547226e+00
  1.278399e+01    2.555797e+00
  1.281574e+01    2.668344e+00
  1.284750e+01    2.820513e+00
  1.287925e+01    3.041493e+00
  1.291100e+01    3.287365e+00
  1.294275e+01    3.719451e+00
  1.297450e+01    4.392661e+00
  1.300625e+01    5.394270e+00
  1.303800e+01    7.168324e+00
  1.306975e+01    9.612783e+00
  1.310150e+01    1.221495e+01
  1.313326e+01    1.458146e+01
  1.316501e+01    1.663467e+01
  1.319676e+01    1.679288e+01
  1.322851e+01    1.371319e+01
  1.326026e+01    9.802272e+00
  1.329201e+01    7.089994e+00
  1.332376e+01    5.408599e+00
  1.335551e+01    4.310768e+00
  1.338727e+01    3.695249e+00
  1.341902e+01    3.277728e+00
  1.345077e+01    2.927457e+00
  1.348252e+01    2.761846e+00
  1.351427e+01    2.588953e+00
  1.354602e+01    2.472244e+00
  1.357777e+01    2.402558e+00
  1.360952e+01    2.339469e+00
  1.364127e+01    2.341874e+00
  1.367303e+01    2.294347e+00
  1.370478e+01    2.183737e+00
  1.373653e+01    2.225611e+00
  1.376828e+01    2.173818e+00
  1.380003e+01    2.110309e+00
  1.383178e+01    2.104551e+00
  1.386353e+01    2.135219e+00
  1.389528e+01    2.086451e+00
  1.392703e+01    2.094875e+00
  1.395879e+01    2.014285e+00
  1.399054e+01    1.999445e+00
  1.402229e+01    2.054975e+00
  1.405404e+01    2.031425e+00
  1.408579e+01    2.043113e+00
  1.411754e+01    1.996439e+00
  1.414929e+01    1.988880e+00
  1.418104e+01    1.976061e+00
  1.421279e+01    1.996087e+00
  1.424455e+01    1.942950e+00
  1.427630e+01    1.917714e+00
  1.430805e+01    1.952194e+00
  1.433980e+01    1.942077e+00
  1.437155e+01    1.925386e+00
  1.440330e+01    1.935220e+00
  1.443505e+01    1.929362e+00
  1.446680e+01    1.910481e+00
  1.449856e+01    1.889147e+00
  1.453031e+01    1.892060e+00
  1.456206e+01    1.922933e+00
  1.459381e+01    1.911471e+00
  1.462556e+01    1.889787e+00
  1.465731e+01    1.909763e+00
  1.468906e+01    1.833023e+00
  1.472081e+01    1.910613e+00
  1.475256e+01    1.926391e+00
  1.478432e+01    1.888640e+00
  1.481607e+01    1.909078e+00
  1.484782e+01    1.942975e+00
  1.487957e+01    1.947248e+00
  1.491132e+01    1.946906e+00
  1.494307e+01    2.001143e+00
  1.497482e+01    2.040542e+00
  1.500657e+01    2.140401e+00
  1.503832e+01    2.285011e+00
  1.507008e+01    2.527499e+00
  1.510183e+01    2.881086e+00
  1.513358e+01    3.435120e+00
  1.516533e+01    4.142268e+00
  1.519708e+01    4.853337e+00
  1.522883e+01    5.479100e+00
  1.526058e+01    5.892816e+00
  1.529233e+01    5.664464e+00
  1.532409e+01    4.780785e+00
  1.535584e+01    3.779276e+00
  1.538759e+01    3.048446e+00
  1.541934e+01    2.573927e+00
  1.545109e+01    2.319430e+00
  1.548284e+01    2.116906e+00
  1.551459e+01    1.977375e+00
  1.554634e+01    1.925589e+00
  1.557809e+01    1.840090e+00
  1.560985e+01    1.785011e+00
  1.564160e+01    1.781682e+00
  1.567335e+01    1.754005e+00
  1.570510e+01    1.717790e+00
  1.573685e+01    1.698861e+00
  1.576860e+01    1.671129e+00
  1.580035e+01    1.643454e+00
  1.583210e+01    1.612712e+00
  1.586385e+01    1.653821e+00
  1.589561e+01    1.597435e+00
  1.592736e+01    1.587573e+00
  1.595911e+01    1.608638e+00
  1.599086e+01    1.602883e+00
  1.602261e+01    1.583215e+00
  1.605436e+01    1.563092e+00
  1.608611e+01    1.564194e+00
  1.611786e+01    1.549811e+00
  1.614961e+01    1.546175e+00
  1.618137e+01    1.559322e+00
  1.621312e+01    1.559873e+00
  1.624487e+01    1.559884e+00
  1.627662e+01    1.583184e+00
  1.630837e+01    1.548092e+00
  1.634012e+01    1.530287e+00
  1.637187e+01    1.524958e+00
  1.640362e+01    1.544244e+00
  1.643538e+01    1.507372e+00
  1.646713e+01    1.494491e+00
  1.649888e+01    1.499156e+00
  1.653063e+01    1.522222e+00
  1.656238e+01    1.496258e+00
  1.659413e+01    1.494474e+00
  1.662588e+01    1.490502e+00
  1.665763e+01    1.448357e+00
  1.668938e+01    1.468453e+00
  1.672114e+01    1.453840e+00
  1.675289e+01    1.491765e+00
  1.678464e+01    1.437224e+00
  1.681639e+01    1.455624e+00
  1.684814e+01    1.448150e+00
  1.687989e+01    1.450652e+00
  1.691164e+01    1.420083e+00
  1.694339e+01    1.414328e+00
  1.697514e+01    1.423981e+00
  1.700690e+01    1.438119e+00
  1.703865e+01    1.403767e+00
  1.707040e+01    1.415427e+00
  1.710215e+01    1.384561e+00
  1.713390e+01    1.407151e+00
  1.716565e+01    1.401239e+00
  1.719740e+01    1.408496e+00
  1.722915e+01    1.409074e+00
  1.726091e+01    1.381571e+00
  1.729266e+01    1.396271e+00
  1.732441e+01    1.369450e+00
  1.735616e+01    1.390720e+00
  1.738791e+01    1.353768e+00
  1.741966e+01    1.383993e+00
  1.745141e+01    1.352851e+00
  1.748316e+01    1.348276e+00
  1.751491e+01    1.338829e+00
  1.754667e+01    1.386322e+00
  1.757842e+01    1.336622e+00
  1.761017e+01    1.338676e+00
  1.764192e+01    1.339626e+00
  1.767367e+01    1.325967e+00
  1.770542e+01    1.319530e+00
  1.773717e+01    1.334409e+00
  1.776892e+01    1.327025e+00
  1.780067e+01    1.314626e+00
  1.783243e+01    1.312276e+00
  1.786418e+01    1.306261e+00
  1.789593e+01    1.298276e+00
  1.792768e+01    1.310351e+00
  1.795943e+01    1.312712e+00
  1.799118e+01    1.296045e+00
  1.802293e+01    1.295290e+00
  1.805468e+01    1.280204e+00
  1.808643e+01    1.280383e+00
  1.811819e+01    1.335391e+00
  1.814994e+01    1.295719e+00
  1.818169e+01    1.291965e+00
  1.821344e+01    1.283446e+00
  1.824519e+01    1.307687e+00
  1.827694e+01    1.250999e+00
  1.830869e+01    1.253716e+00
  1.834044e+01    1.249365e+00
  1.837220e+01    1.263329e+00
  1.840395e+01    1.229973e+00
  1.843570e+01    1.244708e+00
  1.846745e+01    1.243556e+00
  1.849920e+01    1.249123e+00
  1.853095e+01    1.240218e+00
  1.856270e+01    1.226079e+00
  1.859445e+01    1.227643e+00
  1.862620e+01    1.204027e+00
  1.865796e+01    1.231332e+00
  1.868971e+01    1.198135e+00
  1.872146e+01    1.220737e+00
  1.875321e+01    1.239114e+00
  1.878496e+01    1.219644e+00
  1.881671e+01    1.212760e+00
  1.884846e+01    1.222297e+00
  1.888021e+01    1.213602e+00
  1.891196e+01    1.208456e+00
  1.894372e+01    1.200947e+00
  1.897547e+01    1.194364e+00
  1.900722e+01    1.196614e+00
  1.903897e+01    1.194466e+00
  1.907072e+01    1.184343e+00
  1.910247e+01    1.166518e+00
  1.913422e+01    1.178092e+00
  1.916597e+01    1.203684e+00
  1.919773e+01    1.174031e+00
  1.922948e+01    1.173128e+00
  1.926123e+01    1.163867e+00
  1.929298e+01    1.175994e+00
  1.932473e+01    1.178568e+00
  1.935648e+01    1.161884e+00
  1.938823e+01    1.156016e+00
  1.941998e+01    1.163184e+00
  1.945173e+01    1.151925e+00
  1.948349e+01    1.172184e+00
  1.951524e+01    1.157569e+00
  1.954699e+01    1.157586e+00
  1.957874e+01    1.160208e+00
  1.961049e+01    1.139018e+00
  1.964224e+01    1.102664e+00
  1.967399e+01    1.138991e+00
  1.970574e+01    1.143449e+00
  1.973749e+01    1.139707e+00
  1.976925e+01    1.135425e+00
  1.980100e+01    1.126626e+00
  1.983275e+01    1.126049e+00
  1.986450e+01    1.106439e+00
  1.989625e+01    1.099647e+00
  1.992800e+01    1.113528e+00
  1.995975e+01    1.078147e+00
  1.999150e+01    1.115122e+00
  2.002325e+01    1.129233e+00
  2.005501e+01    1.118217e+00
  2.008676e+01    1.082954e+00
  2.011851e+01    1.106797e+00
  2.015026e+01    1.083081e+00
  2.018201e+01    1.097530e+00
  2.021376e+01    1.109577e+00
  2.024551e+01    1.091154e+00
  2.027726e+01    1.098662e+00
  2.030902e+01    1.118405e+00
  2.034077e+01    1.073618e+00
  2.037252e+01    1.081277e+00
  2.040427e+01    1.071382e+00
  2.043602e+01    1.087056e+00
  2.046777e+01    1.079191e+00
  2.049952e+01    1.088468e+00
  2.053127e+01    1.053880e+00
  2.056302e+01    1.063498e+00
  2.059478e+01    1.078894e+00
  2.062653e+01    1.068745e+00
  2.065828e+01    1.071416e+00
  2.069003e+01    1.069556e+00
  2.072178e+01    1.041170e+00
  2.075353e+01    1.060474e+00
  2.078528e+01    1.060051e+00
  2.081703e+01    1.061453e+00
  2.084878e+01    1.075133e+00
  2.088054e+01    1.048044e+00
  2.091229e+01    1.069991e+00
  2.094404e+01    1.081619e+00
  2.097579e+01    1.098885e+00
  2.100754e+01    1.073129e+00
  2.103929e+01    1.086526e+00
  2.107104e+01    1.074985e+00
  2.110279e+01    1.087202e+00
  2.113455e+01    1.091490e+00
  2.116630e+01    1.086529e+00
  2.119805e+01    1.094319e+00
  2.122980e+01    1.110757e+00
  2.126155e+01    1.109242e+00
  2.129330e+01    1.119631e+00
  2.132505e+01    1.136526e+00
  2.135680e+01    1.170793e+00
  2.138855e+01    1.148238e+00
  2.142031e+01    1.182072e+00
  2.145206e+01    1.209788e+00
  2.148381e+01    1.257792e+00
  2.151556e+01    1.281254e+00
  2.154731e+01    1.346736e+00
  2.157906e+01    1.451864e+00
  2.161081e+01    1.595532e+00
  2.164256e+01    1.825055e+00
  2.167431e+01    2.127549e+00
  2.170607e+01    2.537426e+00
  2.173782e+01    3.280123e+00
  2.176957e+01    4.275487e+00
  2.180132e+01    5.499660e+00
  2.183307e+01    6.987689e+00
  2.186482e+01    8.461496e+00
  2.189657e+01    9.375889e+00
  2.192832e+01    8.980773e+00
  2.196007e+01    7.291175e+00
  2.199183e+01    5.321088e+00
  2.202358e+01    3.841141e+00
  2.205533e+01    2.913109e+00
  2.208708e+01    2.339396e+00
  2.211883e+01    1.959839e+00
  2.215058e+01    1.686503e+00
  2.218233e+01    1.478863e+00
  2.221408e+01    1.406193e+00
  2.224584e+01    1.288374e+00
  2.227759e+01    1.223065e+00
  2.230934e+01    1.176298e+00
  2.234109e+01    1.123152e+00
  2.237284e+01    1.108273e+00
  2.240459e+01    1.072915e+00
  2.243634e+01    1.061209e+00
  2.246809e+01    1.024783e+00
  2.249984e+01    1.026615e+00
  2.253160e+01    1.003754e+00
  2.256335e+01    1.007934e+00
  2.259510e+01    9.914030e-01
  2.262685e+01    9.664982e-01
  2.265860e+01    9.525413e-01
  2.269035e+01    9.630424e-01
  2.272210e+01    9.524452e-01
  2.275385e+01    9.307339e-01
  2.278560e+01    9.296511e-01
  2.281736e+01    9.278967e-01
  2.284911e+01    9.213826e-01
  2.288086e+01    9.136459e-01
  2.291261e+01    8.995339e-01
  2.294436e+01    8.965141e-01
  2.297611e+01    8.956437e-01
  2.300786e+01    8.916785e-01
  2.303961e+01    8.940895e-01
  2.307137e+01    8.693290e-01
  2.310312e+01    8.894190e-01
  2.313487e+01    8.849792e-01
  2.316662e+01    9.013042e-01
  2.319837e+01    8.678645e-01
  2.323012e+01    8.803124e-01
  2.326187e+01    8.616259e-01
  2.329362e+01    8.458216e-01
  2.332537e+01    8.447967e-01
  2.335713e+01    8.478037e-01
  2.338888e+01    8.619202e-01
  2.342063e+01    8.535923e-01
  2.345238e+01    8.527659e-01
  2.348413e+01    8.241246e-01
  2.351588e+01    8.480953e-01
  2.354763e+01    8.372416e-01
  2.357938e+01    8.294048e-01
  2.361113e+01    8.482513e-01
  2.364289e+01    8.540707e-01
  2.367464e+01    8.373505e-01
  2.370639e+01    8.192769e-01
  2.373814e+01    8.381148e-01
  2.376989e+01    8.185270e-01
  2.380164e+01    8.216902e-01
  2.383339e+01    8.070140e-01
  2.386514e+01    7.828736e-01
  2.389689e+01    7.718130e-01
  2.392865e+01    7.847610e-01
  2.396040e+01    7.773072e-01
  2.399215e+01    8.002838e-01
  2.402390e+01    7.898456e-01
  2.405565e+01    7.707694e-01
  2.408740e+01    7.809717e-01
  2.411915e+01    7.514755e-01
  2.415090e+01    7.817212e-01
  2.418266e+01    7.798224e-01
  2.421441e+01    7.787561e-01
  2.424616e+01    7.709974e-01
  2.427791e+01    7.699234e-01
  2.430966e+01    7.959489e-01
  2.434141e+01    8.059606e-01
  2.437316e+01    7.917688e-01
  2.440491e+01    7.663049e-01
  2.443666e+01    7.740916e-01
  2.446842e+01    8.037219e-01
  2.450017e+01    8.028174e-01
  2.453192e+01    7.667438e-01
  2.456367e+01    7.946532e-01
  2.459542e+01    8.013694e-01
  2.462717e+01    7.834449e-01
  2.465892e+01    7.878206e-01
  2.469067e+01    7.885455e-01
  2.472242e+01    7.951596e-01
  2.475418e+01    7.758946e-01
  2.478593e+01    7.919551e-01
  2.481768e+01    7.996495e-01
  2.484943e+01    7.940505e-01
  2.488118e+01    8.232556e-01
  2.491293e+01    8.008118e-01
  2.494468e+01    8.017282e-01
  2.497643e+01    7.894637e-01
  2.500819e+01    8.009923e-01
  2.503994e+01    8.017250e-01
  2.507169e+01    7.851205e-01
  2.510344e+01    8.038276e-01
  2.513519e+01    8.044589e-01
  2.516694e+01    8.352200e-01
  2.519869e+01    8.418020e-01
  2.523044e+01    8.296493e-01
  2.526219e+01    8.463382e-01
  2.529395e+01    8.527627e-01
  2.532570e+01    8.766003e-01
  2.535745e+01    8.811783e-01
  2.538920e+01    8.872273e-01
  2.542095e+01    9.024133e-01
  2.545270e+01    9.512299e-01
  2.548445e+01    9.699374e-01
  2.551620e+01    9.849663e-01
  2.554795e+01    1.010464e+00
  2.557971e+01    1.062272e+00
  2.561146e+01    1.139416e+00
  2.564321e+01    1.205550e+00
  2.567496e+01    1.308536e+00
  2.570671e+01    1.517590e+00
  2.573846e+01    1.720162e+00
  2.577021e+01    2.086615e+00
  2.580196e+01    2.609190e+00
  2.583371e+01    3.442197e+00
  2.586547e+01    4.484492e+00
  2.589722e+01    5.730365e+00
  2.592897e+01    6.938845e+00
  2.596072e+01    7.703373e+00
  2.599247e+01    7.370845e+00
  2.602422e+01    6.139037e+00
  2.605597e+01    4.520946e+00
  2.608772e+01    3.318772e+00
  2.611948e+01    2.540136e+00
  2.615123e+01    2.041359e+00
  2.618298e+01    1.701694e+00
  2.621473e+01    1.467261e+00
  2.624648e+01    1.337819e+00
  2.627823e+01    1.209624e+00
  2.630998e+01    1.129497e+00
  2.634173e+01    1.060946e+00
  2.637348e+01    1.027676e+00
  2.640524e+01    9.807655e-01
  2.643699e+01    9.516528e-01
  2.646874e+01    9.288234e-01
  2.650049e+01    9.449084e-01
  2.653224e+01    9.024385e-01
  2.656399e+01    9.083287e-01
  2.659574e+01    8.968151e-01
  2.662749e+01    8.836949e-01
  2.665924e+01    8.901166e-01
  2.669100e+01    8.919374e-01
  2.672275e+01    8.726115e-01
  2.675450e+01    8.831964e-01
  2.678625e+01    8.816947e-01
  2.681800e+01    8.906453e-01
  2.684975e+01    8.989571e-01
  2.688150e+01    9.156155e-01
  2.691325e+01    9.160951e-01
  2.694501e+01    9.224969e-01
  2.697676e+01    9.797042e-01
  2.700851e+01    1.016775e+00
  2.704026e+01    1.112568e+00
  2.707201e+01    1.222954e+00
  2.710376e+01    1.395612e+00
  2.713551e+01    1.618051e+00
  2.716726e+01    1.944914e+00
  2.719901e+01    2.186937e+00
  2.723077e+01    2.264122e+00
  2.726252e+01    2.138347e+00
  2.729427e+01    1.833112e+00
  2.732602e+01    1.538154e+00
  2.735777e+01    1.288231e+00
  2.738952e+01    1.134017e+00
  2.742127e+01    1.054906e+00
  2.745302e+01    1.000752e+00
  2.748477e+01    9.179386e-01
  2.751653e+01    9.107107e-01
  2.754828e+01    8.805568e-01
  2.758003e+01    8.639997e-01
  2.761178e+01    8.541387e-01
  2.764353e+01    8.302702e-01
  2.767528e+01    8.145981e-01
  2.770703e+01    8.120871e-01
  2.773878e+01    8.026704e-01
  2.777054e+01    8.016047e-01
  2.780229e+01    8.153126e-01
  2.783404e+01    8.034974e-01
  2.786579e+01    8.148231e-01
  2.789754e+01    7.898854e-01
  2.792929e+01    8.242965e-01
  2.796104e+01    7.870187e-01
  2.799279e+01    7.810050e-01
  2.802454e+01    7.619279e-01
  2.805630e+01    7.858504e-01
  2.808805e+01    7.796202e-01
  2.811980e+01    7.745717e-01
  2.815155e+01    7.851938e-01
  2.818330e+01    7.657083e-01
  2.821505e+01    7.431255e-01
  2.824680e+01    7.569887e-01
  2.827855e+01    7.730206e-01
  2.831030e+01    7.675484e-01
  2.834206e+01    7.765247e-01
  2.837381e+01    7.741412e-01
  2.840556e+01    7.614498e-01
  2.843731e+01    7.452563e-01
  2.846906e+01    7.530940e-01
  2.850081e+01    7.571965e-01
  2.853256e+01    7.284914e-01
  2.856431e+01    7.414655e-01
  2.859606e+01    7.432820e-01
  2.862782e+01    7.612233e-01
  2.865957e+01    7.391571e-01
  2.869132e+01    7.401305e-01
  2.872307e+01    7.347074e-01
  2.875482e+01    7.418592e-01
  2.878657e+01    7.521371e-01
  2.881832e+01    7.449707e-01
  2.885007e+01    7.473858e-01
  2.888183e+01    7.241060e-01
  2.891358e+01    7.365790e-01
  2.894533e+01    7.370724e-01
  2.897708e+01    7.303985e-01
  2.900883e+01    7.360438e-01
  2.904058e+01    7.303153e-01
  2.907233e+01    7.441528e-01
  2.910408e+01    7.175034e-01
  2.913583e+01    7.380850e-01
  2.916759e+01    7.167391e-01
  2.919934e+01    7.309767e-01
  2.923109e+01    7.379207e-01
  2.926284e+01    7.265547e-01
  2.929459e+01    7.211342e-01
  2.932634e+01    7.183592e-01
  2.935809e+01    7.328004e-01
  2.938984e+01    7.313614e-01
  2.942159e+01    7.240270e-01
  2.945335e+01    7.282272e-01
  2.948510e+01    7.339897e-01
  2.951685e+01    7.147999e-01
  2.954860e+01    7.198091e-01
  2.958035e+01    7.318953e-01
  2.961210e+01    7.199336e-01
  2.964385e+01    7.150120e-01
  2.967560e+01    7.429331e-01
  2.970736e+01    7.155169e-01
  2.973911e+01    7.059668e-01
  2.977086e+01    7.067011e-01
  2.980261e+01    7.142044e-01
  2.983436e+01    7.104493e-01
  2.986611e+01    7.120573e-01
  2.989786e+01    7.440276e-01
  2.992961e+01    7.225500e-01
  2.996136e+01    7.318166e-01
  2.999312e+01    7.388014e-01
  3.002487e+01    7.325188e-01
  3.005662e+01    7.414042e-01
  3.008837e+01    7.210199e-01
  3.012012e+01    7.015112e-01
  3.015187e+01    7.355596e-01
  3.018362e+01    7.117686e-01
  3.021537e+01    7.133356e-01
  3.024712e+01    7.224915e-01
  3.027888e+01    6.990029e-01
  3.031063e+01    7.117090e-01
  3.034238e+01    6.852967e-01
  3.037413e+01    7.156621e-01
  3.040588e+01    7.271816e-01
  3.043763e+01    7.140992e-01
  3.046938e+01    7.035544e-01
  3.050113e+01    6.998003e-01
  3.053288e+01    7.205021e-01
  3.056464e+01    7.198093e-01
  3.059639e+01    7.215727e-01
  3.062814e+01    7.094699e-01
  3.065989e+01    7.142690e-01
  3.069164e+01    7.158616e-01
  3.072339e+01    6.819096e-01
  3.075514e+01    7.015252e-01
  3.078689e+01    7.091556e-01
  3.081865e+01    6.919481e-01
  3.085040e+01    7.056006e-01
  3.088215e+01    7.086418e-01
  3.091390e+01    7.018448e-01
  3.094565e+01    7.231804e-01
  3.097740e+01    7.308311e-01
  3.100915e+01    7.190525e-01
  3.104090e+01    7.280687e-01
  3.107265e+01    7.129229e-01
  3.110441e+01    7.196391e-01
  3.113616e+01    7.330320e-01
  3.116791e+01    7.140144e-01
  3.119966e+01    7.103978e-01
  3.123141e+01    7.247890e-01
  3.126316e+01    7.269590e-01
  3.129491e+01    7.252342e-01
  3.132666e+01    7.132462e-01
  3.135841e+01    7.305419e-01
  3.139017e+01    7.309077e-01
  3.142192e+01    7.336934e-01
  3.145367e+01    7.675778e-01
  3.148542e+01    7.849260e-01
  3.151717e+01    7.565073e-01
  3.154892e+01    7.625862e-01
  3.158067e+01    8.180338e-01
  3.161242e+01    8.186527e-01
  3.164418e+01    8.393876e-01
  3.167593e+01    8.958067e-01
  3.170768e+01    9.772629e-01
  3.173943e+01    1.055804e+00
  3.177118e+01    1.223006e+00
  3.180293e+01    1.381055e+00
  3.183468e+01    1.663190e+00
  3.186643e+01    1.990447e+00
  3.189818e+01    2.218529e+00
  3.192994e+01    2.250359e+00
  3.196169e+01    2.019634e+00
  3.199344e+01    1.705824e+00
  3.202519e+01    1.364308e+00
  3.205694e+01    1.191352e+00
  3.208869e+01    1.046849e+00
  3.212044e+01    9.565544e-01
  3.215219e+01    8.740612e-01
  3.218394e+01    8.403561e-01
  3.221570e+01    8.198407e-01
  3.224745e+01    8.098932e-01
  3.227920e+01    7.801398e-01
  3.231095e+01    7.535176e-01
  3.234270e+01    7.417026e-01
  3.237445e+01    7.508646e-01
  3.240620e+01    7.272452e-01
  3.243795e+01    7.235224e-01
  3.246970e+01    7.293683e-01
  3.250146e+01    7.279363e-01
  3.253321e+01    7.203014e-01
  3.254908e+01    7.117408e-01