File: XRD/2024-07-27_002_Ru-CGO-ex_Activtation_ramp_000002_data_000104.dat
# == pyFAI calibration ==
# Distance Sample to Detector: 0.4 m
# PONI: 9.750e-02, 1.135e-01 m
# Rotations: -0.000175 0.000000 -0.000000 rad
#
# == Fit2d calibration ==
# Distance Sample-beamCenter: 400.000 mm
# Center: x=1514.000, y=1300.000 pix
# Tilt: 0.010 deg  TiltPlanRot: 0.010 deg
#
# Detector Detector	 Spline= None	 PixelSize= 7.500e-05, 7.500e-05 m
#    Detector has a mask: False
#    Detector has a dark current: False
#    detector has a flat field: False
#
# Wavelength: 6.888e-11 m
# Mask applied: user provided
# Dark current applied: False
# Flat field applied: False
# Polarization factor: 0.99
# Normalization factor: 1.0
# --> /home/myspot/data/2024_07_Rosario/Ru-CGO-ex/2024-07-27_002_Ru-CGO-ex_Activtation_ramp_000002_data_000104.dat
#       q_nm^-1             I
  2.003187e-02    0.000000e+00
  5.178302e-02    2.670345e-02
  8.353417e-02    1.730379e-01
  1.152853e-01    4.418371e-02
  1.470365e-01    7.199467e-02
  1.787876e-01    7.802333e-02
  2.105388e-01    3.291861e-02
  2.422899e-01    2.806027e-02
  2.740411e-01    4.835742e-02
  3.057922e-01    3.734796e-02
  3.375433e-01    9.118216e-02
  3.692945e-01    3.346188e-02
  4.010456e-01    3.648018e-02
  4.327968e-01    2.932528e-02
  4.645479e-01    2.114651e-02
  4.962991e-01    7.174748e-02
  5.280502e-01    3.138062e-02
  5.598014e-01    2.172059e-02
  5.915525e-01    4.786460e-02
  6.233037e-01    2.912061e-02
  6.550548e-01    3.112659e-02
  6.868060e-01    4.607815e-02
  7.185571e-01    3.236874e-02
  7.503083e-01    4.149392e-02
  7.820594e-01    7.807402e-02
  8.138106e-01    1.963656e-01
  8.455617e-01    2.637007e-01
  8.773129e-01    4.844015e-01
  9.090640e-01    6.427218e-01
  9.408152e-01    7.818589e-01
  9.725663e-01    8.464315e-01
  1.004317e+00    1.056913e+00
  1.036069e+00    1.073116e+00
  1.067820e+00    1.273336e+00
  1.099571e+00    1.320749e+00
  1.131322e+00    1.471536e+00
  1.163073e+00    1.518146e+00
  1.194824e+00    1.622787e+00
  1.226575e+00    2.118790e+00
  1.258327e+00    2.160023e+00
  1.290078e+00    2.407130e+00
  1.321829e+00    2.513126e+00
  1.353580e+00    2.612856e+00
  1.385331e+00    2.572991e+00
  1.417082e+00    2.679086e+00
  1.448834e+00    2.663409e+00
  1.480585e+00    2.761678e+00
  1.512336e+00    2.783950e+00
  1.544087e+00    2.950730e+00
  1.575838e+00    2.879619e+00
  1.607589e+00    2.917031e+00
  1.639340e+00    2.756747e+00
  1.671092e+00    2.873654e+00
  1.702843e+00    2.950443e+00
  1.734594e+00    2.779793e+00
  1.766345e+00    2.811847e+00
  1.798096e+00    2.660081e+00
  1.829847e+00    2.693299e+00
  1.861598e+00    2.652602e+00
  1.893350e+00    2.683999e+00
  1.925101e+00    2.715859e+00
  1.956852e+00    2.740315e+00
  1.988603e+00    2.725868e+00
  2.020354e+00    2.678946e+00
  2.052105e+00    2.725208e+00
  2.083856e+00    2.641340e+00
  2.115608e+00    2.715991e+00
  2.147359e+00    2.721324e+00
  2.179110e+00    2.637656e+00
  2.210861e+00    2.598492e+00
  2.242612e+00    2.748919e+00
  2.274363e+00    2.643114e+00
  2.306115e+00    2.696133e+00
  2.337866e+00    2.772770e+00
  2.369617e+00    2.614709e+00
  2.401368e+00    2.696110e+00
  2.433119e+00    2.730635e+00
  2.464870e+00    2.719674e+00
  2.496621e+00    2.851328e+00
  2.528373e+00    2.770076e+00
  2.560124e+00    2.704998e+00
  2.591875e+00    2.746790e+00
  2.623626e+00    2.725267e+00
  2.655377e+00    2.736982e+00
  2.687128e+00    2.785098e+00
  2.718879e+00    2.756811e+00
  2.750631e+00    2.826319e+00
  2.782382e+00    2.780096e+00
  2.814133e+00    2.701362e+00
  2.845884e+00    2.782680e+00
  2.877635e+00    2.703995e+00
  2.909386e+00    2.791646e+00
  2.941137e+00    2.808385e+00
  2.972889e+00    2.830618e+00
  3.004640e+00    2.865076e+00
  3.036391e+00    2.855673e+00
  3.068142e+00    2.887295e+00
  3.099893e+00    2.765004e+00
  3.131644e+00    2.889700e+00
  3.163395e+00    2.889121e+00
  3.195147e+00    2.777987e+00
  3.226898e+00    2.880887e+00
  3.258649e+00    2.836194e+00
  3.290400e+00    2.778947e+00
  3.322151e+00    2.921335e+00
  3.353902e+00    2.955781e+00
  3.385654e+00    2.843809e+00
  3.417405e+00    2.909819e+00
  3.449156e+00    2.884844e+00
  3.480907e+00    2.997745e+00
  3.512658e+00    2.906167e+00
  3.544409e+00    2.887859e+00
  3.576160e+00    2.811160e+00
  3.607912e+00    2.925857e+00
  3.639663e+00    2.958037e+00
  3.671414e+00    2.973860e+00
  3.703165e+00    2.964128e+00
  3.734916e+00    2.942623e+00
  3.766667e+00    2.956740e+00
  3.798418e+00    2.924777e+00
  3.830170e+00    2.986806e+00
  3.861921e+00    3.011044e+00
  3.893672e+00    2.946134e+00
  3.925423e+00    3.058620e+00
  3.957174e+00    2.937588e+00
  3.988925e+00    2.981360e+00
  4.020676e+00    2.904906e+00
  4.052428e+00    2.945591e+00
  4.084179e+00    2.960410e+00
  4.115930e+00    2.939022e+00
  4.147681e+00    3.020340e+00
  4.179432e+00    2.970707e+00
  4.211183e+00    2.935058e+00
  4.242935e+00    3.012199e+00
  4.274686e+00    2.988384e+00
  4.306437e+00    3.068345e+00
  4.338188e+00    2.989290e+00
  4.369939e+00    3.079243e+00
  4.401690e+00    3.010409e+00
  4.433441e+00    3.032348e+00
  4.465193e+00    3.054359e+00
  4.496944e+00    3.043968e+00
  4.528695e+00    3.074956e+00
  4.560446e+00    3.052705e+00
  4.592197e+00    3.037165e+00
  4.623948e+00    3.152327e+00
  4.655699e+00    2.969813e+00
  4.687451e+00    3.062500e+00
  4.719202e+00    2.965587e+00
  4.750953e+00    3.054761e+00
  4.782704e+00    3.152837e+00
  4.814455e+00    3.056547e+00
  4.846206e+00    3.033941e+00
  4.877957e+00    3.091064e+00
  4.909709e+00    3.088382e+00
  4.941460e+00    3.113702e+00
  4.973211e+00    3.062419e+00
  5.004962e+00    3.103095e+00
  5.036713e+00    2.989898e+00
  5.068464e+00    3.052988e+00
  5.100216e+00    3.030897e+00
  5.131967e+00    3.089216e+00
  5.163718e+00    3.075243e+00
  5.195469e+00    3.020397e+00
  5.227220e+00    3.097926e+00
  5.258971e+00    3.009134e+00
  5.290722e+00    3.099963e+00
  5.322474e+00    3.061805e+00
  5.354225e+00    3.119033e+00
  5.385976e+00    3.098322e+00
  5.417727e+00    3.078947e+00
  5.449478e+00    3.061009e+00
  5.481229e+00    3.111840e+00
  5.512980e+00    3.056362e+00
  5.544732e+00    3.056430e+00
  5.576483e+00    2.977866e+00
  5.608234e+00    3.015418e+00
  5.639985e+00    3.076630e+00
  5.671736e+00    2.985953e+00
  5.703487e+00    2.976053e+00
  5.735238e+00    3.080366e+00
  5.766990e+00    2.924974e+00
  5.798741e+00    2.925466e+00
  5.830492e+00    2.976303e+00
  5.862243e+00    2.910399e+00
  5.893994e+00    3.047851e+00
  5.925745e+00    2.954209e+00
  5.957497e+00    2.911679e+00
  5.989248e+00    2.963134e+00
  6.020999e+00    2.914844e+00
  6.052750e+00    2.987954e+00
  6.084501e+00    2.960108e+00
  6.116252e+00    2.960980e+00
  6.148003e+00    2.968468e+00
  6.179755e+00    3.027896e+00
  6.211506e+00    2.991608e+00
  6.243257e+00    3.036651e+00
  6.275008e+00    2.923453e+00
  6.306759e+00    2.944396e+00
  6.338510e+00    2.965302e+00
  6.370261e+00    3.027466e+00
  6.402013e+00    2.969900e+00
  6.433764e+00    3.013678e+00
  6.465515e+00    3.063817e+00
  6.497266e+00    2.980374e+00
  6.529017e+00    2.978454e+00
  6.560768e+00    2.991418e+00
  6.592519e+00    2.938824e+00
  6.624271e+00    2.972205e+00
  6.656022e+00    2.990871e+00
  6.687773e+00    2.895700e+00
  6.719524e+00    3.009024e+00
  6.751275e+00    3.028621e+00
  6.783026e+00    2.963816e+00
  6.814777e+00    3.026370e+00
  6.846529e+00    2.927389e+00
  6.878280e+00    2.937941e+00
  6.910031e+00    2.943572e+00
  6.941782e+00    2.985812e+00
  6.973533e+00    2.938839e+00
  7.005284e+00    2.927691e+00
  7.037036e+00    2.973291e+00
  7.068787e+00    3.002834e+00
  7.100538e+00    2.968733e+00
  7.132289e+00    2.948807e+00
  7.164040e+00    2.875100e+00
  7.195791e+00    3.006000e+00
  7.227542e+00    2.913328e+00
  7.259294e+00    2.959667e+00
  7.291045e+00    2.933867e+00
  7.322796e+00    2.993138e+00
  7.354547e+00    2.906396e+00
  7.386298e+00    2.953125e+00
  7.418049e+00    2.913237e+00
  7.449800e+00    2.910044e+00
  7.481552e+00    2.952914e+00
  7.513303e+00    2.938910e+00
  7.545054e+00    2.931177e+00
  7.576805e+00    2.891476e+00
  7.608556e+00    2.873373e+00
  7.640307e+00    2.919113e+00
  7.672058e+00    2.934429e+00
  7.703810e+00    2.880087e+00
  7.735561e+00    2.947465e+00
  7.767312e+00    2.897070e+00
  7.799063e+00    2.843829e+00
  7.830814e+00    2.867882e+00
  7.862565e+00    2.866285e+00
  7.894317e+00    2.872554e+00
  7.926068e+00    2.946159e+00
  7.957819e+00    2.831338e+00
  7.989570e+00    2.854548e+00
  8.021321e+00    2.876994e+00
  8.053072e+00    2.938364e+00
  8.084823e+00    2.896625e+00
  8.116575e+00    2.866627e+00
  8.148326e+00    2.850612e+00
  8.180077e+00    2.871378e+00
  8.211828e+00    2.938056e+00
  8.243579e+00    2.933673e+00
  8.275330e+00    2.831187e+00
  8.307081e+00    2.850244e+00
  8.338833e+00    2.845249e+00
  8.370584e+00    2.816229e+00
  8.402335e+00    2.824854e+00
  8.434086e+00    2.806246e+00
  8.465837e+00    2.859581e+00
  8.497588e+00    2.819959e+00
  8.529339e+00    2.828153e+00
  8.561091e+00    2.810482e+00
  8.592842e+00    2.818428e+00
  8.624593e+00    2.848735e+00
  8.656344e+00    2.802239e+00
  8.688095e+00    2.824903e+00
  8.719846e+00    2.786789e+00
  8.751598e+00    2.869833e+00
  8.783349e+00    2.764634e+00
  8.815100e+00    2.797150e+00
  8.846851e+00    2.758887e+00
  8.878602e+00    2.786804e+00
  8.910353e+00    2.796158e+00
  8.942104e+00    2.794122e+00
  8.973856e+00    2.767206e+00
  9.005607e+00    2.810897e+00
  9.037358e+00    2.810469e+00
  9.069109e+00    2.808948e+00
  9.100860e+00    2.748424e+00
  9.132611e+00    2.742925e+00
  9.164362e+00    2.737759e+00
  9.196114e+00    2.730957e+00
  9.227865e+00    2.783751e+00
  9.259616e+00    2.753228e+00
  9.291367e+00    2.726471e+00
  9.323118e+00    2.752119e+00
  9.354869e+00    2.720209e+00
  9.386620e+00    2.750845e+00
  9.418372e+00    2.694107e+00
  9.450123e+00    2.750966e+00
  9.481874e+00    2.745455e+00
  9.513625e+00    2.729113e+00
  9.545376e+00    2.718098e+00
  9.577127e+00    2.719137e+00
  9.608878e+00    2.714127e+00
  9.640630e+00    2.708662e+00
  9.672381e+00    2.692422e+00
  9.704132e+00    2.672190e+00
  9.735883e+00    2.653057e+00
  9.767634e+00    2.685040e+00
  9.799385e+00    2.664359e+00
  9.831137e+00    2.636444e+00
  9.862888e+00    2.673774e+00
  9.894639e+00    2.621591e+00
  9.926390e+00    2.616643e+00
  9.958141e+00    2.629585e+00
  9.989892e+00    2.609611e+00
  1.002164e+01    2.602279e+00
  1.005339e+01    2.671463e+00
  1.008515e+01    2.611223e+00
  1.011690e+01    2.556890e+00
  1.014865e+01    2.640988e+00
  1.018040e+01    2.636138e+00
  1.021215e+01    2.587929e+00
  1.024390e+01    2.572039e+00
  1.027565e+01    2.585758e+00
  1.030740e+01    2.531351e+00
  1.033915e+01    2.537882e+00
  1.037091e+01    2.580590e+00
  1.040266e+01    2.586775e+00
  1.043441e+01    2.540900e+00
  1.046616e+01    2.560573e+00
  1.049791e+01    2.503107e+00
  1.052966e+01    2.541094e+00
  1.056141e+01    2.599213e+00
  1.059316e+01    2.557875e+00
  1.062492e+01    2.550367e+00
  1.065667e+01    2.528402e+00
  1.068842e+01    2.487314e+00
  1.072017e+01    2.490693e+00
  1.075192e+01    2.542085e+00
  1.078367e+01    2.523346e+00
  1.081542e+01    2.525202e+00
  1.084717e+01    2.489709e+00
  1.087892e+01    2.482988e+00
  1.091068e+01    2.476748e+00
  1.094243e+01    2.397562e+00
  1.097418e+01    2.479001e+00
  1.100593e+01    2.450444e+00
  1.103768e+01    2.476929e+00
  1.106943e+01    2.452915e+00
  1.110118e+01    2.465135e+00
  1.113293e+01    2.437592e+00
  1.116468e+01    2.366015e+00
  1.119644e+01    2.442094e+00
  1.122819e+01    2.465010e+00
  1.125994e+01    2.346892e+00
  1.129169e+01    2.367091e+00
  1.132344e+01    2.396622e+00
  1.135519e+01    2.379281e+00
  1.138694e+01    2.386023e+00
  1.141869e+01    2.363474e+00
  1.145045e+01    2.385591e+00
  1.148220e+01    2.383810e+00
  1.151395e+01    2.409139e+00
  1.154570e+01    2.341793e+00
  1.157745e+01    2.324505e+00
  1.160920e+01    2.331464e+00
  1.164095e+01    2.386062e+00
  1.167270e+01    2.368342e+00
  1.170445e+01    2.351873e+00
  1.173621e+01    2.380921e+00
  1.176796e+01    2.353915e+00
  1.179971e+01    2.332180e+00
  1.183146e+01    2.302487e+00
  1.186321e+01    2.304924e+00
  1.189496e+01    2.272763e+00
  1.192671e+01    2.316975e+00
  1.195846e+01    2.322865e+00
  1.199021e+01    2.294979e+00
  1.202197e+01    2.321545e+00
  1.205372e+01    2.279212e+00
  1.208547e+01    2.277072e+00
  1.211722e+01    2.290330e+00
  1.214897e+01    2.309978e+00
  1.218072e+01    2.256021e+00
  1.221247e+01    2.257311e+00
  1.224422e+01    2.312189e+00
  1.227597e+01    2.342412e+00
  1.230773e+01    2.286019e+00
  1.233948e+01    2.333239e+00
  1.237123e+01    2.305122e+00
  1.240298e+01    2.267021e+00
  1.243473e+01    2.292604e+00
  1.246648e+01    2.292313e+00
  1.249823e+01    2.282356e+00
  1.252998e+01    2.359111e+00
  1.256174e+01    2.336226e+00
  1.259349e+01    2.340360e+00
  1.262524e+01    2.325176e+00
  1.265699e+01    2.372181e+00
  1.268874e+01    2.438595e+00
  1.272049e+01    2.477384e+00
  1.275224e+01    2.535282e+00
  1.278399e+01    2.627141e+00
  1.281574e+01    2.689831e+00
  1.284750e+01    2.786732e+00
  1.287925e+01    3.019125e+00
  1.291100e+01    3.222740e+00
  1.294275e+01    3.655494e+00
  1.297450e+01    4.323454e+00
  1.300625e+01    5.352385e+00
  1.303800e+01    6.978817e+00
  1.306975e+01    9.325912e+00
  1.310150e+01    1.216552e+01
  1.313326e+01    1.477650e+01
  1.316501e+01    1.690664e+01
  1.319676e+01    1.746901e+01
  1.322851e+01    1.469636e+01
  1.326026e+01    1.064689e+01
  1.329201e+01    7.664928e+00
  1.332376e+01    5.713373e+00
  1.335551e+01    4.573201e+00
  1.338727e+01    3.808745e+00
  1.341902e+01    3.346370e+00
  1.345077e+01    3.045652e+00
  1.348252e+01    2.780912e+00
  1.351427e+01    2.645746e+00
  1.354602e+01    2.519348e+00
  1.357777e+01    2.409445e+00
  1.360952e+01    2.394836e+00
  1.364127e+01    2.295307e+00
  1.367303e+01    2.208560e+00
  1.370478e+01    2.222286e+00
  1.373653e+01    2.141625e+00
  1.376828e+01    2.201510e+00
  1.380003e+01    2.195586e+00
  1.383178e+01    2.156665e+00
  1.386353e+01    2.078997e+00
  1.389528e+01    2.070393e+00
  1.392703e+01    2.048678e+00
  1.395879e+01    2.055784e+00
  1.399054e+01    2.025757e+00
  1.402229e+01    2.017609e+00
  1.405404e+01    2.007151e+00
  1.408579e+01    2.003753e+00
  1.411754e+01    2.004208e+00
  1.414929e+01    1.976047e+00
  1.418104e+01    1.920806e+00
  1.421279e+01    1.966874e+00
  1.424455e+01    1.991650e+00
  1.427630e+01    1.942826e+00
  1.430805e+01    1.971222e+00
  1.433980e+01    1.953496e+00
  1.437155e+01    1.918003e+00
  1.440330e+01    1.959382e+00
  1.443505e+01    1.913234e+00
  1.446680e+01    1.901518e+00
  1.449856e+01    1.900965e+00
  1.453031e+01    1.893289e+00
  1.456206e+01    1.903420e+00
  1.459381e+01    1.866817e+00
  1.462556e+01    1.904948e+00
  1.465731e+01    1.824749e+00
  1.468906e+01    1.871198e+00
  1.472081e+01    1.871513e+00
  1.475256e+01    1.895797e+00
  1.478432e+01    1.849710e+00
  1.481607e+01    1.895594e+00
  1.484782e+01    1.925334e+00
  1.487957e+01    1.895873e+00
  1.491132e+01    1.962313e+00
  1.494307e+01    1.965085e+00
  1.497482e+01    2.017865e+00
  1.500657e+01    2.140088e+00
  1.503832e+01    2.284317e+00
  1.507008e+01    2.460406e+00
  1.510183e+01    2.808599e+00
  1.513358e+01    3.365330e+00
  1.516533e+01    4.099106e+00
  1.519708e+01    4.847305e+00
  1.522883e+01    5.475080e+00
  1.526058e+01    5.942443e+00
  1.529233e+01    5.853358e+00
  1.532409e+01    5.140127e+00
  1.535584e+01    4.054718e+00
  1.538759e+01    3.150820e+00
  1.541934e+01    2.682610e+00
  1.545109e+01    2.331965e+00
  1.548284e+01    2.182602e+00
  1.551459e+01    1.968042e+00
  1.554634e+01    1.957613e+00
  1.557809e+01    1.893009e+00
  1.560985e+01    1.809332e+00
  1.564160e+01    1.770946e+00
  1.567335e+01    1.732963e+00
  1.570510e+01    1.741913e+00
  1.573685e+01    1.697402e+00
  1.576860e+01    1.697945e+00
  1.580035e+01    1.658533e+00
  1.583210e+01    1.651072e+00
  1.586385e+01    1.653821e+00
  1.589561e+01    1.654369e+00
  1.592736e+01    1.634322e+00
  1.595911e+01    1.610034e+00
  1.599086e+01    1.578121e+00
  1.602261e+01    1.578094e+00
  1.605436e+01    1.535534e+00
  1.608611e+01    1.562668e+00
  1.611786e+01    1.543831e+00
  1.614961e+01    1.593475e+00
  1.618137e+01    1.543176e+00
  1.621312e+01    1.557236e+00
  1.624487e+01    1.530935e+00
  1.627662e+01    1.531234e+00
  1.630837e+01    1.540755e+00
  1.634012e+01    1.543750e+00
  1.637187e+01    1.530927e+00
  1.640362e+01    1.518556e+00
  1.643538e+01    1.472566e+00
  1.646713e+01    1.484001e+00
  1.649888e+01    1.486803e+00
  1.653063e+01    1.497978e+00
  1.656238e+01    1.506717e+00
  1.659413e+01    1.490389e+00
  1.662588e+01    1.488898e+00
  1.665763e+01    1.503328e+00
  1.668938e+01    1.433346e+00
  1.672114e+01    1.475451e+00
  1.675289e+01    1.449757e+00
  1.678464e+01    1.436899e+00
  1.681639e+01    1.433849e+00
  1.684814e+01    1.439288e+00
  1.687989e+01    1.432264e+00
  1.691164e+01    1.421698e+00
  1.694339e+01    1.397123e+00
  1.697514e+01    1.434599e+00
  1.700690e+01    1.384660e+00
  1.703865e+01    1.398770e+00
  1.707040e+01    1.418020e+00
  1.710215e+01    1.432612e+00
  1.713390e+01    1.405751e+00
  1.716565e+01    1.405691e+00
  1.719740e+01    1.390690e+00
  1.722915e+01    1.389400e+00
  1.726091e+01    1.387892e+00
  1.729266e+01    1.407899e+00
  1.732441e+01    1.362518e+00
  1.735616e+01    1.353433e+00
  1.738791e+01    1.336251e+00
  1.741966e+01    1.373191e+00
  1.745141e+01    1.340709e+00
  1.748316e+01    1.390113e+00
  1.751491e+01    1.346529e+00
  1.754667e+01    1.323052e+00
  1.757842e+01    1.343774e+00
  1.761017e+01    1.333811e+00
  1.764192e+01    1.308591e+00
  1.767367e+01    1.328796e+00
  1.770542e+01    1.302908e+00
  1.773717e+01    1.296098e+00
  1.776892e+01    1.329955e+00
  1.780067e+01    1.304028e+00
  1.783243e+01    1.291691e+00
  1.786418e+01    1.326090e+00
  1.789593e+01    1.314393e+00
  1.792768e+01    1.299107e+00
  1.795943e+01    1.287217e+00
  1.799118e+01    1.298952e+00
  1.802293e+01    1.298392e+00
  1.805468e+01    1.257071e+00
  1.808643e+01    1.276757e+00
  1.811819e+01    1.253800e+00
  1.814994e+01    1.293360e+00
  1.818169e+01    1.281658e+00
  1.821344e+01    1.293916e+00
  1.824519e+01    1.251017e+00
  1.827694e+01    1.271008e+00
  1.830869e+01    1.264129e+00
  1.834044e+01    1.239383e+00
  1.837220e+01    1.241184e+00
  1.840395e+01    1.238767e+00
  1.843570e+01    1.210763e+00
  1.846745e+01    1.242679e+00
  1.849920e+01    1.239357e+00
  1.853095e+01    1.217689e+00
  1.856270e+01    1.217952e+00
  1.859445e+01    1.221727e+00
  1.862620e+01    1.226068e+00
  1.865796e+01    1.222858e+00
  1.868971e+01    1.220534e+00
  1.872146e+01    1.181459e+00
  1.875321e+01    1.212502e+00
  1.878496e+01    1.199499e+00
  1.881671e+01    1.232349e+00
  1.884846e+01    1.202894e+00
  1.888021e+01    1.203007e+00
  1.891196e+01    1.217316e+00
  1.894372e+01    1.201793e+00
  1.897547e+01    1.181529e+00
  1.900722e+01    1.205675e+00
  1.903897e+01    1.184843e+00
  1.907072e+01    1.182506e+00
  1.910247e+01    1.168021e+00
  1.913422e+01    1.200492e+00
  1.916597e+01    1.177359e+00
  1.919773e+01    1.182268e+00
  1.922948e+01    1.166767e+00
  1.926123e+01    1.136767e+00
  1.929298e+01    1.158420e+00
  1.932473e+01    1.173325e+00
  1.935648e+01    1.161765e+00
  1.938823e+01    1.130834e+00
  1.941998e+01    1.141008e+00
  1.945173e+01    1.146225e+00
  1.948349e+01    1.150373e+00
  1.951524e+01    1.143259e+00
  1.954699e+01    1.153397e+00
  1.957874e+01    1.141023e+00
  1.961049e+01    1.142783e+00
  1.964224e+01    1.142300e+00
  1.967399e+01    1.134280e+00
  1.970574e+01    1.122445e+00
  1.973749e+01    1.141820e+00
  1.976925e+01    1.120149e+00
  1.980100e+01    1.134487e+00
  1.983275e+01    1.103769e+00
  1.986450e+01    1.144851e+00
  1.989625e+01    1.106451e+00
  1.992800e+01    1.080907e+00
  1.995975e+01    1.110269e+00
  1.999150e+01    1.111107e+00
  2.002325e+01    1.115837e+00
  2.005501e+01    1.119527e+00
  2.008676e+01    1.101869e+00
  2.011851e+01    1.089740e+00
  2.015026e+01    1.090392e+00
  2.018201e+01    1.103580e+00
  2.021376e+01    1.097857e+00
  2.024551e+01    1.081091e+00
  2.027726e+01    1.090549e+00
  2.030902e+01    1.091330e+00
  2.034077e+01    1.076180e+00
  2.037252e+01    1.085914e+00
  2.040427e+01    1.064107e+00
  2.043602e+01    1.068085e+00
  2.046777e+01    1.080325e+00
  2.049952e+01    1.060951e+00
  2.053127e+01    1.080307e+00
  2.056302e+01    1.071369e+00
  2.059478e+01    1.056491e+00
  2.062653e+01    1.066675e+00
  2.065828e+01    1.095412e+00
  2.069003e+01    1.062021e+00
  2.072178e+01    1.041087e+00
  2.075353e+01    1.047319e+00
  2.078528e+01    1.072244e+00
  2.081703e+01    1.061279e+00
  2.084878e+01    1.051154e+00
  2.088054e+01    1.090687e+00
  2.091229e+01    1.076028e+00
  2.094404e+01    1.064146e+00
  2.097579e+01    1.067644e+00
  2.100754e+01    1.083704e+00
  2.103929e+01    1.053190e+00
  2.107104e+01    1.082458e+00
  2.110279e+01    1.058969e+00
  2.113455e+01    1.070296e+00
  2.116630e+01    1.073106e+00
  2.119805e+01    1.071473e+00
  2.122980e+01    1.075429e+00
  2.126155e+01    1.103475e+00
  2.129330e+01    1.113111e+00
  2.132505e+01    1.115217e+00
  2.135680e+01    1.129336e+00
  2.138855e+01    1.162291e+00
  2.142031e+01    1.179476e+00
  2.145206e+01    1.222698e+00
  2.148381e+01    1.249121e+00
  2.151556e+01    1.292851e+00
  2.154731e+01    1.353861e+00
  2.157906e+01    1.440944e+00
  2.161081e+01    1.598448e+00
  2.164256e+01    1.756711e+00
  2.167431e+01    2.064911e+00
  2.170607e+01    2.451182e+00
  2.173782e+01    3.139238e+00
  2.176957e+01    4.128167e+00
  2.180132e+01    5.326964e+00
  2.183307e+01    6.773557e+00
  2.186482e+01    8.328786e+00
  2.189657e+01    9.576940e+00
  2.192832e+01    9.575526e+00
  2.196007e+01    8.050732e+00
  2.199183e+01    5.993600e+00
  2.202358e+01    4.262992e+00
  2.205533e+01    3.205759e+00
  2.208708e+01    2.480228e+00
  2.211883e+01    2.065682e+00
  2.215058e+01    1.785747e+00
  2.218233e+01    1.575578e+00
  2.221408e+01    1.430089e+00
  2.224584e+01    1.319498e+00
  2.227759e+01    1.258032e+00
  2.230934e+01    1.207912e+00
  2.234109e+01    1.145898e+00
  2.237284e+01    1.098672e+00
  2.240459e+01    1.095325e+00
  2.243634e+01    1.047062e+00
  2.246809e+01    1.045448e+00
  2.249984e+01    1.017948e+00
  2.253160e+01    9.982112e-01
  2.256335e+01    9.853372e-01
  2.259510e+01    9.918219e-01
  2.262685e+01    9.527832e-01
  2.265860e+01    9.567318e-01
  2.269035e+01    9.550475e-01
  2.272210e+01    9.635724e-01
  2.275385e+01    9.316545e-01
  2.278560e+01    9.299998e-01
  2.281736e+01    9.086317e-01
  2.284911e+01    9.000036e-01
  2.288086e+01    9.148324e-01
  2.291261e+01    9.052322e-01
  2.294436e+01    8.867584e-01
  2.297611e+01    8.946628e-01
  2.300786e+01    9.129061e-01
  2.303961e+01    8.787438e-01
  2.307137e+01    8.863487e-01
  2.310312e+01    8.906584e-01
  2.313487e+01    8.627672e-01
  2.316662e+01    8.579933e-01
  2.319837e+01    8.481325e-01
  2.323012e+01    8.693479e-01
  2.326187e+01    8.583368e-01
  2.329362e+01    8.654410e-01
  2.332537e+01    8.658771e-01
  2.335713e+01    8.435125e-01
  2.338888e+01    8.657945e-01
  2.342063e+01    8.421166e-01
  2.345238e+01    8.660430e-01
  2.348413e+01    8.513820e-01
  2.351588e+01    8.394008e-01
  2.354763e+01    8.605357e-01
  2.357938e+01    8.318805e-01
  2.361113e+01    8.479890e-01
  2.364289e+01    8.234850e-01
  2.367464e+01    8.260530e-01
  2.370639e+01    8.178712e-01
  2.373814e+01    8.024935e-01
  2.376989e+01    8.053211e-01
  2.380164e+01    8.062093e-01
  2.383339e+01    7.799975e-01
  2.386514e+01    7.959290e-01
  2.389689e+01    8.003442e-01
  2.392865e+01    8.070385e-01
  2.396040e+01    8.002284e-01
  2.399215e+01    8.043168e-01
  2.402390e+01    7.672469e-01
  2.405565e+01    7.787946e-01
  2.408740e+01    7.744830e-01
  2.411915e+01    7.601745e-01
  2.415090e+01    7.615165e-01
  2.418266e+01    7.404174e-01
  2.421441e+01    7.734177e-01
  2.424616e+01    7.821221e-01
  2.427791e+01    7.817881e-01
  2.430966e+01    7.892461e-01
  2.434141e+01    7.921239e-01
  2.437316e+01    7.899454e-01
  2.440491e+01    7.944623e-01
  2.443666e+01    7.893953e-01
  2.446842e+01    7.784176e-01
  2.450017e+01    7.819005e-01
  2.453192e+01    7.861995e-01
  2.456367e+01    7.832420e-01
  2.459542e+01    7.727441e-01
  2.462717e+01    7.928682e-01
  2.465892e+01    7.817077e-01
  2.469067e+01    7.868413e-01
  2.472242e+01    7.735783e-01
  2.475418e+01    8.047628e-01
  2.478593e+01    7.910737e-01
  2.481768e+01    7.764095e-01
  2.484943e+01    7.959459e-01
  2.488118e+01    7.742037e-01
  2.491293e+01    8.051421e-01
  2.494468e+01    7.785645e-01
  2.497643e+01    8.058435e-01
  2.500819e+01    8.045648e-01
  2.503994e+01    7.995930e-01
  2.507169e+01    7.943457e-01
  2.510344e+01    7.960486e-01
  2.513519e+01    8.161256e-01
  2.516694e+01    8.235929e-01
  2.519869e+01    8.397906e-01
  2.523044e+01    8.255930e-01
  2.526219e+01    8.484859e-01
  2.529395e+01    8.537153e-01
  2.532570e+01    8.549779e-01
  2.535745e+01    8.747206e-01
  2.538920e+01    8.808867e-01
  2.542095e+01    9.125718e-01
  2.545270e+01    9.196585e-01
  2.548445e+01    9.415570e-01
  2.551620e+01    9.666191e-01
  2.554795e+01    9.961832e-01
  2.557971e+01    1.053914e+00
  2.561146e+01    1.125566e+00
  2.564321e+01    1.193472e+00
  2.567496e+01    1.315024e+00
  2.570671e+01    1.457611e+00
  2.573846e+01    1.625615e+00
  2.577021e+01    1.973508e+00
  2.580196e+01    2.459112e+00
  2.583371e+01    3.213025e+00
  2.586547e+01    4.193686e+00
  2.589722e+01    5.461198e+00
  2.592897e+01    6.817592e+00
  2.596072e+01    7.885298e+00
  2.599247e+01    7.873030e+00
  2.602422e+01    6.840891e+00
  2.605597e+01    5.226504e+00
  2.608772e+01    3.791355e+00
  2.611948e+01    2.868664e+00
  2.615123e+01    2.228642e+00
  2.618298e+01    1.836236e+00
  2.621473e+01    1.572002e+00
  2.624648e+01    1.387012e+00
  2.627823e+01    1.273201e+00
  2.630998e+01    1.146843e+00
  2.634173e+01    1.109894e+00
  2.637348e+01    1.030910e+00
  2.640524e+01    1.008740e+00
  2.643699e+01    9.697083e-01
  2.646874e+01    9.570030e-01
  2.650049e+01    9.264770e-01
  2.653224e+01    9.374980e-01
  2.656399e+01    9.171785e-01
  2.659574e+01    9.067746e-01
  2.662749e+01    9.089543e-01
  2.665924e+01    8.937395e-01
  2.669100e+01    9.036725e-01
  2.672275e+01    8.820375e-01
  2.675450e+01    9.002603e-01
  2.678625e+01    8.939816e-01
  2.681800e+01    9.012201e-01
  2.684975e+01    9.057639e-01
  2.688150e+01    9.021385e-01
  2.691325e+01    9.071819e-01
  2.694501e+01    9.371893e-01
  2.697676e+01    9.714248e-01
  2.700851e+01    1.013992e+00
  2.704026e+01    1.059504e+00
  2.707201e+01    1.196867e+00
  2.710376e+01    1.341311e+00
  2.713551e+01    1.553737e+00
  2.716726e+01    1.856932e+00
  2.719901e+01    2.174819e+00
  2.723077e+01    2.332994e+00
  2.726252e+01    2.291491e+00
  2.729427e+01    2.005521e+00
  2.732602e+01    1.634245e+00
  2.735777e+01    1.376951e+00
  2.738952e+01    1.193508e+00
  2.742127e+01    1.090158e+00
  2.745302e+01    1.019453e+00
  2.748477e+01    9.696035e-01
  2.751653e+01    9.097246e-01
  2.754828e+01    8.909330e-01
  2.758003e+01    8.826105e-01
  2.761178e+01    8.529404e-01
  2.764353e+01    8.357217e-01
  2.767528e+01    8.153395e-01
  2.770703e+01    8.294804e-01
  2.773878e+01    8.010483e-01
  2.777054e+01    8.239419e-01
  2.780229e+01    8.163937e-01
  2.783404e+01    8.112602e-01
  2.786579e+01    7.936917e-01
  2.789754e+01    7.892395e-01
  2.792929e+01    7.903418e-01
  2.796104e+01    7.948349e-01
  2.799279e+01    7.751068e-01
  2.802454e+01    7.847729e-01
  2.805630e+01    7.882288e-01
  2.808805e+01    7.766227e-01
  2.811980e+01    7.694761e-01
  2.815155e+01    7.335629e-01
  2.818330e+01    7.520458e-01
  2.821505e+01    7.631654e-01
  2.824680e+01    7.470697e-01
  2.827855e+01    7.579306e-01
  2.831030e+01    7.730083e-01
  2.834206e+01    7.643658e-01
  2.837381e+01    7.315676e-01
  2.840556e+01    7.748726e-01
  2.843731e+01    7.587963e-01
  2.846906e+01    7.378961e-01
  2.850081e+01    7.364017e-01
  2.853256e+01    7.463486e-01
  2.856431e+01    7.536566e-01
  2.859606e+01    7.490343e-01
  2.862782e+01    7.443660e-01
  2.865957e+01    7.493100e-01
  2.869132e+01    7.464300e-01
  2.872307e+01    7.523535e-01
  2.875482e+01    7.359026e-01
  2.878657e+01    7.477150e-01
  2.881832e+01    7.308050e-01
  2.885007e+01    7.287469e-01
  2.888183e+01    7.047987e-01
  2.891358e+01    7.449065e-01
  2.894533e+01    7.313157e-01
  2.897708e+01    7.284576e-01
  2.900883e+01    7.363748e-01
  2.904058e+01    7.140635e-01
  2.907233e+01    7.299716e-01
  2.910408e+01    7.190593e-01
  2.913583e+01    7.287897e-01
  2.916759e+01    7.139367e-01
  2.919934e+01    7.335633e-01
  2.923109e+01    7.318448e-01
  2.926284e+01    7.328608e-01
  2.929459e+01    7.062165e-01
  2.932634e+01    7.428561e-01
  2.935809e+01    7.370898e-01
  2.938984e+01    7.286127e-01
  2.942159e+01    7.235704e-01
  2.945335e+01    7.250412e-01
  2.948510e+01    7.091823e-01
  2.951685e+01    6.957829e-01
  2.954860e+01    7.149103e-01
  2.958035e+01    7.329163e-01
  2.961210e+01    7.022865e-01
  2.964385e+01    7.164937e-01
  2.967560e+01    7.022063e-01
  2.970736e+01    7.000985e-01
  2.973911e+01    7.052233e-01
  2.977086e+01    7.145652e-01
  2.980261e+01    7.015345e-01
  2.983436e+01    7.163490e-01
  2.986611e+01    7.107755e-01
  2.989786e+01    7.067806e-01
  2.992961e+01    7.052751e-01
  2.996136e+01    7.015903e-01
  2.999312e+01    7.113944e-01
  3.002487e+01    7.323536e-01
  3.005662e+01    7.072135e-01
  3.008837e+01    7.165768e-01
  3.012012e+01    7.114027e-01
  3.015187e+01    6.925977e-01
  3.018362e+01    6.941507e-01
  3.021537e+01    7.038124e-01
  3.024712e+01    7.166427e-01
  3.027888e+01    6.989868e-01
  3.031063e+01    7.005264e-01
  3.034238e+01    7.071176e-01
  3.037413e+01    7.012035e-01
  3.040588e+01    7.047930e-01
  3.043763e+01    7.028889e-01
  3.046938e+01    7.073760e-01
  3.050113e+01    7.221912e-01
  3.053288e+01    7.007059e-01
  3.056464e+01    7.117629e-01
  3.059639e+01    7.136216e-01
  3.062814e+01    6.929334e-01
  3.065989e+01    7.097246e-01
  3.069164e+01    6.941410e-01
  3.072339e+01    7.095411e-01
  3.075514e+01    7.049879e-01
  3.078689e+01    7.256643e-01
  3.081865e+01    6.978822e-01
  3.085040e+01    7.037402e-01
  3.088215e+01    7.130404e-01
  3.091390e+01    6.990641e-01
  3.094565e+01    7.093303e-01
  3.097740e+01    6.994518e-01
  3.100915e+01    7.270818e-01
  3.104090e+01    7.407062e-01
  3.107265e+01    7.209153e-01
  3.110441e+01    7.081558e-01
  3.113616e+01    7.120985e-01
  3.116791e+01    6.943072e-01
  3.119966e+01    7.231746e-01
  3.123141e+01    7.345740e-01
  3.126316e+01    7.098724e-01
  3.129491e+01    7.508270e-01
  3.132666e+01    7.217426e-01
  3.135841e+01    7.404262e-01
  3.139017e+01    7.092510e-01
  3.142192e+01    7.289974e-01
  3.145367e+01    7.403207e-01
  3.148542e+01    7.665047e-01
  3.151717e+01    7.454004e-01
  3.154892e+01    7.868550e-01
  3.158067e+01    7.852778e-01
  3.161242e+01    8.312093e-01
  3.164418e+01    8.344179e-01
  3.167593e+01    8.653821e-01
  3.170768e+01    9.403022e-01
  3.173943e+01    1.010753e+00
  3.177118e+01    1.146753e+00
  3.180293e+01    1.313522e+00
  3.183468e+01    1.599330e+00
  3.186643e+01    1.884547e+00
  3.189818e+01    2.179083e+00
  3.192994e+01    2.268820e+00
  3.196169e+01    2.223316e+00
  3.199344e+01    1.874081e+00
  3.202519e+01    1.543108e+00
  3.205694e+01    1.298818e+00
  3.208869e+01    1.100140e+00
  3.212044e+01    9.962838e-01
  3.215219e+01    9.116276e-01
  3.218394e+01    8.575779e-01
  3.221570e+01    8.355827e-01
  3.224745e+01    8.016501e-01
  3.227920e+01    7.793232e-01
  3.231095e+01    7.652435e-01
  3.234270e+01    7.666856e-01
  3.237445e+01    7.640066e-01
  3.240620e+01    7.689466e-01
  3.243795e+01    7.062234e-01
  3.246970e+01    7.317137e-01
  3.250146e+01    7.371130e-01
  3.253321e+01    7.495842e-01
  3.254908e+01    7.125054e-01