File: XRD/2024-07-27_001_Ru-CGO-ex_Pristine_Rt_000057_data_000001.dat
# == pyFAI calibration ==
# Distance Sample to Detector: 0.4 m
# PONI: 9.750e-02, 1.135e-01 m
# Rotations: -0.000175 0.000000 -0.000000 rad
#
# == Fit2d calibration ==
# Distance Sample-beamCenter: 400.000 mm
# Center: x=1514.000, y=1300.000 pix
# Tilt: 0.010 deg  TiltPlanRot: 0.010 deg
#
# Detector Detector	 Spline= None	 PixelSize= 7.500e-05, 7.500e-05 m
#    Detector has a mask: False
#    Detector has a dark current: False
#    detector has a flat field: False
#
# Wavelength: 6.888e-11 m
# Mask applied: user provided
# Dark current applied: False
# Flat field applied: False
# Polarization factor: 0.99
# Normalization factor: 1.0
# --> /home/myspot/data/2024_07_Rosario/2024-07-27_001_Ru-CGO-ex_Pristine_Rt_000057_data_000001.dat
#       q_nm^-1             I
  2.003187e-02    7.711873e-02
  5.178302e-02    0.000000e+00
  8.353417e-02    3.147850e-01
  1.152853e-01    1.454895e+00
  1.470365e-01    8.888176e-01
  1.787876e-01    7.419528e-02
  2.105388e-01    5.003254e-03
  2.422899e-01    1.553512e-02
  2.740411e-01    0.000000e+00
  3.057922e-01    0.000000e+00
  3.375433e-01    0.000000e+00
  3.692945e-01    0.000000e+00
  4.010456e-01    1.288542e-02
  4.327968e-01    2.330014e-03
  4.645479e-01    2.084605e-02
  4.962991e-01    0.000000e+00
  5.280502e-01    0.000000e+00
  5.598014e-01    3.309387e-03
  5.915525e-01    8.770457e-03
  6.233037e-01    0.000000e+00
  6.550548e-01    2.992483e-03
  6.868060e-01    3.793276e-03
  7.185571e-01    1.533968e-02
  7.503083e-01    1.152211e-02
  7.820594e-01    2.922924e-03
  8.138106e-01    1.626640e-03
  8.455617e-01    9.657198e-03
  8.773129e-01    1.916892e-02
  9.090640e-01    2.140129e-02
  9.408152e-01    1.445852e-02
  9.725663e-01    1.974000e-02
  1.004317e+00    1.986558e-02
  1.036069e+00    2.886375e-02
  1.067820e+00    3.247555e-02
  1.099571e+00    2.342897e-02
  1.131322e+00    3.728853e-02
  1.163073e+00    2.772941e-02
  1.194824e+00    2.889006e-02
  1.226575e+00    6.039274e-02
  1.258327e+00    7.381363e-02
  1.290078e+00    8.003266e-02
  1.321829e+00    1.011665e-01
  1.353580e+00    8.829772e-02
  1.385331e+00    8.021147e-02
  1.417082e+00    1.044902e-01
  1.448834e+00    1.191076e-01
  1.480585e+00    7.554232e-02
  1.512336e+00    1.049273e-01
  1.544087e+00    1.131197e-01
  1.575838e+00    1.259099e-01
  1.607589e+00    8.271103e-02
  1.639340e+00    9.587739e-02
  1.671092e+00    9.398227e-02
  1.702843e+00    9.712746e-02
  1.734594e+00    1.011192e-01
  1.766345e+00    7.526535e-02
  1.798096e+00    9.021073e-02
  1.829847e+00    1.076059e-01
  1.861598e+00    7.236330e-02
  1.893350e+00    9.357866e-02
  1.925101e+00    8.865858e-02
  1.956852e+00    1.085783e-01
  1.988603e+00    9.566014e-02
  2.020354e+00    8.541679e-02
  2.052105e+00    9.253016e-02
  2.083856e+00    8.526363e-02
  2.115608e+00    7.902004e-02
  2.147359e+00    9.186811e-02
  2.179110e+00    9.479570e-02
  2.210861e+00    8.886354e-02
  2.242612e+00    9.423996e-02
  2.274363e+00    9.325203e-02
  2.306115e+00    8.440971e-02
  2.337866e+00    1.014081e-01
  2.369617e+00    9.606408e-02
  2.401368e+00    1.001133e-01
  2.433119e+00    9.500702e-02
  2.464870e+00    7.003488e-02
  2.496621e+00    9.228237e-02
  2.528373e+00    7.306462e-02
  2.560124e+00    7.142343e-02
  2.591875e+00    8.165285e-02
  2.623626e+00    8.399948e-02
  2.655377e+00    7.828619e-02
  2.687128e+00    8.726401e-02
  2.718879e+00    9.770915e-02
  2.750631e+00    7.052341e-02
  2.782382e+00    9.799328e-02
  2.814133e+00    9.062400e-02
  2.845884e+00    1.184638e-01
  2.877635e+00    8.646519e-02
  2.909386e+00    8.224121e-02
  2.941137e+00    8.469622e-02
  2.972889e+00    9.612714e-02
  3.004640e+00    7.784741e-02
  3.036391e+00    8.122037e-02
  3.068142e+00    7.859325e-02
  3.099893e+00    7.450070e-02
  3.131644e+00    9.109222e-02
  3.163395e+00    7.749626e-02
  3.195147e+00    9.819938e-02
  3.226898e+00    7.028595e-02
  3.258649e+00    7.500740e-02
  3.290400e+00    8.649431e-02
  3.322151e+00    7.568727e-02
  3.353902e+00    8.672760e-02
  3.385654e+00    7.223962e-02
  3.417405e+00    8.919186e-02
  3.449156e+00    9.945912e-02
  3.480907e+00    7.503060e-02
  3.512658e+00    8.892252e-02
  3.544409e+00    7.122130e-02
  3.576160e+00    1.006405e-01
  3.607912e+00    7.862464e-02
  3.639663e+00    8.626401e-02
  3.671414e+00    7.681350e-02
  3.703165e+00    8.268520e-02
  3.734916e+00    7.782273e-02
  3.766667e+00    9.138392e-02
  3.798418e+00    7.930386e-02
  3.830170e+00    8.956326e-02
  3.861921e+00    9.074268e-02
  3.893672e+00    7.523731e-02
  3.925423e+00    7.731030e-02
  3.957174e+00    9.524788e-02
  3.988925e+00    8.050735e-02
  4.020676e+00    7.723138e-02
  4.052428e+00    8.519727e-02
  4.084179e+00    8.979408e-02
  4.115930e+00    7.249207e-02
  4.147681e+00    9.551646e-02
  4.179432e+00    8.345924e-02
  4.211183e+00    7.829142e-02
  4.242935e+00    8.052428e-02
  4.274686e+00    9.577591e-02
  4.306437e+00    7.816303e-02
  4.338188e+00    8.791170e-02
  4.369939e+00    8.413858e-02
  4.401690e+00    7.801278e-02
  4.433441e+00    1.036570e-01
  4.465193e+00    9.291974e-02
  4.496944e+00    9.520756e-02
  4.528695e+00    8.918621e-02
  4.560446e+00    8.413240e-02
  4.592197e+00    7.471970e-02
  4.623948e+00    8.662790e-02
  4.655699e+00    9.836493e-02
  4.687451e+00    7.887918e-02
  4.719202e+00    8.704247e-02
  4.750953e+00    8.754338e-02
  4.782704e+00    8.270667e-02
  4.814455e+00    8.156162e-02
  4.846206e+00    9.235186e-02
  4.877957e+00    8.826195e-02
  4.909709e+00    8.973472e-02
  4.941460e+00    9.692812e-02
  4.973211e+00    9.056021e-02
  5.004962e+00    8.738045e-02
  5.036713e+00    8.602024e-02
  5.068464e+00    9.191696e-02
  5.100216e+00    1.030424e-01
  5.131967e+00    8.166663e-02
  5.163718e+00    7.702080e-02
  5.195469e+00    7.883416e-02
  5.227220e+00    8.444822e-02
  5.258971e+00    8.732486e-02
  5.290722e+00    7.334454e-02
  5.322474e+00    8.907209e-02
  5.354225e+00    8.214811e-02
  5.385976e+00    8.709118e-02
  5.417727e+00    9.662013e-02
  5.449478e+00    1.001902e-01
  5.481229e+00    9.315060e-02
  5.512980e+00    9.351637e-02
  5.544732e+00    8.578231e-02
  5.576483e+00    9.455933e-02
  5.608234e+00    8.794580e-02
  5.639985e+00    8.740741e-02
  5.671736e+00    9.459350e-02
  5.703487e+00    7.742703e-02
  5.735238e+00    1.067764e-01
  5.766990e+00    9.014796e-02
  5.798741e+00    8.956880e-02
  5.830492e+00    7.778554e-02
  5.862243e+00    9.763369e-02
  5.893994e+00    7.411498e-02
  5.925745e+00    7.931030e-02
  5.957497e+00    9.441355e-02
  5.989248e+00    9.552726e-02
  6.020999e+00    8.575286e-02
  6.052750e+00    9.819077e-02
  6.084501e+00    9.423589e-02
  6.116252e+00    9.238243e-02
  6.148003e+00    7.346863e-02
  6.179755e+00    9.107629e-02
  6.211506e+00    8.455010e-02
  6.243257e+00    9.274627e-02
  6.275008e+00    8.225071e-02
  6.306759e+00    8.342876e-02
  6.338510e+00    9.379115e-02
  6.370261e+00    8.909685e-02
  6.402013e+00    7.535016e-02
  6.433764e+00    7.578522e-02
  6.465515e+00    8.294819e-02
  6.497266e+00    9.472891e-02
  6.529017e+00    7.248623e-02
  6.560768e+00    8.392514e-02
  6.592519e+00    8.771956e-02
  6.624271e+00    8.695269e-02
  6.656022e+00    8.007765e-02
  6.687773e+00    8.313419e-02
  6.719524e+00    8.106487e-02
  6.751275e+00    8.576105e-02
  6.783026e+00    9.428812e-02
  6.814777e+00    7.999820e-02
  6.846529e+00    7.741766e-02
  6.878280e+00    7.854679e-02
  6.910031e+00    8.492097e-02
  6.941782e+00    8.424401e-02
  6.973533e+00    8.915232e-02
  7.005284e+00    8.582702e-02
  7.037036e+00    9.584586e-02
  7.068787e+00    9.633209e-02
  7.100538e+00    8.545350e-02
  7.132289e+00    9.363753e-02
  7.164040e+00    9.185935e-02
  7.195791e+00    9.184111e-02
  7.227542e+00    8.808827e-02
  7.259294e+00    7.884545e-02
  7.291045e+00    8.212014e-02
  7.322796e+00    8.586762e-02
  7.354547e+00    8.284899e-02
  7.386298e+00    9.146620e-02
  7.418049e+00    8.776503e-02
  7.449800e+00    9.498248e-02
  7.481552e+00    9.001862e-02
  7.513303e+00    8.986816e-02
  7.545054e+00    8.884196e-02
  7.576805e+00    8.847023e-02
  7.608556e+00    8.548839e-02
  7.640307e+00    7.333364e-02
  7.672058e+00    9.247545e-02
  7.703810e+00    8.383793e-02
  7.735561e+00    8.124487e-02
  7.767312e+00    9.583298e-02
  7.799063e+00    8.557817e-02
  7.830814e+00    9.725461e-02
  7.862565e+00    8.722824e-02
  7.894317e+00    8.423077e-02
  7.926068e+00    7.651781e-02
  7.957819e+00    8.877469e-02
  7.989570e+00    8.996905e-02
  8.021321e+00    8.843624e-02
  8.053072e+00    8.225167e-02
  8.084823e+00    8.681308e-02
  8.116575e+00    9.358953e-02
  8.148326e+00    8.757239e-02
  8.180077e+00    8.419374e-02
  8.211828e+00    8.755863e-02
  8.243579e+00    1.016714e-01
  8.275330e+00    8.871590e-02
  8.307081e+00    8.607540e-02
  8.338833e+00    8.823922e-02
  8.370584e+00    8.174463e-02
  8.402335e+00    7.815415e-02
  8.434086e+00    8.441420e-02
  8.465837e+00    8.457821e-02
  8.497588e+00    8.785881e-02
  8.529339e+00    8.621918e-02
  8.561091e+00    8.422700e-02
  8.592842e+00    8.075272e-02
  8.624593e+00    8.804315e-02
  8.656344e+00    8.379477e-02
  8.688095e+00    7.904746e-02
  8.719846e+00    7.677167e-02
  8.751598e+00    8.987955e-02
  8.783349e+00    8.283716e-02
  8.815100e+00    7.586677e-02
  8.846851e+00    7.885015e-02
  8.878602e+00    7.882017e-02
  8.910353e+00    7.749793e-02
  8.942104e+00    8.791761e-02
  8.973856e+00    8.563856e-02
  9.005607e+00    7.370135e-02
  9.037358e+00    8.167667e-02
  9.069109e+00    8.050515e-02
  9.100860e+00    7.490627e-02
  9.132611e+00    7.673663e-02
  9.164362e+00    8.866125e-02
  9.196114e+00    8.297148e-02
  9.227865e+00    7.432663e-02
  9.259616e+00    7.761928e-02
  9.291367e+00    7.176855e-02
  9.323118e+00    8.568779e-02
  9.354869e+00    5.988155e-02
  9.386620e+00    7.757598e-02
  9.418372e+00    8.258569e-02
  9.450123e+00    7.598240e-02
  9.481874e+00    8.259127e-02
  9.513625e+00    8.281463e-02
  9.545376e+00    8.162328e-02
  9.577127e+00    8.456887e-02
  9.608878e+00    7.507779e-02
  9.640630e+00    8.477116e-02
  9.672381e+00    8.375457e-02
  9.704132e+00    7.815857e-02
  9.735883e+00    8.709496e-02
  9.767634e+00    8.292559e-02
  9.799385e+00    7.761119e-02
  9.831137e+00    9.074776e-02
  9.862888e+00    8.945360e-02
  9.894639e+00    7.688823e-02
  9.926390e+00    8.103245e-02
  9.958141e+00    8.959876e-02
  9.989892e+00    8.860085e-02
  1.002164e+01    8.334661e-02
  1.005339e+01    9.029900e-02
  1.008515e+01    8.212224e-02
  1.011690e+01    8.342361e-02
  1.014865e+01    8.648640e-02
  1.018040e+01    9.096301e-02
  1.021215e+01    1.036787e-01
  1.024390e+01    1.135360e-01
  1.027565e+01    1.097566e-01
  1.030740e+01    1.215643e-01
  1.033915e+01    1.207080e-01
  1.037091e+01    1.383183e-01
  1.040266e+01    1.537807e-01
  1.043441e+01    1.639345e-01
  1.046616e+01    2.259816e-01
  1.049791e+01    2.987577e-01
  1.052966e+01    4.610383e-01
  1.056141e+01    7.012889e-01
  1.059316e+01    9.944947e-01
  1.062492e+01    1.202467e+00
  1.065667e+01    1.395139e+00
  1.068842e+01    1.545691e+00
  1.072017e+01    1.437725e+00
  1.075192e+01    1.064373e+00
  1.078367e+01    6.270212e-01
  1.081542e+01    4.285146e-01
  1.084717e+01    3.009655e-01
  1.087892e+01    2.495986e-01
  1.091068e+01    2.087540e-01
  1.094243e+01    1.649841e-01
  1.097418e+01    1.367273e-01
  1.100593e+01    1.310716e-01
  1.103768e+01    1.179776e-01
  1.106943e+01    1.161340e-01
  1.110118e+01    1.061922e-01
  1.113293e+01    1.085173e-01
  1.116468e+01    9.760263e-02
  1.119644e+01    9.138671e-02
  1.122819e+01    8.526603e-02
  1.125994e+01    9.551440e-02
  1.129169e+01    8.170059e-02
  1.132344e+01    8.643942e-02
  1.135519e+01    8.333858e-02
  1.138694e+01    8.364417e-02
  1.141869e+01    9.065282e-02
  1.145045e+01    8.910875e-02
  1.148220e+01    8.392509e-02
  1.151395e+01    8.378226e-02
  1.154570e+01    8.497249e-02
  1.157745e+01    9.014386e-02
  1.160920e+01    8.315930e-02
  1.164095e+01    7.946966e-02
  1.167270e+01    8.542258e-02
  1.170445e+01    7.879057e-02
  1.173621e+01    7.572187e-02
  1.176796e+01    7.101534e-02
  1.179971e+01    7.118104e-02
  1.183146e+01    7.348840e-02
  1.186321e+01    8.288334e-02
  1.189496e+01    7.788413e-02
  1.192671e+01    8.367622e-02
  1.195846e+01    7.695103e-02
  1.199021e+01    8.007871e-02
  1.202197e+01    7.643536e-02
  1.205372e+01    8.358455e-02
  1.208547e+01    8.912162e-02
  1.211722e+01    1.048655e-01
  1.214897e+01    1.104379e-01
  1.218072e+01    1.387412e-01
  1.221247e+01    1.993588e-01
  1.224422e+01    2.476939e-01
  1.227597e+01    3.319273e-01
  1.230773e+01    4.142929e-01
  1.233948e+01    4.622878e-01
  1.237123e+01    4.897577e-01
  1.240298e+01    4.522995e-01
  1.243473e+01    3.394850e-01
  1.246648e+01    2.267274e-01
  1.249823e+01    1.645829e-01
  1.252998e+01    1.360818e-01
  1.256174e+01    1.063346e-01
  1.259349e+01    1.061207e-01
  1.262524e+01    8.511811e-02
  1.265699e+01    8.444192e-02
  1.268874e+01    7.394551e-02
  1.272049e+01    8.336363e-02
  1.275224e+01    8.480211e-02
  1.278399e+01    7.964640e-02
  1.281574e+01    7.146969e-02
  1.284750e+01    6.936698e-02
  1.287925e+01    7.451095e-02
  1.291100e+01    6.880489e-02
  1.294275e+01    7.438280e-02
  1.297450e+01    6.670319e-02
  1.300625e+01    6.712984e-02
  1.303800e+01    6.852823e-02
  1.306975e+01    7.523283e-02
  1.310150e+01    6.990615e-02
  1.313326e+01    7.042881e-02
  1.316501e+01    6.718478e-02
  1.319676e+01    6.483543e-02
  1.322851e+01    6.898584e-02
  1.326026e+01    5.958529e-02
  1.329201e+01    6.905308e-02
  1.332376e+01    6.863179e-02
  1.335551e+01    6.787753e-02
  1.338727e+01    6.277258e-02
  1.341902e+01    5.849585e-02
  1.345077e+01    6.783970e-02
  1.348252e+01    5.979054e-02
  1.351427e+01    6.381575e-02
  1.354602e+01    6.527247e-02
  1.357777e+01    5.638016e-02
  1.360952e+01    6.035337e-02
  1.364127e+01    6.194273e-02
  1.367303e+01    6.461929e-02
  1.370478e+01    6.789814e-02
  1.373653e+01    6.252801e-02
  1.376828e+01    6.890377e-02
  1.380003e+01    6.816228e-02
  1.383178e+01    5.777417e-02
  1.386353e+01    5.766989e-02
  1.389528e+01    5.163831e-02
  1.392703e+01    6.065166e-02
  1.395879e+01    5.904575e-02
  1.399054e+01    6.006872e-02
  1.402229e+01    5.273056e-02
  1.405404e+01    5.957511e-02
  1.408579e+01    5.991649e-02
  1.411754e+01    6.520731e-02
  1.414929e+01    5.731919e-02
  1.418104e+01    5.997720e-02
  1.421279e+01    6.245488e-02
  1.424455e+01    6.559389e-02
  1.427630e+01    5.210560e-02
  1.430805e+01    5.232383e-02
  1.433980e+01    5.793481e-02
  1.437155e+01    5.993151e-02
  1.440330e+01    5.558185e-02
  1.443505e+01    6.237570e-02
  1.446680e+01    4.977741e-02
  1.449856e+01    5.481228e-02
  1.453031e+01    6.365719e-02
  1.456206e+01    6.219801e-02
  1.459381e+01    5.903301e-02
  1.462556e+01    6.270660e-02
  1.465731e+01    6.087527e-02
  1.468906e+01    5.492929e-02
  1.472081e+01    5.459404e-02
  1.475256e+01    5.765870e-02
  1.478432e+01    5.439068e-02
  1.481607e+01    5.993042e-02
  1.484782e+01    5.741639e-02
  1.487957e+01    5.800579e-02
  1.491132e+01    5.842654e-02
  1.494307e+01    5.377268e-02
  1.497482e+01    5.532608e-02
  1.500657e+01    5.206002e-02
  1.503832e+01    5.754499e-02
  1.507008e+01    5.670785e-02
  1.510183e+01    5.125788e-02
  1.513358e+01    5.263093e-02
  1.516533e+01    5.286605e-02
  1.519708e+01    5.814508e-02
  1.522883e+01    5.774231e-02
  1.526058e+01    6.042860e-02
  1.529233e+01    6.578486e-02
  1.532409e+01    5.197710e-02
  1.535584e+01    5.573896e-02
  1.538759e+01    6.672135e-02
  1.541934e+01    6.078063e-02
  1.545109e+01    5.526631e-02
  1.548284e+01    5.628275e-02
  1.551459e+01    5.388116e-02
  1.554634e+01    5.880886e-02
  1.557809e+01    5.641368e-02
  1.560985e+01    5.877304e-02
  1.564160e+01    2.030921e-01
  1.567335e+01    5.756576e-02
  1.570510e+01    5.711082e-02
  1.573685e+01    5.726673e-02
  1.576860e+01    5.860988e-02
  1.580035e+01    5.937846e-02
  1.583210e+01    5.064597e-02
  1.586385e+01    5.711861e-02
  1.589561e+01    5.732862e-02
  1.592736e+01    5.726458e-02
  1.595911e+01    6.015662e-02
  1.599086e+01    4.929879e-02
  1.602261e+01    5.226857e-02
  1.605436e+01    6.297508e-02
  1.608611e+01    5.487540e-02
  1.611786e+01    5.471455e-02
  1.614961e+01    5.398554e-02
  1.618137e+01    5.311608e-02
  1.621312e+01    5.600268e-02
  1.624487e+01    4.718426e-02
  1.627662e+01    5.545580e-02
  1.630837e+01    5.416009e-02
  1.634012e+01    5.184079e-02
  1.637187e+01    6.286746e-02
  1.640362e+01    5.639378e-02
  1.643538e+01    5.483303e-02
  1.646713e+01    5.282381e-02
  1.649888e+01    5.702028e-02
  1.653063e+01    5.798481e-02
  1.656238e+01    5.970883e-02
  1.659413e+01    5.542131e-02
  1.662588e+01    5.732625e-02
  1.665763e+01    5.367256e-02
  1.668938e+01    5.315413e-02
  1.672114e+01    5.666503e-02
  1.675289e+01    5.269547e-02
  1.678464e+01    6.018518e-02
  1.681639e+01    5.030776e-02
  1.684814e+01    5.725103e-02
  1.687989e+01    5.705227e-02
  1.691164e+01    5.641770e-02
  1.694339e+01    5.735401e-02
  1.697514e+01    5.575211e-02
  1.700690e+01    6.206969e-02
  1.703865e+01    5.991475e-02
  1.707040e+01    5.600402e-02
  1.710215e+01    6.089241e-02
  1.713390e+01    6.543583e-02
  1.716565e+01    6.643398e-02
  1.719740e+01    6.376592e-02
  1.722915e+01    8.249606e-02
  1.726091e+01    7.581639e-02
  1.729266e+01    7.990304e-02
  1.732441e+01    8.661632e-02
  1.735616e+01    9.963252e-02
  1.738791e+01    1.091736e-01
  1.741966e+01    1.462919e-01
  1.745141e+01    1.792275e-01
  1.748316e+01    2.558483e-01
  1.751491e+01    3.794632e-01
  1.754667e+01    4.980612e-01
  1.757842e+01    6.539793e-01
  1.761017e+01    7.530850e-01
  1.764192e+01    8.782517e-01
  1.767367e+01    8.222552e-01
  1.770542e+01    6.328077e-01
  1.773717e+01    4.412024e-01
  1.776892e+01    3.082469e-01
  1.780067e+01    2.257030e-01
  1.783243e+01    1.800111e-01
  1.786418e+01    1.359426e-01
  1.789593e+01    1.200353e-01
  1.792768e+01    1.004585e-01
  1.795943e+01    9.446621e-02
  1.799118e+01    8.667783e-02
  1.802293e+01    8.403938e-02
  1.805468e+01    7.848969e-02
  1.808643e+01    7.942061e-02
  1.811819e+01    7.407543e-02
  1.814994e+01    7.332845e-02
  1.818169e+01    6.235079e-02
  1.821344e+01    6.689037e-02
  1.824519e+01    6.082742e-02
  1.827694e+01    5.975570e-02
  1.830869e+01    6.563817e-02
  1.834044e+01    5.945287e-02
  1.837220e+01    5.527756e-02
  1.840395e+01    5.221955e-02
  1.843570e+01    5.551475e-02
  1.846745e+01    5.714116e-02
  1.849920e+01    5.931024e-02
  1.853095e+01    5.969234e-02
  1.856270e+01    5.399539e-02
  1.859445e+01    5.479393e-02
  1.862620e+01    5.319900e-02
  1.865796e+01    4.955225e-02
  1.868971e+01    5.551636e-02
  1.872146e+01    5.436710e-02
  1.875321e+01    5.008104e-02
  1.878496e+01    4.552279e-02
  1.881671e+01    5.365654e-02
  1.884846e+01    5.364908e-02
  1.888021e+01    5.258541e-02
  1.891196e+01    4.769335e-02
  1.894372e+01    4.532488e-02
  1.897547e+01    4.437869e-02
  1.900722e+01    5.289528e-02
  1.903897e+01    4.809942e-02
  1.907072e+01    4.999610e-02
  1.910247e+01    4.849637e-02
  1.913422e+01    4.859050e-02
  1.916597e+01    4.511837e-02
  1.919773e+01    4.921735e-02
  1.922948e+01    4.879079e-02
  1.926123e+01    4.660660e-02
  1.929298e+01    5.623666e-02
  1.932473e+01    4.880127e-02
  1.935648e+01    4.598350e-02
  1.938823e+01    5.446561e-02
  1.941998e+01    4.959247e-02
  1.945173e+01    5.115475e-02
  1.948349e+01    5.275015e-02
  1.951524e+01    4.870973e-02
  1.954699e+01    4.789215e-02
  1.957874e+01    5.198345e-02
  1.961049e+01    4.887021e-02
  1.964224e+01    5.502038e-02
  1.967399e+01    5.004818e-02
  1.970574e+01    5.081932e-02
  1.973749e+01    4.963075e-02
  1.976925e+01    4.725549e-02
  1.980100e+01    5.178726e-02
  1.983275e+01    5.499117e-02
  1.986450e+01    5.196286e-02
  1.989625e+01    4.678556e-02
  1.992800e+01    5.681405e-02
  1.995975e+01    5.017693e-02
  1.999150e+01    4.778615e-02
  2.002325e+01    5.003567e-02
  2.005501e+01    5.203081e-02
  2.008676e+01    4.420816e-02
  2.011851e+01    5.210742e-02
  2.015026e+01    5.272100e-02
  2.018201e+01    5.488700e-02
  2.021376e+01    5.309290e-02
  2.024551e+01    5.221494e-02
  2.027726e+01    6.053038e-02
  2.030902e+01    5.894173e-02
  2.034077e+01    6.255469e-02
  2.037252e+01    5.892963e-02
  2.040427e+01    6.445295e-02
  2.043602e+01    6.165210e-02
  2.046777e+01    8.053395e-02
  2.049952e+01    7.178812e-02
  2.053127e+01    8.166657e-02
  2.056302e+01    9.015357e-02
  2.059478e+01    1.112091e-01
  2.062653e+01    1.434187e-01
  2.065828e+01    1.855393e-01
  2.069003e+01    2.552393e-01
  2.072178e+01    3.477964e-01
  2.075353e+01    4.465009e-01
  2.078528e+01    5.759460e-01
  2.081703e+01    7.128217e-01
  2.084878e+01    7.580204e-01
  2.088054e+01    6.429341e-01
  2.091229e+01    4.601356e-01
  2.094404e+01    3.249896e-01
  2.097579e+01    2.499888e-01
  2.100754e+01    1.894757e-01
  2.103929e+01    1.544175e-01
  2.107104e+01    1.357883e-01
  2.110279e+01    1.290156e-01
  2.113455e+01    1.096946e-01
  2.116630e+01    9.225280e-02
  2.119805e+01    8.138129e-02
  2.122980e+01    8.100579e-02
  2.126155e+01    7.833894e-02
  2.129330e+01    7.238775e-02
  2.132505e+01    6.599210e-02
  2.135680e+01    6.283579e-02
  2.138855e+01    7.401556e-02
  2.142031e+01    6.917550e-02
  2.145206e+01    6.405234e-02
  2.148381e+01    6.748993e-02
  2.151556e+01    6.736816e-02
  2.154731e+01    6.376795e-02
  2.157906e+01    7.138713e-02
  2.161081e+01    7.318492e-02
  2.164256e+01    8.588333e-02
  2.167431e+01    9.785158e-02
  2.170607e+01    1.231867e-01
  2.173782e+01    1.425383e-01
  2.176957e+01    1.575426e-01
  2.180132e+01    1.918630e-01
  2.183307e+01    1.805075e-01
  2.186482e+01    1.577195e-01
  2.189657e+01    1.263584e-01
  2.192832e+01    9.505229e-02
  2.196007e+01    8.584022e-02
  2.199183e+01    7.732664e-02
  2.202358e+01    6.701739e-02
  2.205533e+01    5.987324e-02
  2.208708e+01    6.320171e-02
  2.211883e+01    5.475828e-02
  2.215058e+01    5.499610e-02
  2.218233e+01    5.073550e-02
  2.221408e+01    5.350773e-02
  2.224584e+01    5.421912e-02
  2.227759e+01    5.117267e-02
  2.230934e+01    5.194571e-02
  2.234109e+01    4.775263e-02
  2.237284e+01    4.894932e-02
  2.240459e+01    4.891371e-02
  2.243634e+01    4.446070e-02
  2.246809e+01    4.946295e-02
  2.249984e+01    4.973420e-02
  2.253160e+01    4.506843e-02
  2.256335e+01    5.227115e-02
  2.259510e+01    4.913160e-02
  2.262685e+01    4.719628e-02
  2.265860e+01    4.940296e-02
  2.269035e+01    5.016961e-02
  2.272210e+01    4.688308e-02
  2.275385e+01    5.201535e-02
  2.278560e+01    4.939216e-02
  2.281736e+01    4.808838e-02
  2.284911e+01    4.763403e-02
  2.288086e+01    5.001476e-02
  2.291261e+01    4.922820e-02
  2.294436e+01    4.799944e-02
  2.297611e+01    4.334758e-02
  2.300786e+01    4.604498e-02
  2.303961e+01    4.929473e-02
  2.307137e+01    4.806995e-02
  2.310312e+01    4.727139e-02
  2.313487e+01    3.905844e-02
  2.316662e+01    4.393675e-02
  2.319837e+01    4.318909e-02
  2.323012e+01    4.824308e-02
  2.326187e+01    4.675014e-02
  2.329362e+01    4.048335e-02
  2.332537e+01    4.408705e-02
  2.335713e+01    4.283739e-02
  2.338888e+01    4.422658e-02
  2.342063e+01    4.374136e-02
  2.345238e+01    4.276961e-02
  2.348413e+01    4.519024e-02
  2.351588e+01    4.089954e-02
  2.354763e+01    4.561806e-02
  2.357938e+01    4.147397e-02
  2.361113e+01    4.667799e-02
  2.364289e+01    3.975108e-02
  2.367464e+01    3.775576e-02
  2.370639e+01    4.102706e-02
  2.373814e+01    4.481750e-02
  2.376989e+01    4.212948e-02
  2.380164e+01    4.599639e-02
  2.383339e+01    4.151750e-02
  2.386514e+01    4.179673e-02
  2.389689e+01    4.377817e-02
  2.392865e+01    4.116393e-02
  2.396040e+01    4.152571e-02
  2.399215e+01    4.480944e-02
  2.402390e+01    4.030089e-02
  2.405565e+01    4.072177e-02
  2.408740e+01    4.615183e-02
  2.411915e+01    4.727239e-02
  2.415090e+01    4.196658e-02
  2.418266e+01    4.510112e-02
  2.421441e+01    4.410634e-02
  2.424616e+01    4.705480e-02
  2.427791e+01    5.922582e-02
  2.430966e+01    6.014934e-02
  2.434141e+01    5.439189e-02
  2.437316e+01    5.155572e-02
  2.440491e+01    5.273158e-02
  2.443666e+01    5.003659e-02
  2.446842e+01    4.785144e-02
  2.450017e+01    4.279321e-02
  2.453192e+01    4.669699e-02
  2.456367e+01    4.089494e-02
  2.459542e+01    4.166004e-02
  2.462717e+01    4.067334e-02
  2.465892e+01    4.726866e-02
  2.469067e+01    4.446328e-02
  2.472242e+01    4.421942e-02
  2.475418e+01    4.356410e-02
  2.478593e+01    4.382638e-02
  2.481768e+01    4.220978e-02
  2.484943e+01    4.342001e-02
  2.488118e+01    4.192166e-02
  2.491293e+01    4.133965e-02
  2.494468e+01    4.931570e-02
  2.497643e+01    4.141582e-02
  2.500819e+01    5.188740e-02
  2.503994e+01    4.795258e-02
  2.507169e+01    5.266081e-02
  2.510344e+01    4.994802e-02
  2.513519e+01    5.003283e-02
  2.516694e+01    4.937812e-02
  2.519869e+01    5.699912e-02
  2.523044e+01    6.263895e-02
  2.526219e+01    7.174122e-02
  2.529395e+01    8.943034e-02
  2.532570e+01    1.003713e-01
  2.535745e+01    1.260766e-01
  2.538920e+01    1.444433e-01
  2.542095e+01    1.617483e-01
  2.545270e+01    1.627396e-01
  2.548445e+01    1.448967e-01
  2.551620e+01    1.062169e-01
  2.554795e+01    9.201875e-02
  2.557971e+01    7.562134e-02
  2.561146e+01    7.407501e-02
  2.564321e+01    5.828022e-02
  2.567496e+01    5.533305e-02
  2.570671e+01    5.769159e-02
  2.573846e+01    5.212113e-02
  2.577021e+01    5.025620e-02
  2.580196e+01    4.858560e-02
  2.583371e+01    4.960743e-02
  2.586547e+01    4.960785e-02
  2.589722e+01    4.952236e-02
  2.592897e+01    4.463405e-02
  2.596072e+01    4.826767e-02
  2.599247e+01    4.695480e-02
  2.602422e+01    4.440457e-02
  2.605597e+01    5.056220e-02
  2.608772e+01    5.147114e-02
  2.611948e+01    4.421708e-02
  2.615123e+01    4.967960e-02
  2.618298e+01    4.520333e-02
  2.621473e+01    5.253379e-02
  2.624648e+01    4.381412e-02
  2.627823e+01    4.084814e-02
  2.630998e+01    4.829498e-02
  2.634173e+01    4.422155e-02
  2.637348e+01    4.952850e-02
  2.640524e+01    5.032779e-02
  2.643699e+01    4.922840e-02
  2.646874e+01    3.921746e-02
  2.650049e+01    4.121091e-02
  2.653224e+01    3.998318e-02
  2.656399e+01    4.541209e-02
  2.659574e+01    4.267129e-02
  2.662749e+01    4.533668e-02
  2.665924e+01    4.222616e-02
  2.669100e+01    4.585667e-02
  2.672275e+01    4.370478e-02
  2.675450e+01    4.164283e-02
  2.678625e+01    4.705551e-02
  2.681800e+01    4.438502e-02
  2.684975e+01    4.551167e-02
  2.688150e+01    4.602775e-02
  2.691325e+01    5.377284e-02
  2.694501e+01    4.550496e-02
  2.697676e+01    4.268881e-02
  2.700851e+01    4.556321e-02
  2.704026e+01    5.154929e-02
  2.707201e+01    4.665297e-02
  2.710376e+01    4.879877e-02
  2.713551e+01    4.559898e-02
  2.716726e+01    4.526365e-02
  2.719901e+01    4.325761e-02
  2.723077e+01    4.870077e-02
  2.726252e+01    5.081265e-02
  2.729427e+01    4.829783e-02
  2.732602e+01    4.719787e-02
  2.735777e+01    4.692140e-02
  2.738952e+01    4.931572e-02
  2.742127e+01    4.903506e-02
  2.745302e+01    5.363294e-02
  2.748477e+01    5.322440e-02
  2.751653e+01    5.545019e-02
  2.754828e+01    5.692469e-02
  2.758003e+01    5.191887e-02
  2.761178e+01    6.068855e-02
  2.764353e+01    6.337248e-02
  2.767528e+01    6.488024e-02
  2.770703e+01    7.774274e-02
  2.773878e+01    9.040924e-02
  2.777054e+01    1.116244e-01
  2.780229e+01    1.363582e-01
  2.783404e+01    1.982111e-01
  2.786579e+01    2.488446e-01
  2.789754e+01    3.084427e-01
  2.792929e+01    3.300873e-01
  2.796104e+01    3.122716e-01
  2.799279e+01    2.404719e-01
  2.802454e+01    1.919679e-01
  2.805630e+01    1.456880e-01
  2.808805e+01    1.191011e-01
  2.811980e+01    1.104598e-01
  2.815155e+01    9.129301e-02
  2.818330e+01    8.253457e-02
  2.821505e+01    7.896078e-02
  2.824680e+01    7.422963e-02
  2.827855e+01    6.627399e-02
  2.831030e+01    6.928129e-02
  2.834206e+01    6.237910e-02
  2.837381e+01    6.297746e-02
  2.840556e+01    6.634635e-02
  2.843731e+01    6.445677e-02
  2.846906e+01    7.278336e-02
  2.850081e+01    7.151891e-02
  2.853256e+01    8.842705e-02
  2.856431e+01    9.406814e-02
  2.859606e+01    1.135084e-01
  2.862782e+01    1.372219e-01
  2.865957e+01    1.824445e-01
  2.869132e+01    2.263626e-01
  2.872307e+01    2.395363e-01
  2.875482e+01    2.417846e-01
  2.878657e+01    1.866802e-01
  2.881832e+01    1.649897e-01
  2.885007e+01    1.236810e-01
  2.888183e+01    9.879094e-02
  2.891358e+01    9.693485e-02
  2.894533e+01    8.026375e-02
  2.897708e+01    7.535644e-02
  2.900883e+01    7.050851e-02
  2.904058e+01    6.448357e-02
  2.907233e+01    5.775548e-02
  2.910408e+01    6.223616e-02
  2.913583e+01    5.923443e-02
  2.916759e+01    6.545066e-02
  2.919934e+01    5.935985e-02
  2.923109e+01    5.987271e-02
  2.926284e+01    5.725261e-02
  2.929459e+01    5.194567e-02
  2.932634e+01    5.241336e-02
  2.935809e+01    4.879417e-02
  2.938984e+01    5.434014e-02
  2.942159e+01    4.914477e-02
  2.945335e+01    4.699002e-02
  2.948510e+01    4.728243e-02
  2.951685e+01    5.283783e-02
  2.954860e+01    5.149653e-02
  2.958035e+01    4.962778e-02
  2.961210e+01    4.702630e-02
  2.964385e+01    5.540703e-02
  2.967560e+01    4.996815e-02
  2.970736e+01    4.646583e-02
  2.973911e+01    4.905564e-02
  2.977086e+01    5.144988e-02
  2.980261e+01    4.461653e-02
  2.983436e+01    5.151345e-02
  2.986611e+01    4.164330e-02
  2.989786e+01    5.044442e-02
  2.992961e+01    5.055279e-02
  2.996136e+01    4.811302e-02
  2.999312e+01    5.099510e-02
  3.002487e+01    4.667911e-02
  3.005662e+01    5.000723e-02
  3.008837e+01    5.160141e-02
  3.012012e+01    4.693073e-02
  3.015187e+01    4.896370e-02
  3.018362e+01    4.452476e-02
  3.021537e+01    4.743619e-02
  3.024712e+01    4.228682e-02
  3.027888e+01    4.552506e-02
  3.031063e+01    5.431568e-02
  3.034238e+01    4.587945e-02
  3.037413e+01    4.188320e-02
  3.040588e+01    4.360669e-02
  3.043763e+01    4.805502e-02
  3.046938e+01    4.500330e-02
  3.050113e+01    4.120100e-02
  3.053288e+01    4.682818e-02
  3.056464e+01    4.244736e-02
  3.059639e+01    4.366271e-02
  3.062814e+01    5.196475e-02
  3.065989e+01    4.553567e-02
  3.069164e+01    4.992907e-02
  3.072339e+01    4.908254e-02
  3.075514e+01    4.458504e-02
  3.078689e+01    5.020881e-02
  3.081865e+01    4.510077e-02
  3.085040e+01    3.987459e-02
  3.088215e+01    4.434552e-02
  3.091390e+01    4.823953e-02
  3.094565e+01    4.525395e-02
  3.097740e+01    4.850922e-02
  3.100915e+01    4.499593e-02
  3.104090e+01    5.437253e-02
  3.107265e+01    4.687833e-02
  3.110441e+01    4.847735e-02
  3.113616e+01    4.409536e-02
  3.116791e+01    5.091655e-02
  3.119966e+01    5.015737e-02
  3.123141e+01    4.854544e-02
  3.126316e+01    5.178406e-02
  3.129491e+01    4.542207e-02
  3.132666e+01    5.376142e-02
  3.135841e+01    5.086137e-02
  3.139017e+01    5.660682e-02
  3.142192e+01    5.420653e-02
  3.145367e+01    6.530473e-02
  3.148542e+01    6.444965e-02
  3.151717e+01    5.836610e-02
  3.154892e+01    7.287775e-02
  3.158067e+01    7.934853e-02
  3.161242e+01    9.551785e-02
  3.164418e+01    1.153025e-01
  3.167593e+01    1.588238e-01
  3.170768e+01    2.070040e-01
  3.173943e+01    2.690748e-01
  3.177118e+01    2.972148e-01
  3.180293e+01    2.733032e-01
  3.183468e+01    2.434268e-01
  3.186643e+01    1.968475e-01
  3.189818e+01    1.483908e-01
  3.192994e+01    1.300292e-01
  3.196169e+01    1.074452e-01
  3.199344e+01    9.005816e-02
  3.202519e+01    8.506991e-02
  3.205694e+01    7.189566e-02
  3.208869e+01    6.999169e-02
  3.212044e+01    6.888440e-02
  3.215219e+01    6.702353e-02
  3.218394e+01    6.194003e-02
  3.221570e+01    6.453593e-02
  3.224745e+01    6.188213e-02
  3.227920e+01    6.088502e-02
  3.231095e+01    5.516134e-02
  3.234270e+01    5.695019e-02
  3.237445e+01    5.685716e-02
  3.240620e+01    5.360970e-02
  3.243795e+01    5.083337e-02
  3.246970e+01    5.996512e-02
  3.250146e+01    6.016837e-02
  3.253321e+01    6.070028e-02
  3.254908e+01    5.752392e-02