File: XRD/2024-07-27_002_Ru-CGO-ex_Activtation_ramp_000002_data_000049.dat
# == pyFAI calibration ==
# Distance Sample to Detector: 0.4 m
# PONI: 9.750e-02, 1.135e-01 m
# Rotations: -0.000175 0.000000 -0.000000 rad
#
# == Fit2d calibration ==
# Distance Sample-beamCenter: 400.000 mm
# Center: x=1514.000, y=1300.000 pix
# Tilt: 0.010 deg  TiltPlanRot: 0.010 deg
#
# Detector Detector	 Spline= None	 PixelSize= 7.500e-05, 7.500e-05 m
#    Detector has a mask: False
#    Detector has a dark current: False
#    detector has a flat field: False
#
# Wavelength: 6.888e-11 m
# Mask applied: user provided
# Dark current applied: False
# Flat field applied: False
# Polarization factor: 0.99
# Normalization factor: 1.0
# --> /home/myspot/data/2024_07_Rosario/Ru-CGO-ex/2024-07-27_002_Ru-CGO-ex_Activtation_ramp_000002_data_000049.dat
#       q_nm^-1             I
  2.003187e-02    0.000000e+00
  5.178302e-02    6.857615e-02
  8.353417e-02    4.168256e-02
  1.152853e-01    1.144218e-01
  1.470365e-01    8.903269e-02
  1.787876e-01    0.000000e+00
  2.105388e-01    5.141427e-02
  2.422899e-01    2.026723e-02
  2.740411e-01    2.769976e-02
  3.057922e-01    4.320500e-02
  3.375433e-01    3.430018e-02
  3.692945e-01    3.705155e-02
  4.010456e-01    6.383283e-02
  4.327968e-01    3.862379e-02
  4.645479e-01    4.222864e-02
  4.962991e-01    2.817734e-02
  5.280502e-01    1.721310e-02
  5.598014e-01    4.622293e-02
  5.915525e-01    4.072000e-02
  6.233037e-01    3.914714e-02
  6.550548e-01    4.466476e-02
  6.868060e-01    7.338084e-03
  7.185571e-01    4.905882e-02
  7.503083e-01    3.686878e-02
  7.820594e-01    8.514608e-02
  8.138106e-01    1.935310e-01
  8.455617e-01    3.443318e-01
  8.773129e-01    3.694098e-01
  9.090640e-01    6.331065e-01
  9.408152e-01    6.488943e-01
  9.725663e-01    8.567710e-01
  1.004317e+00    9.845943e-01
  1.036069e+00    1.149129e+00
  1.067820e+00    1.248492e+00
  1.099571e+00    1.269132e+00
  1.131322e+00    1.403334e+00
  1.163073e+00    1.459460e+00
  1.194824e+00    1.641310e+00
  1.226575e+00    2.068454e+00
  1.258327e+00    2.250516e+00
  1.290078e+00    2.641951e+00
  1.321829e+00    2.536995e+00
  1.353580e+00    2.742029e+00
  1.385331e+00    2.782280e+00
  1.417082e+00    2.722358e+00
  1.448834e+00    2.722588e+00
  1.480585e+00    2.874297e+00
  1.512336e+00    2.986423e+00
  1.544087e+00    3.202369e+00
  1.575838e+00    3.073495e+00
  1.607589e+00    2.997553e+00
  1.639340e+00    2.932608e+00
  1.671092e+00    2.934084e+00
  1.702843e+00    2.932532e+00
  1.734594e+00    2.788317e+00
  1.766345e+00    2.816222e+00
  1.798096e+00    2.792010e+00
  1.829847e+00    2.792287e+00
  1.861598e+00    2.722339e+00
  1.893350e+00    2.742785e+00
  1.925101e+00    2.748502e+00
  1.956852e+00    2.745859e+00
  1.988603e+00    2.779515e+00
  2.020354e+00    2.847559e+00
  2.052105e+00    2.766756e+00
  2.083856e+00    2.792002e+00
  2.115608e+00    2.809904e+00
  2.147359e+00    2.744526e+00
  2.179110e+00    2.669606e+00
  2.210861e+00    2.734079e+00
  2.242612e+00    2.829883e+00
  2.274363e+00    2.884346e+00
  2.306115e+00    2.796564e+00
  2.337866e+00    2.642231e+00
  2.369617e+00    2.853696e+00
  2.401368e+00    2.771132e+00
  2.433119e+00    2.913936e+00
  2.464870e+00    2.817274e+00
  2.496621e+00    2.818686e+00
  2.528373e+00    2.840737e+00
  2.560124e+00    2.735336e+00
  2.591875e+00    2.750081e+00
  2.623626e+00    2.708099e+00
  2.655377e+00    2.822596e+00
  2.687128e+00    2.801059e+00
  2.718879e+00    2.867568e+00
  2.750631e+00    2.711843e+00
  2.782382e+00    2.984317e+00
  2.814133e+00    2.831777e+00
  2.845884e+00    2.892964e+00
  2.877635e+00    2.852328e+00
  2.909386e+00    2.886995e+00
  2.941137e+00    2.760728e+00
  2.972889e+00    2.782798e+00
  3.004640e+00    2.935590e+00
  3.036391e+00    2.895730e+00
  3.068142e+00    2.915876e+00
  3.099893e+00    2.979427e+00
  3.131644e+00    2.945279e+00
  3.163395e+00    2.944318e+00
  3.195147e+00    2.956242e+00
  3.226898e+00    2.869888e+00
  3.258649e+00    2.890099e+00
  3.290400e+00    2.954295e+00
  3.322151e+00    2.904336e+00
  3.353902e+00    2.853883e+00
  3.385654e+00    2.901105e+00
  3.417405e+00    2.925946e+00
  3.449156e+00    3.033572e+00
  3.480907e+00    3.035745e+00
  3.512658e+00    2.983606e+00
  3.544409e+00    2.905087e+00
  3.576160e+00    3.004573e+00
  3.607912e+00    2.896172e+00
  3.639663e+00    2.946721e+00
  3.671414e+00    3.057698e+00
  3.703165e+00    2.971849e+00
  3.734916e+00    2.969532e+00
  3.766667e+00    2.889897e+00
  3.798418e+00    3.056881e+00
  3.830170e+00    3.013837e+00
  3.861921e+00    3.040121e+00
  3.893672e+00    2.948526e+00
  3.925423e+00    2.939796e+00
  3.957174e+00    3.169332e+00
  3.988925e+00    2.978896e+00
  4.020676e+00    3.004258e+00
  4.052428e+00    3.008948e+00
  4.084179e+00    3.000658e+00
  4.115930e+00    3.037337e+00
  4.147681e+00    2.944002e+00
  4.179432e+00    3.040154e+00
  4.211183e+00    3.119637e+00
  4.242935e+00    3.039160e+00
  4.274686e+00    3.012732e+00
  4.306437e+00    3.024189e+00
  4.338188e+00    3.092952e+00
  4.369939e+00    2.984508e+00
  4.401690e+00    3.096414e+00
  4.433441e+00    3.048777e+00
  4.465193e+00    3.019882e+00
  4.496944e+00    3.104353e+00
  4.528695e+00    3.053592e+00
  4.560446e+00    3.056805e+00
  4.592197e+00    3.093944e+00
  4.623948e+00    3.047947e+00
  4.655699e+00    3.060819e+00
  4.687451e+00    3.112331e+00
  4.719202e+00    3.105444e+00
  4.750953e+00    3.059697e+00
  4.782704e+00    3.065052e+00
  4.814455e+00    3.048641e+00
  4.846206e+00    3.088255e+00
  4.877957e+00    3.104828e+00
  4.909709e+00    3.207647e+00
  4.941460e+00    3.174955e+00
  4.973211e+00    3.090038e+00
  5.004962e+00    3.124047e+00
  5.036713e+00    3.071754e+00
  5.068464e+00    3.119906e+00
  5.100216e+00    2.993682e+00
  5.131967e+00    3.067379e+00
  5.163718e+00    3.136075e+00
  5.195469e+00    3.110904e+00
  5.227220e+00    3.095854e+00
  5.258971e+00    3.153173e+00
  5.290722e+00    3.198643e+00
  5.322474e+00    3.102333e+00
  5.354225e+00    3.192511e+00
  5.385976e+00    3.134896e+00
  5.417727e+00    3.132855e+00
  5.449478e+00    3.083097e+00
  5.481229e+00    3.084988e+00
  5.512980e+00    3.045223e+00
  5.544732e+00    3.088351e+00
  5.576483e+00    3.106187e+00
  5.608234e+00    3.129328e+00
  5.639985e+00    3.130023e+00
  5.671736e+00    3.175206e+00
  5.703487e+00    3.035506e+00
  5.735238e+00    3.080233e+00
  5.766990e+00    3.024661e+00
  5.798741e+00    3.008487e+00
  5.830492e+00    3.096455e+00
  5.862243e+00    2.994634e+00
  5.893994e+00    2.988468e+00
  5.925745e+00    3.020384e+00
  5.957497e+00    3.027898e+00
  5.989248e+00    2.995833e+00
  6.020999e+00    3.071996e+00
  6.052750e+00    3.027441e+00
  6.084501e+00    3.021661e+00
  6.116252e+00    3.031281e+00
  6.148003e+00    3.082727e+00
  6.179755e+00    3.034513e+00
  6.211506e+00    3.047860e+00
  6.243257e+00    3.047629e+00
  6.275008e+00    2.996663e+00
  6.306759e+00    3.100140e+00
  6.338510e+00    3.069890e+00
  6.370261e+00    2.989137e+00
  6.402013e+00    3.044817e+00
  6.433764e+00    3.002961e+00
  6.465515e+00    3.003140e+00
  6.497266e+00    3.028918e+00
  6.529017e+00    2.993203e+00
  6.560768e+00    3.059861e+00
  6.592519e+00    2.996325e+00
  6.624271e+00    3.102243e+00
  6.656022e+00    3.048809e+00
  6.687773e+00    3.042286e+00
  6.719524e+00    3.006829e+00
  6.751275e+00    3.080110e+00
  6.783026e+00    3.076928e+00
  6.814777e+00    3.053307e+00
  6.846529e+00    2.963000e+00
  6.878280e+00    2.991432e+00
  6.910031e+00    3.057214e+00
  6.941782e+00    2.986697e+00
  6.973533e+00    3.034688e+00
  7.005284e+00    2.914786e+00
  7.037036e+00    2.955622e+00
  7.068787e+00    2.939878e+00
  7.100538e+00    3.032958e+00
  7.132289e+00    3.044575e+00
  7.164040e+00    3.001755e+00
  7.195791e+00    2.946250e+00
  7.227542e+00    3.010716e+00
  7.259294e+00    2.942596e+00
  7.291045e+00    2.996561e+00
  7.322796e+00    2.962505e+00
  7.354547e+00    3.004762e+00
  7.386298e+00    2.938307e+00
  7.418049e+00    2.965278e+00
  7.449800e+00    3.007527e+00
  7.481552e+00    2.990337e+00
  7.513303e+00    2.993590e+00
  7.545054e+00    2.961811e+00
  7.576805e+00    2.984669e+00
  7.608556e+00    2.997671e+00
  7.640307e+00    2.988383e+00
  7.672058e+00    2.970506e+00
  7.703810e+00    2.906204e+00
  7.735561e+00    2.909791e+00
  7.767312e+00    2.960441e+00
  7.799063e+00    2.861727e+00
  7.830814e+00    2.934099e+00
  7.862565e+00    3.000169e+00
  7.894317e+00    2.913415e+00
  7.926068e+00    2.921642e+00
  7.957819e+00    3.033363e+00
  7.989570e+00    2.872221e+00
  8.021321e+00    2.912383e+00
  8.053072e+00    2.910122e+00
  8.084823e+00    2.937851e+00
  8.116575e+00    2.912726e+00
  8.148326e+00    2.939472e+00
  8.180077e+00    3.013260e+00
  8.211828e+00    2.920509e+00
  8.243579e+00    2.970585e+00
  8.275330e+00    2.867671e+00
  8.307081e+00    2.913069e+00
  8.338833e+00    2.893415e+00
  8.370584e+00    2.903170e+00
  8.402335e+00    2.902105e+00
  8.434086e+00    2.853179e+00
  8.465837e+00    2.906878e+00
  8.497588e+00    2.908380e+00
  8.529339e+00    2.892004e+00
  8.561091e+00    2.853133e+00
  8.592842e+00    2.793878e+00
  8.624593e+00    2.862623e+00
  8.656344e+00    2.832871e+00
  8.688095e+00    2.902122e+00
  8.719846e+00    2.920451e+00
  8.751598e+00    2.837312e+00
  8.783349e+00    2.858722e+00
  8.815100e+00    2.858527e+00
  8.846851e+00    2.846259e+00
  8.878602e+00    2.831867e+00
  8.910353e+00    2.842364e+00
  8.942104e+00    2.815149e+00
  8.973856e+00    2.799775e+00
  9.005607e+00    2.898193e+00
  9.037358e+00    2.875318e+00
  9.069109e+00    2.858691e+00
  9.100860e+00    2.869011e+00
  9.132611e+00    2.790290e+00
  9.164362e+00    2.724313e+00
  9.196114e+00    2.747073e+00
  9.227865e+00    2.748891e+00
  9.259616e+00    2.773638e+00
  9.291367e+00    2.780716e+00
  9.323118e+00    2.789352e+00
  9.354869e+00    2.742584e+00
  9.386620e+00    2.824018e+00
  9.418372e+00    2.758026e+00
  9.450123e+00    2.772275e+00
  9.481874e+00    2.796557e+00
  9.513625e+00    2.810714e+00
  9.545376e+00    2.762334e+00
  9.577127e+00    2.736744e+00
  9.608878e+00    2.781282e+00
  9.640630e+00    2.807674e+00
  9.672381e+00    2.738415e+00
  9.704132e+00    2.670681e+00
  9.735883e+00    2.699435e+00
  9.767634e+00    2.732350e+00
  9.799385e+00    2.673273e+00
  9.831137e+00    2.715589e+00
  9.862888e+00    2.673005e+00
  9.894639e+00    2.701453e+00
  9.926390e+00    2.695844e+00
  9.958141e+00    2.702335e+00
  9.989892e+00    2.704998e+00
  1.002164e+01    2.712845e+00
  1.005339e+01    2.651358e+00
  1.008515e+01    2.655666e+00
  1.011690e+01    2.656039e+00
  1.014865e+01    2.636399e+00
  1.018040e+01    2.681793e+00
  1.021215e+01    2.631261e+00
  1.024390e+01    2.615920e+00
  1.027565e+01    2.647540e+00
  1.030740e+01    2.634776e+00
  1.033915e+01    2.632719e+00
  1.037091e+01    2.640324e+00
  1.040266e+01    2.642311e+00
  1.043441e+01    2.654522e+00
  1.046616e+01    2.596262e+00
  1.049791e+01    2.581885e+00
  1.052966e+01    2.594988e+00
  1.056141e+01    2.551956e+00
  1.059316e+01    2.585827e+00
  1.062492e+01    2.550071e+00
  1.065667e+01    2.477431e+00
  1.068842e+01    2.550458e+00
  1.072017e+01    2.538043e+00
  1.075192e+01    2.518530e+00
  1.078367e+01    2.542786e+00
  1.081542e+01    2.555985e+00
  1.084717e+01    2.489842e+00
  1.087892e+01    2.433693e+00
  1.091068e+01    2.465723e+00
  1.094243e+01    2.511055e+00
  1.097418e+01    2.504655e+00
  1.100593e+01    2.503613e+00
  1.103768e+01    2.508630e+00
  1.106943e+01    2.489938e+00
  1.110118e+01    2.439927e+00
  1.113293e+01    2.456786e+00
  1.116468e+01    2.487682e+00
  1.119644e+01    2.453020e+00
  1.122819e+01    2.465054e+00
  1.125994e+01    2.427243e+00
  1.129169e+01    2.494578e+00
  1.132344e+01    2.426109e+00
  1.135519e+01    2.446320e+00
  1.138694e+01    2.430444e+00
  1.141869e+01    2.381916e+00
  1.145045e+01    2.377955e+00
  1.148220e+01    2.397190e+00
  1.151395e+01    2.404488e+00
  1.154570e+01    2.371564e+00
  1.157745e+01    2.348753e+00
  1.160920e+01    2.355882e+00
  1.164095e+01    2.330100e+00
  1.167270e+01    2.345584e+00
  1.170445e+01    2.367188e+00
  1.173621e+01    2.318472e+00
  1.176796e+01    2.363174e+00
  1.179971e+01    2.331003e+00
  1.183146e+01    2.364428e+00
  1.186321e+01    2.341948e+00
  1.189496e+01    2.338289e+00
  1.192671e+01    2.324759e+00
  1.195846e+01    2.343688e+00
  1.199021e+01    2.366891e+00
  1.202197e+01    2.314254e+00
  1.205372e+01    2.303700e+00
  1.208547e+01    2.363361e+00
  1.211722e+01    2.340050e+00
  1.214897e+01    2.290098e+00
  1.218072e+01    2.315726e+00
  1.221247e+01    2.350900e+00
  1.224422e+01    2.337018e+00
  1.227597e+01    2.310294e+00
  1.230773e+01    2.292835e+00
  1.233948e+01    2.303928e+00
  1.237123e+01    2.307732e+00
  1.240298e+01    2.344482e+00
  1.243473e+01    2.365322e+00
  1.246648e+01    2.297876e+00
  1.249823e+01    2.362957e+00
  1.252998e+01    2.391412e+00
  1.256174e+01    2.345814e+00
  1.259349e+01    2.455756e+00
  1.262524e+01    2.427855e+00
  1.265699e+01    2.446957e+00
  1.268874e+01    2.457394e+00
  1.272049e+01    2.492275e+00
  1.275224e+01    2.552619e+00
  1.278399e+01    2.588763e+00
  1.281574e+01    2.710702e+00
  1.284750e+01    2.838500e+00
  1.287925e+01    2.984260e+00
  1.291100e+01    3.308511e+00
  1.294275e+01    3.680096e+00
  1.297450e+01    4.227286e+00
  1.300625e+01    5.236520e+00
  1.303800e+01    6.680372e+00
  1.306975e+01    9.099198e+00
  1.310150e+01    1.201207e+01
  1.313326e+01    1.487257e+01
  1.316501e+01    1.763245e+01
  1.319676e+01    1.915381e+01
  1.322851e+01    1.721214e+01
  1.326026e+01    1.290589e+01
  1.329201e+01    9.093207e+00
  1.332376e+01    6.656743e+00
  1.335551e+01    5.181467e+00
  1.338727e+01    4.210447e+00
  1.341902e+01    3.648895e+00
  1.345077e+01    3.239945e+00
  1.348252e+01    3.012338e+00
  1.351427e+01    2.778074e+00
  1.354602e+01    2.629707e+00
  1.357777e+01    2.527652e+00
  1.360952e+01    2.445541e+00
  1.364127e+01    2.404390e+00
  1.367303e+01    2.312955e+00
  1.370478e+01    2.304149e+00
  1.373653e+01    2.234808e+00
  1.376828e+01    2.171870e+00
  1.380003e+01    2.211889e+00
  1.383178e+01    2.184746e+00
  1.386353e+01    2.164284e+00
  1.389528e+01    2.120778e+00
  1.392703e+01    2.100336e+00
  1.395879e+01    2.083716e+00
  1.399054e+01    2.084468e+00
  1.402229e+01    2.082276e+00
  1.405404e+01    2.011334e+00
  1.408579e+01    2.061215e+00
  1.411754e+01    2.022213e+00
  1.414929e+01    1.989576e+00
  1.418104e+01    2.010899e+00
  1.421279e+01    1.992859e+00
  1.424455e+01    1.996266e+00
  1.427630e+01    1.973910e+00
  1.430805e+01    1.971921e+00
  1.433980e+01    1.937219e+00
  1.437155e+01    1.925987e+00
  1.440330e+01    1.945335e+00
  1.443505e+01    1.956139e+00
  1.446680e+01    1.934795e+00
  1.449856e+01    1.945856e+00
  1.453031e+01    1.899031e+00
  1.456206e+01    1.947803e+00
  1.459381e+01    1.935796e+00
  1.462556e+01    1.952958e+00
  1.465731e+01    1.943474e+00
  1.468906e+01    1.926427e+00
  1.472081e+01    1.891836e+00
  1.475256e+01    1.941169e+00
  1.478432e+01    1.889377e+00
  1.481607e+01    1.889784e+00
  1.484782e+01    1.931917e+00
  1.487957e+01    1.982445e+00
  1.491132e+01    1.983275e+00
  1.494307e+01    1.995402e+00
  1.497482e+01    2.044627e+00
  1.500657e+01    2.153622e+00
  1.503832e+01    2.298428e+00
  1.507008e+01    2.448125e+00
  1.510183e+01    2.767259e+00
  1.513358e+01    3.256093e+00
  1.516533e+01    4.055900e+00
  1.519708e+01    4.826215e+00
  1.522883e+01    5.612107e+00
  1.526058e+01    6.183785e+00
  1.529233e+01    6.405381e+00
  1.532409e+01    5.883053e+00
  1.535584e+01    4.731415e+00
  1.538759e+01    3.686747e+00
  1.541934e+01    2.985242e+00
  1.545109e+01    2.589824e+00
  1.548284e+01    2.297539e+00
  1.551459e+01    2.142104e+00
  1.554634e+01    2.001609e+00
  1.557809e+01    1.935807e+00
  1.560985e+01    1.872872e+00
  1.564160e+01    1.850959e+00
  1.567335e+01    1.745070e+00
  1.570510e+01    1.734940e+00
  1.573685e+01    1.750109e+00
  1.576860e+01    1.727435e+00
  1.580035e+01    1.710586e+00
  1.583210e+01    1.642650e+00
  1.586385e+01    1.636246e+00
  1.589561e+01    1.667353e+00
  1.592736e+01    1.659238e+00
  1.595911e+01    1.647310e+00
  1.599086e+01    1.606349e+00
  1.602261e+01    1.604023e+00
  1.605436e+01    1.614991e+00
  1.608611e+01    1.621069e+00
  1.611786e+01    1.587492e+00
  1.614961e+01    1.607496e+00
  1.618137e+01    1.577541e+00
  1.621312e+01    1.593557e+00
  1.624487e+01    1.538424e+00
  1.627662e+01    1.574648e+00
  1.630837e+01    1.551869e+00
  1.634012e+01    1.574160e+00
  1.637187e+01    1.567111e+00
  1.640362e+01    1.540688e+00
  1.643538e+01    1.527611e+00
  1.646713e+01    1.528422e+00
  1.649888e+01    1.493857e+00
  1.653063e+01    1.517801e+00
  1.656238e+01    1.525609e+00
  1.659413e+01    1.499560e+00
  1.662588e+01    1.486705e+00
  1.665763e+01    1.503000e+00
  1.668938e+01    1.508678e+00
  1.672114e+01    1.450866e+00
  1.675289e+01    1.489766e+00
  1.678464e+01    1.439658e+00
  1.681639e+01    1.484431e+00
  1.684814e+01    1.402816e+00
  1.687989e+01    1.452742e+00
  1.691164e+01    1.470680e+00
  1.694339e+01    1.436507e+00
  1.697514e+01    1.441290e+00
  1.700690e+01    1.426690e+00
  1.703865e+01    1.461063e+00
  1.707040e+01    1.427070e+00
  1.710215e+01    1.434334e+00
  1.713390e+01    1.437705e+00
  1.716565e+01    1.419672e+00
  1.719740e+01    1.412627e+00
  1.722915e+01    1.399101e+00
  1.726091e+01    1.403526e+00
  1.729266e+01    1.378394e+00
  1.732441e+01    1.386014e+00
  1.735616e+01    1.402086e+00
  1.738791e+01    1.402384e+00
  1.741966e+01    1.409550e+00
  1.745141e+01    1.397600e+00
  1.748316e+01    1.399267e+00
  1.751491e+01    1.399568e+00
  1.754667e+01    1.371333e+00
  1.757842e+01    1.369338e+00
  1.761017e+01    1.360122e+00
  1.764192e+01    1.363051e+00
  1.767367e+01    1.345243e+00
  1.770542e+01    1.360487e+00
  1.773717e+01    1.320892e+00
  1.776892e+01    1.340225e+00
  1.780067e+01    1.324304e+00
  1.783243e+01    1.328325e+00
  1.786418e+01    1.318869e+00
  1.789593e+01    1.312384e+00
  1.792768e+01    1.303706e+00
  1.795943e+01    1.282951e+00
  1.799118e+01    1.314682e+00
  1.802293e+01    1.318799e+00
  1.805468e+01    1.300964e+00
  1.808643e+01    1.292733e+00
  1.811819e+01    1.290357e+00
  1.814994e+01    1.285553e+00
  1.818169e+01    1.301800e+00
  1.821344e+01    1.279490e+00
  1.824519e+01    1.250494e+00
  1.827694e+01    1.268150e+00
  1.830869e+01    1.266473e+00
  1.834044e+01    1.286885e+00
  1.837220e+01    1.299218e+00
  1.840395e+01    1.264923e+00
  1.843570e+01    1.264523e+00
  1.846745e+01    1.223102e+00
  1.849920e+01    1.259742e+00
  1.853095e+01    1.262282e+00
  1.856270e+01    1.253130e+00
  1.859445e+01    1.249806e+00
  1.862620e+01    1.242264e+00
  1.865796e+01    1.232540e+00
  1.868971e+01    1.244697e+00
  1.872146e+01    1.243202e+00
  1.875321e+01    1.234126e+00
  1.878496e+01    1.204501e+00
  1.881671e+01    1.208059e+00
  1.884846e+01    1.217812e+00
  1.888021e+01    1.224025e+00
  1.891196e+01    1.214405e+00
  1.894372e+01    1.206827e+00
  1.897547e+01    1.237742e+00
  1.900722e+01    1.215879e+00
  1.903897e+01    1.211563e+00
  1.907072e+01    1.199528e+00
  1.910247e+01    1.195008e+00
  1.913422e+01    1.201915e+00
  1.916597e+01    1.216966e+00
  1.919773e+01    1.151731e+00
  1.922948e+01    1.217246e+00
  1.926123e+01    1.189484e+00
  1.929298e+01    1.163299e+00
  1.932473e+01    1.161586e+00
  1.935648e+01    1.180278e+00
  1.938823e+01    1.199221e+00
  1.941998e+01    1.176387e+00
  1.945173e+01    1.180677e+00
  1.948349e+01    1.165100e+00
  1.951524e+01    1.196970e+00
  1.954699e+01    1.161388e+00
  1.957874e+01    1.156452e+00
  1.961049e+01    1.165869e+00
  1.964224e+01    1.159264e+00
  1.967399e+01    1.159916e+00
  1.970574e+01    1.149653e+00
  1.973749e+01    1.125587e+00
  1.976925e+01    1.168312e+00
  1.980100e+01    1.143765e+00
  1.983275e+01    1.132767e+00
  1.986450e+01    1.114899e+00
  1.989625e+01    1.161718e+00
  1.992800e+01    1.122998e+00
  1.995975e+01    1.134769e+00
  1.999150e+01    1.126934e+00
  2.002325e+01    1.134508e+00
  2.005501e+01    1.109728e+00
  2.008676e+01    1.126045e+00
  2.011851e+01    1.117341e+00
  2.015026e+01    1.119675e+00
  2.018201e+01    1.127188e+00
  2.021376e+01    1.139092e+00
  2.024551e+01    1.124471e+00
  2.027726e+01    1.096501e+00
  2.030902e+01    1.112305e+00
  2.034077e+01    1.100483e+00
  2.037252e+01    1.098839e+00
  2.040427e+01    1.105200e+00
  2.043602e+01    1.085012e+00
  2.046777e+01    1.134748e+00
  2.049952e+01    1.107753e+00
  2.053127e+01    1.078676e+00
  2.056302e+01    1.068905e+00
  2.059478e+01    1.104566e+00
  2.062653e+01    1.076870e+00
  2.065828e+01    1.085379e+00
  2.069003e+01    1.110218e+00
  2.072178e+01    1.097221e+00
  2.075353e+01    1.074656e+00
  2.078528e+01    1.079431e+00
  2.081703e+01    1.087656e+00
  2.084878e+01    1.085480e+00
  2.088054e+01    1.083682e+00
  2.091229e+01    1.097778e+00
  2.094404e+01    1.086283e+00
  2.097579e+01    1.094909e+00
  2.100754e+01    1.065469e+00
  2.103929e+01    1.107509e+00
  2.107104e+01    1.093997e+00
  2.110279e+01    1.101961e+00
  2.113455e+01    1.093349e+00
  2.116630e+01    1.096264e+00
  2.119805e+01    1.116701e+00
  2.122980e+01    1.090473e+00
  2.126155e+01    1.127868e+00
  2.129330e+01    1.113690e+00
  2.132505e+01    1.154346e+00
  2.135680e+01    1.136965e+00
  2.138855e+01    1.172570e+00
  2.142031e+01    1.196715e+00
  2.145206e+01    1.198484e+00
  2.148381e+01    1.251216e+00
  2.151556e+01    1.272272e+00
  2.154731e+01    1.385669e+00
  2.157906e+01    1.444501e+00
  2.161081e+01    1.565528e+00
  2.164256e+01    1.724761e+00
  2.167431e+01    1.983935e+00
  2.170607e+01    2.364114e+00
  2.173782e+01    2.901006e+00
  2.176957e+01    3.733645e+00
  2.180132e+01    4.956181e+00
  2.183307e+01    6.483550e+00
  2.186482e+01    8.186331e+00
  2.189657e+01    9.787664e+00
  2.192832e+01    1.058048e+01
  2.196007e+01    9.768566e+00
  2.199183e+01    7.723495e+00
  2.202358e+01    5.514875e+00
  2.205533e+01    3.974691e+00
  2.208708e+01    3.008794e+00
  2.211883e+01    2.411724e+00
  2.215058e+01    1.994844e+00
  2.218233e+01    1.758086e+00
  2.221408e+01    1.572652e+00
  2.224584e+01    1.403142e+00
  2.227759e+01    1.353351e+00
  2.230934e+01    1.246908e+00
  2.234109e+01    1.218785e+00
  2.237284e+01    1.159318e+00
  2.240459e+01    1.126990e+00
  2.243634e+01    1.104586e+00
  2.246809e+01    1.084352e+00
  2.249984e+01    1.046059e+00
  2.253160e+01    1.036950e+00
  2.256335e+01    1.019045e+00
  2.259510e+01    1.014892e+00
  2.262685e+01    9.856318e-01
  2.265860e+01    9.878410e-01
  2.269035e+01    9.815432e-01
  2.272210e+01    9.641570e-01
  2.275385e+01    9.498719e-01
  2.278560e+01    9.340447e-01
  2.281736e+01    9.324204e-01
  2.284911e+01    9.211138e-01
  2.288086e+01    9.134700e-01
  2.291261e+01    9.395809e-01
  2.294436e+01    9.145249e-01
  2.297611e+01    9.160087e-01
  2.300786e+01    8.938668e-01
  2.303961e+01    9.022354e-01
  2.307137e+01    9.143295e-01
  2.310312e+01    9.018167e-01
  2.313487e+01    8.877576e-01
  2.316662e+01    8.778899e-01
  2.319837e+01    8.852023e-01
  2.323012e+01    8.834968e-01
  2.326187e+01    9.046093e-01
  2.329362e+01    8.634949e-01
  2.332537e+01    8.644344e-01
  2.335713e+01    8.588201e-01
  2.338888e+01    8.781260e-01
  2.342063e+01    8.572986e-01
  2.345238e+01    8.555369e-01
  2.348413e+01    8.353506e-01
  2.351588e+01    8.776762e-01
  2.354763e+01    8.570876e-01
  2.357938e+01    8.577043e-01
  2.361113e+01    8.514681e-01
  2.364289e+01    8.355284e-01
  2.367464e+01    8.346233e-01
  2.370639e+01    8.259975e-01
  2.373814e+01    8.400151e-01
  2.376989e+01    8.111645e-01
  2.380164e+01    8.189611e-01
  2.383339e+01    8.177673e-01
  2.386514e+01    8.009235e-01
  2.389689e+01    8.104063e-01
  2.392865e+01    8.065925e-01
  2.396040e+01    8.031949e-01
  2.399215e+01    7.861214e-01
  2.402390e+01    8.081700e-01
  2.405565e+01    7.880726e-01
  2.408740e+01    7.650692e-01
  2.411915e+01    7.967933e-01
  2.415090e+01    7.710507e-01
  2.418266e+01    7.819793e-01
  2.421441e+01    7.908308e-01
  2.424616e+01    7.995512e-01
  2.427791e+01    8.014864e-01
  2.430966e+01    8.010934e-01
  2.434141e+01    8.022981e-01
  2.437316e+01    8.125176e-01
  2.440491e+01    8.023318e-01
  2.443666e+01    7.837279e-01
  2.446842e+01    7.912236e-01
  2.450017e+01    8.028851e-01
  2.453192e+01    7.974781e-01
  2.456367e+01    8.156167e-01
  2.459542e+01    7.973078e-01
  2.462717e+01    8.008592e-01
  2.465892e+01    8.239713e-01
  2.469067e+01    8.005774e-01
  2.472242e+01    8.130852e-01
  2.475418e+01    8.159395e-01
  2.478593e+01    8.172304e-01
  2.481768e+01    8.044656e-01
  2.484943e+01    7.952493e-01
  2.488118e+01    7.973444e-01
  2.491293e+01    7.987648e-01
  2.494468e+01    7.844524e-01
  2.497643e+01    7.958080e-01
  2.500819e+01    8.002002e-01
  2.503994e+01    7.868854e-01
  2.507169e+01    8.263355e-01
  2.510344e+01    8.126669e-01
  2.513519e+01    8.231862e-01
  2.516694e+01    8.184296e-01
  2.519869e+01    8.618647e-01
  2.523044e+01    8.346661e-01
  2.526219e+01    8.721961e-01
  2.529395e+01    8.614476e-01
  2.532570e+01    8.732336e-01
  2.535745e+01    8.923978e-01
  2.538920e+01    8.959820e-01
  2.542095e+01    9.126750e-01
  2.545270e+01    9.454221e-01
  2.548445e+01    9.566212e-01
  2.551620e+01    9.746918e-01
  2.554795e+01    1.023479e+00
  2.557971e+01    1.068701e+00
  2.561146e+01    1.129217e+00
  2.564321e+01    1.206920e+00
  2.567496e+01    1.274104e+00
  2.570671e+01    1.389411e+00
  2.573846e+01    1.607784e+00
  2.577021e+01    1.875112e+00
  2.580196e+01    2.244101e+00
  2.583371e+01    2.822905e+00
  2.586547e+01    3.773351e+00
  2.589722e+01    4.990530e+00
  2.592897e+01    6.444925e+00
  2.596072e+01    7.952356e+00
  2.599247e+01    8.793262e+00
  2.602422e+01    8.389881e+00
  2.605597e+01    6.908024e+00
  2.608772e+01    5.124554e+00
  2.611948e+01    3.692226e+00
  2.615123e+01    2.806205e+00
  2.618298e+01    2.230320e+00
  2.621473e+01    1.859952e+00
  2.624648e+01    1.572849e+00
  2.627823e+01    1.388228e+00
  2.630998e+01    1.261501e+00
  2.634173e+01    1.186177e+00
  2.637348e+01    1.117734e+00
  2.640524e+01    1.048878e+00
  2.643699e+01    1.009709e+00
  2.646874e+01    1.007492e+00
  2.650049e+01    9.667898e-01
  2.653224e+01    9.477609e-01
  2.656399e+01    9.558929e-01
  2.659574e+01    9.535614e-01
  2.662749e+01    9.118182e-01
  2.665924e+01    9.229636e-01
  2.669100e+01    9.135516e-01
  2.672275e+01    9.267303e-01
  2.675450e+01    9.039271e-01
  2.678625e+01    9.055555e-01
  2.681800e+01    9.138047e-01
  2.684975e+01    9.254559e-01
  2.688150e+01    9.325221e-01
  2.691325e+01    9.385288e-01
  2.694501e+01    9.499178e-01
  2.697676e+01    9.776169e-01
  2.700851e+01    9.937131e-01
  2.704026e+01    1.066374e+00
  2.707201e+01    1.155674e+00
  2.710376e+01    1.269217e+00
  2.713551e+01    1.487001e+00
  2.716726e+01    1.755404e+00
  2.719901e+01    2.050573e+00
  2.723077e+01    2.381303e+00
  2.726252e+01    2.523932e+00
  2.729427e+01    2.327929e+00
  2.732602e+01    2.017538e+00
  2.735777e+01    1.626182e+00
  2.738952e+01    1.400644e+00
  2.742127e+01    1.197119e+00
  2.745302e+01    1.106891e+00
  2.748477e+01    1.002526e+00
  2.751653e+01    9.560832e-01
  2.754828e+01    9.413263e-01
  2.758003e+01    9.007033e-01
  2.761178e+01    8.997338e-01
  2.764353e+01    8.764961e-01
  2.767528e+01    8.809678e-01
  2.770703e+01    8.594023e-01
  2.773878e+01    8.498468e-01
  2.777054e+01    8.285373e-01
  2.780229e+01    8.222325e-01
  2.783404e+01    8.137483e-01
  2.786579e+01    8.177374e-01
  2.789754e+01    8.069074e-01
  2.792929e+01    8.188714e-01
  2.796104e+01    8.095254e-01
  2.799279e+01    7.913938e-01
  2.802454e+01    8.000728e-01
  2.805630e+01    7.914982e-01
  2.808805e+01    7.887927e-01
  2.811980e+01    7.839076e-01
  2.815155e+01    7.743051e-01
  2.818330e+01    8.044336e-01
  2.821505e+01    7.949832e-01
  2.824680e+01    7.855576e-01
  2.827855e+01    7.672014e-01
  2.831030e+01    7.830644e-01
  2.834206e+01    7.825638e-01
  2.837381e+01    7.814277e-01
  2.840556e+01    7.882407e-01
  2.843731e+01    7.550213e-01
  2.846906e+01    7.811733e-01
  2.850081e+01    7.830468e-01
  2.853256e+01    7.753741e-01
  2.856431e+01    7.582096e-01
  2.859606e+01    7.645224e-01
  2.862782e+01    7.595367e-01
  2.865957e+01    7.351015e-01
  2.869132e+01    7.515062e-01
  2.872307e+01    7.517064e-01
  2.875482e+01    7.609429e-01
  2.878657e+01    7.865975e-01
  2.881832e+01    7.693787e-01
  2.885007e+01    7.718881e-01
  2.888183e+01    7.361196e-01
  2.891358e+01    7.486544e-01
  2.894533e+01    7.441704e-01
  2.897708e+01    7.612860e-01
  2.900883e+01    7.371711e-01
  2.904058e+01    7.538219e-01
  2.907233e+01    7.299556e-01
  2.910408e+01    7.485737e-01
  2.913583e+01    7.389536e-01
  2.916759e+01    7.538360e-01
  2.919934e+01    7.422298e-01
  2.923109e+01    7.323780e-01
  2.926284e+01    7.250283e-01
  2.929459e+01    7.634428e-01
  2.932634e+01    7.371112e-01
  2.935809e+01    7.312835e-01
  2.938984e+01    7.283021e-01
  2.942159e+01    7.366551e-01
  2.945335e+01    7.201834e-01
  2.948510e+01    7.464211e-01
  2.951685e+01    7.503731e-01
  2.954860e+01    7.445772e-01
  2.958035e+01    7.415974e-01
  2.961210e+01    7.571504e-01
  2.964385e+01    7.277743e-01
  2.967560e+01    7.362531e-01
  2.970736e+01    7.331905e-01
  2.973911e+01    7.314115e-01
  2.977086e+01    7.239568e-01
  2.980261e+01    7.147941e-01
  2.983436e+01    7.077082e-01
  2.986611e+01    7.273933e-01
  2.989786e+01    7.199352e-01
  2.992961e+01    7.098095e-01
  2.996136e+01    7.285622e-01
  2.999312e+01    7.083644e-01
  3.002487e+01    7.421310e-01
  3.005662e+01    7.361997e-01
  3.008837e+01    7.386671e-01
  3.012012e+01    7.230330e-01
  3.015187e+01    7.035238e-01
  3.018362e+01    7.233447e-01
  3.021537e+01    7.213491e-01
  3.024712e+01    7.210020e-01
  3.027888e+01    7.075517e-01
  3.031063e+01    7.070293e-01
  3.034238e+01    7.200147e-01
  3.037413e+01    7.118869e-01
  3.040588e+01    7.150263e-01
  3.043763e+01    7.327414e-01
  3.046938e+01    7.149242e-01
  3.050113e+01    7.402744e-01
  3.053288e+01    7.323912e-01
  3.056464e+01    7.439717e-01
  3.059639e+01    7.168223e-01
  3.062814e+01    7.106339e-01
  3.065989e+01    7.091451e-01
  3.069164e+01    7.188624e-01
  3.072339e+01    7.048206e-01
  3.075514e+01    7.183015e-01
  3.078689e+01    7.433821e-01
  3.081865e+01    7.166459e-01
  3.085040e+01    7.202117e-01
  3.088215e+01    7.006049e-01
  3.091390e+01    7.314880e-01
  3.094565e+01    7.188559e-01
  3.097740e+01    7.166057e-01
  3.100915e+01    7.214074e-01
  3.104090e+01    7.253335e-01
  3.107265e+01    7.371104e-01
  3.110441e+01    7.548686e-01
  3.113616e+01    7.341407e-01
  3.116791e+01    7.136782e-01
  3.119966e+01    6.931242e-01
  3.123141e+01    7.256854e-01
  3.126316e+01    7.362061e-01
  3.129491e+01    7.227613e-01
  3.132666e+01    7.377269e-01
  3.135841e+01    7.381575e-01
  3.139017e+01    7.484794e-01
  3.142192e+01    7.573708e-01
  3.145367e+01    7.519675e-01
  3.148542e+01    7.765073e-01
  3.151717e+01    7.690313e-01
  3.154892e+01    7.679513e-01
  3.158067e+01    7.904014e-01
  3.161242e+01    8.114107e-01
  3.164418e+01    8.317456e-01
  3.167593e+01    8.668773e-01
  3.170768e+01    8.998689e-01
  3.173943e+01    1.009092e+00
  3.177118e+01    1.086364e+00
  3.180293e+01    1.209777e+00
  3.183468e+01    1.457147e+00
  3.186643e+01    1.727599e+00
  3.189818e+01    2.097880e+00
  3.192994e+01    2.416369e+00
  3.196169e+01    2.487919e+00
  3.199344e+01    2.298503e+00
  3.202519e+01    1.984679e+00
  3.205694e+01    1.589844e+00
  3.208869e+01    1.286280e+00
  3.212044e+01    1.151216e+00
  3.215219e+01    1.027718e+00
  3.218394e+01    9.293769e-01
  3.221570e+01    8.767260e-01
  3.224745e+01    8.421103e-01
  3.227920e+01    7.966140e-01
  3.231095e+01    7.854399e-01
  3.234270e+01    7.735068e-01
  3.237445e+01    7.676659e-01
  3.240620e+01    7.653349e-01
  3.243795e+01    7.407707e-01
  3.246970e+01    7.551187e-01
  3.250146e+01    7.314159e-01
  3.253321e+01    7.412837e-01
  3.254908e+01    7.430885e-01