File: XRD/2024-07-27_002_Ru-CGO-ex_Activtation_ramp_000002_data_000009.dat
# == pyFAI calibration ==
# Distance Sample to Detector: 0.4 m
# PONI: 9.750e-02, 1.135e-01 m
# Rotations: -0.000175 0.000000 -0.000000 rad
#
# == Fit2d calibration ==
# Distance Sample-beamCenter: 400.000 mm
# Center: x=1514.000, y=1300.000 pix
# Tilt: 0.010 deg  TiltPlanRot: 0.010 deg
#
# Detector Detector	 Spline= None	 PixelSize= 7.500e-05, 7.500e-05 m
#    Detector has a mask: False
#    Detector has a dark current: False
#    detector has a flat field: False
#
# Wavelength: 6.888e-11 m
# Mask applied: user provided
# Dark current applied: False
# Flat field applied: False
# Polarization factor: 0.99
# Normalization factor: 1.0
# --> /home/myspot/data/2024_07_Rosario/Ru-CGO-ex/2024-07-27_002_Ru-CGO-ex_Activtation_ramp_000002_data_000009.dat
#       q_nm^-1             I
  2.003187e-02    9.938969e-02
  5.178302e-02    4.581373e-02
  8.353417e-02    1.706136e-01
  1.152853e-01    2.774768e-02
  1.470365e-01    1.268926e-02
  1.787876e-01    1.236549e-02
  2.105388e-01    2.065802e-02
  2.422899e-01    3.653629e-02
  2.740411e-01    5.881839e-02
  3.057922e-01    1.286936e-02
  3.375433e-01    5.232389e-02
  3.692945e-01    6.245703e-02
  4.010456e-01    1.994371e-02
  4.327968e-01    4.125639e-02
  4.645479e-01    3.406818e-02
  4.962991e-01    3.702109e-02
  5.280502e-01    5.733385e-02
  5.598014e-01    3.936038e-02
  5.915525e-01    5.969824e-02
  6.233037e-01    4.704309e-02
  6.550548e-01    4.679808e-02
  6.868060e-01    4.640022e-02
  7.185571e-01    4.362157e-02
  7.503083e-01    3.993799e-02
  7.820594e-01    1.006532e-01
  8.138106e-01    2.039646e-01
  8.455617e-01    3.031963e-01
  8.773129e-01    4.249646e-01
  9.090640e-01    5.640698e-01
  9.408152e-01    6.935727e-01
  9.725663e-01    8.309309e-01
  1.004317e+00    1.031664e+00
  1.036069e+00    1.263352e+00
  1.067820e+00    1.356712e+00
  1.099571e+00    1.375186e+00
  1.131322e+00    1.432091e+00
  1.163073e+00    1.573398e+00
  1.194824e+00    1.718801e+00
  1.226575e+00    2.115984e+00
  1.258327e+00    2.393410e+00
  1.290078e+00    2.513732e+00
  1.321829e+00    2.725560e+00
  1.353580e+00    2.523005e+00
  1.385331e+00    2.624383e+00
  1.417082e+00    2.785758e+00
  1.448834e+00    2.824803e+00
  1.480585e+00    3.037134e+00
  1.512336e+00    2.932951e+00
  1.544087e+00    2.997237e+00
  1.575838e+00    3.037354e+00
  1.607589e+00    3.061864e+00
  1.639340e+00    3.078777e+00
  1.671092e+00    2.853723e+00
  1.702843e+00    2.983154e+00
  1.734594e+00    2.889990e+00
  1.766345e+00    2.945819e+00
  1.798096e+00    3.009382e+00
  1.829847e+00    2.900295e+00
  1.861598e+00    2.875206e+00
  1.893350e+00    2.854658e+00
  1.925101e+00    2.878175e+00
  1.956852e+00    2.798719e+00
  1.988603e+00    2.842153e+00
  2.020354e+00    2.803889e+00
  2.052105e+00    2.706395e+00
  2.083856e+00    2.816503e+00
  2.115608e+00    2.831066e+00
  2.147359e+00    2.762825e+00
  2.179110e+00    2.867235e+00
  2.210861e+00    2.852740e+00
  2.242612e+00    2.788675e+00
  2.274363e+00    2.776967e+00
  2.306115e+00    2.743348e+00
  2.337866e+00    2.813892e+00
  2.369617e+00    2.841576e+00
  2.401368e+00    2.881736e+00
  2.433119e+00    2.868759e+00
  2.464870e+00    2.812533e+00
  2.496621e+00    2.761226e+00
  2.528373e+00    2.693472e+00
  2.560124e+00    2.808144e+00
  2.591875e+00    2.834081e+00
  2.623626e+00    2.876280e+00
  2.655377e+00    2.811552e+00
  2.687128e+00    2.895073e+00
  2.718879e+00    2.890266e+00
  2.750631e+00    2.882216e+00
  2.782382e+00    2.894394e+00
  2.814133e+00    2.878111e+00
  2.845884e+00    2.766002e+00
  2.877635e+00    2.871218e+00
  2.909386e+00    2.822101e+00
  2.941137e+00    2.944805e+00
  2.972889e+00    2.888919e+00
  3.004640e+00    2.982736e+00
  3.036391e+00    2.832187e+00
  3.068142e+00    3.018947e+00
  3.099893e+00    2.861073e+00
  3.131644e+00    2.903673e+00
  3.163395e+00    2.970026e+00
  3.195147e+00    2.983206e+00
  3.226898e+00    2.920088e+00
  3.258649e+00    2.913244e+00
  3.290400e+00    2.895912e+00
  3.322151e+00    2.992897e+00
  3.353902e+00    2.972946e+00
  3.385654e+00    2.978094e+00
  3.417405e+00    2.962712e+00
  3.449156e+00    2.929706e+00
  3.480907e+00    2.992846e+00
  3.512658e+00    3.000015e+00
  3.544409e+00    2.996928e+00
  3.576160e+00    3.000736e+00
  3.607912e+00    2.934377e+00
  3.639663e+00    3.052971e+00
  3.671414e+00    2.955037e+00
  3.703165e+00    3.002233e+00
  3.734916e+00    3.063509e+00
  3.766667e+00    3.006107e+00
  3.798418e+00    2.999292e+00
  3.830170e+00    3.164485e+00
  3.861921e+00    2.976507e+00
  3.893672e+00    3.062135e+00
  3.925423e+00    3.069104e+00
  3.957174e+00    2.980004e+00
  3.988925e+00    2.892157e+00
  4.020676e+00    3.023626e+00
  4.052428e+00    3.054909e+00
  4.084179e+00    2.978384e+00
  4.115930e+00    3.104127e+00
  4.147681e+00    3.078285e+00
  4.179432e+00    3.020298e+00
  4.211183e+00    3.145018e+00
  4.242935e+00    3.061166e+00
  4.274686e+00    3.181983e+00
  4.306437e+00    3.001389e+00
  4.338188e+00    3.128366e+00
  4.369939e+00    3.122880e+00
  4.401690e+00    3.063404e+00
  4.433441e+00    3.017715e+00
  4.465193e+00    3.044458e+00
  4.496944e+00    3.070722e+00
  4.528695e+00    3.095417e+00
  4.560446e+00    3.095317e+00
  4.592197e+00    3.120621e+00
  4.623948e+00    3.105693e+00
  4.655699e+00    3.075103e+00
  4.687451e+00    3.078616e+00
  4.719202e+00    3.112758e+00
  4.750953e+00    3.159589e+00
  4.782704e+00    3.151369e+00
  4.814455e+00    3.233597e+00
  4.846206e+00    3.159485e+00
  4.877957e+00    3.045135e+00
  4.909709e+00    3.060827e+00
  4.941460e+00    3.163871e+00
  4.973211e+00    3.203123e+00
  5.004962e+00    3.099209e+00
  5.036713e+00    3.118981e+00
  5.068464e+00    3.203013e+00
  5.100216e+00    3.076350e+00
  5.131967e+00    3.106971e+00
  5.163718e+00    3.121019e+00
  5.195469e+00    3.152267e+00
  5.227220e+00    3.100080e+00
  5.258971e+00    3.114115e+00
  5.290722e+00    3.167877e+00
  5.322474e+00    3.064082e+00
  5.354225e+00    3.163197e+00
  5.385976e+00    3.099775e+00
  5.417727e+00    3.092788e+00
  5.449478e+00    3.200741e+00
  5.481229e+00    3.188498e+00
  5.512980e+00    3.116517e+00
  5.544732e+00    3.103810e+00
  5.576483e+00    3.126979e+00
  5.608234e+00    3.070487e+00
  5.639985e+00    3.101936e+00
  5.671736e+00    3.047226e+00
  5.703487e+00    3.028254e+00
  5.735238e+00    3.019944e+00
  5.766990e+00    3.044174e+00
  5.798741e+00    2.993372e+00
  5.830492e+00    3.054028e+00
  5.862243e+00    3.049520e+00
  5.893994e+00    3.070850e+00
  5.925745e+00    2.980545e+00
  5.957497e+00    2.990139e+00
  5.989248e+00    3.008457e+00
  6.020999e+00    3.059454e+00
  6.052750e+00    3.040371e+00
  6.084501e+00    3.169314e+00
  6.116252e+00    3.087787e+00
  6.148003e+00    3.126556e+00
  6.179755e+00    2.999669e+00
  6.211506e+00    3.049297e+00
  6.243257e+00    3.110203e+00
  6.275008e+00    3.005105e+00
  6.306759e+00    3.037681e+00
  6.338510e+00    3.094321e+00
  6.370261e+00    3.018958e+00
  6.402013e+00    3.070294e+00
  6.433764e+00    3.091025e+00
  6.465515e+00    3.077706e+00
  6.497266e+00    3.087632e+00
  6.529017e+00    3.051201e+00
  6.560768e+00    3.062195e+00
  6.592519e+00    3.005843e+00
  6.624271e+00    3.099160e+00
  6.656022e+00    3.004622e+00
  6.687773e+00    3.011659e+00
  6.719524e+00    3.029156e+00
  6.751275e+00    3.041474e+00
  6.783026e+00    3.084146e+00
  6.814777e+00    3.066200e+00
  6.846529e+00    2.982216e+00
  6.878280e+00    3.006556e+00
  6.910031e+00    3.039865e+00
  6.941782e+00    2.990517e+00
  6.973533e+00    3.008037e+00
  7.005284e+00    2.989950e+00
  7.037036e+00    3.059730e+00
  7.068787e+00    3.049812e+00
  7.100538e+00    3.030788e+00
  7.132289e+00    3.079969e+00
  7.164040e+00    3.070191e+00
  7.195791e+00    3.043278e+00
  7.227542e+00    2.978229e+00
  7.259294e+00    3.027377e+00
  7.291045e+00    3.003899e+00
  7.322796e+00    3.053173e+00
  7.354547e+00    3.024728e+00
  7.386298e+00    2.976484e+00
  7.418049e+00    2.947017e+00
  7.449800e+00    2.978611e+00
  7.481552e+00    2.991587e+00
  7.513303e+00    3.043630e+00
  7.545054e+00    3.046633e+00
  7.576805e+00    2.929581e+00
  7.608556e+00    2.975029e+00
  7.640307e+00    3.047002e+00
  7.672058e+00    3.024146e+00
  7.703810e+00    3.001875e+00
  7.735561e+00    2.995761e+00
  7.767312e+00    2.982812e+00
  7.799063e+00    2.940627e+00
  7.830814e+00    2.966920e+00
  7.862565e+00    2.932472e+00
  7.894317e+00    2.919346e+00
  7.926068e+00    2.970260e+00
  7.957819e+00    2.888120e+00
  7.989570e+00    2.963145e+00
  8.021321e+00    2.982077e+00
  8.053072e+00    2.945944e+00
  8.084823e+00    2.911504e+00
  8.116575e+00    3.020679e+00
  8.148326e+00    2.945287e+00
  8.180077e+00    3.071561e+00
  8.211828e+00    2.969988e+00
  8.243579e+00    3.003062e+00
  8.275330e+00    2.893215e+00
  8.307081e+00    2.921301e+00
  8.338833e+00    2.991268e+00
  8.370584e+00    2.870740e+00
  8.402335e+00    2.908325e+00
  8.434086e+00    2.907094e+00
  8.465837e+00    2.937052e+00
  8.497588e+00    2.940506e+00
  8.529339e+00    2.916960e+00
  8.561091e+00    2.914212e+00
  8.592842e+00    2.815794e+00
  8.624593e+00    2.878499e+00
  8.656344e+00    2.904676e+00
  8.688095e+00    2.886358e+00
  8.719846e+00    2.893428e+00
  8.751598e+00    2.887035e+00
  8.783349e+00    2.889258e+00
  8.815100e+00    2.863760e+00
  8.846851e+00    2.793889e+00
  8.878602e+00    2.785072e+00
  8.910353e+00    2.866717e+00
  8.942104e+00    2.784928e+00
  8.973856e+00    2.821679e+00
  9.005607e+00    2.859940e+00
  9.037358e+00    2.889280e+00
  9.069109e+00    2.850032e+00
  9.100860e+00    2.834078e+00
  9.132611e+00    2.853441e+00
  9.164362e+00    2.771695e+00
  9.196114e+00    2.850763e+00
  9.227865e+00    2.821985e+00
  9.259616e+00    2.848560e+00
  9.291367e+00    2.812613e+00
  9.323118e+00    2.843186e+00
  9.354869e+00    2.782572e+00
  9.386620e+00    2.830606e+00
  9.418372e+00    2.781597e+00
  9.450123e+00    2.837965e+00
  9.481874e+00    2.822069e+00
  9.513625e+00    2.838329e+00
  9.545376e+00    2.797894e+00
  9.577127e+00    2.793672e+00
  9.608878e+00    2.769235e+00
  9.640630e+00    2.830807e+00
  9.672381e+00    2.785200e+00
  9.704132e+00    2.808635e+00
  9.735883e+00    2.732610e+00
  9.767634e+00    2.753215e+00
  9.799385e+00    2.674213e+00
  9.831137e+00    2.730671e+00
  9.862888e+00    2.684372e+00
  9.894639e+00    2.677287e+00
  9.926390e+00    2.715668e+00
  9.958141e+00    2.709066e+00
  9.989892e+00    2.715477e+00
  1.002164e+01    2.698433e+00
  1.005339e+01    2.717143e+00
  1.008515e+01    2.701949e+00
  1.011690e+01    2.665466e+00
  1.014865e+01    2.703030e+00
  1.018040e+01    2.670646e+00
  1.021215e+01    2.635826e+00
  1.024390e+01    2.667073e+00
  1.027565e+01    2.625594e+00
  1.030740e+01    2.648942e+00
  1.033915e+01    2.694408e+00
  1.037091e+01    2.592820e+00
  1.040266e+01    2.629267e+00
  1.043441e+01    2.663486e+00
  1.046616e+01    2.586842e+00
  1.049791e+01    2.613558e+00
  1.052966e+01    2.624192e+00
  1.056141e+01    2.579570e+00
  1.059316e+01    2.618534e+00
  1.062492e+01    2.588439e+00
  1.065667e+01    2.560273e+00
  1.068842e+01    2.534078e+00
  1.072017e+01    2.580008e+00
  1.075192e+01    2.555859e+00
  1.078367e+01    2.548707e+00
  1.081542e+01    2.517038e+00
  1.084717e+01    2.544077e+00
  1.087892e+01    2.565596e+00
  1.091068e+01    2.543346e+00
  1.094243e+01    2.578941e+00
  1.097418e+01    2.490464e+00
  1.100593e+01    2.487635e+00
  1.103768e+01    2.492685e+00
  1.106943e+01    2.480650e+00
  1.110118e+01    2.492878e+00
  1.113293e+01    2.492609e+00
  1.116468e+01    2.496516e+00
  1.119644e+01    2.451841e+00
  1.122819e+01    2.469789e+00
  1.125994e+01    2.436448e+00
  1.129169e+01    2.445977e+00
  1.132344e+01    2.475970e+00
  1.135519e+01    2.478946e+00
  1.138694e+01    2.404641e+00
  1.141869e+01    2.387857e+00
  1.145045e+01    2.472197e+00
  1.148220e+01    2.437644e+00
  1.151395e+01    2.423552e+00
  1.154570e+01    2.417257e+00
  1.157745e+01    2.410028e+00
  1.160920e+01    2.358388e+00
  1.164095e+01    2.402586e+00
  1.167270e+01    2.438312e+00
  1.170445e+01    2.363540e+00
  1.173621e+01    2.360060e+00
  1.176796e+01    2.362475e+00
  1.179971e+01    2.373588e+00
  1.183146e+01    2.387063e+00
  1.186321e+01    2.352501e+00
  1.189496e+01    2.343626e+00
  1.192671e+01    2.353339e+00
  1.195846e+01    2.376168e+00
  1.199021e+01    2.350865e+00
  1.202197e+01    2.321520e+00
  1.205372e+01    2.342903e+00
  1.208547e+01    2.299499e+00
  1.211722e+01    2.324424e+00
  1.214897e+01    2.353861e+00
  1.218072e+01    2.370772e+00
  1.221247e+01    2.324888e+00
  1.224422e+01    2.341883e+00
  1.227597e+01    2.330490e+00
  1.230773e+01    2.350700e+00
  1.233948e+01    2.357579e+00
  1.237123e+01    2.295430e+00
  1.240298e+01    2.313467e+00
  1.243473e+01    2.378219e+00
  1.246648e+01    2.364761e+00
  1.249823e+01    2.362298e+00
  1.252998e+01    2.366384e+00
  1.256174e+01    2.370975e+00
  1.259349e+01    2.414098e+00
  1.262524e+01    2.464425e+00
  1.265699e+01    2.441175e+00
  1.268874e+01    2.542187e+00
  1.272049e+01    2.498504e+00
  1.275224e+01    2.588341e+00
  1.278399e+01    2.668960e+00
  1.281574e+01    2.725345e+00
  1.284750e+01    2.847271e+00
  1.287925e+01    3.001507e+00
  1.291100e+01    3.286361e+00
  1.294275e+01    3.619054e+00
  1.297450e+01    4.254464e+00
  1.300625e+01    5.081654e+00
  1.303800e+01    6.652718e+00
  1.306975e+01    8.918067e+00
  1.310150e+01    1.187739e+01
  1.313326e+01    1.492217e+01
  1.316501e+01    1.794389e+01
  1.319676e+01    1.990336e+01
  1.322851e+01    1.867661e+01
  1.326026e+01    1.427963e+01
  1.329201e+01    9.994008e+00
  1.332376e+01    7.278898e+00
  1.335551e+01    5.549069e+00
  1.338727e+01    4.536100e+00
  1.341902e+01    3.781029e+00
  1.345077e+01    3.389940e+00
  1.348252e+01    3.064162e+00
  1.351427e+01    2.882315e+00
  1.354602e+01    2.726937e+00
  1.357777e+01    2.622650e+00
  1.360952e+01    2.542716e+00
  1.364127e+01    2.427183e+00
  1.367303e+01    2.368360e+00
  1.370478e+01    2.362604e+00
  1.373653e+01    2.254105e+00
  1.376828e+01    2.226054e+00
  1.380003e+01    2.259229e+00
  1.383178e+01    2.199662e+00
  1.386353e+01    2.156617e+00
  1.389528e+01    2.128838e+00
  1.392703e+01    2.097001e+00
  1.395879e+01    2.069556e+00
  1.399054e+01    2.104963e+00
  1.402229e+01    2.101574e+00
  1.405404e+01    2.087667e+00
  1.408579e+01    2.074739e+00
  1.411754e+01    2.049098e+00
  1.414929e+01    2.022251e+00
  1.418104e+01    2.024451e+00
  1.421279e+01    1.985224e+00
  1.424455e+01    2.010191e+00
  1.427630e+01    2.009708e+00
  1.430805e+01    1.969965e+00
  1.433980e+01    1.977928e+00
  1.437155e+01    1.973191e+00
  1.440330e+01    1.960004e+00
  1.443505e+01    1.965315e+00
  1.446680e+01    1.953908e+00
  1.449856e+01    1.921043e+00
  1.453031e+01    1.937215e+00
  1.456206e+01    1.949076e+00
  1.459381e+01    1.920821e+00
  1.462556e+01    1.970634e+00
  1.465731e+01    1.931519e+00
  1.468906e+01    1.973658e+00
  1.472081e+01    1.967428e+00
  1.475256e+01    1.923377e+00
  1.478432e+01    1.932973e+00
  1.481607e+01    1.910158e+00
  1.484782e+01    1.898368e+00
  1.487957e+01    1.972329e+00
  1.491132e+01    1.967725e+00
  1.494307e+01    1.984279e+00
  1.497482e+01    2.056596e+00
  1.500657e+01    2.157026e+00
  1.503832e+01    2.245133e+00
  1.507008e+01    2.459945e+00
  1.510183e+01    2.758194e+00
  1.513358e+01    3.253508e+00
  1.516533e+01    3.911049e+00
  1.519708e+01    4.788873e+00
  1.522883e+01    5.651670e+00
  1.526058e+01    6.275893e+00
  1.529233e+01    6.678713e+00
  1.532409e+01    6.304244e+00
  1.535584e+01    5.127757e+00
  1.538759e+01    3.946884e+00
  1.541934e+01    3.124971e+00
  1.545109e+01    2.717361e+00
  1.548284e+01    2.379680e+00
  1.551459e+01    2.212449e+00
  1.554634e+01    2.058398e+00
  1.557809e+01    1.978963e+00
  1.560985e+01    1.878773e+00
  1.564160e+01    1.819486e+00
  1.567335e+01    1.828270e+00
  1.570510e+01    1.775344e+00
  1.573685e+01    1.807685e+00
  1.576860e+01    1.750662e+00
  1.580035e+01    1.731096e+00
  1.583210e+01    1.730106e+00
  1.586385e+01    1.678001e+00
  1.589561e+01    1.671039e+00
  1.592736e+01    1.681611e+00
  1.595911e+01    1.664502e+00
  1.599086e+01    1.652460e+00
  1.602261e+01    1.628525e+00
  1.605436e+01    1.651135e+00
  1.608611e+01    1.638876e+00
  1.611786e+01    1.617524e+00
  1.614961e+01    1.596290e+00
  1.618137e+01    1.570309e+00
  1.621312e+01    1.593916e+00
  1.624487e+01    1.562714e+00
  1.627662e+01    1.577934e+00
  1.630837e+01    1.588650e+00
  1.634012e+01    1.578356e+00
  1.637187e+01    1.521154e+00
  1.640362e+01    1.527744e+00
  1.643538e+01    1.557222e+00
  1.646713e+01    1.543878e+00
  1.649888e+01    1.499677e+00
  1.653063e+01    1.527404e+00
  1.656238e+01    1.511355e+00
  1.659413e+01    1.515787e+00
  1.662588e+01    1.524683e+00
  1.665763e+01    1.515503e+00
  1.668938e+01    1.505248e+00
  1.672114e+01    1.502406e+00
  1.675289e+01    1.507227e+00
  1.678464e+01    1.506140e+00
  1.681639e+01    1.509850e+00
  1.684814e+01    1.472126e+00
  1.687989e+01    1.488188e+00
  1.691164e+01    1.476895e+00
  1.694339e+01    1.459169e+00
  1.697514e+01    1.445291e+00
  1.700690e+01    1.446957e+00
  1.703865e+01    1.461014e+00
  1.707040e+01    1.450246e+00
  1.710215e+01    1.443776e+00
  1.713390e+01    1.413151e+00
  1.716565e+01    1.425872e+00
  1.719740e+01    1.425712e+00
  1.722915e+01    1.423887e+00
  1.726091e+01    1.390077e+00
  1.729266e+01    1.429498e+00
  1.732441e+01    1.395129e+00
  1.735616e+01    1.392805e+00
  1.738791e+01    1.413621e+00
  1.741966e+01    1.405301e+00
  1.745141e+01    1.354985e+00
  1.748316e+01    1.372285e+00
  1.751491e+01    1.361889e+00
  1.754667e+01    1.395405e+00
  1.757842e+01    1.352772e+00
  1.761017e+01    1.386329e+00
  1.764192e+01    1.373198e+00
  1.767367e+01    1.381723e+00
  1.770542e+01    1.335181e+00
  1.773717e+01    1.383505e+00
  1.776892e+01    1.330800e+00
  1.780067e+01    1.353912e+00
  1.783243e+01    1.337686e+00
  1.786418e+01    1.333076e+00
  1.789593e+01    1.358722e+00
  1.792768e+01    1.312192e+00
  1.795943e+01    1.341944e+00
  1.799118e+01    1.304566e+00
  1.802293e+01    1.315454e+00
  1.805468e+01    1.322301e+00
  1.808643e+01    1.305820e+00
  1.811819e+01    1.320844e+00
  1.814994e+01    1.307709e+00
  1.818169e+01    1.283742e+00
  1.821344e+01    1.303213e+00
  1.824519e+01    1.302985e+00
  1.827694e+01    1.306392e+00
  1.830869e+01    1.302162e+00
  1.834044e+01    1.279451e+00
  1.837220e+01    1.292175e+00
  1.840395e+01    1.258427e+00
  1.843570e+01    1.264325e+00
  1.846745e+01    1.279827e+00
  1.849920e+01    1.260231e+00
  1.853095e+01    1.259342e+00
  1.856270e+01    1.281338e+00
  1.859445e+01    1.233730e+00
  1.862620e+01    1.250009e+00
  1.865796e+01    1.269788e+00
  1.868971e+01    1.214031e+00
  1.872146e+01    1.223384e+00
  1.875321e+01    1.237198e+00
  1.878496e+01    1.259698e+00
  1.881671e+01    1.244082e+00
  1.884846e+01    1.221298e+00
  1.888021e+01    1.231238e+00
  1.891196e+01    1.248930e+00
  1.894372e+01    1.232804e+00
  1.897547e+01    1.219343e+00
  1.900722e+01    1.223730e+00
  1.903897e+01    1.226127e+00
  1.907072e+01    1.219046e+00
  1.910247e+01    1.207182e+00
  1.913422e+01    1.214295e+00
  1.916597e+01    1.211524e+00
  1.919773e+01    1.200153e+00
  1.922948e+01    1.185803e+00
  1.926123e+01    1.198253e+00
  1.929298e+01    1.185971e+00
  1.932473e+01    1.203782e+00
  1.935648e+01    1.171282e+00
  1.938823e+01    1.190463e+00
  1.941998e+01    1.172891e+00
  1.945173e+01    1.170583e+00
  1.948349e+01    1.190008e+00
  1.951524e+01    1.183676e+00
  1.954699e+01    1.174786e+00
  1.957874e+01    1.177795e+00
  1.961049e+01    1.177299e+00
  1.964224e+01    1.169646e+00
  1.967399e+01    1.133955e+00
  1.970574e+01    1.157639e+00
  1.973749e+01    1.156560e+00
  1.976925e+01    1.148040e+00
  1.980100e+01    1.167883e+00
  1.983275e+01    1.183054e+00
  1.986450e+01    1.143835e+00
  1.989625e+01    1.157530e+00
  1.992800e+01    1.135625e+00
  1.995975e+01    1.142782e+00
  1.999150e+01    1.192506e+00
  2.002325e+01    1.135076e+00
  2.005501e+01    1.132980e+00
  2.008676e+01    1.127922e+00
  2.011851e+01    1.121265e+00
  2.015026e+01    1.147648e+00
  2.018201e+01    1.130735e+00
  2.021376e+01    1.131370e+00
  2.024551e+01    1.112623e+00
  2.027726e+01    1.089090e+00
  2.030902e+01    1.130099e+00
  2.034077e+01    1.108425e+00
  2.037252e+01    1.142350e+00
  2.040427e+01    1.100558e+00
  2.043602e+01    1.109083e+00
  2.046777e+01    1.103935e+00
  2.049952e+01    1.124812e+00
  2.053127e+01    1.096513e+00
  2.056302e+01    1.088561e+00
  2.059478e+01    1.112836e+00
  2.062653e+01    1.080904e+00
  2.065828e+01    1.097291e+00
  2.069003e+01    1.088214e+00
  2.072178e+01    1.106543e+00
  2.075353e+01    1.100536e+00
  2.078528e+01    1.112740e+00
  2.081703e+01    1.078068e+00
  2.084878e+01    1.101274e+00
  2.088054e+01    1.086372e+00
  2.091229e+01    1.124749e+00
  2.094404e+01    1.100197e+00
  2.097579e+01    1.096390e+00
  2.100754e+01    1.103158e+00
  2.103929e+01    1.078983e+00
  2.107104e+01    1.106597e+00
  2.110279e+01    1.107173e+00
  2.113455e+01    1.104653e+00
  2.116630e+01    1.115695e+00
  2.119805e+01    1.121413e+00
  2.122980e+01    1.125245e+00
  2.126155e+01    1.120895e+00
  2.129330e+01    1.143960e+00
  2.132505e+01    1.128584e+00
  2.135680e+01    1.133918e+00
  2.138855e+01    1.173701e+00
  2.142031e+01    1.210950e+00
  2.145206e+01    1.227839e+00
  2.148381e+01    1.283952e+00
  2.151556e+01    1.327869e+00
  2.154731e+01    1.362188e+00
  2.157906e+01    1.416829e+00
  2.161081e+01    1.546871e+00
  2.164256e+01    1.710880e+00
  2.167431e+01    1.939627e+00
  2.170607e+01    2.290938e+00
  2.173782e+01    2.733809e+00
  2.176957e+01    3.550639e+00
  2.180132e+01    4.697321e+00
  2.183307e+01    6.196507e+00
  2.186482e+01    7.920230e+00
  2.189657e+01    9.751633e+00
  2.192832e+01    1.100326e+01
  2.196007e+01    1.072358e+01
  2.199183e+01    8.808793e+00
  2.202358e+01    6.433139e+00
  2.205533e+01    4.624513e+00
  2.208708e+01    3.424392e+00
  2.211883e+01    2.689407e+00
  2.215058e+01    2.172695e+00
  2.218233e+01    1.886711e+00
  2.221408e+01    1.645157e+00
  2.224584e+01    1.491257e+00
  2.227759e+01    1.404685e+00
  2.230934e+01    1.307866e+00
  2.234109e+01    1.269214e+00
  2.237284e+01    1.198140e+00
  2.240459e+01    1.155940e+00
  2.243634e+01    1.137676e+00
  2.246809e+01    1.073061e+00
  2.249984e+01    1.100656e+00
  2.253160e+01    1.084488e+00
  2.256335e+01    1.070788e+00
  2.259510e+01    1.017432e+00
  2.262685e+01    1.013264e+00
  2.265860e+01    1.002882e+00
  2.269035e+01    9.831566e-01
  2.272210e+01    9.874686e-01
  2.275385e+01    9.780437e-01
  2.278560e+01    9.517626e-01
  2.281736e+01    9.485193e-01
  2.284911e+01    9.498084e-01
  2.288086e+01    9.298181e-01
  2.291261e+01    9.563697e-01
  2.294436e+01    9.143735e-01
  2.297611e+01    9.070566e-01
  2.300786e+01    9.227389e-01
  2.303961e+01    8.939044e-01
  2.307137e+01    9.210936e-01
  2.310312e+01    8.975535e-01
  2.313487e+01    9.035953e-01
  2.316662e+01    8.995872e-01
  2.319837e+01    8.715124e-01
  2.323012e+01    8.919674e-01
  2.326187e+01    8.693085e-01
  2.329362e+01    8.893108e-01
  2.332537e+01    8.856218e-01
  2.335713e+01    8.819309e-01
  2.338888e+01    8.501903e-01
  2.342063e+01    8.683925e-01
  2.345238e+01    8.491524e-01
  2.348413e+01    8.710180e-01
  2.351588e+01    8.649715e-01
  2.354763e+01    8.688697e-01
  2.357938e+01    8.494829e-01
  2.361113e+01    8.869007e-01
  2.364289e+01    8.518052e-01
  2.367464e+01    8.371456e-01
  2.370639e+01    8.396624e-01
  2.373814e+01    8.389004e-01
  2.376989e+01    8.374414e-01
  2.380164e+01    8.201573e-01
  2.383339e+01    8.051531e-01
  2.386514e+01    8.104710e-01
  2.389689e+01    8.266369e-01
  2.392865e+01    8.121763e-01
  2.396040e+01    8.087626e-01
  2.399215e+01    7.944903e-01
  2.402390e+01    8.133980e-01
  2.405565e+01    8.129683e-01
  2.408740e+01    7.899145e-01
  2.411915e+01    7.998738e-01
  2.415090e+01    7.787290e-01
  2.418266e+01    7.889429e-01
  2.421441e+01    7.949896e-01
  2.424616e+01    7.910468e-01
  2.427791e+01    8.055559e-01
  2.430966e+01    8.073872e-01
  2.434141e+01    7.964519e-01
  2.437316e+01    7.985443e-01
  2.440491e+01    7.934225e-01
  2.443666e+01    7.982763e-01
  2.446842e+01    8.099243e-01
  2.450017e+01    8.065817e-01
  2.453192e+01    8.059473e-01
  2.456367e+01    8.175449e-01
  2.459542e+01    8.023619e-01
  2.462717e+01    8.168940e-01
  2.465892e+01    8.028750e-01
  2.469067e+01    8.037410e-01
  2.472242e+01    8.159354e-01
  2.475418e+01    7.997743e-01
  2.478593e+01    8.015349e-01
  2.481768e+01    7.972391e-01
  2.484943e+01    8.151590e-01
  2.488118e+01    8.074542e-01
  2.491293e+01    7.991228e-01
  2.494468e+01    7.942662e-01
  2.497643e+01    7.996443e-01
  2.500819e+01    8.346441e-01
  2.503994e+01    8.079419e-01
  2.507169e+01    8.282310e-01
  2.510344e+01    8.350156e-01
  2.513519e+01    8.376759e-01
  2.516694e+01    8.449923e-01
  2.519869e+01    8.750795e-01
  2.523044e+01    8.378621e-01
  2.526219e+01    8.571237e-01
  2.529395e+01    8.837240e-01
  2.532570e+01    8.868104e-01
  2.535745e+01    8.746655e-01
  2.538920e+01    9.141361e-01
  2.542095e+01    9.273028e-01
  2.545270e+01    9.368514e-01
  2.548445e+01    9.601143e-01
  2.551620e+01    9.879668e-01
  2.554795e+01    1.032436e+00
  2.557971e+01    1.061419e+00
  2.561146e+01    1.114259e+00
  2.564321e+01    1.168990e+00
  2.567496e+01    1.269662e+00
  2.570671e+01    1.377430e+00
  2.573846e+01    1.541550e+00
  2.577021e+01    1.792632e+00
  2.580196e+01    2.145410e+00
  2.583371e+01    2.715177e+00
  2.586547e+01    3.515678e+00
  2.589722e+01    4.658367e+00
  2.592897e+01    6.125999e+00
  2.596072e+01    7.723843e+00
  2.599247e+01    9.001222e+00
  2.602422e+01    9.135387e+00
  2.605597e+01    7.917773e+00
  2.608772e+01    6.006677e+00
  2.611948e+01    4.396560e+00
  2.615123e+01    3.285764e+00
  2.618298e+01    2.504161e+00
  2.621473e+01    2.090083e+00
  2.624648e+01    1.736908e+00
  2.627823e+01    1.525213e+00
  2.630998e+01    1.357841e+00
  2.634173e+01    1.222170e+00
  2.637348e+01    1.168094e+00
  2.640524e+01    1.123272e+00
  2.643699e+01    1.077675e+00
  2.646874e+01    1.044893e+00
  2.650049e+01    1.013516e+00
  2.653224e+01    1.004922e+00
  2.656399e+01    9.702251e-01
  2.659574e+01    9.664347e-01
  2.662749e+01    9.492571e-01
  2.665924e+01    9.365977e-01
  2.669100e+01    9.312328e-01
  2.672275e+01    9.243451e-01
  2.675450e+01    9.319293e-01
  2.678625e+01    9.301033e-01
  2.681800e+01    9.024767e-01
  2.684975e+01    9.207052e-01
  2.688150e+01    9.241341e-01
  2.691325e+01    9.405698e-01
  2.694501e+01    9.733061e-01
  2.697676e+01    9.709916e-01
  2.700851e+01    1.012800e+00
  2.704026e+01    1.049421e+00
  2.707201e+01    1.101567e+00
  2.710376e+01    1.241237e+00
  2.713551e+01    1.384693e+00
  2.716726e+01    1.666674e+00
  2.719901e+01    2.044048e+00
  2.723077e+01    2.391709e+00
  2.726252e+01    2.582599e+00
  2.729427e+01    2.538225e+00
  2.732602e+01    2.226829e+00
  2.735777e+01    1.854120e+00
  2.738952e+01    1.526700e+00
  2.742127e+01    1.340106e+00
  2.745302e+01    1.185784e+00
  2.748477e+01    1.091205e+00
  2.751653e+01    9.933543e-01
  2.754828e+01    9.748937e-01
  2.758003e+01    9.111930e-01
  2.761178e+01    9.149433e-01
  2.764353e+01    8.841839e-01
  2.767528e+01    8.913074e-01
  2.770703e+01    8.600652e-01
  2.773878e+01    8.486789e-01
  2.777054e+01    8.586661e-01
  2.780229e+01    8.398724e-01
  2.783404e+01    8.240359e-01
  2.786579e+01    8.262665e-01
  2.789754e+01    8.277050e-01
  2.792929e+01    8.089194e-01
  2.796104e+01    8.176661e-01
  2.799279e+01    8.268361e-01
  2.802454e+01    8.033240e-01
  2.805630e+01    8.009397e-01
  2.808805e+01    8.073683e-01
  2.811980e+01    7.842191e-01
  2.815155e+01    7.871410e-01
  2.818330e+01    7.961116e-01
  2.821505e+01    7.928379e-01
  2.824680e+01    7.989337e-01
  2.827855e+01    8.097948e-01
  2.831030e+01    7.867901e-01
  2.834206e+01    7.967909e-01
  2.837381e+01    7.814730e-01
  2.840556e+01    8.059743e-01
  2.843731e+01    7.813742e-01
  2.846906e+01    7.898534e-01
  2.850081e+01    7.740401e-01
  2.853256e+01    8.149460e-01
  2.856431e+01    7.693053e-01
  2.859606e+01    7.631624e-01
  2.862782e+01    7.765557e-01
  2.865957e+01    7.780483e-01
  2.869132e+01    7.766123e-01
  2.872307e+01    7.528730e-01
  2.875482e+01    7.705261e-01
  2.878657e+01    7.481830e-01
  2.881832e+01    7.559240e-01
  2.885007e+01    7.534632e-01
  2.888183e+01    7.533274e-01
  2.891358e+01    7.844676e-01
  2.894533e+01    7.482105e-01
  2.897708e+01    7.279961e-01
  2.900883e+01    7.491313e-01
  2.904058e+01    7.446624e-01
  2.907233e+01    7.631397e-01
  2.910408e+01    7.430924e-01
  2.913583e+01    7.479858e-01
  2.916759e+01    7.672322e-01
  2.919934e+01    7.558615e-01
  2.923109e+01    7.527153e-01
  2.926284e+01    7.429689e-01
  2.929459e+01    7.255944e-01
  2.932634e+01    7.605162e-01
  2.935809e+01    7.185007e-01
  2.938984e+01    7.400514e-01
  2.942159e+01    7.332789e-01
  2.945335e+01    7.519825e-01
  2.948510e+01    7.446408e-01
  2.951685e+01    7.444001e-01
  2.954860e+01    7.512031e-01
  2.958035e+01    7.160208e-01
  2.961210e+01    7.384462e-01
  2.964385e+01    7.294061e-01
  2.967560e+01    7.284964e-01
  2.970736e+01    7.272658e-01
  2.973911e+01    7.186102e-01
  2.977086e+01    7.286015e-01
  2.980261e+01    7.240449e-01
  2.983436e+01    7.060209e-01
  2.986611e+01    7.543802e-01
  2.989786e+01    7.328702e-01
  2.992961e+01    7.459027e-01
  2.996136e+01    7.418365e-01
  2.999312e+01    7.494425e-01
  3.002487e+01    7.496591e-01
  3.005662e+01    7.534805e-01
  3.008837e+01    7.344565e-01
  3.012012e+01    7.306514e-01
  3.015187e+01    7.544925e-01
  3.018362e+01    7.082060e-01
  3.021537e+01    7.381633e-01
  3.024712e+01    7.165009e-01
  3.027888e+01    7.272705e-01
  3.031063e+01    7.511605e-01
  3.034238e+01    7.357847e-01
  3.037413e+01    7.137003e-01
  3.040588e+01    7.108996e-01
  3.043763e+01    7.243442e-01
  3.046938e+01    7.334660e-01
  3.050113e+01    7.333251e-01
  3.053288e+01    7.348090e-01
  3.056464e+01    7.194482e-01
  3.059639e+01    7.329657e-01
  3.062814e+01    7.302551e-01
  3.065989e+01    7.184231e-01
  3.069164e+01    7.296360e-01
  3.072339e+01    6.875765e-01
  3.075514e+01    7.279336e-01
  3.078689e+01    7.219197e-01
  3.081865e+01    7.169577e-01
  3.085040e+01    7.415504e-01
  3.088215e+01    7.191132e-01
  3.091390e+01    7.270080e-01
  3.094565e+01    7.492011e-01
  3.097740e+01    7.241421e-01
  3.100915e+01    7.145123e-01
  3.104090e+01    7.331337e-01
  3.107265e+01    7.264273e-01
  3.110441e+01    7.201903e-01
  3.113616e+01    7.224842e-01
  3.116791e+01    7.268833e-01
  3.119966e+01    7.351944e-01
  3.123141e+01    7.537404e-01
  3.126316e+01    7.672096e-01
  3.129491e+01    7.447334e-01
  3.132666e+01    7.260508e-01
  3.135841e+01    7.527238e-01
  3.139017e+01    7.446553e-01
  3.142192e+01    7.466686e-01
  3.145367e+01    7.663575e-01
  3.148542e+01    7.738191e-01
  3.151717e+01    7.895688e-01
  3.154892e+01    7.889780e-01
  3.158067e+01    8.073592e-01
  3.161242e+01    8.226790e-01
  3.164418e+01    8.360171e-01
  3.167593e+01    8.891162e-01
  3.170768e+01    9.140815e-01
  3.173943e+01    9.794310e-01
  3.177118e+01    1.062379e+00
  3.180293e+01    1.186474e+00
  3.183468e+01    1.371602e+00
  3.186643e+01    1.633525e+00
  3.189818e+01    1.987549e+00
  3.192994e+01    2.357807e+00
  3.196169e+01    2.592943e+00
  3.199344e+01    2.531498e+00
  3.202519e+01    2.211718e+00
  3.205694e+01    1.816071e+00
  3.208869e+01    1.473654e+00
  3.212044e+01    1.233770e+00
  3.215219e+01    1.121795e+00
  3.218394e+01    1.000201e+00
  3.221570e+01    9.399430e-01
  3.224745e+01    8.667298e-01
  3.227920e+01    8.452935e-01
  3.231095e+01    8.139145e-01
  3.234270e+01    7.918282e-01
  3.237445e+01    7.818597e-01
  3.240620e+01    7.774472e-01
  3.243795e+01    7.857351e-01
  3.246970e+01    7.685058e-01
  3.250146e+01    7.550206e-01
  3.253321e+01    7.626085e-01
  3.254908e+01    7.534568e-01