File: XRD/2024-07-27_002_Ru-CGO-ex_Activtation_ramp_000002_data_000036.dat
# == pyFAI calibration ==
# Distance Sample to Detector: 0.4 m
# PONI: 9.750e-02, 1.135e-01 m
# Rotations: -0.000175 0.000000 -0.000000 rad
#
# == Fit2d calibration ==
# Distance Sample-beamCenter: 400.000 mm
# Center: x=1514.000, y=1300.000 pix
# Tilt: 0.010 deg  TiltPlanRot: 0.010 deg
#
# Detector Detector	 Spline= None	 PixelSize= 7.500e-05, 7.500e-05 m
#    Detector has a mask: False
#    Detector has a dark current: False
#    detector has a flat field: False
#
# Wavelength: 6.888e-11 m
# Mask applied: user provided
# Dark current applied: False
# Flat field applied: False
# Polarization factor: 0.99
# Normalization factor: 1.0
# --> /home/myspot/data/2024_07_Rosario/Ru-CGO-ex/2024-07-27_002_Ru-CGO-ex_Activtation_ramp_000002_data_000036.dat
#       q_nm^-1             I
  2.003187e-02    2.227120e-02
  5.178302e-02    1.910478e-02
  8.353417e-02    4.263481e-02
  1.152853e-01    8.816607e-02
  1.470365e-01    1.301270e-02
  1.787876e-01    4.651158e-02
  2.105388e-01    3.194382e-02
  2.422899e-01    5.094741e-02
  2.740411e-01    2.907018e-02
  3.057922e-01    2.493756e-02
  3.375433e-01    1.248510e-02
  3.692945e-01    6.306836e-02
  4.010456e-01    4.049991e-02
  4.327968e-01    3.642444e-02
  4.645479e-01    2.659130e-02
  4.962991e-01    6.084725e-02
  5.280502e-01    3.176778e-02
  5.598014e-01    2.704302e-02
  5.915525e-01    4.265034e-02
  6.233037e-01    7.505245e-03
  6.550548e-01    2.583140e-02
  6.868060e-01    5.395314e-02
  7.185571e-01    3.837467e-02
  7.503083e-01    3.705114e-02
  7.820594e-01    1.320948e-01
  8.138106e-01    2.052367e-01
  8.455617e-01    2.405550e-01
  8.773129e-01    4.430301e-01
  9.090640e-01    6.316947e-01
  9.408152e-01    7.799877e-01
  9.725663e-01    8.449029e-01
  1.004317e+00    9.778429e-01
  1.036069e+00    1.196375e+00
  1.067820e+00    1.301627e+00
  1.099571e+00    1.393881e+00
  1.131322e+00    1.524587e+00
  1.163073e+00    1.469811e+00
  1.194824e+00    1.652322e+00
  1.226575e+00    2.175603e+00
  1.258327e+00    2.283922e+00
  1.290078e+00    2.608354e+00
  1.321829e+00    2.585565e+00
  1.353580e+00    2.541770e+00
  1.385331e+00    2.612388e+00
  1.417082e+00    2.803567e+00
  1.448834e+00    2.793832e+00
  1.480585e+00    2.861715e+00
  1.512336e+00    2.905330e+00
  1.544087e+00    3.014970e+00
  1.575838e+00    3.115567e+00
  1.607589e+00    3.051265e+00
  1.639340e+00    3.082961e+00
  1.671092e+00    2.957688e+00
  1.702843e+00    2.901328e+00
  1.734594e+00    2.903728e+00
  1.766345e+00    2.918526e+00
  1.798096e+00    2.989118e+00
  1.829847e+00    2.906888e+00
  1.861598e+00    2.947620e+00
  1.893350e+00    2.746313e+00
  1.925101e+00    2.944371e+00
  1.956852e+00    2.879360e+00
  1.988603e+00    2.770027e+00
  2.020354e+00    2.863853e+00
  2.052105e+00    2.750608e+00
  2.083856e+00    2.666747e+00
  2.115608e+00    2.888979e+00
  2.147359e+00    2.788154e+00
  2.179110e+00    2.745764e+00
  2.210861e+00    2.788056e+00
  2.242612e+00    2.926256e+00
  2.274363e+00    2.774632e+00
  2.306115e+00    2.765458e+00
  2.337866e+00    2.730843e+00
  2.369617e+00    2.769127e+00
  2.401368e+00    2.872851e+00
  2.433119e+00    2.841540e+00
  2.464870e+00    2.819592e+00
  2.496621e+00    2.857936e+00
  2.528373e+00    2.975867e+00
  2.560124e+00    2.820216e+00
  2.591875e+00    2.852457e+00
  2.623626e+00    2.860371e+00
  2.655377e+00    2.837272e+00
  2.687128e+00    2.791711e+00
  2.718879e+00    2.869571e+00
  2.750631e+00    2.871727e+00
  2.782382e+00    2.813057e+00
  2.814133e+00    2.938704e+00
  2.845884e+00    2.945175e+00
  2.877635e+00    2.828024e+00
  2.909386e+00    2.973942e+00
  2.941137e+00    2.920874e+00
  2.972889e+00    2.984320e+00
  3.004640e+00    2.992448e+00
  3.036391e+00    2.785740e+00
  3.068142e+00    2.958943e+00
  3.099893e+00    2.930469e+00
  3.131644e+00    2.987555e+00
  3.163395e+00    2.834919e+00
  3.195147e+00    2.879046e+00
  3.226898e+00    2.961689e+00
  3.258649e+00    2.977637e+00
  3.290400e+00    2.913612e+00
  3.322151e+00    2.882685e+00
  3.353902e+00    3.035404e+00
  3.385654e+00    2.949505e+00
  3.417405e+00    2.931922e+00
  3.449156e+00    3.006872e+00
  3.480907e+00    2.954959e+00
  3.512658e+00    2.962455e+00
  3.544409e+00    2.930051e+00
  3.576160e+00    3.007918e+00
  3.607912e+00    3.024336e+00
  3.639663e+00    2.928282e+00
  3.671414e+00    2.996790e+00
  3.703165e+00    3.028700e+00
  3.734916e+00    3.062291e+00
  3.766667e+00    3.024705e+00
  3.798418e+00    3.072003e+00
  3.830170e+00    3.030858e+00
  3.861921e+00    3.079436e+00
  3.893672e+00    3.085978e+00
  3.925423e+00    3.024519e+00
  3.957174e+00    2.985684e+00
  3.988925e+00    3.063077e+00
  4.020676e+00    3.021230e+00
  4.052428e+00    3.035693e+00
  4.084179e+00    3.047124e+00
  4.115930e+00    3.085454e+00
  4.147681e+00    3.130666e+00
  4.179432e+00    3.014978e+00
  4.211183e+00    2.992247e+00
  4.242935e+00    3.048659e+00
  4.274686e+00    2.982022e+00
  4.306437e+00    3.093230e+00
  4.338188e+00    3.037763e+00
  4.369939e+00    3.105783e+00
  4.401690e+00    3.002964e+00
  4.433441e+00    3.026996e+00
  4.465193e+00    3.043182e+00
  4.496944e+00    3.099530e+00
  4.528695e+00    3.063540e+00
  4.560446e+00    3.009001e+00
  4.592197e+00    3.002285e+00
  4.623948e+00    3.039655e+00
  4.655699e+00    3.126423e+00
  4.687451e+00    3.084550e+00
  4.719202e+00    3.130718e+00
  4.750953e+00    3.056655e+00
  4.782704e+00    3.088156e+00
  4.814455e+00    3.156860e+00
  4.846206e+00    3.114603e+00
  4.877957e+00    3.118896e+00
  4.909709e+00    3.083704e+00
  4.941460e+00    3.183781e+00
  4.973211e+00    3.147630e+00
  5.004962e+00    3.132887e+00
  5.036713e+00    3.213470e+00
  5.068464e+00    3.148857e+00
  5.100216e+00    3.203625e+00
  5.131967e+00    3.114897e+00
  5.163718e+00    3.037677e+00
  5.195469e+00    3.138979e+00
  5.227220e+00    3.073740e+00
  5.258971e+00    3.135411e+00
  5.290722e+00    3.054878e+00
  5.322474e+00    3.198305e+00
  5.354225e+00    3.211884e+00
  5.385976e+00    3.160987e+00
  5.417727e+00    3.107555e+00
  5.449478e+00    3.102302e+00
  5.481229e+00    3.045146e+00
  5.512980e+00    3.081069e+00
  5.544732e+00    3.190578e+00
  5.576483e+00    3.145985e+00
  5.608234e+00    3.094871e+00
  5.639985e+00    3.073206e+00
  5.671736e+00    3.092120e+00
  5.703487e+00    3.092153e+00
  5.735238e+00    3.022929e+00
  5.766990e+00    3.102325e+00
  5.798741e+00    3.006787e+00
  5.830492e+00    3.134057e+00
  5.862243e+00    3.162980e+00
  5.893994e+00    3.035456e+00
  5.925745e+00    3.068221e+00
  5.957497e+00    2.996405e+00
  5.989248e+00    2.998363e+00
  6.020999e+00    3.032849e+00
  6.052750e+00    3.110447e+00
  6.084501e+00    3.082734e+00
  6.116252e+00    3.099265e+00
  6.148003e+00    3.068423e+00
  6.179755e+00    3.084467e+00
  6.211506e+00    3.046990e+00
  6.243257e+00    3.137470e+00
  6.275008e+00    3.120411e+00
  6.306759e+00    3.092321e+00
  6.338510e+00    2.971770e+00
  6.370261e+00    3.022440e+00
  6.402013e+00    3.058887e+00
  6.433764e+00    3.020486e+00
  6.465515e+00    3.063852e+00
  6.497266e+00    3.073099e+00
  6.529017e+00    3.065251e+00
  6.560768e+00    3.064601e+00
  6.592519e+00    3.074557e+00
  6.624271e+00    3.115015e+00
  6.656022e+00    3.066844e+00
  6.687773e+00    3.124081e+00
  6.719524e+00    3.041357e+00
  6.751275e+00    3.023974e+00
  6.783026e+00    3.012427e+00
  6.814777e+00    3.016658e+00
  6.846529e+00    3.046733e+00
  6.878280e+00    3.005697e+00
  6.910031e+00    3.027323e+00
  6.941782e+00    2.995999e+00
  6.973533e+00    3.074901e+00
  7.005284e+00    3.004398e+00
  7.037036e+00    3.033945e+00
  7.068787e+00    3.004778e+00
  7.100538e+00    3.014660e+00
  7.132289e+00    3.001593e+00
  7.164040e+00    2.971375e+00
  7.195791e+00    3.029097e+00
  7.227542e+00    3.004158e+00
  7.259294e+00    3.048010e+00
  7.291045e+00    3.044409e+00
  7.322796e+00    3.063830e+00
  7.354547e+00    2.985924e+00
  7.386298e+00    3.079651e+00
  7.418049e+00    3.006523e+00
  7.449800e+00    3.011167e+00
  7.481552e+00    2.968259e+00
  7.513303e+00    3.012287e+00
  7.545054e+00    3.038645e+00
  7.576805e+00    3.031443e+00
  7.608556e+00    2.973102e+00
  7.640307e+00    2.915729e+00
  7.672058e+00    3.019277e+00
  7.703810e+00    2.978249e+00
  7.735561e+00    2.981198e+00
  7.767312e+00    2.955232e+00
  7.799063e+00    2.964819e+00
  7.830814e+00    2.919412e+00
  7.862565e+00    2.903591e+00
  7.894317e+00    3.034125e+00
  7.926068e+00    2.893677e+00
  7.957819e+00    2.968899e+00
  7.989570e+00    2.900769e+00
  8.021321e+00    2.964776e+00
  8.053072e+00    2.981579e+00
  8.084823e+00    2.962578e+00
  8.116575e+00    2.977288e+00
  8.148326e+00    2.974699e+00
  8.180077e+00    2.956109e+00
  8.211828e+00    3.036333e+00
  8.243579e+00    2.969201e+00
  8.275330e+00    2.898103e+00
  8.307081e+00    2.923228e+00
  8.338833e+00    2.860761e+00
  8.370584e+00    2.940216e+00
  8.402335e+00    2.949292e+00
  8.434086e+00    2.942001e+00
  8.465837e+00    2.851476e+00
  8.497588e+00    2.960167e+00
  8.529339e+00    2.922677e+00
  8.561091e+00    2.940724e+00
  8.592842e+00    2.861072e+00
  8.624593e+00    2.868809e+00
  8.656344e+00    2.865579e+00
  8.688095e+00    2.824896e+00
  8.719846e+00    2.851438e+00
  8.751598e+00    2.872669e+00
  8.783349e+00    2.926311e+00
  8.815100e+00    2.845992e+00
  8.846851e+00    2.872766e+00
  8.878602e+00    2.847262e+00
  8.910353e+00    2.845893e+00
  8.942104e+00    2.846806e+00
  8.973856e+00    2.788135e+00
  9.005607e+00    2.790215e+00
  9.037358e+00    2.746865e+00
  9.069109e+00    2.862392e+00
  9.100860e+00    2.826458e+00
  9.132611e+00    2.731232e+00
  9.164362e+00    2.758788e+00
  9.196114e+00    2.738495e+00
  9.227865e+00    2.801182e+00
  9.259616e+00    2.778966e+00
  9.291367e+00    2.769212e+00
  9.323118e+00    2.823887e+00
  9.354869e+00    2.770604e+00
  9.386620e+00    2.852750e+00
  9.418372e+00    2.743801e+00
  9.450123e+00    2.801608e+00
  9.481874e+00    2.824225e+00
  9.513625e+00    2.742565e+00
  9.545376e+00    2.821523e+00
  9.577127e+00    2.731558e+00
  9.608878e+00    2.749754e+00
  9.640630e+00    2.770402e+00
  9.672381e+00    2.787169e+00
  9.704132e+00    2.753863e+00
  9.735883e+00    2.718060e+00
  9.767634e+00    2.748376e+00
  9.799385e+00    2.719862e+00
  9.831137e+00    2.756297e+00
  9.862888e+00    2.747997e+00
  9.894639e+00    2.679439e+00
  9.926390e+00    2.668691e+00
  9.958141e+00    2.712079e+00
  9.989892e+00    2.762397e+00
  1.002164e+01    2.689042e+00
  1.005339e+01    2.729388e+00
  1.008515e+01    2.644704e+00
  1.011690e+01    2.683136e+00
  1.014865e+01    2.712553e+00
  1.018040e+01    2.603128e+00
  1.021215e+01    2.672363e+00
  1.024390e+01    2.650406e+00
  1.027565e+01    2.664153e+00
  1.030740e+01    2.606566e+00
  1.033915e+01    2.613084e+00
  1.037091e+01    2.637053e+00
  1.040266e+01    2.636792e+00
  1.043441e+01    2.663195e+00
  1.046616e+01    2.591137e+00
  1.049791e+01    2.659917e+00
  1.052966e+01    2.564180e+00
  1.056141e+01    2.607915e+00
  1.059316e+01    2.617485e+00
  1.062492e+01    2.629894e+00
  1.065667e+01    2.595418e+00
  1.068842e+01    2.588672e+00
  1.072017e+01    2.543806e+00
  1.075192e+01    2.549600e+00
  1.078367e+01    2.534807e+00
  1.081542e+01    2.568689e+00
  1.084717e+01    2.528439e+00
  1.087892e+01    2.557629e+00
  1.091068e+01    2.542845e+00
  1.094243e+01    2.520743e+00
  1.097418e+01    2.499506e+00
  1.100593e+01    2.486885e+00
  1.103768e+01    2.552997e+00
  1.106943e+01    2.536992e+00
  1.110118e+01    2.489633e+00
  1.113293e+01    2.482259e+00
  1.116468e+01    2.460836e+00
  1.119644e+01    2.521694e+00
  1.122819e+01    2.503055e+00
  1.125994e+01    2.475679e+00
  1.129169e+01    2.450502e+00
  1.132344e+01    2.464093e+00
  1.135519e+01    2.440029e+00
  1.138694e+01    2.472274e+00
  1.141869e+01    2.460391e+00
  1.145045e+01    2.451465e+00
  1.148220e+01    2.390354e+00
  1.151395e+01    2.385960e+00
  1.154570e+01    2.421176e+00
  1.157745e+01    2.412102e+00
  1.160920e+01    2.365048e+00
  1.164095e+01    2.355939e+00
  1.167270e+01    2.386374e+00
  1.170445e+01    2.404124e+00
  1.173621e+01    2.362252e+00
  1.176796e+01    2.355912e+00
  1.179971e+01    2.383746e+00
  1.183146e+01    2.342568e+00
  1.186321e+01    2.363513e+00
  1.189496e+01    2.340629e+00
  1.192671e+01    2.372069e+00
  1.195846e+01    2.347855e+00
  1.199021e+01    2.326535e+00
  1.202197e+01    2.368167e+00
  1.205372e+01    2.299359e+00
  1.208547e+01    2.367415e+00
  1.211722e+01    2.317142e+00
  1.214897e+01    2.379386e+00
  1.218072e+01    2.337553e+00
  1.221247e+01    2.352093e+00
  1.224422e+01    2.352472e+00
  1.227597e+01    2.322743e+00
  1.230773e+01    2.343987e+00
  1.233948e+01    2.348270e+00
  1.237123e+01    2.333404e+00
  1.240298e+01    2.353215e+00
  1.243473e+01    2.360247e+00
  1.246648e+01    2.373625e+00
  1.249823e+01    2.401705e+00
  1.252998e+01    2.377504e+00
  1.256174e+01    2.358960e+00
  1.259349e+01    2.416141e+00
  1.262524e+01    2.406080e+00
  1.265699e+01    2.449487e+00
  1.268874e+01    2.491711e+00
  1.272049e+01    2.502674e+00
  1.275224e+01    2.548842e+00
  1.278399e+01    2.628670e+00
  1.281574e+01    2.759029e+00
  1.284750e+01    2.814092e+00
  1.287925e+01    3.017560e+00
  1.291100e+01    3.324269e+00
  1.294275e+01    3.646751e+00
  1.297450e+01    4.248790e+00
  1.300625e+01    5.204733e+00
  1.303800e+01    6.740872e+00
  1.306975e+01    9.146355e+00
  1.310150e+01    1.205146e+01
  1.313326e+01    1.495724e+01
  1.316501e+01    1.799410e+01
  1.319676e+01    1.957552e+01
  1.322851e+01    1.801459e+01
  1.326026e+01    1.343533e+01
  1.329201e+01    9.455952e+00
  1.332376e+01    6.917815e+00
  1.335551e+01    5.297276e+00
  1.338727e+01    4.376840e+00
  1.341902e+01    3.736685e+00
  1.345077e+01    3.301004e+00
  1.348252e+01    3.040990e+00
  1.351427e+01    2.814414e+00
  1.354602e+01    2.635792e+00
  1.357777e+01    2.524499e+00
  1.360952e+01    2.446302e+00
  1.364127e+01    2.447319e+00
  1.367303e+01    2.342695e+00
  1.370478e+01    2.291384e+00
  1.373653e+01    2.295252e+00
  1.376828e+01    2.205837e+00
  1.380003e+01    2.198006e+00
  1.383178e+01    2.169382e+00
  1.386353e+01    2.136084e+00
  1.389528e+01    2.132442e+00
  1.392703e+01    2.155810e+00
  1.395879e+01    2.124676e+00
  1.399054e+01    2.095344e+00
  1.402229e+01    2.093772e+00
  1.405404e+01    2.092543e+00
  1.408579e+01    2.048848e+00
  1.411754e+01    2.003447e+00
  1.414929e+01    2.001402e+00
  1.418104e+01    2.011648e+00
  1.421279e+01    1.998107e+00
  1.424455e+01    2.019878e+00
  1.427630e+01    1.975405e+00
  1.430805e+01    1.966405e+00
  1.433980e+01    1.956535e+00
  1.437155e+01    1.962895e+00
  1.440330e+01    1.992818e+00
  1.443505e+01    1.954523e+00
  1.446680e+01    1.961621e+00
  1.449856e+01    1.988043e+00
  1.453031e+01    1.945064e+00
  1.456206e+01    1.883255e+00
  1.459381e+01    1.924706e+00
  1.462556e+01    1.937746e+00
  1.465731e+01    1.946002e+00
  1.468906e+01    1.928005e+00
  1.472081e+01    1.904402e+00
  1.475256e+01    1.914729e+00
  1.478432e+01    1.935439e+00
  1.481607e+01    1.933410e+00
  1.484782e+01    1.905553e+00
  1.487957e+01    1.979958e+00
  1.491132e+01    1.967905e+00
  1.494307e+01    2.009940e+00
  1.497482e+01    2.050000e+00
  1.500657e+01    2.156558e+00
  1.503832e+01    2.271604e+00
  1.507008e+01    2.485651e+00
  1.510183e+01    2.710130e+00
  1.513358e+01    3.276453e+00
  1.516533e+01    4.057791e+00
  1.519708e+01    4.918698e+00
  1.522883e+01    5.662007e+00
  1.526058e+01    6.268023e+00
  1.529233e+01    6.490216e+00
  1.532409e+01    6.061879e+00
  1.535584e+01    4.818345e+00
  1.538759e+01    3.774888e+00
  1.541934e+01    3.003632e+00
  1.545109e+01    2.631984e+00
  1.548284e+01    2.348187e+00
  1.551459e+01    2.158396e+00
  1.554634e+01    2.059660e+00
  1.557809e+01    1.982027e+00
  1.560985e+01    1.940748e+00
  1.564160e+01    1.825442e+00
  1.567335e+01    1.796751e+00
  1.570510e+01    1.789331e+00
  1.573685e+01    1.781791e+00
  1.576860e+01    1.734533e+00
  1.580035e+01    1.737058e+00
  1.583210e+01    1.688000e+00
  1.586385e+01    1.678631e+00
  1.589561e+01    1.664757e+00
  1.592736e+01    1.661578e+00
  1.595911e+01    1.644488e+00
  1.599086e+01    1.681408e+00
  1.602261e+01    1.601832e+00
  1.605436e+01    1.620496e+00
  1.608611e+01    1.595182e+00
  1.611786e+01    1.619619e+00
  1.614961e+01    1.585877e+00
  1.618137e+01    1.586392e+00
  1.621312e+01    1.582456e+00
  1.624487e+01    1.615482e+00
  1.627662e+01    1.591813e+00
  1.630837e+01    1.545997e+00
  1.634012e+01    1.548961e+00
  1.637187e+01    1.583335e+00
  1.640362e+01    1.567956e+00
  1.643538e+01    1.534487e+00
  1.646713e+01    1.544575e+00
  1.649888e+01    1.528471e+00
  1.653063e+01    1.516016e+00
  1.656238e+01    1.517438e+00
  1.659413e+01    1.493691e+00
  1.662588e+01    1.530155e+00
  1.665763e+01    1.527023e+00
  1.668938e+01    1.478193e+00
  1.672114e+01    1.475839e+00
  1.675289e+01    1.490893e+00
  1.678464e+01    1.471504e+00
  1.681639e+01    1.469230e+00
  1.684814e+01    1.479271e+00
  1.687989e+01    1.490213e+00
  1.691164e+01    1.460838e+00
  1.694339e+01    1.484236e+00
  1.697514e+01    1.464181e+00
  1.700690e+01    1.459304e+00
  1.703865e+01    1.446963e+00
  1.707040e+01    1.429973e+00
  1.710215e+01    1.445978e+00
  1.713390e+01    1.432301e+00
  1.716565e+01    1.426935e+00
  1.719740e+01    1.438591e+00
  1.722915e+01    1.420238e+00
  1.726091e+01    1.421142e+00
  1.729266e+01    1.405786e+00
  1.732441e+01    1.371186e+00
  1.735616e+01    1.429668e+00
  1.738791e+01    1.378077e+00
  1.741966e+01    1.409670e+00
  1.745141e+01    1.397115e+00
  1.748316e+01    1.379913e+00
  1.751491e+01    1.376251e+00
  1.754667e+01    1.359986e+00
  1.757842e+01    1.367203e+00
  1.761017e+01    1.375413e+00
  1.764192e+01    1.363869e+00
  1.767367e+01    1.357379e+00
  1.770542e+01    1.362487e+00
  1.773717e+01    1.349091e+00
  1.776892e+01    1.332088e+00
  1.780067e+01    1.375559e+00
  1.783243e+01    1.330421e+00
  1.786418e+01    1.330304e+00
  1.789593e+01    1.317822e+00
  1.792768e+01    1.294218e+00
  1.795943e+01    1.343204e+00
  1.799118e+01    1.311921e+00
  1.802293e+01    1.307557e+00
  1.805468e+01    1.338214e+00
  1.808643e+01    1.313141e+00
  1.811819e+01    1.272212e+00
  1.814994e+01    1.301096e+00
  1.818169e+01    1.267291e+00
  1.821344e+01    1.299554e+00
  1.824519e+01    1.273250e+00
  1.827694e+01    1.296710e+00
  1.830869e+01    1.278557e+00
  1.834044e+01    1.259075e+00
  1.837220e+01    1.280560e+00
  1.840395e+01    1.284045e+00
  1.843570e+01    1.262185e+00
  1.846745e+01    1.282225e+00
  1.849920e+01    1.282441e+00
  1.853095e+01    1.237937e+00
  1.856270e+01    1.229468e+00
  1.859445e+01    1.273064e+00
  1.862620e+01    1.272859e+00
  1.865796e+01    1.244843e+00
  1.868971e+01    1.253353e+00
  1.872146e+01    1.255374e+00
  1.875321e+01    1.242900e+00
  1.878496e+01    1.218543e+00
  1.881671e+01    1.235423e+00
  1.884846e+01    1.274141e+00
  1.888021e+01    1.207551e+00
  1.891196e+01    1.215348e+00
  1.894372e+01    1.216005e+00
  1.897547e+01    1.205275e+00
  1.900722e+01    1.220160e+00
  1.903897e+01    1.217718e+00
  1.907072e+01    1.251623e+00
  1.910247e+01    1.233685e+00
  1.913422e+01    1.204772e+00
  1.916597e+01    1.198235e+00
  1.919773e+01    1.192425e+00
  1.922948e+01    1.174101e+00
  1.926123e+01    1.206555e+00
  1.929298e+01    1.174773e+00
  1.932473e+01    1.190143e+00
  1.935648e+01    1.156028e+00
  1.938823e+01    1.174498e+00
  1.941998e+01    1.173513e+00
  1.945173e+01    1.181506e+00
  1.948349e+01    1.183455e+00
  1.951524e+01    1.190771e+00
  1.954699e+01    1.174386e+00
  1.957874e+01    1.175255e+00
  1.961049e+01    1.174650e+00
  1.964224e+01    1.160265e+00
  1.967399e+01    1.154350e+00
  1.970574e+01    1.149126e+00
  1.973749e+01    1.142050e+00
  1.976925e+01    1.171016e+00
  1.980100e+01    1.150086e+00
  1.983275e+01    1.145913e+00
  1.986450e+01    1.138309e+00
  1.989625e+01    1.134431e+00
  1.992800e+01    1.156875e+00
  1.995975e+01    1.126736e+00
  1.999150e+01    1.163921e+00
  2.002325e+01    1.140551e+00
  2.005501e+01    1.136460e+00
  2.008676e+01    1.129767e+00
  2.011851e+01    1.116237e+00
  2.015026e+01    1.140666e+00
  2.018201e+01    1.125765e+00
  2.021376e+01    1.108310e+00
  2.024551e+01    1.107694e+00
  2.027726e+01    1.125252e+00
  2.030902e+01    1.127195e+00
  2.034077e+01    1.099311e+00
  2.037252e+01    1.114960e+00
  2.040427e+01    1.069930e+00
  2.043602e+01    1.100782e+00
  2.046777e+01    1.116900e+00
  2.049952e+01    1.080555e+00
  2.053127e+01    1.087183e+00
  2.056302e+01    1.117739e+00
  2.059478e+01    1.094745e+00
  2.062653e+01    1.120740e+00
  2.065828e+01    1.090225e+00
  2.069003e+01    1.099686e+00
  2.072178e+01    1.099936e+00
  2.075353e+01    1.089111e+00
  2.078528e+01    1.094383e+00
  2.081703e+01    1.095129e+00
  2.084878e+01    1.110853e+00
  2.088054e+01    1.073308e+00
  2.091229e+01    1.097530e+00
  2.094404e+01    1.104246e+00
  2.097579e+01    1.104186e+00
  2.100754e+01    1.111115e+00
  2.103929e+01    1.076020e+00
  2.107104e+01    1.105141e+00
  2.110279e+01    1.111118e+00
  2.113455e+01    1.105899e+00
  2.116630e+01    1.119007e+00
  2.119805e+01    1.121634e+00
  2.122980e+01    1.111126e+00
  2.126155e+01    1.122116e+00
  2.129330e+01    1.124314e+00
  2.132505e+01    1.157613e+00
  2.135680e+01    1.160207e+00
  2.138855e+01    1.181647e+00
  2.142031e+01    1.190377e+00
  2.145206e+01    1.253936e+00
  2.148381e+01    1.253776e+00
  2.151556e+01    1.318304e+00
  2.154731e+01    1.358893e+00
  2.157906e+01    1.447496e+00
  2.161081e+01    1.574397e+00
  2.164256e+01    1.759282e+00
  2.167431e+01    1.974479e+00
  2.170607e+01    2.347468e+00
  2.173782e+01    2.893041e+00
  2.176957e+01    3.741418e+00
  2.180132e+01    4.964848e+00
  2.183307e+01    6.447639e+00
  2.186482e+01    8.161189e+00
  2.189657e+01    9.908064e+00
  2.192832e+01    1.088380e+01
  2.196007e+01    1.018317e+01
  2.199183e+01    8.044089e+00
  2.202358e+01    5.757796e+00
  2.205533e+01    4.177284e+00
  2.208708e+01    3.213581e+00
  2.211883e+01    2.517001e+00
  2.215058e+01    2.078221e+00
  2.218233e+01    1.795133e+00
  2.221408e+01    1.584535e+00
  2.224584e+01    1.424717e+00
  2.227759e+01    1.389347e+00
  2.230934e+01    1.307619e+00
  2.234109e+01    1.223163e+00
  2.237284e+01    1.183519e+00
  2.240459e+01    1.141340e+00
  2.243634e+01    1.106095e+00
  2.246809e+01    1.093855e+00
  2.249984e+01    1.074228e+00
  2.253160e+01    1.033188e+00
  2.256335e+01    1.035520e+00
  2.259510e+01    1.026545e+00
  2.262685e+01    1.017319e+00
  2.265860e+01    1.018591e+00
  2.269035e+01    9.844266e-01
  2.272210e+01    9.978226e-01
  2.275385e+01    9.770813e-01
  2.278560e+01    9.623218e-01
  2.281736e+01    9.457453e-01
  2.284911e+01    9.134336e-01
  2.288086e+01    9.370449e-01
  2.291261e+01    9.480700e-01
  2.294436e+01    9.270372e-01
  2.297611e+01    9.046035e-01
  2.300786e+01    9.284219e-01
  2.303961e+01    9.024613e-01
  2.307137e+01    8.955823e-01
  2.310312e+01    9.074106e-01
  2.313487e+01    9.140666e-01
  2.316662e+01    9.220989e-01
  2.319837e+01    8.994518e-01
  2.323012e+01    8.838094e-01
  2.326187e+01    8.749105e-01
  2.329362e+01    8.638856e-01
  2.332537e+01    8.717127e-01
  2.335713e+01    8.678053e-01
  2.338888e+01    8.959169e-01
  2.342063e+01    8.708373e-01
  2.345238e+01    8.659924e-01
  2.348413e+01    8.797411e-01
  2.351588e+01    8.655686e-01
  2.354763e+01    8.676046e-01
  2.357938e+01    8.496786e-01
  2.361113e+01    8.743352e-01
  2.364289e+01    8.418915e-01
  2.367464e+01    8.262045e-01
  2.370639e+01    8.376198e-01
  2.373814e+01    8.307836e-01
  2.376989e+01    8.289093e-01
  2.380164e+01    8.144565e-01
  2.383339e+01    8.288700e-01
  2.386514e+01    8.230903e-01
  2.389689e+01    7.956353e-01
  2.392865e+01    8.351068e-01
  2.396040e+01    8.044573e-01
  2.399215e+01    8.100939e-01
  2.402390e+01    8.205922e-01
  2.405565e+01    8.172669e-01
  2.408740e+01    8.121331e-01
  2.411915e+01    7.977291e-01
  2.415090e+01    8.023679e-01
  2.418266e+01    7.997065e-01
  2.421441e+01    7.905231e-01
  2.424616e+01    7.836071e-01
  2.427791e+01    8.109563e-01
  2.430966e+01    8.048266e-01
  2.434141e+01    8.185219e-01
  2.437316e+01    8.203102e-01
  2.440491e+01    7.982652e-01
  2.443666e+01    7.895460e-01
  2.446842e+01    8.050571e-01
  2.450017e+01    7.897936e-01
  2.453192e+01    7.919519e-01
  2.456367e+01    8.174736e-01
  2.459542e+01    8.088593e-01
  2.462717e+01    7.951815e-01
  2.465892e+01    8.105126e-01
  2.469067e+01    7.950379e-01
  2.472242e+01    7.956450e-01
  2.475418e+01    7.987342e-01
  2.478593e+01    8.104702e-01
  2.481768e+01    8.141682e-01
  2.484943e+01    7.937278e-01
  2.488118e+01    8.152838e-01
  2.491293e+01    8.091672e-01
  2.494468e+01    7.865524e-01
  2.497643e+01    8.084508e-01
  2.500819e+01    8.146080e-01
  2.503994e+01    8.171393e-01
  2.507169e+01    8.265109e-01
  2.510344e+01    8.287187e-01
  2.513519e+01    8.358330e-01
  2.516694e+01    8.366365e-01
  2.519869e+01    8.465109e-01
  2.523044e+01    8.652143e-01
  2.526219e+01    8.807611e-01
  2.529395e+01    8.719526e-01
  2.532570e+01    8.889083e-01
  2.535745e+01    8.888299e-01
  2.538920e+01    9.245530e-01
  2.542095e+01    9.051682e-01
  2.545270e+01    9.389153e-01
  2.548445e+01    9.782692e-01
  2.551620e+01    9.965892e-01
  2.554795e+01    1.027987e+00
  2.557971e+01    1.073839e+00
  2.561146e+01    1.126443e+00
  2.564321e+01    1.188256e+00
  2.567496e+01    1.280902e+00
  2.570671e+01    1.433646e+00
  2.573846e+01    1.565394e+00
  2.577021e+01    1.831935e+00
  2.580196e+01    2.233988e+00
  2.583371e+01    2.840910e+00
  2.586547e+01    3.728117e+00
  2.589722e+01    4.962892e+00
  2.592897e+01    6.455914e+00
  2.596072e+01    7.942202e+00
  2.599247e+01    8.983794e+00
  2.602422e+01    8.657869e+00
  2.605597e+01    7.231808e+00
  2.608772e+01    5.405980e+00
  2.611948e+01    3.932344e+00
  2.615123e+01    2.960367e+00
  2.618298e+01    2.328865e+00
  2.621473e+01    1.910218e+00
  2.624648e+01    1.612883e+00
  2.627823e+01    1.442150e+00
  2.630998e+01    1.321809e+00
  2.634173e+01    1.212501e+00
  2.637348e+01    1.158276e+00
  2.640524e+01    1.096245e+00
  2.643699e+01    1.041033e+00
  2.646874e+01    1.000881e+00
  2.650049e+01    9.898085e-01
  2.653224e+01    9.714853e-01
  2.656399e+01    9.623759e-01
  2.659574e+01    9.683105e-01
  2.662749e+01    9.612525e-01
  2.665924e+01    9.391637e-01
  2.669100e+01    9.288270e-01
  2.672275e+01    9.234482e-01
  2.675450e+01    9.302040e-01
  2.678625e+01    9.375945e-01
  2.681800e+01    9.069307e-01
  2.684975e+01    9.343964e-01
  2.688150e+01    9.436137e-01
  2.691325e+01    9.378972e-01
  2.694501e+01    9.462671e-01
  2.697676e+01    9.592515e-01
  2.700851e+01    1.009197e+00
  2.704026e+01    1.056790e+00
  2.707201e+01    1.156668e+00
  2.710376e+01    1.269783e+00
  2.713551e+01    1.476121e+00
  2.716726e+01    1.749662e+00
  2.719901e+01    2.084481e+00
  2.723077e+01    2.427290e+00
  2.726252e+01    2.570507e+00
  2.729427e+01    2.468815e+00
  2.732602e+01    2.080543e+00
  2.735777e+01    1.708317e+00
  2.738952e+01    1.431346e+00
  2.742127e+01    1.269260e+00
  2.745302e+01    1.125067e+00
  2.748477e+01    1.041757e+00
  2.751653e+01    9.842380e-01
  2.754828e+01    9.541736e-01
  2.758003e+01    9.319990e-01
  2.761178e+01    9.060937e-01
  2.764353e+01    8.870537e-01
  2.767528e+01    8.736221e-01
  2.770703e+01    8.616384e-01
  2.773878e+01    8.542571e-01
  2.777054e+01    8.510092e-01
  2.780229e+01    8.351174e-01
  2.783404e+01    8.556557e-01
  2.786579e+01    8.073434e-01
  2.789754e+01    8.104840e-01
  2.792929e+01    8.144378e-01
  2.796104e+01    8.296517e-01
  2.799279e+01    8.212330e-01
  2.802454e+01    8.217788e-01
  2.805630e+01    8.091854e-01
  2.808805e+01    7.968747e-01
  2.811980e+01    8.106847e-01
  2.815155e+01    7.782192e-01
  2.818330e+01    8.014278e-01
  2.821505e+01    7.946026e-01
  2.824680e+01    7.898654e-01
  2.827855e+01    7.862570e-01
  2.831030e+01    8.000569e-01
  2.834206e+01    7.901747e-01
  2.837381e+01    7.730930e-01
  2.840556e+01    8.102569e-01
  2.843731e+01    7.798137e-01
  2.846906e+01    7.787560e-01
  2.850081e+01    7.532758e-01
  2.853256e+01    7.557216e-01
  2.856431e+01    7.795547e-01
  2.859606e+01    7.960584e-01
  2.862782e+01    7.759373e-01
  2.865957e+01    7.912318e-01
  2.869132e+01    7.527253e-01
  2.872307e+01    7.734421e-01
  2.875482e+01    7.732747e-01
  2.878657e+01    7.757359e-01
  2.881832e+01    7.626504e-01
  2.885007e+01    7.662334e-01
  2.888183e+01    7.616584e-01
  2.891358e+01    7.560457e-01
  2.894533e+01    7.431822e-01
  2.897708e+01    7.476789e-01
  2.900883e+01    7.321505e-01
  2.904058e+01    7.357700e-01
  2.907233e+01    7.483803e-01
  2.910408e+01    7.549137e-01
  2.913583e+01    7.294191e-01
  2.916759e+01    7.593219e-01
  2.919934e+01    7.560656e-01
  2.923109e+01    7.452539e-01
  2.926284e+01    7.588587e-01
  2.929459e+01    7.570242e-01
  2.932634e+01    7.346325e-01
  2.935809e+01    7.304112e-01
  2.938984e+01    7.573465e-01
  2.942159e+01    7.147277e-01
  2.945335e+01    7.375491e-01
  2.948510e+01    7.570440e-01
  2.951685e+01    7.179177e-01
  2.954860e+01    7.418566e-01
  2.958035e+01    7.212006e-01
  2.961210e+01    7.236301e-01
  2.964385e+01    7.525626e-01
  2.967560e+01    7.505813e-01
  2.970736e+01    7.381967e-01
  2.973911e+01    7.238327e-01
  2.977086e+01    7.328036e-01
  2.980261e+01    7.392636e-01
  2.983436e+01    7.293923e-01
  2.986611e+01    7.283147e-01
  2.989786e+01    7.184916e-01
  2.992961e+01    7.447603e-01
  2.996136e+01    7.421879e-01
  2.999312e+01    7.387246e-01
  3.002487e+01    7.714657e-01
  3.005662e+01    7.370223e-01
  3.008837e+01    7.412200e-01
  3.012012e+01    7.498724e-01
  3.015187e+01    7.282681e-01
  3.018362e+01    7.251264e-01
  3.021537e+01    7.126769e-01
  3.024712e+01    7.349572e-01
  3.027888e+01    7.081396e-01
  3.031063e+01    7.450693e-01
  3.034238e+01    7.432209e-01
  3.037413e+01    7.344158e-01
  3.040588e+01    7.245203e-01
  3.043763e+01    7.238775e-01
  3.046938e+01    7.219405e-01
  3.050113e+01    7.281106e-01
  3.053288e+01    7.188681e-01
  3.056464e+01    7.117255e-01
  3.059639e+01    7.264810e-01
  3.062814e+01    7.138643e-01
  3.065989e+01    7.195403e-01
  3.069164e+01    7.272961e-01
  3.072339e+01    7.234316e-01
  3.075514e+01    7.331789e-01
  3.078689e+01    7.490450e-01
  3.081865e+01    7.181988e-01
  3.085040e+01    7.375486e-01
  3.088215e+01    7.359624e-01
  3.091390e+01    7.067081e-01
  3.094565e+01    7.379342e-01
  3.097740e+01    7.240171e-01
  3.100915e+01    7.367777e-01
  3.104090e+01    7.159330e-01
  3.107265e+01    7.320545e-01
  3.110441e+01    7.392951e-01
  3.113616e+01    7.287254e-01
  3.116791e+01    7.204689e-01
  3.119966e+01    7.571294e-01
  3.123141e+01    7.193155e-01
  3.126316e+01    7.510529e-01
  3.129491e+01    7.551321e-01
  3.132666e+01    7.436571e-01
  3.135841e+01    7.172758e-01
  3.139017e+01    7.394729e-01
  3.142192e+01    7.679523e-01
  3.145367e+01    7.803544e-01
  3.148542e+01    7.546418e-01
  3.151717e+01    7.740340e-01
  3.154892e+01    7.874899e-01
  3.158067e+01    8.049242e-01
  3.161242e+01    8.173636e-01
  3.164418e+01    8.395320e-01
  3.167593e+01    9.037500e-01
  3.170768e+01    9.288215e-01
  3.173943e+01    9.604880e-01
  3.177118e+01    1.077668e+00
  3.180293e+01    1.192462e+00
  3.183468e+01    1.396409e+00
  3.186643e+01    1.723091e+00
  3.189818e+01    2.077442e+00
  3.192994e+01    2.441779e+00
  3.196169e+01    2.602918e+00
  3.199344e+01    2.462299e+00
  3.202519e+01    2.045127e+00
  3.205694e+01    1.651382e+00
  3.208869e+01    1.365141e+00
  3.212044e+01    1.153221e+00
  3.215219e+01    1.064852e+00
  3.218394e+01    9.500263e-01
  3.221570e+01    8.955306e-01
  3.224745e+01    8.645276e-01
  3.227920e+01    8.404547e-01
  3.231095e+01    8.080837e-01
  3.234270e+01    7.926574e-01
  3.237445e+01    7.732456e-01
  3.240620e+01    7.768973e-01
  3.243795e+01    7.925065e-01
  3.246970e+01    7.706400e-01
  3.250146e+01    7.577370e-01
  3.253321e+01    7.443287e-01
  3.254908e+01    7.291543e-01