File: XRD/2024-07-27_002_Ru-CGO-ex_Activtation_ramp_000002_data_000118.dat
# == pyFAI calibration ==
# Distance Sample to Detector: 0.4 m
# PONI: 9.750e-02, 1.135e-01 m
# Rotations: -0.000175 0.000000 -0.000000 rad
#
# == Fit2d calibration ==
# Distance Sample-beamCenter: 400.000 mm
# Center: x=1514.000, y=1300.000 pix
# Tilt: 0.010 deg  TiltPlanRot: 0.010 deg
#
# Detector Detector	 Spline= None	 PixelSize= 7.500e-05, 7.500e-05 m
#    Detector has a mask: False
#    Detector has a dark current: False
#    detector has a flat field: False
#
# Wavelength: 6.888e-11 m
# Mask applied: user provided
# Dark current applied: False
# Flat field applied: False
# Polarization factor: 0.99
# Normalization factor: 1.0
# --> /home/myspot/data/2024_07_Rosario/Ru-CGO-ex/2024-07-27_002_Ru-CGO-ex_Activtation_ramp_000002_data_000118.dat
#       q_nm^-1             I
  2.003187e-02    0.000000e+00
  5.178302e-02    0.000000e+00
  8.353417e-02    2.176421e-01
  1.152853e-01    1.884233e-03
  1.470365e-01    3.959405e-02
  1.787876e-01    3.307708e-02
  2.105388e-01    3.309125e-02
  2.422899e-01    2.352587e-02
  2.740411e-01    4.660893e-02
  3.057922e-01    1.714703e-02
  3.375433e-01    2.200425e-02
  3.692945e-01    2.283251e-02
  4.010456e-01    3.006892e-02
  4.327968e-01    3.262283e-02
  4.645479e-01    3.274272e-02
  4.962991e-01    6.298235e-02
  5.280502e-01    3.185210e-02
  5.598014e-01    2.756706e-02
  5.915525e-01    4.122682e-02
  6.233037e-01    6.366478e-03
  6.550548e-01    2.987764e-02
  6.868060e-01    7.238460e-02
  7.185571e-01    5.681124e-02
  7.503083e-01    5.356279e-02
  7.820594e-01    1.200630e-01
  8.138106e-01    2.047361e-01
  8.455617e-01    2.939556e-01
  8.773129e-01    4.251822e-01
  9.090640e-01    4.986706e-01
  9.408152e-01    7.637047e-01
  9.725663e-01    8.373016e-01
  1.004317e+00    9.143945e-01
  1.036069e+00    1.062427e+00
  1.067820e+00    1.257419e+00
  1.099571e+00    1.316788e+00
  1.131322e+00    1.446084e+00
  1.163073e+00    1.462350e+00
  1.194824e+00    1.622023e+00
  1.226575e+00    2.109410e+00
  1.258327e+00    2.194580e+00
  1.290078e+00    2.506425e+00
  1.321829e+00    2.469882e+00
  1.353580e+00    2.542700e+00
  1.385331e+00    2.541213e+00
  1.417082e+00    2.644193e+00
  1.448834e+00    2.730283e+00
  1.480585e+00    2.719944e+00
  1.512336e+00    2.791138e+00
  1.544087e+00    2.853534e+00
  1.575838e+00    2.845852e+00
  1.607589e+00    2.855310e+00
  1.639340e+00    2.808341e+00
  1.671092e+00    2.835803e+00
  1.702843e+00    2.790009e+00
  1.734594e+00    2.718595e+00
  1.766345e+00    2.696494e+00
  1.798096e+00    2.678155e+00
  1.829847e+00    2.694151e+00
  1.861598e+00    2.775742e+00
  1.893350e+00    2.621909e+00
  1.925101e+00    2.564328e+00
  1.956852e+00    2.745237e+00
  1.988603e+00    2.635992e+00
  2.020354e+00    2.686888e+00
  2.052105e+00    2.780052e+00
  2.083856e+00    2.763905e+00
  2.115608e+00    2.632629e+00
  2.147359e+00    2.672313e+00
  2.179110e+00    2.750630e+00
  2.210861e+00    2.593668e+00
  2.242612e+00    2.728066e+00
  2.274363e+00    2.748433e+00
  2.306115e+00    2.748637e+00
  2.337866e+00    2.714003e+00
  2.369617e+00    2.816678e+00
  2.401368e+00    2.810224e+00
  2.433119e+00    2.723315e+00
  2.464870e+00    2.753565e+00
  2.496621e+00    2.624958e+00
  2.528373e+00    2.714334e+00
  2.560124e+00    2.807886e+00
  2.591875e+00    2.702475e+00
  2.623626e+00    2.809597e+00
  2.655377e+00    2.687904e+00
  2.687128e+00    2.732396e+00
  2.718879e+00    2.745508e+00
  2.750631e+00    2.766882e+00
  2.782382e+00    2.766867e+00
  2.814133e+00    2.926987e+00
  2.845884e+00    2.759600e+00
  2.877635e+00    2.792907e+00
  2.909386e+00    2.846881e+00
  2.941137e+00    2.858800e+00
  2.972889e+00    2.901228e+00
  3.004640e+00    2.850227e+00
  3.036391e+00    2.817841e+00
  3.068142e+00    2.866582e+00
  3.099893e+00    2.852035e+00
  3.131644e+00    2.812802e+00
  3.163395e+00    2.821399e+00
  3.195147e+00    2.858808e+00
  3.226898e+00    2.839124e+00
  3.258649e+00    2.938604e+00
  3.290400e+00    2.839664e+00
  3.322151e+00    2.825835e+00
  3.353902e+00    2.813186e+00
  3.385654e+00    2.981826e+00
  3.417405e+00    2.855892e+00
  3.449156e+00    2.915240e+00
  3.480907e+00    2.888513e+00
  3.512658e+00    2.908354e+00
  3.544409e+00    2.794456e+00
  3.576160e+00    2.902998e+00
  3.607912e+00    2.949433e+00
  3.639663e+00    2.917715e+00
  3.671414e+00    2.939319e+00
  3.703165e+00    3.058468e+00
  3.734916e+00    2.979234e+00
  3.766667e+00    2.910481e+00
  3.798418e+00    2.941218e+00
  3.830170e+00    2.949301e+00
  3.861921e+00    2.982175e+00
  3.893672e+00    2.925659e+00
  3.925423e+00    2.947002e+00
  3.957174e+00    2.965082e+00
  3.988925e+00    2.964166e+00
  4.020676e+00    3.018092e+00
  4.052428e+00    2.929700e+00
  4.084179e+00    3.098102e+00
  4.115930e+00    2.962856e+00
  4.147681e+00    2.964396e+00
  4.179432e+00    2.938903e+00
  4.211183e+00    2.991891e+00
  4.242935e+00    2.964629e+00
  4.274686e+00    2.969720e+00
  4.306437e+00    3.030155e+00
  4.338188e+00    2.960766e+00
  4.369939e+00    3.043377e+00
  4.401690e+00    2.993024e+00
  4.433441e+00    3.000942e+00
  4.465193e+00    3.005175e+00
  4.496944e+00    3.055287e+00
  4.528695e+00    3.004311e+00
  4.560446e+00    3.008168e+00
  4.592197e+00    2.974815e+00
  4.623948e+00    3.095414e+00
  4.655699e+00    3.027652e+00
  4.687451e+00    3.043352e+00
  4.719202e+00    2.978763e+00
  4.750953e+00    2.954515e+00
  4.782704e+00    2.979752e+00
  4.814455e+00    3.069531e+00
  4.846206e+00    3.098434e+00
  4.877957e+00    3.060397e+00
  4.909709e+00    3.023297e+00
  4.941460e+00    3.056939e+00
  4.973211e+00    3.051790e+00
  5.004962e+00    3.120715e+00
  5.036713e+00    3.030931e+00
  5.068464e+00    3.090075e+00
  5.100216e+00    3.055399e+00
  5.131967e+00    3.038450e+00
  5.163718e+00    3.083184e+00
  5.195469e+00    3.043063e+00
  5.227220e+00    3.049440e+00
  5.258971e+00    3.061166e+00
  5.290722e+00    3.027782e+00
  5.322474e+00    3.073746e+00
  5.354225e+00    3.075373e+00
  5.385976e+00    3.079015e+00
  5.417727e+00    3.058007e+00
  5.449478e+00    3.015579e+00
  5.481229e+00    3.089548e+00
  5.512980e+00    3.009183e+00
  5.544732e+00    3.024773e+00
  5.576483e+00    2.940542e+00
  5.608234e+00    2.973649e+00
  5.639985e+00    2.950031e+00
  5.671736e+00    3.002876e+00
  5.703487e+00    3.043634e+00
  5.735238e+00    3.074732e+00
  5.766990e+00    3.042703e+00
  5.798741e+00    2.984430e+00
  5.830492e+00    2.936060e+00
  5.862243e+00    2.992771e+00
  5.893994e+00    2.859411e+00
  5.925745e+00    3.045743e+00
  5.957497e+00    2.990183e+00
  5.989248e+00    2.962424e+00
  6.020999e+00    2.938503e+00
  6.052750e+00    3.000507e+00
  6.084501e+00    3.035239e+00
  6.116252e+00    3.021247e+00
  6.148003e+00    2.972391e+00
  6.179755e+00    2.925010e+00
  6.211506e+00    2.948410e+00
  6.243257e+00    3.017933e+00
  6.275008e+00    2.943471e+00
  6.306759e+00    2.983069e+00
  6.338510e+00    3.000418e+00
  6.370261e+00    2.945710e+00
  6.402013e+00    3.029275e+00
  6.433764e+00    3.006015e+00
  6.465515e+00    2.933479e+00
  6.497266e+00    3.024965e+00
  6.529017e+00    2.915159e+00
  6.560768e+00    3.078934e+00
  6.592519e+00    3.000953e+00
  6.624271e+00    2.962969e+00
  6.656022e+00    2.911331e+00
  6.687773e+00    2.977409e+00
  6.719524e+00    2.965253e+00
  6.751275e+00    2.956906e+00
  6.783026e+00    2.966457e+00
  6.814777e+00    3.007496e+00
  6.846529e+00    2.944112e+00
  6.878280e+00    3.048978e+00
  6.910031e+00    2.987165e+00
  6.941782e+00    2.929523e+00
  6.973533e+00    2.999948e+00
  7.005284e+00    2.929573e+00
  7.037036e+00    2.929809e+00
  7.068787e+00    2.921254e+00
  7.100538e+00    3.059822e+00
  7.132289e+00    2.942406e+00
  7.164040e+00    2.958895e+00
  7.195791e+00    2.977724e+00
  7.227542e+00    2.949908e+00
  7.259294e+00    2.942141e+00
  7.291045e+00    2.945928e+00
  7.322796e+00    2.984691e+00
  7.354547e+00    2.866608e+00
  7.386298e+00    2.942439e+00
  7.418049e+00    2.852430e+00
  7.449800e+00    2.922457e+00
  7.481552e+00    2.958445e+00
  7.513303e+00    2.910520e+00
  7.545054e+00    2.894336e+00
  7.576805e+00    2.895520e+00
  7.608556e+00    2.910366e+00
  7.640307e+00    2.916183e+00
  7.672058e+00    2.876424e+00
  7.703810e+00    2.904049e+00
  7.735561e+00    2.910583e+00
  7.767312e+00    2.832269e+00
  7.799063e+00    2.863930e+00
  7.830814e+00    3.000519e+00
  7.862565e+00    2.855391e+00
  7.894317e+00    2.850502e+00
  7.926068e+00    2.923399e+00
  7.957819e+00    2.860566e+00
  7.989570e+00    2.858350e+00
  8.021321e+00    2.844382e+00
  8.053072e+00    2.819231e+00
  8.084823e+00    2.838040e+00
  8.116575e+00    2.893343e+00
  8.148326e+00    2.878017e+00
  8.180077e+00    2.949373e+00
  8.211828e+00    2.899469e+00
  8.243579e+00    2.896347e+00
  8.275330e+00    2.962055e+00
  8.307081e+00    2.821073e+00
  8.338833e+00    2.890084e+00
  8.370584e+00    2.807104e+00
  8.402335e+00    2.766977e+00
  8.434086e+00    2.834177e+00
  8.465837e+00    2.859492e+00
  8.497588e+00    2.841300e+00
  8.529339e+00    2.806560e+00
  8.561091e+00    2.840746e+00
  8.592842e+00    2.877826e+00
  8.624593e+00    2.830581e+00
  8.656344e+00    2.826096e+00
  8.688095e+00    2.818318e+00
  8.719846e+00    2.813896e+00
  8.751598e+00    2.824225e+00
  8.783349e+00    2.782049e+00
  8.815100e+00    2.723351e+00
  8.846851e+00    2.801647e+00
  8.878602e+00    2.788374e+00
  8.910353e+00    2.803548e+00
  8.942104e+00    2.727635e+00
  8.973856e+00    2.802072e+00
  9.005607e+00    2.756908e+00
  9.037358e+00    2.740601e+00
  9.069109e+00    2.748024e+00
  9.100860e+00    2.764812e+00
  9.132611e+00    2.766810e+00
  9.164362e+00    2.711495e+00
  9.196114e+00    2.770408e+00
  9.227865e+00    2.688831e+00
  9.259616e+00    2.769876e+00
  9.291367e+00    2.734203e+00
  9.323118e+00    2.719975e+00
  9.354869e+00    2.710803e+00
  9.386620e+00    2.734689e+00
  9.418372e+00    2.742234e+00
  9.450123e+00    2.693254e+00
  9.481874e+00    2.673383e+00
  9.513625e+00    2.697677e+00
  9.545376e+00    2.697542e+00
  9.577127e+00    2.710485e+00
  9.608878e+00    2.711001e+00
  9.640630e+00    2.683820e+00
  9.672381e+00    2.714407e+00
  9.704132e+00    2.691504e+00
  9.735883e+00    2.649058e+00
  9.767634e+00    2.671478e+00
  9.799385e+00    2.672476e+00
  9.831137e+00    2.573450e+00
  9.862888e+00    2.715430e+00
  9.894639e+00    2.660863e+00
  9.926390e+00    2.619003e+00
  9.958141e+00    2.611446e+00
  9.989892e+00    2.633181e+00
  1.002164e+01    2.653597e+00
  1.005339e+01    2.594140e+00
  1.008515e+01    2.618878e+00
  1.011690e+01    2.574518e+00
  1.014865e+01    2.645781e+00
  1.018040e+01    2.604568e+00
  1.021215e+01    2.567912e+00
  1.024390e+01    2.559281e+00
  1.027565e+01    2.590269e+00
  1.030740e+01    2.570547e+00
  1.033915e+01    2.559946e+00
  1.037091e+01    2.597895e+00
  1.040266e+01    2.531500e+00
  1.043441e+01    2.556373e+00
  1.046616e+01    2.617132e+00
  1.049791e+01    2.524463e+00
  1.052966e+01    2.545519e+00
  1.056141e+01    2.535532e+00
  1.059316e+01    2.537091e+00
  1.062492e+01    2.527132e+00
  1.065667e+01    2.502034e+00
  1.068842e+01    2.476243e+00
  1.072017e+01    2.472440e+00
  1.075192e+01    2.509450e+00
  1.078367e+01    2.478096e+00
  1.081542e+01    2.530235e+00
  1.084717e+01    2.459026e+00
  1.087892e+01    2.483863e+00
  1.091068e+01    2.493419e+00
  1.094243e+01    2.496859e+00
  1.097418e+01    2.462723e+00
  1.100593e+01    2.419804e+00
  1.103768e+01    2.437819e+00
  1.106943e+01    2.460328e+00
  1.110118e+01    2.444593e+00
  1.113293e+01    2.434445e+00
  1.116468e+01    2.456406e+00
  1.119644e+01    2.435555e+00
  1.122819e+01    2.381540e+00
  1.125994e+01    2.356407e+00
  1.129169e+01    2.297451e+00
  1.132344e+01    2.407858e+00
  1.135519e+01    2.415163e+00
  1.138694e+01    2.387386e+00
  1.141869e+01    2.437598e+00
  1.145045e+01    2.369525e+00
  1.148220e+01    2.360904e+00
  1.151395e+01    2.378346e+00
  1.154570e+01    2.350271e+00
  1.157745e+01    2.332579e+00
  1.160920e+01    2.330174e+00
  1.164095e+01    2.355076e+00
  1.167270e+01    2.381953e+00
  1.170445e+01    2.360247e+00
  1.173621e+01    2.372313e+00
  1.176796e+01    2.288434e+00
  1.179971e+01    2.330822e+00
  1.183146e+01    2.303427e+00
  1.186321e+01    2.304316e+00
  1.189496e+01    2.301823e+00
  1.192671e+01    2.259274e+00
  1.195846e+01    2.304627e+00
  1.199021e+01    2.300034e+00
  1.202197e+01    2.323525e+00
  1.205372e+01    2.256175e+00
  1.208547e+01    2.293547e+00
  1.211722e+01    2.279572e+00
  1.214897e+01    2.260513e+00
  1.218072e+01    2.251141e+00
  1.221247e+01    2.278391e+00
  1.224422e+01    2.235080e+00
  1.227597e+01    2.273121e+00
  1.230773e+01    2.269690e+00
  1.233948e+01    2.275118e+00
  1.237123e+01    2.332438e+00
  1.240298e+01    2.315594e+00
  1.243473e+01    2.293998e+00
  1.246648e+01    2.322380e+00
  1.249823e+01    2.318891e+00
  1.252998e+01    2.255033e+00
  1.256174e+01    2.348800e+00
  1.259349e+01    2.367190e+00
  1.262524e+01    2.383931e+00
  1.265699e+01    2.356796e+00
  1.268874e+01    2.452007e+00
  1.272049e+01    2.465611e+00
  1.275224e+01    2.505874e+00
  1.278399e+01    2.574977e+00
  1.281574e+01    2.605136e+00
  1.284750e+01    2.819552e+00
  1.287925e+01    2.899343e+00
  1.291100e+01    3.253835e+00
  1.294275e+01    3.684536e+00
  1.297450e+01    4.344835e+00
  1.300625e+01    5.358388e+00
  1.303800e+01    7.069792e+00
  1.306975e+01    9.456887e+00
  1.310150e+01    1.211541e+01
  1.313326e+01    1.452519e+01
  1.316501e+01    1.675633e+01
  1.319676e+01    1.712872e+01
  1.322851e+01    1.426420e+01
  1.326026e+01    1.015618e+01
  1.329201e+01    7.272454e+00
  1.332376e+01    5.459474e+00
  1.335551e+01    4.438898e+00
  1.338727e+01    3.716585e+00
  1.341902e+01    3.277346e+00
  1.345077e+01    3.023332e+00
  1.348252e+01    2.807434e+00
  1.351427e+01    2.643735e+00
  1.354602e+01    2.531349e+00
  1.357777e+01    2.416902e+00
  1.360952e+01    2.357763e+00
  1.364127e+01    2.303144e+00
  1.367303e+01    2.266239e+00
  1.370478e+01    2.211276e+00
  1.373653e+01    2.215727e+00
  1.376828e+01    2.156031e+00
  1.380003e+01    2.131470e+00
  1.383178e+01    2.118788e+00
  1.386353e+01    2.086203e+00
  1.389528e+01    2.065784e+00
  1.392703e+01    2.070976e+00
  1.395879e+01    2.024774e+00
  1.399054e+01    2.015832e+00
  1.402229e+01    2.023550e+00
  1.405404e+01    1.992821e+00
  1.408579e+01    1.998793e+00
  1.411754e+01    1.979535e+00
  1.414929e+01    1.993818e+00
  1.418104e+01    1.948169e+00
  1.421279e+01    1.930419e+00
  1.424455e+01    1.951890e+00
  1.427630e+01    1.904008e+00
  1.430805e+01    1.928958e+00
  1.433980e+01    1.893885e+00
  1.437155e+01    1.951106e+00
  1.440330e+01    1.923261e+00
  1.443505e+01    1.905886e+00
  1.446680e+01    1.895470e+00
  1.449856e+01    1.891350e+00
  1.453031e+01    1.890903e+00
  1.456206e+01    1.879629e+00
  1.459381e+01    1.901990e+00
  1.462556e+01    1.910330e+00
  1.465731e+01    1.899295e+00
  1.468906e+01    1.853999e+00
  1.472081e+01    1.877658e+00
  1.475256e+01    1.854442e+00
  1.478432e+01    1.854348e+00
  1.481607e+01    1.887931e+00
  1.484782e+01    1.894531e+00
  1.487957e+01    1.931832e+00
  1.491132e+01    1.946066e+00
  1.494307e+01    1.938231e+00
  1.497482e+01    2.036569e+00
  1.500657e+01    2.139057e+00
  1.503832e+01    2.241231e+00
  1.507008e+01    2.536452e+00
  1.510183e+01    2.827711e+00
  1.513358e+01    3.407409e+00
  1.516533e+01    4.122183e+00
  1.519708e+01    4.905348e+00
  1.522883e+01    5.460664e+00
  1.526058e+01    5.850600e+00
  1.529233e+01    5.716835e+00
  1.532409e+01    4.921084e+00
  1.535584e+01    3.874453e+00
  1.538759e+01    3.103511e+00
  1.541934e+01    2.610484e+00
  1.545109e+01    2.344267e+00
  1.548284e+01    2.159451e+00
  1.551459e+01    2.003747e+00
  1.554634e+01    1.901771e+00
  1.557809e+01    1.846608e+00
  1.560985e+01    1.858309e+00
  1.564160e+01    1.779895e+00
  1.567335e+01    1.731192e+00
  1.570510e+01    1.716337e+00
  1.573685e+01    1.684473e+00
  1.576860e+01    1.676450e+00
  1.580035e+01    1.674399e+00
  1.583210e+01    1.642802e+00
  1.586385e+01    1.624743e+00
  1.589561e+01    1.646080e+00
  1.592736e+01    1.603443e+00
  1.595911e+01    1.611903e+00
  1.599086e+01    1.570406e+00
  1.602261e+01    1.582213e+00
  1.605436e+01    1.603701e+00
  1.608611e+01    1.606261e+00
  1.611786e+01    1.551064e+00
  1.614961e+01    1.524796e+00
  1.618137e+01    1.538101e+00
  1.621312e+01    1.565392e+00
  1.624487e+01    1.514488e+00
  1.627662e+01    1.525649e+00
  1.630837e+01    1.552052e+00
  1.634012e+01    1.515949e+00
  1.637187e+01    1.530896e+00
  1.640362e+01    1.490952e+00
  1.643538e+01    1.490264e+00
  1.646713e+01    1.466888e+00
  1.649888e+01    1.486199e+00
  1.653063e+01    1.443029e+00
  1.656238e+01    1.468754e+00
  1.659413e+01    1.496208e+00
  1.662588e+01    1.447039e+00
  1.665763e+01    1.488314e+00
  1.668938e+01    1.454367e+00
  1.672114e+01    1.445719e+00
  1.675289e+01    1.440969e+00
  1.678464e+01    1.448966e+00
  1.681639e+01    1.449158e+00
  1.684814e+01    1.444055e+00
  1.687989e+01    1.482472e+00
  1.691164e+01    1.429740e+00
  1.694339e+01    1.415256e+00
  1.697514e+01    1.410926e+00
  1.700690e+01    1.415099e+00
  1.703865e+01    1.416420e+00
  1.707040e+01    1.385514e+00
  1.710215e+01    1.399630e+00
  1.713390e+01    1.398662e+00
  1.716565e+01    1.395945e+00
  1.719740e+01    1.388324e+00
  1.722915e+01    1.394132e+00
  1.726091e+01    1.395021e+00
  1.729266e+01    1.369214e+00
  1.732441e+01    1.365841e+00
  1.735616e+01    1.341895e+00
  1.738791e+01    1.351186e+00
  1.741966e+01    1.356953e+00
  1.745141e+01    1.351699e+00
  1.748316e+01    1.339580e+00
  1.751491e+01    1.358412e+00
  1.754667e+01    1.374610e+00
  1.757842e+01    1.328244e+00
  1.761017e+01    1.356229e+00
  1.764192e+01    1.341300e+00
  1.767367e+01    1.332848e+00
  1.770542e+01    1.302485e+00
  1.773717e+01    1.310711e+00
  1.776892e+01    1.298483e+00
  1.780067e+01    1.277000e+00
  1.783243e+01    1.307646e+00
  1.786418e+01    1.317479e+00
  1.789593e+01    1.277910e+00
  1.792768e+01    1.294851e+00
  1.795943e+01    1.271635e+00
  1.799118e+01    1.292739e+00
  1.802293e+01    1.297558e+00
  1.805468e+01    1.270990e+00
  1.808643e+01    1.272130e+00
  1.811819e+01    1.277297e+00
  1.814994e+01    1.263595e+00
  1.818169e+01    1.266141e+00
  1.821344e+01    1.230460e+00
  1.824519e+01    1.244474e+00
  1.827694e+01    1.270759e+00
  1.830869e+01    1.249643e+00
  1.834044e+01    1.250490e+00
  1.837220e+01    1.262833e+00
  1.840395e+01    1.219211e+00
  1.843570e+01    1.221501e+00
  1.846745e+01    1.243512e+00
  1.849920e+01    1.232092e+00
  1.853095e+01    1.231084e+00
  1.856270e+01    1.239637e+00
  1.859445e+01    1.251725e+00
  1.862620e+01    1.193567e+00
  1.865796e+01    1.209272e+00
  1.868971e+01    1.203834e+00
  1.872146e+01    1.183950e+00
  1.875321e+01    1.210167e+00
  1.878496e+01    1.177812e+00
  1.881671e+01    1.204904e+00
  1.884846e+01    1.207731e+00
  1.888021e+01    1.222821e+00
  1.891196e+01    1.150533e+00
  1.894372e+01    1.186157e+00
  1.897547e+01    1.182226e+00
  1.900722e+01    1.187591e+00
  1.903897e+01    1.187647e+00
  1.907072e+01    1.171920e+00
  1.910247e+01    1.168078e+00
  1.913422e+01    1.154918e+00
  1.916597e+01    1.168076e+00
  1.919773e+01    1.177641e+00
  1.922948e+01    1.167901e+00
  1.926123e+01    1.181625e+00
  1.929298e+01    1.167530e+00
  1.932473e+01    1.164139e+00
  1.935648e+01    1.156086e+00
  1.938823e+01    1.146687e+00
  1.941998e+01    1.129753e+00
  1.945173e+01    1.143387e+00
  1.948349e+01    1.152540e+00
  1.951524e+01    1.155382e+00
  1.954699e+01    1.113858e+00
  1.957874e+01    1.171765e+00
  1.961049e+01    1.112960e+00
  1.964224e+01    1.143230e+00
  1.967399e+01    1.110734e+00
  1.970574e+01    1.119299e+00
  1.973749e+01    1.121028e+00
  1.976925e+01    1.107349e+00
  1.980100e+01    1.099466e+00
  1.983275e+01    1.103680e+00
  1.986450e+01    1.109944e+00
  1.989625e+01    1.130501e+00
  1.992800e+01    1.099174e+00
  1.995975e+01    1.100655e+00
  1.999150e+01    1.102884e+00
  2.002325e+01    1.097916e+00
  2.005501e+01    1.084743e+00
  2.008676e+01    1.096262e+00
  2.011851e+01    1.084206e+00
  2.015026e+01    1.089134e+00
  2.018201e+01    1.085638e+00
  2.021376e+01    1.092125e+00
  2.024551e+01    1.061020e+00
  2.027726e+01    1.067828e+00
  2.030902e+01    1.102086e+00
  2.034077e+01    1.074139e+00
  2.037252e+01    1.074286e+00
  2.040427e+01    1.074582e+00
  2.043602e+01    1.054894e+00
  2.046777e+01    1.052568e+00
  2.049952e+01    1.091263e+00
  2.053127e+01    1.054964e+00
  2.056302e+01    1.059148e+00
  2.059478e+01    1.071332e+00
  2.062653e+01    1.050505e+00
  2.065828e+01    1.071328e+00
  2.069003e+01    1.070975e+00
  2.072178e+01    1.081517e+00
  2.075353e+01    1.063094e+00
  2.078528e+01    1.074752e+00
  2.081703e+01    1.058659e+00
  2.084878e+01    1.061382e+00
  2.088054e+01    1.072136e+00
  2.091229e+01    1.035202e+00
  2.094404e+01    1.048741e+00
  2.097579e+01    1.070872e+00
  2.100754e+01    1.056167e+00
  2.103929e+01    1.068052e+00
  2.107104e+01    1.063411e+00
  2.110279e+01    1.040816e+00
  2.113455e+01    1.074793e+00
  2.116630e+01    1.084708e+00
  2.119805e+01    1.099149e+00
  2.122980e+01    1.091651e+00
  2.126155e+01    1.103993e+00
  2.129330e+01    1.093921e+00
  2.132505e+01    1.107753e+00
  2.135680e+01    1.124215e+00
  2.138855e+01    1.165274e+00
  2.142031e+01    1.144258e+00
  2.145206e+01    1.205835e+00
  2.148381e+01    1.248266e+00
  2.151556e+01    1.279454e+00
  2.154731e+01    1.352527e+00
  2.157906e+01    1.462268e+00
  2.161081e+01    1.578929e+00
  2.164256e+01    1.793972e+00
  2.167431e+01    2.078770e+00
  2.170607e+01    2.523472e+00
  2.173782e+01    3.206872e+00
  2.176957e+01    4.146600e+00
  2.180132e+01    5.410915e+00
  2.183307e+01    6.861595e+00
  2.186482e+01    8.356044e+00
  2.189657e+01    9.387362e+00
  2.192832e+01    9.203916e+00
  2.196007e+01    7.595381e+00
  2.199183e+01    5.579492e+00
  2.202358e+01    4.010880e+00
  2.205533e+01    3.061949e+00
  2.208708e+01    2.405190e+00
  2.211883e+01    1.978462e+00
  2.215058e+01    1.726964e+00
  2.218233e+01    1.541996e+00
  2.221408e+01    1.378131e+00
  2.224584e+01    1.329424e+00
  2.227759e+01    1.241317e+00
  2.230934e+01    1.155155e+00
  2.234109e+01    1.135270e+00
  2.237284e+01    1.086125e+00
  2.240459e+01    1.079234e+00
  2.243634e+01    1.051251e+00
  2.246809e+01    1.047540e+00
  2.249984e+01    1.016757e+00
  2.253160e+01    1.002337e+00
  2.256335e+01    9.766818e-01
  2.259510e+01    9.697070e-01
  2.262685e+01    9.586114e-01
  2.265860e+01    9.559248e-01
  2.269035e+01    9.175567e-01
  2.272210e+01    9.561191e-01
  2.275385e+01    9.295042e-01
  2.278560e+01    9.356177e-01
  2.281736e+01    9.079816e-01
  2.284911e+01    9.079515e-01
  2.288086e+01    8.935581e-01
  2.291261e+01    9.085884e-01
  2.294436e+01    9.125984e-01
  2.297611e+01    8.879477e-01
  2.300786e+01    8.980592e-01
  2.303961e+01    8.846797e-01
  2.307137e+01    8.747135e-01
  2.310312e+01    8.890744e-01
  2.313487e+01    8.466303e-01
  2.316662e+01    8.617855e-01
  2.319837e+01    8.599269e-01
  2.323012e+01    8.540878e-01
  2.326187e+01    8.607626e-01
  2.329362e+01    8.446018e-01
  2.332537e+01    8.479658e-01
  2.335713e+01    8.496380e-01
  2.338888e+01    8.418047e-01
  2.342063e+01    8.502626e-01
  2.345238e+01    8.422523e-01
  2.348413e+01    8.440534e-01
  2.351588e+01    8.245838e-01
  2.354763e+01    8.246805e-01
  2.357938e+01    8.176312e-01
  2.361113e+01    8.196703e-01
  2.364289e+01    8.143548e-01
  2.367464e+01    8.220762e-01
  2.370639e+01    8.170173e-01
  2.373814e+01    8.057094e-01
  2.376989e+01    8.162497e-01
  2.380164e+01    8.164988e-01
  2.383339e+01    7.966590e-01
  2.386514e+01    7.893591e-01
  2.389689e+01    7.979066e-01
  2.392865e+01    7.973003e-01
  2.396040e+01    7.699604e-01
  2.399215e+01    7.832746e-01
  2.402390e+01    7.787270e-01
  2.405565e+01    7.618291e-01
  2.408740e+01    7.739140e-01
  2.411915e+01    7.534240e-01
  2.415090e+01    7.721770e-01
  2.418266e+01    7.533148e-01
  2.421441e+01    7.699561e-01
  2.424616e+01    7.914901e-01
  2.427791e+01    7.776818e-01
  2.430966e+01    7.833703e-01
  2.434141e+01    7.872373e-01
  2.437316e+01    7.990966e-01
  2.440491e+01    7.927828e-01
  2.443666e+01    7.868596e-01
  2.446842e+01    8.045551e-01
  2.450017e+01    7.686241e-01
  2.453192e+01    7.800019e-01
  2.456367e+01    7.623001e-01
  2.459542e+01    7.741442e-01
  2.462717e+01    7.758218e-01
  2.465892e+01    7.944423e-01
  2.469067e+01    7.677545e-01
  2.472242e+01    7.672436e-01
  2.475418e+01    7.708745e-01
  2.478593e+01    7.885693e-01
  2.481768e+01    7.867437e-01
  2.484943e+01    7.935321e-01
  2.488118e+01    7.948293e-01
  2.491293e+01    7.756657e-01
  2.494468e+01    7.881443e-01
  2.497643e+01    7.996629e-01
  2.500819e+01    7.869722e-01
  2.503994e+01    7.921911e-01
  2.507169e+01    7.799709e-01
  2.510344e+01    8.000049e-01
  2.513519e+01    8.097160e-01
  2.516694e+01    8.131009e-01
  2.519869e+01    8.290219e-01
  2.523044e+01    8.293171e-01
  2.526219e+01    8.327700e-01
  2.529395e+01    8.542291e-01
  2.532570e+01    8.503702e-01
  2.535745e+01    8.731711e-01
  2.538920e+01    9.063680e-01
  2.542095e+01    9.405739e-01
  2.545270e+01    9.121774e-01
  2.548445e+01    9.608503e-01
  2.551620e+01    9.563553e-01
  2.554795e+01    1.042091e+00
  2.557971e+01    1.040760e+00
  2.561146e+01    1.114498e+00
  2.564321e+01    1.209086e+00
  2.567496e+01    1.289131e+00
  2.570671e+01    1.481628e+00
  2.573846e+01    1.696477e+00
  2.577021e+01    2.031810e+00
  2.580196e+01    2.518209e+00
  2.583371e+01    3.286463e+00
  2.586547e+01    4.301443e+00
  2.589722e+01    5.588948e+00
  2.592897e+01    6.849046e+00
  2.596072e+01    7.664431e+00
  2.599247e+01    7.656576e+00
  2.602422e+01    6.427026e+00
  2.605597e+01    4.864758e+00
  2.608772e+01    3.538502e+00
  2.611948e+01    2.679208e+00
  2.615123e+01    2.099089e+00
  2.618298e+01    1.787969e+00
  2.621473e+01    1.504896e+00
  2.624648e+01    1.363917e+00
  2.627823e+01    1.213047e+00
  2.630998e+01    1.135926e+00
  2.634173e+01    1.073989e+00
  2.637348e+01    1.009436e+00
  2.640524e+01    1.003139e+00
  2.643699e+01    9.476525e-01
  2.646874e+01    9.542152e-01
  2.650049e+01    9.248102e-01
  2.653224e+01    9.303731e-01
  2.656399e+01    9.013215e-01
  2.659574e+01    9.045004e-01
  2.662749e+01    8.786059e-01
  2.665924e+01    8.959912e-01
  2.669100e+01    9.070773e-01
  2.672275e+01    8.661921e-01
  2.675450e+01    8.841616e-01
  2.678625e+01    8.560146e-01
  2.681800e+01    8.841118e-01
  2.684975e+01    8.833131e-01
  2.688150e+01    8.908642e-01
  2.691325e+01    9.146935e-01
  2.694501e+01    9.348474e-01
  2.697676e+01    9.690871e-01
  2.700851e+01    1.018337e+00
  2.704026e+01    1.082393e+00
  2.707201e+01    1.189041e+00
  2.710376e+01    1.346870e+00
  2.713551e+01    1.574926e+00
  2.716726e+01    1.883191e+00
  2.719901e+01    2.142189e+00
  2.723077e+01    2.309384e+00
  2.726252e+01    2.209251e+00
  2.729427e+01    1.899009e+00
  2.732602e+01    1.561509e+00
  2.735777e+01    1.347312e+00
  2.738952e+01    1.178078e+00
  2.742127e+01    1.047725e+00
  2.745302e+01    1.013556e+00
  2.748477e+01    9.539315e-01
  2.751653e+01    9.123954e-01
  2.754828e+01    8.813316e-01
  2.758003e+01    8.645015e-01
  2.761178e+01    8.619241e-01
  2.764353e+01    8.647221e-01
  2.767528e+01    8.321397e-01
  2.770703e+01    8.236185e-01
  2.773878e+01    8.026090e-01
  2.777054e+01    7.878889e-01
  2.780229e+01    7.986964e-01
  2.783404e+01    8.053446e-01
  2.786579e+01    7.958946e-01
  2.789754e+01    7.985201e-01
  2.792929e+01    7.878933e-01
  2.796104e+01    7.798116e-01
  2.799279e+01    7.569096e-01
  2.802454e+01    7.648185e-01
  2.805630e+01    7.739574e-01
  2.808805e+01    7.684025e-01
  2.811980e+01    7.380022e-01
  2.815155e+01    7.733868e-01
  2.818330e+01    7.743607e-01
  2.821505e+01    7.669675e-01
  2.824680e+01    7.571800e-01
  2.827855e+01    7.765927e-01
  2.831030e+01    7.776622e-01
  2.834206e+01    7.637615e-01
  2.837381e+01    7.635910e-01
  2.840556e+01    7.487465e-01
  2.843731e+01    7.476945e-01
  2.846906e+01    7.587609e-01
  2.850081e+01    7.419796e-01
  2.853256e+01    7.203799e-01
  2.856431e+01    7.466409e-01
  2.859606e+01    7.316841e-01
  2.862782e+01    7.410797e-01
  2.865957e+01    7.375293e-01
  2.869132e+01    7.581514e-01
  2.872307e+01    7.299821e-01
  2.875482e+01    7.279255e-01
  2.878657e+01    7.331020e-01
  2.881832e+01    7.301829e-01
  2.885007e+01    7.267713e-01
  2.888183e+01    7.431245e-01
  2.891358e+01    7.491631e-01
  2.894533e+01    7.050460e-01
  2.897708e+01    7.289572e-01
  2.900883e+01    7.045434e-01
  2.904058e+01    7.379292e-01
  2.907233e+01    7.198204e-01
  2.910408e+01    7.345036e-01
  2.913583e+01    7.174910e-01
  2.916759e+01    7.359585e-01
  2.919934e+01    7.307509e-01
  2.923109e+01    7.407199e-01
  2.926284e+01    7.297389e-01
  2.929459e+01    7.293284e-01
  2.932634e+01    7.042652e-01
  2.935809e+01    7.281832e-01
  2.938984e+01    6.957206e-01
  2.942159e+01    7.278156e-01
  2.945335e+01    7.392548e-01
  2.948510e+01    7.058877e-01
  2.951685e+01    7.165411e-01
  2.954860e+01    7.149896e-01
  2.958035e+01    6.982101e-01
  2.961210e+01    7.171202e-01
  2.964385e+01    7.171613e-01
  2.967560e+01    7.046552e-01
  2.970736e+01    7.093410e-01
  2.973911e+01    7.024119e-01
  2.977086e+01    6.976991e-01
  2.980261e+01    7.281356e-01
  2.983436e+01    7.018712e-01
  2.986611e+01    7.077315e-01
  2.989786e+01    6.829144e-01
  2.992961e+01    6.985361e-01
  2.996136e+01    7.122159e-01
  2.999312e+01    7.273929e-01
  3.002487e+01    7.120430e-01
  3.005662e+01    7.496334e-01
  3.008837e+01    7.417171e-01
  3.012012e+01    7.046657e-01
  3.015187e+01    7.106362e-01
  3.018362e+01    7.090782e-01
  3.021537e+01    7.009143e-01
  3.024712e+01    7.262777e-01
  3.027888e+01    7.171732e-01
  3.031063e+01    6.950925e-01
  3.034238e+01    7.066521e-01
  3.037413e+01    7.007260e-01
  3.040588e+01    7.183819e-01
  3.043763e+01    7.288926e-01
  3.046938e+01    6.989837e-01
  3.050113e+01    7.036772e-01
  3.053288e+01    7.094636e-01
  3.056464e+01    7.326209e-01
  3.059639e+01    7.058287e-01
  3.062814e+01    6.902459e-01
  3.065989e+01    6.974120e-01
  3.069164e+01    6.948121e-01
  3.072339e+01    7.057832e-01
  3.075514e+01    7.103671e-01
  3.078689e+01    7.133600e-01
  3.081865e+01    7.086300e-01
  3.085040e+01    6.979080e-01
  3.088215e+01    7.008663e-01
  3.091390e+01    7.176588e-01
  3.094565e+01    6.970904e-01
  3.097740e+01    7.129497e-01
  3.100915e+01    7.124172e-01
  3.104090e+01    7.113082e-01
  3.107265e+01    7.076882e-01
  3.110441e+01    7.202053e-01
  3.113616e+01    7.153172e-01
  3.116791e+01    7.133383e-01
  3.119966e+01    7.129063e-01
  3.123141e+01    7.410463e-01
  3.126316e+01    7.296438e-01
  3.129491e+01    7.549222e-01
  3.132666e+01    7.352031e-01
  3.135841e+01    7.299755e-01
  3.139017e+01    7.558407e-01
  3.142192e+01    7.277701e-01
  3.145367e+01    7.466897e-01
  3.148542e+01    7.650094e-01
  3.151717e+01    7.582103e-01
  3.154892e+01    7.662660e-01
  3.158067e+01    7.973621e-01
  3.161242e+01    7.855287e-01
  3.164418e+01    8.291005e-01
  3.167593e+01    8.971032e-01
  3.170768e+01    9.429769e-01
  3.173943e+01    1.037254e+00
  3.177118e+01    1.163048e+00
  3.180293e+01    1.363486e+00
  3.183468e+01    1.596453e+00
  3.186643e+01    1.899332e+00
  3.189818e+01    2.202922e+00
  3.192994e+01    2.277900e+00
  3.196169e+01    2.114255e+00
  3.199344e+01    1.771808e+00
  3.202519e+01    1.440817e+00
  3.205694e+01    1.232105e+00
  3.208869e+01    1.047695e+00
  3.212044e+01    9.525528e-01
  3.215219e+01    8.823768e-01
  3.218394e+01    8.429197e-01
  3.221570e+01    8.057497e-01
  3.224745e+01    8.011748e-01
  3.227920e+01    7.725360e-01
  3.231095e+01    7.574427e-01
  3.234270e+01    7.564779e-01
  3.237445e+01    7.432392e-01
  3.240620e+01    7.120404e-01
  3.243795e+01    7.036663e-01
  3.246970e+01    7.113946e-01
  3.250146e+01    7.200186e-01
  3.253321e+01    7.392179e-01
  3.254908e+01    7.160963e-01