File: XRD/2024-07-27_002_Ru-CGO-ex_Activtation_ramp_000002_data_000156.dat
# == pyFAI calibration ==
# Distance Sample to Detector: 0.4 m
# PONI: 9.750e-02, 1.135e-01 m
# Rotations: -0.000175 0.000000 -0.000000 rad
#
# == Fit2d calibration ==
# Distance Sample-beamCenter: 400.000 mm
# Center: x=1514.000, y=1300.000 pix
# Tilt: 0.010 deg  TiltPlanRot: 0.010 deg
#
# Detector Detector	 Spline= None	 PixelSize= 7.500e-05, 7.500e-05 m
#    Detector has a mask: False
#    Detector has a dark current: False
#    detector has a flat field: False
#
# Wavelength: 6.888e-11 m
# Mask applied: user provided
# Dark current applied: False
# Flat field applied: False
# Polarization factor: 0.99
# Normalization factor: 1.0
# --> /home/myspot/data/2024_07_Rosario/Ru-CGO-ex/2024-07-27_002_Ru-CGO-ex_Activtation_ramp_000002_data_000156.dat
#       q_nm^-1             I
  2.003187e-02    0.000000e+00
  5.178302e-02    1.896245e-01
  8.353417e-02    7.878944e-02
  1.152853e-01    8.964861e-02
  1.470365e-01    3.849993e-02
  1.787876e-01    3.923429e-02
  2.105388e-01    3.720579e-02
  2.422899e-01    8.584212e-03
  2.740411e-01    5.190238e-02
  3.057922e-01    3.151140e-02
  3.375433e-01    2.533131e-02
  3.692945e-01    9.793037e-03
  4.010456e-01    6.977468e-02
  4.327968e-01    2.307091e-02
  4.645479e-01    3.313419e-02
  4.962991e-01    3.039241e-02
  5.280502e-01    2.187251e-02
  5.598014e-01    3.951595e-02
  5.915525e-01    5.114968e-02
  6.233037e-01    1.086845e-02
  6.550548e-01    3.596805e-02
  6.868060e-01    3.062577e-02
  7.185571e-01    5.455980e-02
  7.503083e-01    4.733034e-02
  7.820594e-01    1.065998e-01
  8.138106e-01    1.876608e-01
  8.455617e-01    2.767223e-01
  8.773129e-01    4.102787e-01
  9.090640e-01    5.009699e-01
  9.408152e-01    7.188655e-01
  9.725663e-01    8.698295e-01
  1.004317e+00    1.042053e+00
  1.036069e+00    1.227774e+00
  1.067820e+00    1.329987e+00
  1.099571e+00    1.470186e+00
  1.131322e+00    1.478456e+00
  1.163073e+00    1.413782e+00
  1.194824e+00    1.655430e+00
  1.226575e+00    2.110569e+00
  1.258327e+00    2.298802e+00
  1.290078e+00    2.383863e+00
  1.321829e+00    2.576911e+00
  1.353580e+00    2.426436e+00
  1.385331e+00    2.668753e+00
  1.417082e+00    2.645956e+00
  1.448834e+00    2.706924e+00
  1.480585e+00    2.806321e+00
  1.512336e+00    2.729126e+00
  1.544087e+00    2.890288e+00
  1.575838e+00    2.859117e+00
  1.607589e+00    2.889688e+00
  1.639340e+00    2.814222e+00
  1.671092e+00    2.802225e+00
  1.702843e+00    2.809193e+00
  1.734594e+00    2.777725e+00
  1.766345e+00    2.819746e+00
  1.798096e+00    2.678277e+00
  1.829847e+00    2.774259e+00
  1.861598e+00    2.856362e+00
  1.893350e+00    2.685589e+00
  1.925101e+00    2.661085e+00
  1.956852e+00    2.782654e+00
  1.988603e+00    2.849296e+00
  2.020354e+00    2.669864e+00
  2.052105e+00    2.721323e+00
  2.083856e+00    2.748337e+00
  2.115608e+00    2.768845e+00
  2.147359e+00    2.593282e+00
  2.179110e+00    2.875881e+00
  2.210861e+00    2.730217e+00
  2.242612e+00    2.734158e+00
  2.274363e+00    2.739599e+00
  2.306115e+00    2.797093e+00
  2.337866e+00    2.779953e+00
  2.369617e+00    2.710336e+00
  2.401368e+00    2.720971e+00
  2.433119e+00    2.773254e+00
  2.464870e+00    2.689044e+00
  2.496621e+00    2.803453e+00
  2.528373e+00    2.789786e+00
  2.560124e+00    2.769164e+00
  2.591875e+00    2.756190e+00
  2.623626e+00    2.869893e+00
  2.655377e+00    2.872523e+00
  2.687128e+00    2.813505e+00
  2.718879e+00    2.827708e+00
  2.750631e+00    2.725133e+00
  2.782382e+00    2.833733e+00
  2.814133e+00    2.879027e+00
  2.845884e+00    2.891897e+00
  2.877635e+00    2.888896e+00
  2.909386e+00    2.914693e+00
  2.941137e+00    2.813126e+00
  2.972889e+00    2.889058e+00
  3.004640e+00    2.859906e+00
  3.036391e+00    2.927974e+00
  3.068142e+00    2.891468e+00
  3.099893e+00    2.860419e+00
  3.131644e+00    2.876173e+00
  3.163395e+00    2.844635e+00
  3.195147e+00    2.958147e+00
  3.226898e+00    2.907076e+00
  3.258649e+00    2.912444e+00
  3.290400e+00    3.073284e+00
  3.322151e+00    2.998853e+00
  3.353902e+00    2.974898e+00
  3.385654e+00    2.958125e+00
  3.417405e+00    2.851835e+00
  3.449156e+00    3.006308e+00
  3.480907e+00    2.954539e+00
  3.512658e+00    2.888849e+00
  3.544409e+00    2.947774e+00
  3.576160e+00    2.982814e+00
  3.607912e+00    3.034292e+00
  3.639663e+00    3.032580e+00
  3.671414e+00    3.040461e+00
  3.703165e+00    3.008930e+00
  3.734916e+00    3.032211e+00
  3.766667e+00    2.880241e+00
  3.798418e+00    3.001257e+00
  3.830170e+00    2.994088e+00
  3.861921e+00    3.001183e+00
  3.893672e+00    3.076499e+00
  3.925423e+00    3.058029e+00
  3.957174e+00    3.024200e+00
  3.988925e+00    3.060404e+00
  4.020676e+00    3.029605e+00
  4.052428e+00    3.036675e+00
  4.084179e+00    3.038678e+00
  4.115930e+00    2.955766e+00
  4.147681e+00    2.958692e+00
  4.179432e+00    3.035091e+00
  4.211183e+00    3.007909e+00
  4.242935e+00    3.121097e+00
  4.274686e+00    3.030726e+00
  4.306437e+00    3.112038e+00
  4.338188e+00    3.041890e+00
  4.369939e+00    3.090986e+00
  4.401690e+00    3.047635e+00
  4.433441e+00    3.075897e+00
  4.465193e+00    3.085428e+00
  4.496944e+00    3.038771e+00
  4.528695e+00    3.188855e+00
  4.560446e+00    3.038981e+00
  4.592197e+00    3.125558e+00
  4.623948e+00    3.190955e+00
  4.655699e+00    3.087593e+00
  4.687451e+00    3.105641e+00
  4.719202e+00    3.133692e+00
  4.750953e+00    3.137370e+00
  4.782704e+00    3.148666e+00
  4.814455e+00    3.091160e+00
  4.846206e+00    3.123565e+00
  4.877957e+00    3.098541e+00
  4.909709e+00    3.048236e+00
  4.941460e+00    3.238493e+00
  4.973211e+00    3.131313e+00
  5.004962e+00    3.100048e+00
  5.036713e+00    3.216503e+00
  5.068464e+00    3.057591e+00
  5.100216e+00    3.212820e+00
  5.131967e+00    3.152478e+00
  5.163718e+00    3.092401e+00
  5.195469e+00    3.176841e+00
  5.227220e+00    3.150572e+00
  5.258971e+00    3.135011e+00
  5.290722e+00    3.158455e+00
  5.322474e+00    3.118081e+00
  5.354225e+00    3.096712e+00
  5.385976e+00    3.152655e+00
  5.417727e+00    3.113645e+00
  5.449478e+00    3.136240e+00
  5.481229e+00    3.039923e+00
  5.512980e+00    3.120693e+00
  5.544732e+00    3.034636e+00
  5.576483e+00    3.137919e+00
  5.608234e+00    3.106236e+00
  5.639985e+00    3.104629e+00
  5.671736e+00    3.179079e+00
  5.703487e+00    3.100116e+00
  5.735238e+00    3.063551e+00
  5.766990e+00    3.029814e+00
  5.798741e+00    3.059583e+00
  5.830492e+00    3.127923e+00
  5.862243e+00    3.001229e+00
  5.893994e+00    3.027454e+00
  5.925745e+00    3.094553e+00
  5.957497e+00    2.951538e+00
  5.989248e+00    3.070288e+00
  6.020999e+00    3.085723e+00
  6.052750e+00    3.179718e+00
  6.084501e+00    3.109584e+00
  6.116252e+00    3.161834e+00
  6.148003e+00    3.058042e+00
  6.179755e+00    3.072470e+00
  6.211506e+00    3.118733e+00
  6.243257e+00    3.071490e+00
  6.275008e+00    3.102710e+00
  6.306759e+00    3.055903e+00
  6.338510e+00    3.084287e+00
  6.370261e+00    3.118484e+00
  6.402013e+00    3.026514e+00
  6.433764e+00    3.059943e+00
  6.465515e+00    3.120426e+00
  6.497266e+00    2.960736e+00
  6.529017e+00    3.078214e+00
  6.560768e+00    2.956541e+00
  6.592519e+00    3.017398e+00
  6.624271e+00    2.996716e+00
  6.656022e+00    3.036464e+00
  6.687773e+00    3.010375e+00
  6.719524e+00    2.992315e+00
  6.751275e+00    2.989815e+00
  6.783026e+00    3.069916e+00
  6.814777e+00    3.090585e+00
  6.846529e+00    3.055439e+00
  6.878280e+00    3.022138e+00
  6.910031e+00    2.984762e+00
  6.941782e+00    3.049278e+00
  6.973533e+00    3.051653e+00
  7.005284e+00    3.044941e+00
  7.037036e+00    3.028018e+00
  7.068787e+00    3.052960e+00
  7.100538e+00    2.962355e+00
  7.132289e+00    3.031264e+00
  7.164040e+00    2.985100e+00
  7.195791e+00    3.045561e+00
  7.227542e+00    3.016568e+00
  7.259294e+00    3.079617e+00
  7.291045e+00    3.025112e+00
  7.322796e+00    2.999823e+00
  7.354547e+00    2.977560e+00
  7.386298e+00    3.096604e+00
  7.418049e+00    3.062616e+00
  7.449800e+00    3.009109e+00
  7.481552e+00    2.989695e+00
  7.513303e+00    3.047296e+00
  7.545054e+00    2.923824e+00
  7.576805e+00    2.938565e+00
  7.608556e+00    2.983409e+00
  7.640307e+00    2.936184e+00
  7.672058e+00    2.926176e+00
  7.703810e+00    2.972451e+00
  7.735561e+00    2.966258e+00
  7.767312e+00    2.955357e+00
  7.799063e+00    2.913492e+00
  7.830814e+00    2.965649e+00
  7.862565e+00    2.957608e+00
  7.894317e+00    2.977035e+00
  7.926068e+00    2.913858e+00
  7.957819e+00    2.952221e+00
  7.989570e+00    2.943579e+00
  8.021321e+00    2.894397e+00
  8.053072e+00    2.947700e+00
  8.084823e+00    2.958253e+00
  8.116575e+00    2.930494e+00
  8.148326e+00    2.984357e+00
  8.180077e+00    2.945810e+00
  8.211828e+00    3.002935e+00
  8.243579e+00    2.967301e+00
  8.275330e+00    2.958133e+00
  8.307081e+00    2.899381e+00
  8.338833e+00    2.920807e+00
  8.370584e+00    2.856829e+00
  8.402335e+00    2.885988e+00
  8.434086e+00    2.909889e+00
  8.465837e+00    2.944449e+00
  8.497588e+00    2.913799e+00
  8.529339e+00    2.863398e+00
  8.561091e+00    2.804853e+00
  8.592842e+00    2.870947e+00
  8.624593e+00    2.895904e+00
  8.656344e+00    2.811399e+00
  8.688095e+00    2.897157e+00
  8.719846e+00    2.842947e+00
  8.751598e+00    2.892049e+00
  8.783349e+00    2.939892e+00
  8.815100e+00    2.915653e+00
  8.846851e+00    2.845526e+00
  8.878602e+00    2.796975e+00
  8.910353e+00    2.851681e+00
  8.942104e+00    2.819780e+00
  8.973856e+00    2.824133e+00
  9.005607e+00    2.827640e+00
  9.037358e+00    2.771091e+00
  9.069109e+00    2.791383e+00
  9.100860e+00    2.806383e+00
  9.132611e+00    2.865904e+00
  9.164362e+00    2.781707e+00
  9.196114e+00    2.885207e+00
  9.227865e+00    2.783347e+00
  9.259616e+00    2.780471e+00
  9.291367e+00    2.822871e+00
  9.323118e+00    2.767946e+00
  9.354869e+00    2.821457e+00
  9.386620e+00    2.751105e+00
  9.418372e+00    2.811719e+00
  9.450123e+00    2.799313e+00
  9.481874e+00    2.746323e+00
  9.513625e+00    2.718542e+00
  9.545376e+00    2.795716e+00
  9.577127e+00    2.754547e+00
  9.608878e+00    2.814169e+00
  9.640630e+00    2.794182e+00
  9.672381e+00    2.747282e+00
  9.704132e+00    2.731063e+00
  9.735883e+00    2.715940e+00
  9.767634e+00    2.678117e+00
  9.799385e+00    2.765237e+00
  9.831137e+00    2.747032e+00
  9.862888e+00    2.734300e+00
  9.894639e+00    2.700769e+00
  9.926390e+00    2.683024e+00
  9.958141e+00    2.692836e+00
  9.989892e+00    2.674646e+00
  1.002164e+01    2.684585e+00
  1.005339e+01    2.661760e+00
  1.008515e+01    2.661011e+00
  1.011690e+01    2.595631e+00
  1.014865e+01    2.697974e+00
  1.018040e+01    2.659394e+00
  1.021215e+01    2.656811e+00
  1.024390e+01    2.644058e+00
  1.027565e+01    2.598056e+00
  1.030740e+01    2.646667e+00
  1.033915e+01    2.658032e+00
  1.037091e+01    2.606422e+00
  1.040266e+01    2.650558e+00
  1.043441e+01    2.580560e+00
  1.046616e+01    2.566815e+00
  1.049791e+01    2.686686e+00
  1.052966e+01    2.634862e+00
  1.056141e+01    2.543838e+00
  1.059316e+01    2.561047e+00
  1.062492e+01    2.579662e+00
  1.065667e+01    2.566769e+00
  1.068842e+01    2.568789e+00
  1.072017e+01    2.546992e+00
  1.075192e+01    2.560376e+00
  1.078367e+01    2.593349e+00
  1.081542e+01    2.544846e+00
  1.084717e+01    2.494321e+00
  1.087892e+01    2.607887e+00
  1.091068e+01    2.537498e+00
  1.094243e+01    2.480872e+00
  1.097418e+01    2.478376e+00
  1.100593e+01    2.536599e+00
  1.103768e+01    2.504545e+00
  1.106943e+01    2.475570e+00
  1.110118e+01    2.526440e+00
  1.113293e+01    2.483730e+00
  1.116468e+01    2.456401e+00
  1.119644e+01    2.498182e+00
  1.122819e+01    2.458912e+00
  1.125994e+01    2.419206e+00
  1.129169e+01    2.467466e+00
  1.132344e+01    2.430583e+00
  1.135519e+01    2.416471e+00
  1.138694e+01    2.413314e+00
  1.141869e+01    2.463501e+00
  1.145045e+01    2.454162e+00
  1.148220e+01    2.402567e+00
  1.151395e+01    2.416919e+00
  1.154570e+01    2.428590e+00
  1.157745e+01    2.414820e+00
  1.160920e+01    2.369395e+00
  1.164095e+01    2.416936e+00
  1.167270e+01    2.373395e+00
  1.170445e+01    2.406049e+00
  1.173621e+01    2.387355e+00
  1.176796e+01    2.375051e+00
  1.179971e+01    2.361115e+00
  1.183146e+01    2.412779e+00
  1.186321e+01    2.392374e+00
  1.189496e+01    2.357928e+00
  1.192671e+01    2.382025e+00
  1.195846e+01    2.341561e+00
  1.199021e+01    2.368903e+00
  1.202197e+01    2.337960e+00
  1.205372e+01    2.309931e+00
  1.208547e+01    2.365159e+00
  1.211722e+01    2.353170e+00
  1.214897e+01    2.309078e+00
  1.218072e+01    2.298683e+00
  1.221247e+01    2.318968e+00
  1.224422e+01    2.337529e+00
  1.227597e+01    2.275441e+00
  1.230773e+01    2.314396e+00
  1.233948e+01    2.354008e+00
  1.237123e+01    2.360164e+00
  1.240298e+01    2.316862e+00
  1.243473e+01    2.314487e+00
  1.246648e+01    2.350394e+00
  1.249823e+01    2.316701e+00
  1.252998e+01    2.336125e+00
  1.256174e+01    2.396715e+00
  1.259349e+01    2.400501e+00
  1.262524e+01    2.372440e+00
  1.265699e+01    2.402079e+00
  1.268874e+01    2.498123e+00
  1.272049e+01    2.480103e+00
  1.275224e+01    2.516670e+00
  1.278399e+01    2.592941e+00
  1.281574e+01    2.748853e+00
  1.284750e+01    2.866652e+00
  1.287925e+01    3.016708e+00
  1.291100e+01    3.325114e+00
  1.294275e+01    3.701894e+00
  1.297450e+01    4.385938e+00
  1.300625e+01    5.463747e+00
  1.303800e+01    7.203878e+00
  1.306975e+01    9.597650e+00
  1.310150e+01    1.216184e+01
  1.313326e+01    1.437193e+01
  1.316501e+01    1.622270e+01
  1.319676e+01    1.612740e+01
  1.322851e+01    1.293636e+01
  1.326026e+01    9.385577e+00
  1.329201e+01    6.752248e+00
  1.332376e+01    5.211691e+00
  1.335551e+01    4.232202e+00
  1.338727e+01    3.612029e+00
  1.341902e+01    3.238946e+00
  1.345077e+01    2.929053e+00
  1.348252e+01    2.698368e+00
  1.351427e+01    2.584242e+00
  1.354602e+01    2.490478e+00
  1.357777e+01    2.375010e+00
  1.360952e+01    2.374351e+00
  1.364127e+01    2.310873e+00
  1.367303e+01    2.255912e+00
  1.370478e+01    2.204776e+00
  1.373653e+01    2.181731e+00
  1.376828e+01    2.163853e+00
  1.380003e+01    2.222333e+00
  1.383178e+01    2.162204e+00
  1.386353e+01    2.130238e+00
  1.389528e+01    2.100591e+00
  1.392703e+01    2.102351e+00
  1.395879e+01    2.117651e+00
  1.399054e+01    2.058896e+00
  1.402229e+01    2.081183e+00
  1.405404e+01    2.051630e+00
  1.408579e+01    2.027950e+00
  1.411754e+01    2.040596e+00
  1.414929e+01    2.010958e+00
  1.418104e+01    2.014258e+00
  1.421279e+01    1.962428e+00
  1.424455e+01    1.991299e+00
  1.427630e+01    1.976232e+00
  1.430805e+01    1.977748e+00
  1.433980e+01    1.922486e+00
  1.437155e+01    1.971677e+00
  1.440330e+01    1.928924e+00
  1.443505e+01    1.989032e+00
  1.446680e+01    1.933580e+00
  1.449856e+01    1.897414e+00
  1.453031e+01    1.955418e+00
  1.456206e+01    1.929616e+00
  1.459381e+01    1.977523e+00
  1.462556e+01    1.932649e+00
  1.465731e+01    1.923819e+00
  1.468906e+01    1.895086e+00
  1.472081e+01    1.924298e+00
  1.475256e+01    1.921670e+00
  1.478432e+01    1.950912e+00
  1.481607e+01    1.892491e+00
  1.484782e+01    1.956681e+00
  1.487957e+01    1.957591e+00
  1.491132e+01    1.973572e+00
  1.494307e+01    1.995632e+00
  1.497482e+01    2.116149e+00
  1.500657e+01    2.161593e+00
  1.503832e+01    2.275805e+00
  1.507008e+01    2.542571e+00
  1.510183e+01    2.900281e+00
  1.513358e+01    3.467945e+00
  1.516533e+01    4.185938e+00
  1.519708e+01    4.933388e+00
  1.522883e+01    5.401845e+00
  1.526058e+01    5.726643e+00
  1.529233e+01    5.388054e+00
  1.532409e+01    4.647267e+00
  1.535584e+01    3.631558e+00
  1.538759e+01    2.972024e+00
  1.541934e+01    2.520510e+00
  1.545109e+01    2.275283e+00
  1.548284e+01    2.109569e+00
  1.551459e+01    2.004498e+00
  1.554634e+01    1.874160e+00
  1.557809e+01    1.894908e+00
  1.560985e+01    1.828778e+00
  1.564160e+01    1.781737e+00
  1.567335e+01    1.759013e+00
  1.570510e+01    1.736691e+00
  1.573685e+01    1.745751e+00
  1.576860e+01    1.710068e+00
  1.580035e+01    1.713275e+00
  1.583210e+01    1.702208e+00
  1.586385e+01    1.637716e+00
  1.589561e+01    1.651286e+00
  1.592736e+01    1.632861e+00
  1.595911e+01    1.626719e+00
  1.599086e+01    1.582802e+00
  1.602261e+01    1.635205e+00
  1.605436e+01    1.628954e+00
  1.608611e+01    1.600977e+00
  1.611786e+01    1.576935e+00
  1.614961e+01    1.575787e+00
  1.618137e+01    1.571913e+00
  1.621312e+01    1.523244e+00
  1.624487e+01    1.583315e+00
  1.627662e+01    1.572407e+00
  1.630837e+01    1.542353e+00
  1.634012e+01    1.551440e+00
  1.637187e+01    1.543664e+00
  1.640362e+01    1.543685e+00
  1.643538e+01    1.540807e+00
  1.646713e+01    1.528701e+00
  1.649888e+01    1.540267e+00
  1.653063e+01    1.519079e+00
  1.656238e+01    1.544577e+00
  1.659413e+01    1.485985e+00
  1.662588e+01    1.506393e+00
  1.665763e+01    1.517169e+00
  1.668938e+01    1.515443e+00
  1.672114e+01    1.483085e+00
  1.675289e+01    1.492929e+00
  1.678464e+01    1.462858e+00
  1.681639e+01    1.456549e+00
  1.684814e+01    1.457382e+00
  1.687989e+01    1.453630e+00
  1.691164e+01    1.459795e+00
  1.694339e+01    1.456384e+00
  1.697514e+01    1.448917e+00
  1.700690e+01    1.443523e+00
  1.703865e+01    1.451584e+00
  1.707040e+01    1.419891e+00
  1.710215e+01    1.447210e+00
  1.713390e+01    1.431150e+00
  1.716565e+01    1.428694e+00
  1.719740e+01    1.411310e+00
  1.722915e+01    1.399195e+00
  1.726091e+01    1.426051e+00
  1.729266e+01    1.400792e+00
  1.732441e+01    1.387711e+00
  1.735616e+01    1.391948e+00
  1.738791e+01    1.390258e+00
  1.741966e+01    1.402946e+00
  1.745141e+01    1.382801e+00
  1.748316e+01    1.364814e+00
  1.751491e+01    1.378627e+00
  1.754667e+01    1.397742e+00
  1.757842e+01    1.360971e+00
  1.761017e+01    1.364086e+00
  1.764192e+01    1.308054e+00
  1.767367e+01    1.349233e+00
  1.770542e+01    1.336677e+00
  1.773717e+01    1.336890e+00
  1.776892e+01    1.353378e+00
  1.780067e+01    1.316358e+00
  1.783243e+01    1.306093e+00
  1.786418e+01    1.314158e+00
  1.789593e+01    1.312799e+00
  1.792768e+01    1.355321e+00
  1.795943e+01    1.309050e+00
  1.799118e+01    1.293862e+00
  1.802293e+01    1.306014e+00
  1.805468e+01    1.296606e+00
  1.808643e+01    1.304025e+00
  1.811819e+01    1.278450e+00
  1.814994e+01    1.317728e+00
  1.818169e+01    1.298452e+00
  1.821344e+01    1.264503e+00
  1.824519e+01    1.268243e+00
  1.827694e+01    1.267951e+00
  1.830869e+01    1.262821e+00
  1.834044e+01    1.297755e+00
  1.837220e+01    1.263230e+00
  1.840395e+01    1.303560e+00
  1.843570e+01    1.262364e+00
  1.846745e+01    1.286158e+00
  1.849920e+01    1.245526e+00
  1.853095e+01    1.250950e+00
  1.856270e+01    1.244261e+00
  1.859445e+01    1.253066e+00
  1.862620e+01    1.235004e+00
  1.865796e+01    1.218804e+00
  1.868971e+01    1.234455e+00
  1.872146e+01    1.213334e+00
  1.875321e+01    1.228374e+00
  1.878496e+01    1.236462e+00
  1.881671e+01    1.221768e+00
  1.884846e+01    1.221339e+00
  1.888021e+01    1.205512e+00
  1.891196e+01    1.235353e+00
  1.894372e+01    1.209707e+00
  1.897547e+01    1.212069e+00
  1.900722e+01    1.191086e+00
  1.903897e+01    1.202742e+00
  1.907072e+01    1.207288e+00
  1.910247e+01    1.198750e+00
  1.913422e+01    1.194805e+00
  1.916597e+01    1.178967e+00
  1.919773e+01    1.174652e+00
  1.922948e+01    1.141977e+00
  1.926123e+01    1.169458e+00
  1.929298e+01    1.199270e+00
  1.932473e+01    1.168380e+00
  1.935648e+01    1.206325e+00
  1.938823e+01    1.140730e+00
  1.941998e+01    1.171587e+00
  1.945173e+01    1.176876e+00
  1.948349e+01    1.149011e+00
  1.951524e+01    1.177329e+00
  1.954699e+01    1.161799e+00
  1.957874e+01    1.155568e+00
  1.961049e+01    1.152801e+00
  1.964224e+01    1.163420e+00
  1.967399e+01    1.152859e+00
  1.970574e+01    1.148933e+00
  1.973749e+01    1.114928e+00
  1.976925e+01    1.122126e+00
  1.980100e+01    1.146860e+00
  1.983275e+01    1.153206e+00
  1.986450e+01    1.126426e+00
  1.989625e+01    1.109513e+00
  1.992800e+01    1.115379e+00
  1.995975e+01    1.115638e+00
  1.999150e+01    1.118229e+00
  2.002325e+01    1.132512e+00
  2.005501e+01    1.117846e+00
  2.008676e+01    1.110640e+00
  2.011851e+01    1.124786e+00
  2.015026e+01    1.100578e+00
  2.018201e+01    1.109188e+00
  2.021376e+01    1.118975e+00
  2.024551e+01    1.117112e+00
  2.027726e+01    1.114526e+00
  2.030902e+01    1.097575e+00
  2.034077e+01    1.104773e+00
  2.037252e+01    1.108917e+00
  2.040427e+01    1.115301e+00
  2.043602e+01    1.103007e+00
  2.046777e+01    1.075930e+00
  2.049952e+01    1.113110e+00
  2.053127e+01    1.094909e+00
  2.056302e+01    1.074664e+00
  2.059478e+01    1.093716e+00
  2.062653e+01    1.070314e+00
  2.065828e+01    1.105679e+00
  2.069003e+01    1.076676e+00
  2.072178e+01    1.056870e+00
  2.075353e+01    1.094168e+00
  2.078528e+01    1.063005e+00
  2.081703e+01    1.081941e+00
  2.084878e+01    1.095253e+00
  2.088054e+01    1.104648e+00
  2.091229e+01    1.071300e+00
  2.094404e+01    1.086089e+00
  2.097579e+01    1.073329e+00
  2.100754e+01    1.087194e+00
  2.103929e+01    1.096970e+00
  2.107104e+01    1.107511e+00
  2.110279e+01    1.068771e+00
  2.113455e+01    1.078175e+00
  2.116630e+01    1.094253e+00
  2.119805e+01    1.091256e+00
  2.122980e+01    1.103128e+00
  2.126155e+01    1.125255e+00
  2.129330e+01    1.131170e+00
  2.132505e+01    1.145394e+00
  2.135680e+01    1.127618e+00
  2.138855e+01    1.151886e+00
  2.142031e+01    1.212384e+00
  2.145206e+01    1.229871e+00
  2.148381e+01    1.222491e+00
  2.151556e+01    1.314468e+00
  2.154731e+01    1.356186e+00
  2.157906e+01    1.447972e+00
  2.161081e+01    1.630832e+00
  2.164256e+01    1.813885e+00
  2.167431e+01    2.108541e+00
  2.170607e+01    2.585163e+00
  2.173782e+01    3.337990e+00
  2.176957e+01    4.287831e+00
  2.180132e+01    5.556083e+00
  2.183307e+01    6.986217e+00
  2.186482e+01    8.314805e+00
  2.189657e+01    9.122244e+00
  2.192832e+01    8.540597e+00
  2.196007e+01    6.837165e+00
  2.199183e+01    4.917113e+00
  2.202358e+01    3.628032e+00
  2.205533e+01    2.812364e+00
  2.208708e+01    2.241505e+00
  2.211883e+01    1.915635e+00
  2.215058e+01    1.666357e+00
  2.218233e+01    1.484230e+00
  2.221408e+01    1.367659e+00
  2.224584e+01    1.279728e+00
  2.227759e+01    1.185612e+00
  2.230934e+01    1.189251e+00
  2.234109e+01    1.114461e+00
  2.237284e+01    1.102577e+00
  2.240459e+01    1.080698e+00
  2.243634e+01    1.055439e+00
  2.246809e+01    1.012245e+00
  2.249984e+01    1.032697e+00
  2.253160e+01    1.005507e+00
  2.256335e+01    1.025172e+00
  2.259510e+01    1.001157e+00
  2.262685e+01    9.658988e-01
  2.265860e+01    9.722172e-01
  2.269035e+01    9.687881e-01
  2.272210e+01    9.487622e-01
  2.275385e+01    9.232929e-01
  2.278560e+01    9.439602e-01
  2.281736e+01    9.166024e-01
  2.284911e+01    9.142051e-01
  2.288086e+01    9.093328e-01
  2.291261e+01    9.143444e-01
  2.294436e+01    9.054456e-01
  2.297611e+01    9.002873e-01
  2.300786e+01    8.920651e-01
  2.303961e+01    9.054226e-01
  2.307137e+01    8.861217e-01
  2.310312e+01    9.064097e-01
  2.313487e+01    8.853629e-01
  2.316662e+01    8.822250e-01
  2.319837e+01    8.846857e-01
  2.323012e+01    8.507032e-01
  2.326187e+01    8.721052e-01
  2.329362e+01    8.381169e-01
  2.332537e+01    8.609897e-01
  2.335713e+01    8.698924e-01
  2.338888e+01    8.450869e-01
  2.342063e+01    8.611085e-01
  2.345238e+01    8.591692e-01
  2.348413e+01    8.716381e-01
  2.351588e+01    8.411778e-01
  2.354763e+01    8.383681e-01
  2.357938e+01    8.510267e-01
  2.361113e+01    8.602145e-01
  2.364289e+01    8.333748e-01
  2.367464e+01    8.200871e-01
  2.370639e+01    8.183435e-01
  2.373814e+01    8.219249e-01
  2.376989e+01    8.237182e-01
  2.380164e+01    8.161885e-01
  2.383339e+01    8.145012e-01
  2.386514e+01    8.153049e-01
  2.389689e+01    8.049819e-01
  2.392865e+01    8.197576e-01
  2.396040e+01    7.902896e-01
  2.399215e+01    8.142018e-01
  2.402390e+01    7.969246e-01
  2.405565e+01    8.138908e-01
  2.408740e+01    8.080156e-01
  2.411915e+01    7.708302e-01
  2.415090e+01    7.912091e-01
  2.418266e+01    7.828235e-01
  2.421441e+01    7.766062e-01
  2.424616e+01    7.706863e-01
  2.427791e+01    7.914487e-01
  2.430966e+01    7.873609e-01
  2.434141e+01    7.952624e-01
  2.437316e+01    8.124117e-01
  2.440491e+01    7.952606e-01
  2.443666e+01    7.810747e-01
  2.446842e+01    7.889223e-01
  2.450017e+01    7.870772e-01
  2.453192e+01    7.927163e-01
  2.456367e+01    7.873996e-01
  2.459542e+01    7.921544e-01
  2.462717e+01    7.954041e-01
  2.465892e+01    7.896615e-01
  2.469067e+01    8.094461e-01
  2.472242e+01    7.941921e-01
  2.475418e+01    8.064242e-01
  2.478593e+01    7.912369e-01
  2.481768e+01    7.856621e-01
  2.484943e+01    8.041268e-01
  2.488118e+01    7.864681e-01
  2.491293e+01    8.044211e-01
  2.494468e+01    8.111887e-01
  2.497643e+01    7.934473e-01
  2.500819e+01    7.839044e-01
  2.503994e+01    8.076696e-01
  2.507169e+01    8.204269e-01
  2.510344e+01    8.192167e-01
  2.513519e+01    7.980658e-01
  2.516694e+01    8.301638e-01
  2.519869e+01    8.416578e-01
  2.523044e+01    8.494201e-01
  2.526219e+01    8.606691e-01
  2.529395e+01    8.679921e-01
  2.532570e+01    8.650064e-01
  2.535745e+01    8.778235e-01
  2.538920e+01    9.132636e-01
  2.542095e+01    9.175248e-01
  2.545270e+01    9.232644e-01
  2.548445e+01    9.701869e-01
  2.551620e+01    9.786811e-01
  2.554795e+01    1.011066e+00
  2.557971e+01    1.088240e+00
  2.561146e+01    1.129807e+00
  2.564321e+01    1.215950e+00
  2.567496e+01    1.335351e+00
  2.570671e+01    1.502792e+00
  2.573846e+01    1.754743e+00
  2.577021e+01    2.126657e+00
  2.580196e+01    2.686354e+00
  2.583371e+01    3.437860e+00
  2.586547e+01    4.522559e+00
  2.589722e+01    5.750656e+00
  2.592897e+01    6.809811e+00
  2.596072e+01    7.416370e+00
  2.599247e+01    6.950624e+00
  2.602422e+01    5.667827e+00
  2.605597e+01    4.195282e+00
  2.608772e+01    3.065141e+00
  2.611948e+01    2.416949e+00
  2.615123e+01    1.945143e+00
  2.618298e+01    1.644119e+00
  2.621473e+01    1.426229e+00
  2.624648e+01    1.274773e+00
  2.627823e+01    1.207610e+00
  2.630998e+01    1.108683e+00
  2.634173e+01    1.063745e+00
  2.637348e+01    1.010225e+00
  2.640524e+01    9.677025e-01
  2.643699e+01    9.818223e-01
  2.646874e+01    9.359641e-01
  2.650049e+01    9.262938e-01
  2.653224e+01    8.999494e-01
  2.656399e+01    8.929324e-01
  2.659574e+01    9.070753e-01
  2.662749e+01    9.098528e-01
  2.665924e+01    8.982422e-01
  2.669100e+01    8.861029e-01
  2.672275e+01    8.854155e-01
  2.675450e+01    8.707740e-01
  2.678625e+01    8.891777e-01
  2.681800e+01    8.839431e-01
  2.684975e+01    8.880058e-01
  2.688150e+01    9.258258e-01
  2.691325e+01    9.059092e-01
  2.694501e+01    9.473327e-01
  2.697676e+01    9.845592e-01
  2.700851e+01    1.016476e+00
  2.704026e+01    1.119113e+00
  2.707201e+01    1.240219e+00
  2.710376e+01    1.416027e+00
  2.713551e+01    1.648372e+00
  2.716726e+01    1.914769e+00
  2.719901e+01    2.115866e+00
  2.723077e+01    2.227763e+00
  2.726252e+01    2.081531e+00
  2.729427e+01    1.713293e+00
  2.732602e+01    1.436464e+00
  2.735777e+01    1.257362e+00
  2.738952e+01    1.126298e+00
  2.742127e+01    1.022129e+00
  2.745302e+01    9.661491e-01
  2.748477e+01    9.136204e-01
  2.751653e+01    8.878982e-01
  2.754828e+01    8.627859e-01
  2.758003e+01    8.649175e-01
  2.761178e+01    8.631337e-01
  2.764353e+01    8.355545e-01
  2.767528e+01    8.107730e-01
  2.770703e+01    8.294521e-01
  2.773878e+01    8.032166e-01
  2.777054e+01    7.987308e-01
  2.780229e+01    8.142048e-01
  2.783404e+01    8.105398e-01
  2.786579e+01    8.068370e-01
  2.789754e+01    8.171805e-01
  2.792929e+01    7.914822e-01
  2.796104e+01    7.891585e-01
  2.799279e+01    8.002521e-01
  2.802454e+01    7.641301e-01
  2.805630e+01    7.670790e-01
  2.808805e+01    7.888362e-01
  2.811980e+01    7.816998e-01
  2.815155e+01    7.777641e-01
  2.818330e+01    7.757699e-01
  2.821505e+01    7.540501e-01
  2.824680e+01    7.642576e-01
  2.827855e+01    7.683758e-01
  2.831030e+01    7.624823e-01
  2.834206e+01    7.734753e-01
  2.837381e+01    7.552835e-01
  2.840556e+01    7.458450e-01
  2.843731e+01    7.638767e-01
  2.846906e+01    7.617390e-01
  2.850081e+01    7.522058e-01
  2.853256e+01    7.572730e-01
  2.856431e+01    7.553833e-01
  2.859606e+01    7.604231e-01
  2.862782e+01    7.582328e-01
  2.865957e+01    7.729022e-01
  2.869132e+01    7.317477e-01
  2.872307e+01    7.498953e-01
  2.875482e+01    7.372309e-01
  2.878657e+01    7.617644e-01
  2.881832e+01    7.397961e-01
  2.885007e+01    7.335916e-01
  2.888183e+01    7.480369e-01
  2.891358e+01    7.505609e-01
  2.894533e+01    7.265705e-01
  2.897708e+01    7.268443e-01
  2.900883e+01    7.295573e-01
  2.904058e+01    7.436873e-01
  2.907233e+01    7.465513e-01
  2.910408e+01    7.494285e-01
  2.913583e+01    7.446398e-01
  2.916759e+01    7.102180e-01
  2.919934e+01    7.411450e-01
  2.923109e+01    7.267438e-01
  2.926284e+01    7.171887e-01
  2.929459e+01    7.297434e-01
  2.932634e+01    7.328982e-01
  2.935809e+01    7.253222e-01
  2.938984e+01    7.279749e-01
  2.942159e+01    7.251540e-01
  2.945335e+01    7.261926e-01
  2.948510e+01    7.345316e-01
  2.951685e+01    7.479801e-01
  2.954860e+01    7.195859e-01
  2.958035e+01    7.382356e-01
  2.961210e+01    7.211857e-01
  2.964385e+01    7.262598e-01
  2.967560e+01    6.903342e-01
  2.970736e+01    7.196071e-01
  2.973911e+01    7.203285e-01
  2.977086e+01    7.192729e-01
  2.980261e+01    7.303821e-01
  2.983436e+01    7.430072e-01
  2.986611e+01    7.092308e-01
  2.989786e+01    7.278711e-01
  2.992961e+01    7.328163e-01
  2.996136e+01    7.128647e-01
  2.999312e+01    7.023909e-01
  3.002487e+01    7.104561e-01
  3.005662e+01    7.436247e-01
  3.008837e+01    7.319553e-01
  3.012012e+01    7.336359e-01
  3.015187e+01    6.961870e-01
  3.018362e+01    7.111700e-01
  3.021537e+01    6.885777e-01
  3.024712e+01    7.221555e-01
  3.027888e+01    7.067180e-01
  3.031063e+01    7.078296e-01
  3.034238e+01    7.151974e-01
  3.037413e+01    6.878099e-01
  3.040588e+01    7.102721e-01
  3.043763e+01    6.921182e-01
  3.046938e+01    7.134478e-01
  3.050113e+01    7.206133e-01
  3.053288e+01    7.137581e-01
  3.056464e+01    6.968272e-01
  3.059639e+01    7.062650e-01
  3.062814e+01    7.079524e-01
  3.065989e+01    7.259536e-01
  3.069164e+01    7.161373e-01
  3.072339e+01    7.096923e-01
  3.075514e+01    7.319085e-01
  3.078689e+01    7.185469e-01
  3.081865e+01    7.246326e-01
  3.085040e+01    7.186784e-01
  3.088215e+01    6.970473e-01
  3.091390e+01    7.374908e-01
  3.094565e+01    7.220008e-01
  3.097740e+01    7.136346e-01
  3.100915e+01    7.197350e-01
  3.104090e+01    7.264089e-01
  3.107265e+01    7.246301e-01
  3.110441e+01    7.118848e-01
  3.113616e+01    7.367227e-01
  3.116791e+01    7.036698e-01
  3.119966e+01    7.172063e-01
  3.123141e+01    7.172560e-01
  3.126316e+01    7.231323e-01
  3.129491e+01    7.307145e-01
  3.132666e+01    7.279875e-01
  3.135841e+01    7.374855e-01
  3.139017e+01    7.524686e-01
  3.142192e+01    7.529918e-01
  3.145367e+01    7.777665e-01
  3.148542e+01    7.663436e-01
  3.151717e+01    7.489098e-01
  3.154892e+01    8.064112e-01
  3.158067e+01    8.153929e-01
  3.161242e+01    8.236979e-01
  3.164418e+01    8.562344e-01
  3.167593e+01    9.072855e-01
  3.170768e+01    9.917095e-01
  3.173943e+01    1.057615e+00
  3.177118e+01    1.243573e+00
  3.180293e+01    1.401098e+00
  3.183468e+01    1.702562e+00
  3.186643e+01    1.955531e+00
  3.189818e+01    2.150574e+00
  3.192994e+01    2.161749e+00
  3.196169e+01    1.927744e+00
  3.199344e+01    1.584525e+00
  3.202519e+01    1.361402e+00
  3.205694e+01    1.134837e+00
  3.208869e+01    9.999877e-01
  3.212044e+01    9.240482e-01
  3.215219e+01    8.738054e-01
  3.218394e+01    8.375650e-01
  3.221570e+01    7.940558e-01
  3.224745e+01    7.793658e-01
  3.227920e+01    7.773784e-01
  3.231095e+01    7.556855e-01
  3.234270e+01    7.374166e-01
  3.237445e+01    7.185931e-01
  3.240620e+01    7.136355e-01
  3.243795e+01    7.595845e-01
  3.246970e+01    7.175499e-01
  3.250146e+01    7.199323e-01
  3.253321e+01    7.143349e-01
  3.254908e+01    7.207035e-01