File: XRD/2024-07-27_002_Ru-CGO-ex_Activtation_ramp_000002_data_000163.dat
# == pyFAI calibration ==
# Distance Sample to Detector: 0.4 m
# PONI: 9.750e-02, 1.135e-01 m
# Rotations: -0.000175 0.000000 -0.000000 rad
#
# == Fit2d calibration ==
# Distance Sample-beamCenter: 400.000 mm
# Center: x=1514.000, y=1300.000 pix
# Tilt: 0.010 deg  TiltPlanRot: 0.010 deg
#
# Detector Detector	 Spline= None	 PixelSize= 7.500e-05, 7.500e-05 m
#    Detector has a mask: False
#    Detector has a dark current: False
#    detector has a flat field: False
#
# Wavelength: 6.888e-11 m
# Mask applied: user provided
# Dark current applied: False
# Flat field applied: False
# Polarization factor: 0.99
# Normalization factor: 1.0
# --> /home/myspot/data/2024_07_Rosario/Ru-CGO-ex/2024-07-27_002_Ru-CGO-ex_Activtation_ramp_000002_data_000163.dat
#       q_nm^-1             I
  2.003187e-02    0.000000e+00
  5.178302e-02    2.154082e-01
  8.353417e-02    1.142522e-01
  1.152853e-01    0.000000e+00
  1.470365e-01    2.845511e-02
  1.787876e-01    2.631532e-02
  2.105388e-01    4.878016e-03
  2.422899e-01    1.171320e-02
  2.740411e-01    1.944818e-02
  3.057922e-01    3.082825e-02
  3.375433e-01    4.117119e-02
  3.692945e-01    7.505522e-02
  4.010456e-01    1.584561e-02
  4.327968e-01    3.156130e-02
  4.645479e-01    3.371419e-02
  4.962991e-01    2.794052e-02
  5.280502e-01    3.550784e-02
  5.598014e-01    6.169802e-02
  5.915525e-01    4.563983e-02
  6.233037e-01    4.059443e-02
  6.550548e-01    4.328387e-02
  6.868060e-01    3.675336e-02
  7.185571e-01    4.425167e-02
  7.503083e-01    3.360850e-02
  7.820594e-01    1.111174e-01
  8.138106e-01    1.755765e-01
  8.455617e-01    2.479216e-01
  8.773129e-01    3.976121e-01
  9.090640e-01    6.503782e-01
  9.408152e-01    6.475019e-01
  9.725663e-01    9.170987e-01
  1.004317e+00    1.009217e+00
  1.036069e+00    1.123548e+00
  1.067820e+00    1.292302e+00
  1.099571e+00    1.387267e+00
  1.131322e+00    1.508605e+00
  1.163073e+00    1.439964e+00
  1.194824e+00    1.553712e+00
  1.226575e+00    2.011556e+00
  1.258327e+00    2.175768e+00
  1.290078e+00    2.225866e+00
  1.321829e+00    2.509221e+00
  1.353580e+00    2.674911e+00
  1.385331e+00    2.488290e+00
  1.417082e+00    2.690011e+00
  1.448834e+00    2.702777e+00
  1.480585e+00    2.763601e+00
  1.512336e+00    2.820174e+00
  1.544087e+00    2.922662e+00
  1.575838e+00    2.882773e+00
  1.607589e+00    2.890216e+00
  1.639340e+00    2.883425e+00
  1.671092e+00    2.926291e+00
  1.702843e+00    2.788103e+00
  1.734594e+00    2.753245e+00
  1.766345e+00    2.616170e+00
  1.798096e+00    2.690572e+00
  1.829847e+00    2.664875e+00
  1.861598e+00    2.650781e+00
  1.893350e+00    2.739597e+00
  1.925101e+00    2.743562e+00
  1.956852e+00    2.758266e+00
  1.988603e+00    2.658840e+00
  2.020354e+00    2.660836e+00
  2.052105e+00    2.624312e+00
  2.083856e+00    2.679530e+00
  2.115608e+00    2.759700e+00
  2.147359e+00    2.643708e+00
  2.179110e+00    2.695930e+00
  2.210861e+00    2.845469e+00
  2.242612e+00    2.676690e+00
  2.274363e+00    2.730875e+00
  2.306115e+00    2.663356e+00
  2.337866e+00    2.739606e+00
  2.369617e+00    2.740245e+00
  2.401368e+00    2.711015e+00
  2.433119e+00    2.798722e+00
  2.464870e+00    2.790995e+00
  2.496621e+00    2.755198e+00
  2.528373e+00    2.751037e+00
  2.560124e+00    2.959392e+00
  2.591875e+00    2.720630e+00
  2.623626e+00    2.689478e+00
  2.655377e+00    2.766080e+00
  2.687128e+00    2.857868e+00
  2.718879e+00    2.638839e+00
  2.750631e+00    2.800636e+00
  2.782382e+00    2.903957e+00
  2.814133e+00    2.810630e+00
  2.845884e+00    2.757791e+00
  2.877635e+00    2.826924e+00
  2.909386e+00    2.917321e+00
  2.941137e+00    2.906378e+00
  2.972889e+00    2.794338e+00
  3.004640e+00    2.767072e+00
  3.036391e+00    2.878539e+00
  3.068142e+00    2.885853e+00
  3.099893e+00    2.855047e+00
  3.131644e+00    2.927290e+00
  3.163395e+00    2.884567e+00
  3.195147e+00    2.930009e+00
  3.226898e+00    3.021847e+00
  3.258649e+00    2.916392e+00
  3.290400e+00    2.924524e+00
  3.322151e+00    3.014437e+00
  3.353902e+00    2.957473e+00
  3.385654e+00    2.949153e+00
  3.417405e+00    2.950928e+00
  3.449156e+00    2.954215e+00
  3.480907e+00    2.977944e+00
  3.512658e+00    3.081002e+00
  3.544409e+00    3.014347e+00
  3.576160e+00    2.915075e+00
  3.607912e+00    2.985314e+00
  3.639663e+00    2.928193e+00
  3.671414e+00    3.004495e+00
  3.703165e+00    2.971958e+00
  3.734916e+00    2.995441e+00
  3.766667e+00    3.067017e+00
  3.798418e+00    3.011099e+00
  3.830170e+00    3.061778e+00
  3.861921e+00    3.090654e+00
  3.893672e+00    3.097577e+00
  3.925423e+00    3.081741e+00
  3.957174e+00    3.016049e+00
  3.988925e+00    2.999454e+00
  4.020676e+00    3.031494e+00
  4.052428e+00    2.976874e+00
  4.084179e+00    3.040913e+00
  4.115930e+00    3.037402e+00
  4.147681e+00    3.001425e+00
  4.179432e+00    3.124909e+00
  4.211183e+00    3.058327e+00
  4.242935e+00    3.047619e+00
  4.274686e+00    3.103414e+00
  4.306437e+00    3.097672e+00
  4.338188e+00    3.083153e+00
  4.369939e+00    3.103267e+00
  4.401690e+00    2.962013e+00
  4.433441e+00    3.072133e+00
  4.465193e+00    3.027149e+00
  4.496944e+00    3.109094e+00
  4.528695e+00    3.049967e+00
  4.560446e+00    3.094582e+00
  4.592197e+00    3.140399e+00
  4.623948e+00    3.117488e+00
  4.655699e+00    3.126203e+00
  4.687451e+00    3.068604e+00
  4.719202e+00    3.144586e+00
  4.750953e+00    3.253297e+00
  4.782704e+00    3.202218e+00
  4.814455e+00    3.050610e+00
  4.846206e+00    3.154512e+00
  4.877957e+00    3.123133e+00
  4.909709e+00    3.110196e+00
  4.941460e+00    3.048606e+00
  4.973211e+00    3.158140e+00
  5.004962e+00    3.204983e+00
  5.036713e+00    3.187118e+00
  5.068464e+00    3.115743e+00
  5.100216e+00    3.136732e+00
  5.131967e+00    3.203214e+00
  5.163718e+00    3.093446e+00
  5.195469e+00    3.139957e+00
  5.227220e+00    3.187747e+00
  5.258971e+00    3.184586e+00
  5.290722e+00    3.185122e+00
  5.322474e+00    3.159265e+00
  5.354225e+00    3.235283e+00
  5.385976e+00    3.178596e+00
  5.417727e+00    3.114588e+00
  5.449478e+00    3.057588e+00
  5.481229e+00    3.035398e+00
  5.512980e+00    3.026882e+00
  5.544732e+00    3.091538e+00
  5.576483e+00    3.159311e+00
  5.608234e+00    3.065724e+00
  5.639985e+00    3.152134e+00
  5.671736e+00    3.078072e+00
  5.703487e+00    3.059344e+00
  5.735238e+00    3.012753e+00
  5.766990e+00    3.141603e+00
  5.798741e+00    3.072038e+00
  5.830492e+00    3.096217e+00
  5.862243e+00    3.039559e+00
  5.893994e+00    3.064456e+00
  5.925745e+00    3.122833e+00
  5.957497e+00    3.064316e+00
  5.989248e+00    3.013199e+00
  6.020999e+00    3.047768e+00
  6.052750e+00    3.087513e+00
  6.084501e+00    3.008138e+00
  6.116252e+00    3.061686e+00
  6.148003e+00    3.139786e+00
  6.179755e+00    3.102560e+00
  6.211506e+00    3.065956e+00
  6.243257e+00    3.085666e+00
  6.275008e+00    2.995167e+00
  6.306759e+00    3.028808e+00
  6.338510e+00    3.066130e+00
  6.370261e+00    3.033689e+00
  6.402013e+00    3.044873e+00
  6.433764e+00    3.030254e+00
  6.465515e+00    3.072075e+00
  6.497266e+00    3.097171e+00
  6.529017e+00    3.041576e+00
  6.560768e+00    3.024561e+00
  6.592519e+00    3.109106e+00
  6.624271e+00    3.140769e+00
  6.656022e+00    2.976455e+00
  6.687773e+00    3.066928e+00
  6.719524e+00    3.027310e+00
  6.751275e+00    3.002542e+00
  6.783026e+00    3.104037e+00
  6.814777e+00    2.988664e+00
  6.846529e+00    3.030065e+00
  6.878280e+00    3.073128e+00
  6.910031e+00    3.098887e+00
  6.941782e+00    3.010747e+00
  6.973533e+00    3.070391e+00
  7.005284e+00    3.008115e+00
  7.037036e+00    3.009874e+00
  7.068787e+00    3.021720e+00
  7.100538e+00    3.031787e+00
  7.132289e+00    3.064933e+00
  7.164040e+00    3.022704e+00
  7.195791e+00    2.997316e+00
  7.227542e+00    3.042904e+00
  7.259294e+00    3.010422e+00
  7.291045e+00    2.953813e+00
  7.322796e+00    3.024950e+00
  7.354547e+00    3.019872e+00
  7.386298e+00    3.012896e+00
  7.418049e+00    3.044037e+00
  7.449800e+00    2.992657e+00
  7.481552e+00    2.951200e+00
  7.513303e+00    2.946276e+00
  7.545054e+00    2.970095e+00
  7.576805e+00    3.019960e+00
  7.608556e+00    2.969122e+00
  7.640307e+00    2.938137e+00
  7.672058e+00    2.979326e+00
  7.703810e+00    3.005254e+00
  7.735561e+00    2.960902e+00
  7.767312e+00    2.903044e+00
  7.799063e+00    2.949986e+00
  7.830814e+00    2.952355e+00
  7.862565e+00    2.995223e+00
  7.894317e+00    2.888765e+00
  7.926068e+00    2.903560e+00
  7.957819e+00    2.918038e+00
  7.989570e+00    2.908481e+00
  8.021321e+00    2.932063e+00
  8.053072e+00    2.901143e+00
  8.084823e+00    2.860503e+00
  8.116575e+00    2.996726e+00
  8.148326e+00    2.968908e+00
  8.180077e+00    3.002322e+00
  8.211828e+00    2.919002e+00
  8.243579e+00    2.953101e+00
  8.275330e+00    2.924784e+00
  8.307081e+00    2.971605e+00
  8.338833e+00    2.863229e+00
  8.370584e+00    2.920976e+00
  8.402335e+00    3.001534e+00
  8.434086e+00    2.923266e+00
  8.465837e+00    2.904491e+00
  8.497588e+00    2.929680e+00
  8.529339e+00    2.924298e+00
  8.561091e+00    2.820146e+00
  8.592842e+00    2.883270e+00
  8.624593e+00    2.869739e+00
  8.656344e+00    2.810601e+00
  8.688095e+00    2.847478e+00
  8.719846e+00    2.833096e+00
  8.751598e+00    2.843268e+00
  8.783349e+00    2.815355e+00
  8.815100e+00    2.899283e+00
  8.846851e+00    2.868935e+00
  8.878602e+00    2.873249e+00
  8.910353e+00    2.823221e+00
  8.942104e+00    2.844386e+00
  8.973856e+00    2.865048e+00
  9.005607e+00    2.845289e+00
  9.037358e+00    2.805212e+00
  9.069109e+00    2.749830e+00
  9.100860e+00    2.836069e+00
  9.132611e+00    2.847184e+00
  9.164362e+00    2.839312e+00
  9.196114e+00    2.774371e+00
  9.227865e+00    2.757506e+00
  9.259616e+00    2.799973e+00
  9.291367e+00    2.764573e+00
  9.323118e+00    2.822401e+00
  9.354869e+00    2.814323e+00
  9.386620e+00    2.733897e+00
  9.418372e+00    2.795944e+00
  9.450123e+00    2.748080e+00
  9.481874e+00    2.746568e+00
  9.513625e+00    2.801954e+00
  9.545376e+00    2.797036e+00
  9.577127e+00    2.810679e+00
  9.608878e+00    2.728570e+00
  9.640630e+00    2.808546e+00
  9.672381e+00    2.750194e+00
  9.704132e+00    2.699373e+00
  9.735883e+00    2.744402e+00
  9.767634e+00    2.729880e+00
  9.799385e+00    2.721739e+00
  9.831137e+00    2.759591e+00
  9.862888e+00    2.707231e+00
  9.894639e+00    2.711309e+00
  9.926390e+00    2.676712e+00
  9.958141e+00    2.671846e+00
  9.989892e+00    2.681862e+00
  1.002164e+01    2.666258e+00
  1.005339e+01    2.662541e+00
  1.008515e+01    2.595742e+00
  1.011690e+01    2.690830e+00
  1.014865e+01    2.655535e+00
  1.018040e+01    2.612708e+00
  1.021215e+01    2.655953e+00
  1.024390e+01    2.628616e+00
  1.027565e+01    2.652392e+00
  1.030740e+01    2.667646e+00
  1.033915e+01    2.591659e+00
  1.037091e+01    2.596998e+00
  1.040266e+01    2.605168e+00
  1.043441e+01    2.581156e+00
  1.046616e+01    2.655002e+00
  1.049791e+01    2.616758e+00
  1.052966e+01    2.605844e+00
  1.056141e+01    2.594606e+00
  1.059316e+01    2.598929e+00
  1.062492e+01    2.574441e+00
  1.065667e+01    2.532758e+00
  1.068842e+01    2.544563e+00
  1.072017e+01    2.518476e+00
  1.075192e+01    2.501088e+00
  1.078367e+01    2.519637e+00
  1.081542e+01    2.524995e+00
  1.084717e+01    2.565862e+00
  1.087892e+01    2.532049e+00
  1.091068e+01    2.557132e+00
  1.094243e+01    2.533008e+00
  1.097418e+01    2.529845e+00
  1.100593e+01    2.517020e+00
  1.103768e+01    2.512208e+00
  1.106943e+01    2.508195e+00
  1.110118e+01    2.546480e+00
  1.113293e+01    2.493035e+00
  1.116468e+01    2.494382e+00
  1.119644e+01    2.477404e+00
  1.122819e+01    2.460015e+00
  1.125994e+01    2.477950e+00
  1.129169e+01    2.477116e+00
  1.132344e+01    2.423754e+00
  1.135519e+01    2.406268e+00
  1.138694e+01    2.387844e+00
  1.141869e+01    2.425892e+00
  1.145045e+01    2.448942e+00
  1.148220e+01    2.369714e+00
  1.151395e+01    2.425833e+00
  1.154570e+01    2.419427e+00
  1.157745e+01    2.391354e+00
  1.160920e+01    2.414706e+00
  1.164095e+01    2.364537e+00
  1.167270e+01    2.358129e+00
  1.170445e+01    2.357187e+00
  1.173621e+01    2.331301e+00
  1.176796e+01    2.391390e+00
  1.179971e+01    2.384478e+00
  1.183146e+01    2.359547e+00
  1.186321e+01    2.378040e+00
  1.189496e+01    2.346270e+00
  1.192671e+01    2.349633e+00
  1.195846e+01    2.346873e+00
  1.199021e+01    2.364423e+00
  1.202197e+01    2.315179e+00
  1.205372e+01    2.369012e+00
  1.208547e+01    2.350216e+00
  1.211722e+01    2.338736e+00
  1.214897e+01    2.298669e+00
  1.218072e+01    2.360313e+00
  1.221247e+01    2.321231e+00
  1.224422e+01    2.301439e+00
  1.227597e+01    2.361755e+00
  1.230773e+01    2.324593e+00
  1.233948e+01    2.364412e+00
  1.237123e+01    2.321940e+00
  1.240298e+01    2.349471e+00
  1.243473e+01    2.311892e+00
  1.246648e+01    2.410765e+00
  1.249823e+01    2.394514e+00
  1.252998e+01    2.393321e+00
  1.256174e+01    2.347157e+00
  1.259349e+01    2.391732e+00
  1.262524e+01    2.413870e+00
  1.265699e+01    2.428310e+00
  1.268874e+01    2.436452e+00
  1.272049e+01    2.491777e+00
  1.275224e+01    2.519282e+00
  1.278399e+01    2.621679e+00
  1.281574e+01    2.725832e+00
  1.284750e+01    2.838002e+00
  1.287925e+01    3.052337e+00
  1.291100e+01    3.318454e+00
  1.294275e+01    3.737847e+00
  1.297450e+01    4.429373e+00
  1.300625e+01    5.545784e+00
  1.303800e+01    7.291338e+00
  1.306975e+01    9.701880e+00
  1.310150e+01    1.220747e+01
  1.313326e+01    1.440693e+01
  1.316501e+01    1.611017e+01
  1.319676e+01    1.592558e+01
  1.322851e+01    1.260702e+01
  1.326026e+01    9.036356e+00
  1.329201e+01    6.435574e+00
  1.332376e+01    5.164137e+00
  1.335551e+01    4.176580e+00
  1.338727e+01    3.572977e+00
  1.341902e+01    3.137575e+00
  1.345077e+01    2.930879e+00
  1.348252e+01    2.730292e+00
  1.351427e+01    2.590959e+00
  1.354602e+01    2.470008e+00
  1.357777e+01    2.423553e+00
  1.360952e+01    2.365024e+00
  1.364127e+01    2.341116e+00
  1.367303e+01    2.256241e+00
  1.370478e+01    2.223235e+00
  1.373653e+01    2.210872e+00
  1.376828e+01    2.160973e+00
  1.380003e+01    2.187929e+00
  1.383178e+01    2.135419e+00
  1.386353e+01    2.151934e+00
  1.389528e+01    2.053680e+00
  1.392703e+01    2.078283e+00
  1.395879e+01    2.056691e+00
  1.399054e+01    2.049170e+00
  1.402229e+01    2.004739e+00
  1.405404e+01    2.028002e+00
  1.408579e+01    2.049506e+00
  1.411754e+01    2.010170e+00
  1.414929e+01    1.985630e+00
  1.418104e+01    2.005090e+00
  1.421279e+01    1.979067e+00
  1.424455e+01    1.945401e+00
  1.427630e+01    1.949016e+00
  1.430805e+01    1.976871e+00
  1.433980e+01    1.970066e+00
  1.437155e+01    1.965298e+00
  1.440330e+01    1.967741e+00
  1.443505e+01    1.961293e+00
  1.446680e+01    1.894393e+00
  1.449856e+01    1.902905e+00
  1.453031e+01    1.932020e+00
  1.456206e+01    1.950750e+00
  1.459381e+01    1.899332e+00
  1.462556e+01    1.919628e+00
  1.465731e+01    1.914286e+00
  1.468906e+01    1.918678e+00
  1.472081e+01    1.885385e+00
  1.475256e+01    1.904502e+00
  1.478432e+01    1.939614e+00
  1.481607e+01    1.870994e+00
  1.484782e+01    1.929618e+00
  1.487957e+01    1.960857e+00
  1.491132e+01    1.960381e+00
  1.494307e+01    2.080438e+00
  1.497482e+01    2.104105e+00
  1.500657e+01    2.110618e+00
  1.503832e+01    2.343891e+00
  1.507008e+01    2.529661e+00
  1.510183e+01    2.919169e+00
  1.513358e+01    3.489450e+00
  1.516533e+01    4.240681e+00
  1.519708e+01    4.860989e+00
  1.522883e+01    5.355243e+00
  1.526058e+01    5.594351e+00
  1.529233e+01    5.391471e+00
  1.532409e+01    4.487759e+00
  1.535584e+01    3.558962e+00
  1.538759e+01    2.898604e+00
  1.541934e+01    2.509910e+00
  1.545109e+01    2.267951e+00
  1.548284e+01    2.079360e+00
  1.551459e+01    1.965530e+00
  1.554634e+01    1.877618e+00
  1.557809e+01    1.864984e+00
  1.560985e+01    1.799848e+00
  1.564160e+01    1.776562e+00
  1.567335e+01    1.792250e+00
  1.570510e+01    1.724291e+00
  1.573685e+01    1.693931e+00
  1.576860e+01    1.689077e+00
  1.580035e+01    1.715391e+00
  1.583210e+01    1.680524e+00
  1.586385e+01    1.683466e+00
  1.589561e+01    1.627014e+00
  1.592736e+01    1.630002e+00
  1.595911e+01    1.625310e+00
  1.599086e+01    1.647777e+00
  1.602261e+01    1.620267e+00
  1.605436e+01    1.621649e+00
  1.608611e+01    1.569267e+00
  1.611786e+01    1.608241e+00
  1.614961e+01    1.599866e+00
  1.618137e+01    1.613504e+00
  1.621312e+01    1.604224e+00
  1.624487e+01    1.542073e+00
  1.627662e+01    1.555945e+00
  1.630837e+01    1.573106e+00
  1.634012e+01    1.508357e+00
  1.637187e+01    1.524122e+00
  1.640362e+01    1.542240e+00
  1.643538e+01    1.557951e+00
  1.646713e+01    1.506903e+00
  1.649888e+01    1.517418e+00
  1.653063e+01    1.534833e+00
  1.656238e+01    1.516314e+00
  1.659413e+01    1.516175e+00
  1.662588e+01    1.511824e+00
  1.665763e+01    1.492071e+00
  1.668938e+01    1.466257e+00
  1.672114e+01    1.507605e+00
  1.675289e+01    1.463784e+00
  1.678464e+01    1.468415e+00
  1.681639e+01    1.463385e+00
  1.684814e+01    1.466239e+00
  1.687989e+01    1.438154e+00
  1.691164e+01    1.480567e+00
  1.694339e+01    1.424155e+00
  1.697514e+01    1.453249e+00
  1.700690e+01    1.442688e+00
  1.703865e+01    1.435364e+00
  1.707040e+01    1.437167e+00
  1.710215e+01    1.436442e+00
  1.713390e+01    1.434273e+00
  1.716565e+01    1.375876e+00
  1.719740e+01    1.404286e+00
  1.722915e+01    1.414867e+00
  1.726091e+01    1.430877e+00
  1.729266e+01    1.391012e+00
  1.732441e+01    1.392435e+00
  1.735616e+01    1.393090e+00
  1.738791e+01    1.418260e+00
  1.741966e+01    1.377396e+00
  1.745141e+01    1.396319e+00
  1.748316e+01    1.381916e+00
  1.751491e+01    1.360988e+00
  1.754667e+01    1.378328e+00
  1.757842e+01    1.362257e+00
  1.761017e+01    1.362919e+00
  1.764192e+01    1.349233e+00
  1.767367e+01    1.352326e+00
  1.770542e+01    1.342421e+00
  1.773717e+01    1.344849e+00
  1.776892e+01    1.311300e+00
  1.780067e+01    1.320233e+00
  1.783243e+01    1.334533e+00
  1.786418e+01    1.311486e+00
  1.789593e+01    1.339455e+00
  1.792768e+01    1.329149e+00
  1.795943e+01    1.310166e+00
  1.799118e+01    1.297659e+00
  1.802293e+01    1.291463e+00
  1.805468e+01    1.310208e+00
  1.808643e+01    1.308623e+00
  1.811819e+01    1.286472e+00
  1.814994e+01    1.277365e+00
  1.818169e+01    1.283435e+00
  1.821344e+01    1.286158e+00
  1.824519e+01    1.280168e+00
  1.827694e+01    1.280545e+00
  1.830869e+01    1.284027e+00
  1.834044e+01    1.258270e+00
  1.837220e+01    1.257996e+00
  1.840395e+01    1.254771e+00
  1.843570e+01    1.270822e+00
  1.846745e+01    1.244655e+00
  1.849920e+01    1.267020e+00
  1.853095e+01    1.232273e+00
  1.856270e+01    1.235798e+00
  1.859445e+01    1.240277e+00
  1.862620e+01    1.231071e+00
  1.865796e+01    1.236422e+00
  1.868971e+01    1.224803e+00
  1.872146e+01    1.215765e+00
  1.875321e+01    1.246508e+00
  1.878496e+01    1.225179e+00
  1.881671e+01    1.209599e+00
  1.884846e+01    1.212510e+00
  1.888021e+01    1.220368e+00
  1.891196e+01    1.174921e+00
  1.894372e+01    1.195782e+00
  1.897547e+01    1.185446e+00
  1.900722e+01    1.192143e+00
  1.903897e+01    1.201222e+00
  1.907072e+01    1.182986e+00
  1.910247e+01    1.183116e+00
  1.913422e+01    1.216646e+00
  1.916597e+01    1.188912e+00
  1.919773e+01    1.202890e+00
  1.922948e+01    1.168916e+00
  1.926123e+01    1.190153e+00
  1.929298e+01    1.179415e+00
  1.932473e+01    1.215445e+00
  1.935648e+01    1.169921e+00
  1.938823e+01    1.175880e+00
  1.941998e+01    1.170402e+00
  1.945173e+01    1.178239e+00
  1.948349e+01    1.165038e+00
  1.951524e+01    1.155372e+00
  1.954699e+01    1.179013e+00
  1.957874e+01    1.148720e+00
  1.961049e+01    1.129261e+00
  1.964224e+01    1.148322e+00
  1.967399e+01    1.168186e+00
  1.970574e+01    1.124007e+00
  1.973749e+01    1.144565e+00
  1.976925e+01    1.135380e+00
  1.980100e+01    1.149729e+00
  1.983275e+01    1.144151e+00
  1.986450e+01    1.163408e+00
  1.989625e+01    1.138148e+00
  1.992800e+01    1.147367e+00
  1.995975e+01    1.105285e+00
  1.999150e+01    1.116123e+00
  2.002325e+01    1.127935e+00
  2.005501e+01    1.110118e+00
  2.008676e+01    1.117924e+00
  2.011851e+01    1.118215e+00
  2.015026e+01    1.126675e+00
  2.018201e+01    1.118817e+00
  2.021376e+01    1.121499e+00
  2.024551e+01    1.110253e+00
  2.027726e+01    1.095517e+00
  2.030902e+01    1.088757e+00
  2.034077e+01    1.092730e+00
  2.037252e+01    1.125499e+00
  2.040427e+01    1.088451e+00
  2.043602e+01    1.073278e+00
  2.046777e+01    1.083142e+00
  2.049952e+01    1.083926e+00
  2.053127e+01    1.103102e+00
  2.056302e+01    1.094420e+00
  2.059478e+01    1.083782e+00
  2.062653e+01    1.083443e+00
  2.065828e+01    1.066881e+00
  2.069003e+01    1.053325e+00
  2.072178e+01    1.095157e+00
  2.075353e+01    1.071581e+00
  2.078528e+01    1.053629e+00
  2.081703e+01    1.083432e+00
  2.084878e+01    1.100004e+00
  2.088054e+01    1.108373e+00
  2.091229e+01    1.096200e+00
  2.094404e+01    1.085590e+00
  2.097579e+01    1.072211e+00
  2.100754e+01    1.081757e+00
  2.103929e+01    1.079203e+00
  2.107104e+01    1.085567e+00
  2.110279e+01    1.079346e+00
  2.113455e+01    1.085093e+00
  2.116630e+01    1.087967e+00
  2.119805e+01    1.091412e+00
  2.122980e+01    1.072231e+00
  2.126155e+01    1.112633e+00
  2.129330e+01    1.101927e+00
  2.132505e+01    1.113035e+00
  2.135680e+01    1.113023e+00
  2.138855e+01    1.142166e+00
  2.142031e+01    1.150905e+00
  2.145206e+01    1.234091e+00
  2.148381e+01    1.260041e+00
  2.151556e+01    1.300154e+00
  2.154731e+01    1.370469e+00
  2.157906e+01    1.481203e+00
  2.161081e+01    1.603428e+00
  2.164256e+01    1.811377e+00
  2.167431e+01    2.146576e+00
  2.170607e+01    2.630458e+00
  2.173782e+01    3.405857e+00
  2.176957e+01    4.424898e+00
  2.180132e+01    5.623170e+00
  2.183307e+01    7.029923e+00
  2.186482e+01    8.341783e+00
  2.189657e+01    8.972895e+00
  2.192832e+01    8.414380e+00
  2.196007e+01    6.633940e+00
  2.199183e+01    4.854172e+00
  2.202358e+01    3.505833e+00
  2.205533e+01    2.707023e+00
  2.208708e+01    2.172074e+00
  2.211883e+01    1.857017e+00
  2.215058e+01    1.616785e+00
  2.218233e+01    1.497905e+00
  2.221408e+01    1.365757e+00
  2.224584e+01    1.290106e+00
  2.227759e+01    1.205095e+00
  2.230934e+01    1.173767e+00
  2.234109e+01    1.143440e+00
  2.237284e+01    1.091361e+00
  2.240459e+01    1.085146e+00
  2.243634e+01    1.048890e+00
  2.246809e+01    1.046716e+00
  2.249984e+01    9.989291e-01
  2.253160e+01    1.000731e+00
  2.256335e+01    9.796585e-01
  2.259510e+01    9.744853e-01
  2.262685e+01    9.769172e-01
  2.265860e+01    9.618692e-01
  2.269035e+01    9.354132e-01
  2.272210e+01    9.524069e-01
  2.275385e+01    9.477761e-01
  2.278560e+01    9.280547e-01
  2.281736e+01    9.196284e-01
  2.284911e+01    9.240994e-01
  2.288086e+01    9.135510e-01
  2.291261e+01    9.077462e-01
  2.294436e+01    9.171763e-01
  2.297611e+01    9.005941e-01
  2.300786e+01    9.173528e-01
  2.303961e+01    8.890413e-01
  2.307137e+01    8.708969e-01
  2.310312e+01    8.967191e-01
  2.313487e+01    8.687750e-01
  2.316662e+01    8.789941e-01
  2.319837e+01    8.695155e-01
  2.323012e+01    8.466766e-01
  2.326187e+01    8.748515e-01
  2.329362e+01    8.808420e-01
  2.332537e+01    8.654281e-01
  2.335713e+01    8.519949e-01
  2.338888e+01    8.537265e-01
  2.342063e+01    8.455123e-01
  2.345238e+01    8.562626e-01
  2.348413e+01    8.332789e-01
  2.351588e+01    8.339441e-01
  2.354763e+01    8.419748e-01
  2.357938e+01    8.512631e-01
  2.361113e+01    8.609530e-01
  2.364289e+01    8.484800e-01
  2.367464e+01    8.480194e-01
  2.370639e+01    8.226305e-01
  2.373814e+01    8.131403e-01
  2.376989e+01    8.118969e-01
  2.380164e+01    8.369195e-01
  2.383339e+01    7.933770e-01
  2.386514e+01    8.192913e-01
  2.389689e+01    8.098819e-01
  2.392865e+01    8.013387e-01
  2.396040e+01    7.906899e-01
  2.399215e+01    8.094282e-01
  2.402390e+01    7.842516e-01
  2.405565e+01    7.820005e-01
  2.408740e+01    7.688397e-01
  2.411915e+01    7.958861e-01
  2.415090e+01    8.037605e-01
  2.418266e+01    7.919818e-01
  2.421441e+01    7.716432e-01
  2.424616e+01    7.991026e-01
  2.427791e+01    8.033618e-01
  2.430966e+01    7.946361e-01
  2.434141e+01    7.814491e-01
  2.437316e+01    7.748852e-01
  2.440491e+01    7.782966e-01
  2.443666e+01    8.153363e-01
  2.446842e+01    7.960517e-01
  2.450017e+01    7.832000e-01
  2.453192e+01    8.007950e-01
  2.456367e+01    7.988753e-01
  2.459542e+01    7.742272e-01
  2.462717e+01    7.953088e-01
  2.465892e+01    7.914911e-01
  2.469067e+01    8.000832e-01
  2.472242e+01    7.999857e-01
  2.475418e+01    8.097706e-01
  2.478593e+01    7.846598e-01
  2.481768e+01    7.957510e-01
  2.484943e+01    8.033899e-01
  2.488118e+01    8.041164e-01
  2.491293e+01    8.014695e-01
  2.494468e+01    7.772596e-01
  2.497643e+01    7.811555e-01
  2.500819e+01    7.949714e-01
  2.503994e+01    8.209238e-01
  2.507169e+01    7.980329e-01
  2.510344e+01    8.096578e-01
  2.513519e+01    8.233190e-01
  2.516694e+01    8.196077e-01
  2.519869e+01    8.363500e-01
  2.523044e+01    8.267936e-01
  2.526219e+01    8.488249e-01
  2.529395e+01    8.512289e-01
  2.532570e+01    8.673257e-01
  2.535745e+01    8.595403e-01
  2.538920e+01    8.964093e-01
  2.542095e+01    9.162198e-01
  2.545270e+01    9.263185e-01
  2.548445e+01    9.477459e-01
  2.551620e+01    1.005005e+00
  2.554795e+01    1.020080e+00
  2.557971e+01    1.069647e+00
  2.561146e+01    1.123766e+00
  2.564321e+01    1.224223e+00
  2.567496e+01    1.340373e+00
  2.570671e+01    1.510574e+00
  2.573846e+01    1.792296e+00
  2.577021e+01    2.173373e+00
  2.580196e+01    2.751544e+00
  2.583371e+01    3.498019e+00
  2.586547e+01    4.640430e+00
  2.589722e+01    5.751184e+00
  2.592897e+01    6.776565e+00
  2.596072e+01    7.363268e+00
  2.599247e+01    6.767198e+00
  2.602422e+01    5.446350e+00
  2.605597e+01    4.013662e+00
  2.608772e+01    2.973540e+00
  2.611948e+01    2.314138e+00
  2.615123e+01    1.907415e+00
  2.618298e+01    1.587626e+00
  2.621473e+01    1.382130e+00
  2.624648e+01    1.243452e+00
  2.627823e+01    1.174503e+00
  2.630998e+01    1.092443e+00
  2.634173e+01    1.052042e+00
  2.637348e+01    1.005887e+00
  2.640524e+01    9.942756e-01
  2.643699e+01    9.517148e-01
  2.646874e+01    9.336738e-01
  2.650049e+01    9.193933e-01
  2.653224e+01    9.128151e-01
  2.656399e+01    9.013241e-01
  2.659574e+01    8.920088e-01
  2.662749e+01    8.758520e-01
  2.665924e+01    8.851132e-01
  2.669100e+01    8.795168e-01
  2.672275e+01    8.588325e-01
  2.675450e+01    8.953584e-01
  2.678625e+01    8.740919e-01
  2.681800e+01    8.996511e-01
  2.684975e+01    8.837184e-01
  2.688150e+01    8.920277e-01
  2.691325e+01    9.171890e-01
  2.694501e+01    9.540561e-01
  2.697676e+01    9.706480e-01
  2.700851e+01    1.015730e+00
  2.704026e+01    1.089743e+00
  2.707201e+01    1.203276e+00
  2.710376e+01    1.423651e+00
  2.713551e+01    1.632816e+00
  2.716726e+01    1.889672e+00
  2.719901e+01    2.139881e+00
  2.723077e+01    2.179083e+00
  2.726252e+01    1.988140e+00
  2.729427e+01    1.689168e+00
  2.732602e+01    1.415063e+00
  2.735777e+01    1.205587e+00
  2.738952e+01    1.091989e+00
  2.742127e+01    1.015312e+00
  2.745302e+01    9.493397e-01
  2.748477e+01    8.998078e-01
  2.751653e+01    8.805431e-01
  2.754828e+01    8.884090e-01
  2.758003e+01    8.465977e-01
  2.761178e+01    8.434392e-01
  2.764353e+01    8.517222e-01
  2.767528e+01    8.095843e-01
  2.770703e+01    8.302994e-01
  2.773878e+01    8.063868e-01
  2.777054e+01    8.231041e-01
  2.780229e+01    7.949166e-01
  2.783404e+01    7.781511e-01
  2.786579e+01    7.941351e-01
  2.789754e+01    7.942185e-01
  2.792929e+01    8.018936e-01
  2.796104e+01    7.764623e-01
  2.799279e+01    8.124262e-01
  2.802454e+01    7.776242e-01
  2.805630e+01    7.896147e-01
  2.808805e+01    7.860898e-01
  2.811980e+01    7.974155e-01
  2.815155e+01    7.490557e-01
  2.818330e+01    7.343060e-01
  2.821505e+01    7.650313e-01
  2.824680e+01    7.684193e-01
  2.827855e+01    7.586548e-01
  2.831030e+01    7.688654e-01
  2.834206e+01    7.701712e-01
  2.837381e+01    7.545972e-01
  2.840556e+01    7.632731e-01
  2.843731e+01    7.340695e-01
  2.846906e+01    7.474568e-01
  2.850081e+01    7.640114e-01
  2.853256e+01    7.703161e-01
  2.856431e+01    7.460794e-01
  2.859606e+01    7.342201e-01
  2.862782e+01    7.614302e-01
  2.865957e+01    7.436438e-01
  2.869132e+01    7.513983e-01
  2.872307e+01    7.377453e-01
  2.875482e+01    7.445101e-01
  2.878657e+01    7.387368e-01
  2.881832e+01    7.445694e-01
  2.885007e+01    7.521529e-01
  2.888183e+01    7.460235e-01
  2.891358e+01    7.392514e-01
  2.894533e+01    7.289005e-01
  2.897708e+01    7.490543e-01
  2.900883e+01    7.289950e-01
  2.904058e+01    7.458426e-01
  2.907233e+01    7.382212e-01
  2.910408e+01    7.377043e-01
  2.913583e+01    7.467798e-01
  2.916759e+01    7.227860e-01
  2.919934e+01    7.164539e-01
  2.923109e+01    7.356765e-01
  2.926284e+01    7.223820e-01
  2.929459e+01    7.371843e-01
  2.932634e+01    7.397356e-01
  2.935809e+01    7.214336e-01
  2.938984e+01    7.292510e-01
  2.942159e+01    7.369412e-01
  2.945335e+01    7.237903e-01
  2.948510e+01    7.187745e-01
  2.951685e+01    7.298967e-01
  2.954860e+01    7.114167e-01
  2.958035e+01    7.110471e-01
  2.961210e+01    7.256459e-01
  2.964385e+01    7.334540e-01
  2.967560e+01    7.209045e-01
  2.970736e+01    7.310069e-01
  2.973911e+01    6.848842e-01
  2.977086e+01    6.984593e-01
  2.980261e+01    7.063813e-01
  2.983436e+01    7.299324e-01
  2.986611e+01    7.441540e-01
  2.989786e+01    7.182501e-01
  2.992961e+01    7.239946e-01
  2.996136e+01    7.400742e-01
  2.999312e+01    7.131174e-01
  3.002487e+01    7.141075e-01
  3.005662e+01    7.397780e-01
  3.008837e+01    7.386118e-01
  3.012012e+01    7.143206e-01
  3.015187e+01    7.074283e-01
  3.018362e+01    7.225581e-01
  3.021537e+01    6.931654e-01
  3.024712e+01    7.284806e-01
  3.027888e+01    7.296914e-01
  3.031063e+01    7.047246e-01
  3.034238e+01    7.093803e-01
  3.037413e+01    7.220671e-01
  3.040588e+01    7.210423e-01
  3.043763e+01    7.128553e-01
  3.046938e+01    7.106516e-01
  3.050113e+01    7.028232e-01
  3.053288e+01    7.071932e-01
  3.056464e+01    7.090098e-01
  3.059639e+01    6.997334e-01
  3.062814e+01    7.114515e-01
  3.065989e+01    7.096798e-01
  3.069164e+01    6.989023e-01
  3.072339e+01    7.235091e-01
  3.075514e+01    7.045465e-01
  3.078689e+01    6.914153e-01
  3.081865e+01    7.070529e-01
  3.085040e+01    7.156835e-01
  3.088215e+01    7.258079e-01
  3.091390e+01    7.331441e-01
  3.094565e+01    7.366067e-01
  3.097740e+01    6.925828e-01
  3.100915e+01    6.996853e-01
  3.104090e+01    7.229547e-01
  3.107265e+01    7.082895e-01
  3.110441e+01    7.313678e-01
  3.113616e+01    7.183613e-01
  3.116791e+01    6.914740e-01
  3.119966e+01    7.354464e-01
  3.123141e+01    7.268471e-01
  3.126316e+01    7.114191e-01
  3.129491e+01    7.206317e-01
  3.132666e+01    7.035035e-01
  3.135841e+01    7.547362e-01
  3.139017e+01    7.469724e-01
  3.142192e+01    7.260917e-01
  3.145367e+01    7.555366e-01
  3.148542e+01    7.693436e-01
  3.151717e+01    7.726783e-01
  3.154892e+01    7.491215e-01
  3.158067e+01    8.210393e-01
  3.161242e+01    8.278257e-01
  3.164418e+01    8.499308e-01
  3.167593e+01    9.063854e-01
  3.170768e+01    9.819111e-01
  3.173943e+01    1.062946e+00
  3.177118e+01    1.204311e+00
  3.180293e+01    1.437025e+00
  3.183468e+01    1.695663e+00
  3.186643e+01    1.961238e+00
  3.189818e+01    2.143253e+00
  3.192994e+01    2.129794e+00
  3.196169e+01    1.842568e+00
  3.199344e+01    1.550955e+00
  3.202519e+01    1.309026e+00
  3.205694e+01    1.101182e+00
  3.208869e+01    9.831494e-01
  3.212044e+01    9.152186e-01
  3.215219e+01    8.456659e-01
  3.218394e+01    8.215898e-01
  3.221570e+01    8.129038e-01
  3.224745e+01    7.626433e-01
  3.227920e+01    7.492372e-01
  3.231095e+01    7.407054e-01
  3.234270e+01    7.668312e-01
  3.237445e+01    7.430044e-01
  3.240620e+01    7.200124e-01
  3.243795e+01    7.321454e-01
  3.246970e+01    7.173526e-01
  3.250146e+01    7.315646e-01
  3.253321e+01    7.103965e-01
  3.254908e+01    6.901829e-01