File: XRD/2024-07-27_002_Ru-CGO-ex_Activtation_ramp_000002_data_000016.dat
# == pyFAI calibration ==
# Distance Sample to Detector: 0.4 m
# PONI: 9.750e-02, 1.135e-01 m
# Rotations: -0.000175 0.000000 -0.000000 rad
#
# == Fit2d calibration ==
# Distance Sample-beamCenter: 400.000 mm
# Center: x=1514.000, y=1300.000 pix
# Tilt: 0.010 deg  TiltPlanRot: 0.010 deg
#
# Detector Detector	 Spline= None	 PixelSize= 7.500e-05, 7.500e-05 m
#    Detector has a mask: False
#    Detector has a dark current: False
#    detector has a flat field: False
#
# Wavelength: 6.888e-11 m
# Mask applied: user provided
# Dark current applied: False
# Flat field applied: False
# Polarization factor: 0.99
# Normalization factor: 1.0
# --> /home/myspot/data/2024_07_Rosario/Ru-CGO-ex/2024-07-27_002_Ru-CGO-ex_Activtation_ramp_000002_data_000016.dat
#       q_nm^-1             I
  2.003187e-02    0.000000e+00
  5.178302e-02    0.000000e+00
  8.353417e-02    3.919263e-02
  1.152853e-01    5.549330e-02
  1.470365e-01    5.332179e-02
  1.787876e-01    1.023744e-01
  2.105388e-01    1.930963e-02
  2.422899e-01    2.208284e-02
  2.740411e-01    7.096304e-02
  3.057922e-01    3.667918e-02
  3.375433e-01    1.064146e-02
  3.692945e-01    4.698428e-02
  4.010456e-01    3.811925e-02
  4.327968e-01    1.120653e-02
  4.645479e-01    5.009856e-02
  4.962991e-01    3.254603e-02
  5.280502e-01    5.900043e-02
  5.598014e-01    4.755594e-02
  5.915525e-01    4.522811e-02
  6.233037e-01    4.188574e-02
  6.550548e-01    4.792835e-02
  6.868060e-01    5.842619e-02
  7.185571e-01    6.350147e-02
  7.503083e-01    5.873543e-02
  7.820594e-01    1.352689e-01
  8.138106e-01    1.787294e-01
  8.455617e-01    2.691419e-01
  8.773129e-01    4.004082e-01
  9.090640e-01    6.392504e-01
  9.408152e-01    7.077888e-01
  9.725663e-01    8.359278e-01
  1.004317e+00    1.081257e+00
  1.036069e+00    1.207497e+00
  1.067820e+00    1.370757e+00
  1.099571e+00    1.432381e+00
  1.131322e+00    1.389480e+00
  1.163073e+00    1.519982e+00
  1.194824e+00    1.646091e+00
  1.226575e+00    2.160004e+00
  1.258327e+00    2.289379e+00
  1.290078e+00    2.600812e+00
  1.321829e+00    2.677930e+00
  1.353580e+00    2.528060e+00
  1.385331e+00    2.664750e+00
  1.417082e+00    2.711052e+00
  1.448834e+00    2.833014e+00
  1.480585e+00    2.847664e+00
  1.512336e+00    2.747687e+00
  1.544087e+00    3.056215e+00
  1.575838e+00    2.997133e+00
  1.607589e+00    3.095879e+00
  1.639340e+00    3.023731e+00
  1.671092e+00    3.012820e+00
  1.702843e+00    2.921760e+00
  1.734594e+00    2.995087e+00
  1.766345e+00    2.940817e+00
  1.798096e+00    2.823346e+00
  1.829847e+00    2.874557e+00
  1.861598e+00    2.938934e+00
  1.893350e+00    2.780013e+00
  1.925101e+00    2.833513e+00
  1.956852e+00    2.793040e+00
  1.988603e+00    2.868283e+00
  2.020354e+00    2.967618e+00
  2.052105e+00    2.739497e+00
  2.083856e+00    2.845608e+00
  2.115608e+00    2.751462e+00
  2.147359e+00    2.856132e+00
  2.179110e+00    2.713035e+00
  2.210861e+00    2.863989e+00
  2.242612e+00    2.928803e+00
  2.274363e+00    2.820046e+00
  2.306115e+00    2.763403e+00
  2.337866e+00    2.846833e+00
  2.369617e+00    2.800099e+00
  2.401368e+00    2.801480e+00
  2.433119e+00    2.893233e+00
  2.464870e+00    2.884528e+00
  2.496621e+00    2.892463e+00
  2.528373e+00    2.881544e+00
  2.560124e+00    2.973517e+00
  2.591875e+00    2.787822e+00
  2.623626e+00    2.888795e+00
  2.655377e+00    2.874110e+00
  2.687128e+00    2.755982e+00
  2.718879e+00    2.834652e+00
  2.750631e+00    2.949533e+00
  2.782382e+00    2.845528e+00
  2.814133e+00    2.914080e+00
  2.845884e+00    2.799325e+00
  2.877635e+00    2.975853e+00
  2.909386e+00    2.884509e+00
  2.941137e+00    2.830845e+00
  2.972889e+00    2.891074e+00
  3.004640e+00    2.938567e+00
  3.036391e+00    2.925658e+00
  3.068142e+00    2.945596e+00
  3.099893e+00    2.919551e+00
  3.131644e+00    2.899190e+00
  3.163395e+00    2.942550e+00
  3.195147e+00    2.996036e+00
  3.226898e+00    2.887739e+00
  3.258649e+00    2.981031e+00
  3.290400e+00    2.914048e+00
  3.322151e+00    2.992318e+00
  3.353902e+00    2.982939e+00
  3.385654e+00    2.967265e+00
  3.417405e+00    3.018946e+00
  3.449156e+00    3.043568e+00
  3.480907e+00    2.863846e+00
  3.512658e+00    2.972125e+00
  3.544409e+00    2.894110e+00
  3.576160e+00    3.063018e+00
  3.607912e+00    3.021985e+00
  3.639663e+00    2.933933e+00
  3.671414e+00    3.004315e+00
  3.703165e+00    2.962934e+00
  3.734916e+00    3.019001e+00
  3.766667e+00    2.956226e+00
  3.798418e+00    2.991853e+00
  3.830170e+00    2.960733e+00
  3.861921e+00    3.054711e+00
  3.893672e+00    3.055283e+00
  3.925423e+00    3.044896e+00
  3.957174e+00    3.034643e+00
  3.988925e+00    3.055354e+00
  4.020676e+00    2.950142e+00
  4.052428e+00    3.066587e+00
  4.084179e+00    3.115769e+00
  4.115930e+00    3.121960e+00
  4.147681e+00    3.085017e+00
  4.179432e+00    3.041464e+00
  4.211183e+00    3.039653e+00
  4.242935e+00    3.069560e+00
  4.274686e+00    3.045503e+00
  4.306437e+00    3.119801e+00
  4.338188e+00    3.009886e+00
  4.369939e+00    3.062799e+00
  4.401690e+00    3.014777e+00
  4.433441e+00    3.112411e+00
  4.465193e+00    3.017641e+00
  4.496944e+00    3.078729e+00
  4.528695e+00    3.175690e+00
  4.560446e+00    3.075405e+00
  4.592197e+00    3.118753e+00
  4.623948e+00    3.061946e+00
  4.655699e+00    3.121587e+00
  4.687451e+00    3.101648e+00
  4.719202e+00    3.070556e+00
  4.750953e+00    3.184354e+00
  4.782704e+00    3.084743e+00
  4.814455e+00    3.037929e+00
  4.846206e+00    3.165936e+00
  4.877957e+00    3.117561e+00
  4.909709e+00    3.168395e+00
  4.941460e+00    3.095989e+00
  4.973211e+00    3.134037e+00
  5.004962e+00    3.169019e+00
  5.036713e+00    3.077096e+00
  5.068464e+00    3.097969e+00
  5.100216e+00    3.157103e+00
  5.131967e+00    3.215627e+00
  5.163718e+00    3.173858e+00
  5.195469e+00    3.097240e+00
  5.227220e+00    3.141028e+00
  5.258971e+00    3.166044e+00
  5.290722e+00    3.094749e+00
  5.322474e+00    3.105771e+00
  5.354225e+00    3.073730e+00
  5.385976e+00    3.118445e+00
  5.417727e+00    3.072168e+00
  5.449478e+00    3.091149e+00
  5.481229e+00    3.118847e+00
  5.512980e+00    3.136573e+00
  5.544732e+00    3.027763e+00
  5.576483e+00    3.137398e+00
  5.608234e+00    3.062658e+00
  5.639985e+00    3.078727e+00
  5.671736e+00    3.015663e+00
  5.703487e+00    3.098490e+00
  5.735238e+00    3.040997e+00
  5.766990e+00    3.133830e+00
  5.798741e+00    3.032113e+00
  5.830492e+00    3.060598e+00
  5.862243e+00    3.048128e+00
  5.893994e+00    3.041384e+00
  5.925745e+00    3.042691e+00
  5.957497e+00    3.003199e+00
  5.989248e+00    3.002477e+00
  6.020999e+00    3.024316e+00
  6.052750e+00    3.036873e+00
  6.084501e+00    3.028221e+00
  6.116252e+00    3.093902e+00
  6.148003e+00    3.078109e+00
  6.179755e+00    3.082422e+00
  6.211506e+00    3.076283e+00
  6.243257e+00    3.078379e+00
  6.275008e+00    3.110228e+00
  6.306759e+00    3.093658e+00
  6.338510e+00    3.070212e+00
  6.370261e+00    3.152755e+00
  6.402013e+00    3.045026e+00
  6.433764e+00    3.143857e+00
  6.465515e+00    3.092960e+00
  6.497266e+00    3.029663e+00
  6.529017e+00    3.038747e+00
  6.560768e+00    3.084532e+00
  6.592519e+00    3.045207e+00
  6.624271e+00    3.071451e+00
  6.656022e+00    3.044446e+00
  6.687773e+00    3.084747e+00
  6.719524e+00    3.073853e+00
  6.751275e+00    3.116193e+00
  6.783026e+00    3.082764e+00
  6.814777e+00    3.046406e+00
  6.846529e+00    3.046906e+00
  6.878280e+00    3.039919e+00
  6.910031e+00    3.023153e+00
  6.941782e+00    3.044356e+00
  6.973533e+00    2.997674e+00
  7.005284e+00    3.019621e+00
  7.037036e+00    2.969570e+00
  7.068787e+00    3.087497e+00
  7.100538e+00    3.064716e+00
  7.132289e+00    3.001054e+00
  7.164040e+00    2.979232e+00
  7.195791e+00    3.041551e+00
  7.227542e+00    2.967025e+00
  7.259294e+00    3.046715e+00
  7.291045e+00    3.042985e+00
  7.322796e+00    3.013574e+00
  7.354547e+00    3.034420e+00
  7.386298e+00    3.023575e+00
  7.418049e+00    2.991349e+00
  7.449800e+00    2.997848e+00
  7.481552e+00    2.963700e+00
  7.513303e+00    2.962652e+00
  7.545054e+00    3.070038e+00
  7.576805e+00    2.970627e+00
  7.608556e+00    3.003479e+00
  7.640307e+00    2.932086e+00
  7.672058e+00    2.972331e+00
  7.703810e+00    3.005794e+00
  7.735561e+00    3.023500e+00
  7.767312e+00    2.890325e+00
  7.799063e+00    2.974891e+00
  7.830814e+00    2.962117e+00
  7.862565e+00    2.908037e+00
  7.894317e+00    2.916285e+00
  7.926068e+00    2.868022e+00
  7.957819e+00    2.935688e+00
  7.989570e+00    2.928834e+00
  8.021321e+00    2.911373e+00
  8.053072e+00    2.878003e+00
  8.084823e+00    2.950177e+00
  8.116575e+00    2.910357e+00
  8.148326e+00    2.947815e+00
  8.180077e+00    2.995856e+00
  8.211828e+00    3.010278e+00
  8.243579e+00    2.923220e+00
  8.275330e+00    2.968486e+00
  8.307081e+00    2.896970e+00
  8.338833e+00    2.965128e+00
  8.370584e+00    2.910509e+00
  8.402335e+00    2.916428e+00
  8.434086e+00    2.908816e+00
  8.465837e+00    2.896703e+00
  8.497588e+00    2.882784e+00
  8.529339e+00    2.892126e+00
  8.561091e+00    2.882466e+00
  8.592842e+00    2.928703e+00
  8.624593e+00    2.897121e+00
  8.656344e+00    2.877003e+00
  8.688095e+00    2.933622e+00
  8.719846e+00    2.926314e+00
  8.751598e+00    2.879239e+00
  8.783349e+00    2.851531e+00
  8.815100e+00    2.828504e+00
  8.846851e+00    2.833616e+00
  8.878602e+00    2.871794e+00
  8.910353e+00    2.892814e+00
  8.942104e+00    2.850687e+00
  8.973856e+00    2.897661e+00
  9.005607e+00    2.840415e+00
  9.037358e+00    2.818890e+00
  9.069109e+00    2.807149e+00
  9.100860e+00    2.821925e+00
  9.132611e+00    2.783137e+00
  9.164362e+00    2.814713e+00
  9.196114e+00    2.861162e+00
  9.227865e+00    2.873447e+00
  9.259616e+00    2.780910e+00
  9.291367e+00    2.828175e+00
  9.323118e+00    2.859523e+00
  9.354869e+00    2.791387e+00
  9.386620e+00    2.798820e+00
  9.418372e+00    2.767579e+00
  9.450123e+00    2.809593e+00
  9.481874e+00    2.804708e+00
  9.513625e+00    2.817824e+00
  9.545376e+00    2.883875e+00
  9.577127e+00    2.766044e+00
  9.608878e+00    2.770130e+00
  9.640630e+00    2.746712e+00
  9.672381e+00    2.751230e+00
  9.704132e+00    2.765210e+00
  9.735883e+00    2.787998e+00
  9.767634e+00    2.739251e+00
  9.799385e+00    2.750755e+00
  9.831137e+00    2.687509e+00
  9.862888e+00    2.692829e+00
  9.894639e+00    2.711815e+00
  9.926390e+00    2.754372e+00
  9.958141e+00    2.720458e+00
  9.989892e+00    2.662360e+00
  1.002164e+01    2.718922e+00
  1.005339e+01    2.730279e+00
  1.008515e+01    2.649708e+00
  1.011690e+01    2.691207e+00
  1.014865e+01    2.670294e+00
  1.018040e+01    2.653172e+00
  1.021215e+01    2.624488e+00
  1.024390e+01    2.670958e+00
  1.027565e+01    2.645474e+00
  1.030740e+01    2.637132e+00
  1.033915e+01    2.667026e+00
  1.037091e+01    2.649240e+00
  1.040266e+01    2.601486e+00
  1.043441e+01    2.663812e+00
  1.046616e+01    2.655748e+00
  1.049791e+01    2.574523e+00
  1.052966e+01    2.549181e+00
  1.056141e+01    2.554435e+00
  1.059316e+01    2.581226e+00
  1.062492e+01    2.638037e+00
  1.065667e+01    2.536692e+00
  1.068842e+01    2.554250e+00
  1.072017e+01    2.618587e+00
  1.075192e+01    2.549083e+00
  1.078367e+01    2.582640e+00
  1.081542e+01    2.558826e+00
  1.084717e+01    2.542312e+00
  1.087892e+01    2.527198e+00
  1.091068e+01    2.558073e+00
  1.094243e+01    2.534762e+00
  1.097418e+01    2.539351e+00
  1.100593e+01    2.514007e+00
  1.103768e+01    2.515332e+00
  1.106943e+01    2.545303e+00
  1.110118e+01    2.499443e+00
  1.113293e+01    2.478862e+00
  1.116468e+01    2.517997e+00
  1.119644e+01    2.487777e+00
  1.122819e+01    2.477385e+00
  1.125994e+01    2.449497e+00
  1.129169e+01    2.391430e+00
  1.132344e+01    2.458883e+00
  1.135519e+01    2.447315e+00
  1.138694e+01    2.458466e+00
  1.141869e+01    2.380434e+00
  1.145045e+01    2.402587e+00
  1.148220e+01    2.437177e+00
  1.151395e+01    2.419270e+00
  1.154570e+01    2.424404e+00
  1.157745e+01    2.426049e+00
  1.160920e+01    2.423332e+00
  1.164095e+01    2.365995e+00
  1.167270e+01    2.370693e+00
  1.170445e+01    2.387781e+00
  1.173621e+01    2.357080e+00
  1.176796e+01    2.388111e+00
  1.179971e+01    2.357479e+00
  1.183146e+01    2.391961e+00
  1.186321e+01    2.341360e+00
  1.189496e+01    2.370722e+00
  1.192671e+01    2.339690e+00
  1.195846e+01    2.416636e+00
  1.199021e+01    2.324025e+00
  1.202197e+01    2.393197e+00
  1.205372e+01    2.363173e+00
  1.208547e+01    2.330697e+00
  1.211722e+01    2.380930e+00
  1.214897e+01    2.307892e+00
  1.218072e+01    2.315186e+00
  1.221247e+01    2.308473e+00
  1.224422e+01    2.331966e+00
  1.227597e+01    2.338938e+00
  1.230773e+01    2.345527e+00
  1.233948e+01    2.377590e+00
  1.237123e+01    2.328870e+00
  1.240298e+01    2.344653e+00
  1.243473e+01    2.393786e+00
  1.246648e+01    2.391638e+00
  1.249823e+01    2.331888e+00
  1.252998e+01    2.355457e+00
  1.256174e+01    2.379985e+00
  1.259349e+01    2.432872e+00
  1.262524e+01    2.439331e+00
  1.265699e+01    2.447680e+00
  1.268874e+01    2.506386e+00
  1.272049e+01    2.504191e+00
  1.275224e+01    2.515417e+00
  1.278399e+01    2.653129e+00
  1.281574e+01    2.724764e+00
  1.284750e+01    2.847726e+00
  1.287925e+01    3.066214e+00
  1.291100e+01    3.262147e+00
  1.294275e+01    3.701733e+00
  1.297450e+01    4.278527e+00
  1.300625e+01    5.109805e+00
  1.303800e+01    6.654991e+00
  1.306975e+01    9.008572e+00
  1.310150e+01    1.209290e+01
  1.313326e+01    1.502733e+01
  1.316501e+01    1.802128e+01
  1.319676e+01    1.994656e+01
  1.322851e+01    1.856326e+01
  1.326026e+01    1.404286e+01
  1.329201e+01    9.878505e+00
  1.332376e+01    7.221857e+00
  1.335551e+01    5.515116e+00
  1.338727e+01    4.481104e+00
  1.341902e+01    3.779094e+00
  1.345077e+01    3.372724e+00
  1.348252e+01    3.066267e+00
  1.351427e+01    2.843347e+00
  1.354602e+01    2.709675e+00
  1.357777e+01    2.586758e+00
  1.360952e+01    2.438433e+00
  1.364127e+01    2.422948e+00
  1.367303e+01    2.364069e+00
  1.370478e+01    2.319640e+00
  1.373653e+01    2.300529e+00
  1.376828e+01    2.225611e+00
  1.380003e+01    2.229348e+00
  1.383178e+01    2.168900e+00
  1.386353e+01    2.181422e+00
  1.389528e+01    2.171575e+00
  1.392703e+01    2.163528e+00
  1.395879e+01    2.129750e+00
  1.399054e+01    2.115971e+00
  1.402229e+01    2.092371e+00
  1.405404e+01    2.094532e+00
  1.408579e+01    2.034791e+00
  1.411754e+01    2.063609e+00
  1.414929e+01    2.021668e+00
  1.418104e+01    2.036794e+00
  1.421279e+01    1.999143e+00
  1.424455e+01    1.995005e+00
  1.427630e+01    2.011699e+00
  1.430805e+01    1.979195e+00
  1.433980e+01    1.948143e+00
  1.437155e+01    1.977123e+00
  1.440330e+01    1.949130e+00
  1.443505e+01    1.956989e+00
  1.446680e+01    1.928875e+00
  1.449856e+01    1.978604e+00
  1.453031e+01    1.967316e+00
  1.456206e+01    1.943567e+00
  1.459381e+01    1.907339e+00
  1.462556e+01    1.976876e+00
  1.465731e+01    1.925572e+00
  1.468906e+01    1.937657e+00
  1.472081e+01    1.906978e+00
  1.475256e+01    1.935282e+00
  1.478432e+01    1.938983e+00
  1.481607e+01    1.926474e+00
  1.484782e+01    1.962182e+00
  1.487957e+01    1.972104e+00
  1.491132e+01    1.959533e+00
  1.494307e+01    2.023723e+00
  1.497482e+01    2.134892e+00
  1.500657e+01    2.158797e+00
  1.503832e+01    2.273933e+00
  1.507008e+01    2.446988e+00
  1.510183e+01    2.768166e+00
  1.513358e+01    3.176646e+00
  1.516533e+01    3.976608e+00
  1.519708e+01    4.903781e+00
  1.522883e+01    5.655879e+00
  1.526058e+01    6.316988e+00
  1.529233e+01    6.707803e+00
  1.532409e+01    6.273210e+00
  1.535584e+01    5.083827e+00
  1.538759e+01    3.883646e+00
  1.541934e+01    3.139398e+00
  1.545109e+01    2.681319e+00
  1.548284e+01    2.387613e+00
  1.551459e+01    2.171673e+00
  1.554634e+01    2.058337e+00
  1.557809e+01    1.990291e+00
  1.560985e+01    1.925325e+00
  1.564160e+01    1.907269e+00
  1.567335e+01    1.811767e+00
  1.570510e+01    1.755031e+00
  1.573685e+01    1.802481e+00
  1.576860e+01    1.750978e+00
  1.580035e+01    1.737503e+00
  1.583210e+01    1.706334e+00
  1.586385e+01    1.689503e+00
  1.589561e+01    1.670790e+00
  1.592736e+01    1.664547e+00
  1.595911e+01    1.640363e+00
  1.599086e+01    1.626492e+00
  1.602261e+01    1.660974e+00
  1.605436e+01    1.606895e+00
  1.608611e+01    1.610721e+00
  1.611786e+01    1.607505e+00
  1.614961e+01    1.605572e+00
  1.618137e+01    1.608087e+00
  1.621312e+01    1.604716e+00
  1.624487e+01    1.608112e+00
  1.627662e+01    1.614918e+00
  1.630837e+01    1.564654e+00
  1.634012e+01    1.558847e+00
  1.637187e+01    1.573245e+00
  1.640362e+01    1.522951e+00
  1.643538e+01    1.536416e+00
  1.646713e+01    1.515988e+00
  1.649888e+01    1.529349e+00
  1.653063e+01    1.541595e+00
  1.656238e+01    1.489624e+00
  1.659413e+01    1.545195e+00
  1.662588e+01    1.530426e+00
  1.665763e+01    1.527363e+00
  1.668938e+01    1.472691e+00
  1.672114e+01    1.451943e+00
  1.675289e+01    1.479360e+00
  1.678464e+01    1.496859e+00
  1.681639e+01    1.482041e+00
  1.684814e+01    1.507011e+00
  1.687989e+01    1.485951e+00
  1.691164e+01    1.478989e+00
  1.694339e+01    1.491109e+00
  1.697514e+01    1.480611e+00
  1.700690e+01    1.443769e+00
  1.703865e+01    1.513747e+00
  1.707040e+01    1.453692e+00
  1.710215e+01    1.404436e+00
  1.713390e+01    1.411279e+00
  1.716565e+01    1.444754e+00
  1.719740e+01    1.393699e+00
  1.722915e+01    1.409164e+00
  1.726091e+01    1.426768e+00
  1.729266e+01    1.418045e+00
  1.732441e+01    1.380441e+00
  1.735616e+01    1.394991e+00
  1.738791e+01    1.429273e+00
  1.741966e+01    1.377867e+00
  1.745141e+01    1.399423e+00
  1.748316e+01    1.385375e+00
  1.751491e+01    1.379013e+00
  1.754667e+01    1.397702e+00
  1.757842e+01    1.357020e+00
  1.761017e+01    1.378091e+00
  1.764192e+01    1.391575e+00
  1.767367e+01    1.358374e+00
  1.770542e+01    1.352819e+00
  1.773717e+01    1.328223e+00
  1.776892e+01    1.369014e+00
  1.780067e+01    1.346486e+00
  1.783243e+01    1.338305e+00
  1.786418e+01    1.349208e+00
  1.789593e+01    1.358611e+00
  1.792768e+01    1.337272e+00
  1.795943e+01    1.346973e+00
  1.799118e+01    1.338011e+00
  1.802293e+01    1.335622e+00
  1.805468e+01    1.308503e+00
  1.808643e+01    1.325526e+00
  1.811819e+01    1.323005e+00
  1.814994e+01    1.302597e+00
  1.818169e+01    1.311764e+00
  1.821344e+01    1.287761e+00
  1.824519e+01    1.299852e+00
  1.827694e+01    1.267126e+00
  1.830869e+01    1.287964e+00
  1.834044e+01    1.265400e+00
  1.837220e+01    1.288010e+00
  1.840395e+01    1.289049e+00
  1.843570e+01    1.258105e+00
  1.846745e+01    1.276494e+00
  1.849920e+01    1.252165e+00
  1.853095e+01    1.281050e+00
  1.856270e+01    1.263321e+00
  1.859445e+01    1.250151e+00
  1.862620e+01    1.234789e+00
  1.865796e+01    1.222227e+00
  1.868971e+01    1.239901e+00
  1.872146e+01    1.245594e+00
  1.875321e+01    1.248056e+00
  1.878496e+01    1.265757e+00
  1.881671e+01    1.251494e+00
  1.884846e+01    1.230509e+00
  1.888021e+01    1.239864e+00
  1.891196e+01    1.216380e+00
  1.894372e+01    1.222646e+00
  1.897547e+01    1.205701e+00
  1.900722e+01    1.247220e+00
  1.903897e+01    1.217643e+00
  1.907072e+01    1.241295e+00
  1.910247e+01    1.201951e+00
  1.913422e+01    1.212932e+00
  1.916597e+01    1.185794e+00
  1.919773e+01    1.192665e+00
  1.922948e+01    1.205192e+00
  1.926123e+01    1.225704e+00
  1.929298e+01    1.196417e+00
  1.932473e+01    1.224906e+00
  1.935648e+01    1.207136e+00
  1.938823e+01    1.168211e+00
  1.941998e+01    1.182253e+00
  1.945173e+01    1.207298e+00
  1.948349e+01    1.175634e+00
  1.951524e+01    1.167189e+00
  1.954699e+01    1.182085e+00
  1.957874e+01    1.170448e+00
  1.961049e+01    1.153417e+00
  1.964224e+01    1.147699e+00
  1.967399e+01    1.165283e+00
  1.970574e+01    1.185278e+00
  1.973749e+01    1.179073e+00
  1.976925e+01    1.147876e+00
  1.980100e+01    1.143700e+00
  1.983275e+01    1.142388e+00
  1.986450e+01    1.155758e+00
  1.989625e+01    1.170842e+00
  1.992800e+01    1.118023e+00
  1.995975e+01    1.127504e+00
  1.999150e+01    1.161728e+00
  2.002325e+01    1.144273e+00
  2.005501e+01    1.115991e+00
  2.008676e+01    1.145597e+00
  2.011851e+01    1.145315e+00
  2.015026e+01    1.116328e+00
  2.018201e+01    1.135095e+00
  2.021376e+01    1.123240e+00
  2.024551e+01    1.088520e+00
  2.027726e+01    1.135176e+00
  2.030902e+01    1.138552e+00
  2.034077e+01    1.128586e+00
  2.037252e+01    1.103974e+00
  2.040427e+01    1.113074e+00
  2.043602e+01    1.122108e+00
  2.046777e+01    1.106920e+00
  2.049952e+01    1.100990e+00
  2.053127e+01    1.104988e+00
  2.056302e+01    1.127483e+00
  2.059478e+01    1.092996e+00
  2.062653e+01    1.091272e+00
  2.065828e+01    1.135924e+00
  2.069003e+01    1.114058e+00
  2.072178e+01    1.116724e+00
  2.075353e+01    1.117578e+00
  2.078528e+01    1.102387e+00
  2.081703e+01    1.072430e+00
  2.084878e+01    1.107949e+00
  2.088054e+01    1.110451e+00
  2.091229e+01    1.102433e+00
  2.094404e+01    1.104966e+00
  2.097579e+01    1.084397e+00
  2.100754e+01    1.088925e+00
  2.103929e+01    1.098315e+00
  2.107104e+01    1.104115e+00
  2.110279e+01    1.123969e+00
  2.113455e+01    1.112300e+00
  2.116630e+01    1.096583e+00
  2.119805e+01    1.115474e+00
  2.122980e+01    1.101031e+00
  2.126155e+01    1.120264e+00
  2.129330e+01    1.134811e+00
  2.132505e+01    1.171701e+00
  2.135680e+01    1.148696e+00
  2.138855e+01    1.196709e+00
  2.142031e+01    1.196341e+00
  2.145206e+01    1.211945e+00
  2.148381e+01    1.248934e+00
  2.151556e+01    1.315400e+00
  2.154731e+01    1.372903e+00
  2.157906e+01    1.429043e+00
  2.161081e+01    1.544207e+00
  2.164256e+01    1.704813e+00
  2.167431e+01    1.937507e+00
  2.170607e+01    2.278436e+00
  2.173782e+01    2.829543e+00
  2.176957e+01    3.651617e+00
  2.180132e+01    4.841521e+00
  2.183307e+01    6.266572e+00
  2.186482e+01    8.047516e+00
  2.189657e+01    9.762712e+00
  2.192832e+01    1.093861e+01
  2.196007e+01    1.056997e+01
  2.199183e+01    8.559628e+00
  2.202358e+01    6.149575e+00
  2.205533e+01    4.416187e+00
  2.208708e+01    3.347362e+00
  2.211883e+01    2.627199e+00
  2.215058e+01    2.181421e+00
  2.218233e+01    1.867659e+00
  2.221408e+01    1.641507e+00
  2.224584e+01    1.518584e+00
  2.227759e+01    1.393427e+00
  2.230934e+01    1.312939e+00
  2.234109e+01    1.243959e+00
  2.237284e+01    1.210063e+00
  2.240459e+01    1.149006e+00
  2.243634e+01    1.135240e+00
  2.246809e+01    1.102795e+00
  2.249984e+01    1.075751e+00
  2.253160e+01    1.039804e+00
  2.256335e+01    1.017740e+00
  2.259510e+01    1.001387e+00
  2.262685e+01    1.030119e+00
  2.265860e+01    9.850528e-01
  2.269035e+01    1.000106e+00
  2.272210e+01    9.929430e-01
  2.275385e+01    9.874677e-01
  2.278560e+01    9.427425e-01
  2.281736e+01    9.598012e-01
  2.284911e+01    9.747108e-01
  2.288086e+01    9.368799e-01
  2.291261e+01    9.358319e-01
  2.294436e+01    9.336591e-01
  2.297611e+01    9.315203e-01
  2.300786e+01    8.997583e-01
  2.303961e+01    9.179690e-01
  2.307137e+01    9.254224e-01
  2.310312e+01    9.080130e-01
  2.313487e+01    8.982966e-01
  2.316662e+01    8.914950e-01
  2.319837e+01    8.995490e-01
  2.323012e+01    8.937255e-01
  2.326187e+01    8.927550e-01
  2.329362e+01    8.921600e-01
  2.332537e+01    8.861682e-01
  2.335713e+01    8.678152e-01
  2.338888e+01    8.927924e-01
  2.342063e+01    8.694066e-01
  2.345238e+01    8.791077e-01
  2.348413e+01    8.628519e-01
  2.351588e+01    8.644765e-01
  2.354763e+01    8.598363e-01
  2.357938e+01    8.589364e-01
  2.361113e+01    8.701864e-01
  2.364289e+01    8.443978e-01
  2.367464e+01    8.499628e-01
  2.370639e+01    8.319610e-01
  2.373814e+01    8.258619e-01
  2.376989e+01    8.178502e-01
  2.380164e+01    8.209993e-01
  2.383339e+01    8.204075e-01
  2.386514e+01    8.108041e-01
  2.389689e+01    8.266299e-01
  2.392865e+01    8.392401e-01
  2.396040e+01    8.307745e-01
  2.399215e+01    8.043678e-01
  2.402390e+01    7.862366e-01
  2.405565e+01    8.141131e-01
  2.408740e+01    7.865655e-01
  2.411915e+01    8.055587e-01
  2.415090e+01    8.133974e-01
  2.418266e+01    7.840349e-01
  2.421441e+01    8.016099e-01
  2.424616e+01    8.035547e-01
  2.427791e+01    7.951822e-01
  2.430966e+01    8.039556e-01
  2.434141e+01    8.114196e-01
  2.437316e+01    8.019594e-01
  2.440491e+01    7.988287e-01
  2.443666e+01    8.087535e-01
  2.446842e+01    8.139269e-01
  2.450017e+01    8.083402e-01
  2.453192e+01    7.932006e-01
  2.456367e+01    8.118573e-01
  2.459542e+01    8.004655e-01
  2.462717e+01    8.356623e-01
  2.465892e+01    8.189329e-01
  2.469067e+01    8.315593e-01
  2.472242e+01    8.045084e-01
  2.475418e+01    8.082316e-01
  2.478593e+01    8.143483e-01
  2.481768e+01    7.984760e-01
  2.484943e+01    8.291533e-01
  2.488118e+01    8.175176e-01
  2.491293e+01    8.056892e-01
  2.494468e+01    8.164406e-01
  2.497643e+01    8.078449e-01
  2.500819e+01    8.156276e-01
  2.503994e+01    8.247172e-01
  2.507169e+01    8.195398e-01
  2.510344e+01    8.282948e-01
  2.513519e+01    8.246248e-01
  2.516694e+01    8.220960e-01
  2.519869e+01    8.538411e-01
  2.523044e+01    8.489164e-01
  2.526219e+01    8.933514e-01
  2.529395e+01    8.917826e-01
  2.532570e+01    8.831685e-01
  2.535745e+01    9.149054e-01
  2.538920e+01    9.013966e-01
  2.542095e+01    9.327552e-01
  2.545270e+01    9.364798e-01
  2.548445e+01    9.481283e-01
  2.551620e+01    9.881431e-01
  2.554795e+01    1.012185e+00
  2.557971e+01    1.072166e+00
  2.561146e+01    1.102978e+00
  2.564321e+01    1.182172e+00
  2.567496e+01    1.240523e+00
  2.570671e+01    1.364049e+00
  2.573846e+01    1.573622e+00
  2.577021e+01    1.810283e+00
  2.580196e+01    2.191982e+00
  2.583371e+01    2.759297e+00
  2.586547e+01    3.605129e+00
  2.589722e+01    4.759660e+00
  2.592897e+01    6.266601e+00
  2.596072e+01    7.906463e+00
  2.599247e+01    9.027164e+00
  2.602422e+01    9.006223e+00
  2.605597e+01    7.787596e+00
  2.608772e+01    5.813123e+00
  2.611948e+01    4.219808e+00
  2.615123e+01    3.146298e+00
  2.618298e+01    2.475499e+00
  2.621473e+01    1.975231e+00
  2.624648e+01    1.717533e+00
  2.627823e+01    1.481698e+00
  2.630998e+01    1.349979e+00
  2.634173e+01    1.259149e+00
  2.637348e+01    1.145242e+00
  2.640524e+01    1.095126e+00
  2.643699e+01    1.063519e+00
  2.646874e+01    1.037936e+00
  2.650049e+01    1.017125e+00
  2.653224e+01    1.002521e+00
  2.656399e+01    9.743374e-01
  2.659574e+01    9.635278e-01
  2.662749e+01    9.452741e-01
  2.665924e+01    9.262903e-01
  2.669100e+01    9.604604e-01
  2.672275e+01    9.266573e-01
  2.675450e+01    9.268650e-01
  2.678625e+01    9.076686e-01
  2.681800e+01    9.194057e-01
  2.684975e+01    9.265500e-01
  2.688150e+01    9.286039e-01
  2.691325e+01    9.427471e-01
  2.694501e+01    9.436852e-01
  2.697676e+01    9.885324e-01
  2.700851e+01    1.006353e+00
  2.704026e+01    1.079808e+00
  2.707201e+01    1.167547e+00
  2.710376e+01    1.251416e+00
  2.713551e+01    1.449654e+00
  2.716726e+01    1.685348e+00
  2.719901e+01    2.016429e+00
  2.723077e+01    2.408335e+00
  2.726252e+01    2.588407e+00
  2.729427e+01    2.547360e+00
  2.732602e+01    2.210433e+00
  2.735777e+01    1.819633e+00
  2.738952e+01    1.507805e+00
  2.742127e+01    1.292509e+00
  2.745302e+01    1.159541e+00
  2.748477e+01    1.063666e+00
  2.751653e+01    9.883468e-01
  2.754828e+01    9.737092e-01
  2.758003e+01    9.180691e-01
  2.761178e+01    9.330627e-01
  2.764353e+01    8.847723e-01
  2.767528e+01    8.801772e-01
  2.770703e+01    8.858752e-01
  2.773878e+01    8.757474e-01
  2.777054e+01    8.441242e-01
  2.780229e+01    8.372800e-01
  2.783404e+01    8.330317e-01
  2.786579e+01    8.422742e-01
  2.789754e+01    8.192627e-01
  2.792929e+01    8.116049e-01
  2.796104e+01    8.238016e-01
  2.799279e+01    8.139490e-01
  2.802454e+01    8.231084e-01
  2.805630e+01    8.117628e-01
  2.808805e+01    8.030253e-01
  2.811980e+01    8.256019e-01
  2.815155e+01    7.992450e-01
  2.818330e+01    7.926716e-01
  2.821505e+01    8.005431e-01
  2.824680e+01    7.938859e-01
  2.827855e+01    7.850206e-01
  2.831030e+01    7.950263e-01
  2.834206e+01    7.870129e-01
  2.837381e+01    7.955316e-01
  2.840556e+01    7.818490e-01
  2.843731e+01    7.764035e-01
  2.846906e+01    7.911325e-01
  2.850081e+01    7.703713e-01
  2.853256e+01    7.794747e-01
  2.856431e+01    7.917512e-01
  2.859606e+01    7.921652e-01
  2.862782e+01    7.717469e-01
  2.865957e+01    7.678776e-01
  2.869132e+01    7.595509e-01
  2.872307e+01    7.789295e-01
  2.875482e+01    7.864199e-01
  2.878657e+01    7.785397e-01
  2.881832e+01    7.719571e-01
  2.885007e+01    7.707834e-01
  2.888183e+01    7.896087e-01
  2.891358e+01    7.536762e-01
  2.894533e+01    7.903888e-01
  2.897708e+01    7.762017e-01
  2.900883e+01    7.540504e-01
  2.904058e+01    7.475839e-01
  2.907233e+01    7.433099e-01
  2.910408e+01    7.555369e-01
  2.913583e+01    7.825789e-01
  2.916759e+01    7.597516e-01
  2.919934e+01    7.433730e-01
  2.923109e+01    7.352018e-01
  2.926284e+01    7.482706e-01
  2.929459e+01    7.462109e-01
  2.932634e+01    7.452385e-01
  2.935809e+01    7.371362e-01
  2.938984e+01    7.395305e-01
  2.942159e+01    7.489384e-01
  2.945335e+01    7.677286e-01
  2.948510e+01    7.413645e-01
  2.951685e+01    7.584465e-01
  2.954860e+01    7.378691e-01
  2.958035e+01    7.304281e-01
  2.961210e+01    7.204596e-01
  2.964385e+01    7.401969e-01
  2.967560e+01    7.399523e-01
  2.970736e+01    7.361488e-01
  2.973911e+01    7.329476e-01
  2.977086e+01    7.384028e-01
  2.980261e+01    7.346882e-01
  2.983436e+01    7.465782e-01
  2.986611e+01    7.237046e-01
  2.989786e+01    7.346425e-01
  2.992961e+01    7.414203e-01
  2.996136e+01    7.250183e-01
  2.999312e+01    7.285838e-01
  3.002487e+01    7.590212e-01
  3.005662e+01    7.545216e-01
  3.008837e+01    7.675479e-01
  3.012012e+01    7.327270e-01
  3.015187e+01    7.329628e-01
  3.018362e+01    7.384443e-01
  3.021537e+01    7.435938e-01
  3.024712e+01    7.312929e-01
  3.027888e+01    7.217368e-01
  3.031063e+01    7.414397e-01
  3.034238e+01    7.403691e-01
  3.037413e+01    7.371058e-01
  3.040588e+01    7.326491e-01
  3.043763e+01    7.236654e-01
  3.046938e+01    7.227121e-01
  3.050113e+01    7.231803e-01
  3.053288e+01    7.222348e-01
  3.056464e+01    7.120029e-01
  3.059639e+01    7.270293e-01
  3.062814e+01    7.327988e-01
  3.065989e+01    7.323289e-01
  3.069164e+01    7.222435e-01
  3.072339e+01    7.060049e-01
  3.075514e+01    7.476940e-01
  3.078689e+01    7.305524e-01
  3.081865e+01    7.418313e-01
  3.085040e+01    7.291993e-01
  3.088215e+01    7.231772e-01
  3.091390e+01    7.379270e-01
  3.094565e+01    7.296047e-01
  3.097740e+01    7.161614e-01
  3.100915e+01    7.314730e-01
  3.104090e+01    7.406869e-01
  3.107265e+01    7.189261e-01
  3.110441e+01    7.642511e-01
  3.113616e+01    7.510427e-01
  3.116791e+01    7.262173e-01
  3.119966e+01    7.532323e-01
  3.123141e+01    7.496372e-01
  3.126316e+01    7.456484e-01
  3.129491e+01    7.567480e-01
  3.132666e+01    7.376996e-01
  3.135841e+01    7.505322e-01
  3.139017e+01    7.807329e-01
  3.142192e+01    7.366886e-01
  3.145367e+01    7.608190e-01
  3.148542e+01    7.849900e-01
  3.151717e+01    8.010409e-01
  3.154892e+01    7.934630e-01
  3.158067e+01    7.965127e-01
  3.161242e+01    8.289301e-01
  3.164418e+01    8.348027e-01
  3.167593e+01    8.651831e-01
  3.170768e+01    9.473515e-01
  3.173943e+01    9.633521e-01
  3.177118e+01    1.057985e+00
  3.180293e+01    1.170052e+00
  3.183468e+01    1.378257e+00
  3.186643e+01    1.661341e+00
  3.189818e+01    2.044029e+00
  3.192994e+01    2.396569e+00
  3.196169e+01    2.591742e+00
  3.199344e+01    2.497131e+00
  3.202519e+01    2.144634e+00
  3.205694e+01    1.771415e+00
  3.208869e+01    1.445222e+00
  3.212044e+01    1.246860e+00
  3.215219e+01    1.071210e+00
  3.218394e+01    9.930212e-01
  3.221570e+01    9.042678e-01
  3.224745e+01    8.762862e-01
  3.227920e+01    8.569596e-01
  3.231095e+01    8.190278e-01
  3.234270e+01    8.124400e-01
  3.237445e+01    7.976176e-01
  3.240620e+01    7.753072e-01
  3.243795e+01    7.551296e-01
  3.246970e+01    7.617062e-01
  3.250146e+01    7.657484e-01
  3.253321e+01    7.196348e-01
  3.254908e+01    7.452522e-01