File: XRD/2024-07-27_002_Ru-CGO-ex_Activtation_ramp_000002_data_000017.dat
# == pyFAI calibration ==
# Distance Sample to Detector: 0.4 m
# PONI: 9.750e-02, 1.135e-01 m
# Rotations: -0.000175 0.000000 -0.000000 rad
#
# == Fit2d calibration ==
# Distance Sample-beamCenter: 400.000 mm
# Center: x=1514.000, y=1300.000 pix
# Tilt: 0.010 deg  TiltPlanRot: 0.010 deg
#
# Detector Detector	 Spline= None	 PixelSize= 7.500e-05, 7.500e-05 m
#    Detector has a mask: False
#    Detector has a dark current: False
#    detector has a flat field: False
#
# Wavelength: 6.888e-11 m
# Mask applied: user provided
# Dark current applied: False
# Flat field applied: False
# Polarization factor: 0.99
# Normalization factor: 1.0
# --> /home/myspot/data/2024_07_Rosario/Ru-CGO-ex/2024-07-27_002_Ru-CGO-ex_Activtation_ramp_000002_data_000017.dat
#       q_nm^-1             I
  2.003187e-02    0.000000e+00
  5.178302e-02    1.484000e-01
  8.353417e-02    3.255607e-02
  1.152853e-01    6.390022e-02
  1.470365e-01    1.407752e-02
  1.787876e-01    2.775709e-02
  2.105388e-01    3.172471e-02
  2.422899e-01    4.495687e-02
  2.740411e-01    0.000000e+00
  3.057922e-01    3.620353e-02
  3.375433e-01    3.126872e-02
  3.692945e-01    5.479955e-02
  4.010456e-01    1.129068e-02
  4.327968e-01    5.450047e-02
  4.645479e-01    1.258146e-02
  4.962991e-01    3.473058e-02
  5.280502e-01    3.346231e-02
  5.598014e-01    4.771382e-02
  5.915525e-01    4.527780e-02
  6.233037e-01    2.110166e-02
  6.550548e-01    5.395764e-02
  6.868060e-01    1.714653e-02
  7.185571e-01    3.744253e-02
  7.503083e-01    4.890206e-02
  7.820594e-01    1.061801e-01
  8.138106e-01    2.535999e-01
  8.455617e-01    2.350428e-01
  8.773129e-01    4.267713e-01
  9.090640e-01    5.002757e-01
  9.408152e-01    7.596338e-01
  9.725663e-01    8.820609e-01
  1.004317e+00    1.044442e+00
  1.036069e+00    1.150074e+00
  1.067820e+00    1.313854e+00
  1.099571e+00    1.386293e+00
  1.131322e+00    1.493558e+00
  1.163073e+00    1.504172e+00
  1.194824e+00    1.615865e+00
  1.226575e+00    2.048238e+00
  1.258327e+00    2.333056e+00
  1.290078e+00    2.477112e+00
  1.321829e+00    2.609789e+00
  1.353580e+00    2.636767e+00
  1.385331e+00    2.596788e+00
  1.417082e+00    2.665800e+00
  1.448834e+00    2.791503e+00
  1.480585e+00    2.929036e+00
  1.512336e+00    3.085515e+00
  1.544087e+00    3.164631e+00
  1.575838e+00    2.947052e+00
  1.607589e+00    2.958010e+00
  1.639340e+00    2.935512e+00
  1.671092e+00    3.041566e+00
  1.702843e+00    3.083924e+00
  1.734594e+00    2.929154e+00
  1.766345e+00    2.804585e+00
  1.798096e+00    2.945047e+00
  1.829847e+00    2.887424e+00
  1.861598e+00    2.811090e+00
  1.893350e+00    2.807501e+00
  1.925101e+00    2.716944e+00
  1.956852e+00    2.654739e+00
  1.988603e+00    2.831731e+00
  2.020354e+00    2.864744e+00
  2.052105e+00    2.623739e+00
  2.083856e+00    2.846082e+00
  2.115608e+00    2.797303e+00
  2.147359e+00    2.715095e+00
  2.179110e+00    2.750774e+00
  2.210861e+00    2.738710e+00
  2.242612e+00    2.955177e+00
  2.274363e+00    2.820554e+00
  2.306115e+00    2.762472e+00
  2.337866e+00    2.844107e+00
  2.369617e+00    2.868604e+00
  2.401368e+00    2.849387e+00
  2.433119e+00    2.891764e+00
  2.464870e+00    2.829387e+00
  2.496621e+00    2.831789e+00
  2.528373e+00    2.859576e+00
  2.560124e+00    2.799155e+00
  2.591875e+00    2.900722e+00
  2.623626e+00    2.839600e+00
  2.655377e+00    2.887835e+00
  2.687128e+00    2.787640e+00
  2.718879e+00    2.919817e+00
  2.750631e+00    2.698773e+00
  2.782382e+00    2.947914e+00
  2.814133e+00    2.914662e+00
  2.845884e+00    2.836110e+00
  2.877635e+00    2.950103e+00
  2.909386e+00    2.934849e+00
  2.941137e+00    2.875386e+00
  2.972889e+00    2.883420e+00
  3.004640e+00    2.853122e+00
  3.036391e+00    2.879123e+00
  3.068142e+00    3.024456e+00
  3.099893e+00    2.921162e+00
  3.131644e+00    3.028688e+00
  3.163395e+00    2.967590e+00
  3.195147e+00    2.921009e+00
  3.226898e+00    2.901750e+00
  3.258649e+00    2.915029e+00
  3.290400e+00    2.849715e+00
  3.322151e+00    2.982984e+00
  3.353902e+00    2.948274e+00
  3.385654e+00    2.890011e+00
  3.417405e+00    2.994668e+00
  3.449156e+00    3.008091e+00
  3.480907e+00    2.902551e+00
  3.512658e+00    2.985117e+00
  3.544409e+00    2.957525e+00
  3.576160e+00    2.958657e+00
  3.607912e+00    3.031211e+00
  3.639663e+00    2.953833e+00
  3.671414e+00    2.954360e+00
  3.703165e+00    3.000467e+00
  3.734916e+00    3.042152e+00
  3.766667e+00    3.025337e+00
  3.798418e+00    3.046233e+00
  3.830170e+00    2.987572e+00
  3.861921e+00    3.037036e+00
  3.893672e+00    3.025326e+00
  3.925423e+00    3.000005e+00
  3.957174e+00    3.004498e+00
  3.988925e+00    3.077033e+00
  4.020676e+00    2.968963e+00
  4.052428e+00    3.058066e+00
  4.084179e+00    3.086067e+00
  4.115930e+00    3.019661e+00
  4.147681e+00    3.088165e+00
  4.179432e+00    3.129877e+00
  4.211183e+00    3.059279e+00
  4.242935e+00    3.086494e+00
  4.274686e+00    3.070020e+00
  4.306437e+00    3.026352e+00
  4.338188e+00    3.104794e+00
  4.369939e+00    3.114520e+00
  4.401690e+00    3.125282e+00
  4.433441e+00    3.095848e+00
  4.465193e+00    3.121496e+00
  4.496944e+00    3.100162e+00
  4.528695e+00    3.171107e+00
  4.560446e+00    3.135597e+00
  4.592197e+00    2.978246e+00
  4.623948e+00    3.134779e+00
  4.655699e+00    3.041535e+00
  4.687451e+00    3.143201e+00
  4.719202e+00    3.104151e+00
  4.750953e+00    3.109150e+00
  4.782704e+00    3.112891e+00
  4.814455e+00    3.164479e+00
  4.846206e+00    3.149778e+00
  4.877957e+00    3.137151e+00
  4.909709e+00    3.105580e+00
  4.941460e+00    3.097285e+00
  4.973211e+00    3.265869e+00
  5.004962e+00    3.107917e+00
  5.036713e+00    3.148316e+00
  5.068464e+00    3.131337e+00
  5.100216e+00    3.173410e+00
  5.131967e+00    3.155081e+00
  5.163718e+00    3.156697e+00
  5.195469e+00    3.114621e+00
  5.227220e+00    3.115397e+00
  5.258971e+00    3.216186e+00
  5.290722e+00    3.219939e+00
  5.322474e+00    3.253234e+00
  5.354225e+00    3.211449e+00
  5.385976e+00    3.139646e+00
  5.417727e+00    3.148764e+00
  5.449478e+00    3.144403e+00
  5.481229e+00    3.177170e+00
  5.512980e+00    3.096461e+00
  5.544732e+00    3.155328e+00
  5.576483e+00    3.090428e+00
  5.608234e+00    3.093530e+00
  5.639985e+00    3.095900e+00
  5.671736e+00    3.124604e+00
  5.703487e+00    3.108182e+00
  5.735238e+00    3.090429e+00
  5.766990e+00    2.957735e+00
  5.798741e+00    3.031279e+00
  5.830492e+00    3.005687e+00
  5.862243e+00    3.074665e+00
  5.893994e+00    3.073687e+00
  5.925745e+00    3.012717e+00
  5.957497e+00    3.038785e+00
  5.989248e+00    3.060141e+00
  6.020999e+00    3.031065e+00
  6.052750e+00    2.968080e+00
  6.084501e+00    3.047618e+00
  6.116252e+00    3.161554e+00
  6.148003e+00    3.135957e+00
  6.179755e+00    3.119834e+00
  6.211506e+00    3.129761e+00
  6.243257e+00    3.118882e+00
  6.275008e+00    3.039138e+00
  6.306759e+00    3.004664e+00
  6.338510e+00    3.034288e+00
  6.370261e+00    3.136313e+00
  6.402013e+00    3.054886e+00
  6.433764e+00    3.085892e+00
  6.465515e+00    2.998883e+00
  6.497266e+00    3.048264e+00
  6.529017e+00    3.059119e+00
  6.560768e+00    3.028255e+00
  6.592519e+00    3.124295e+00
  6.624271e+00    3.061105e+00
  6.656022e+00    3.116812e+00
  6.687773e+00    3.008041e+00
  6.719524e+00    3.060630e+00
  6.751275e+00    3.001332e+00
  6.783026e+00    2.997813e+00
  6.814777e+00    3.016710e+00
  6.846529e+00    2.999031e+00
  6.878280e+00    3.114991e+00
  6.910031e+00    3.097214e+00
  6.941782e+00    3.006794e+00
  6.973533e+00    3.068238e+00
  7.005284e+00    3.000585e+00
  7.037036e+00    2.978368e+00
  7.068787e+00    3.075961e+00
  7.100538e+00    3.005777e+00
  7.132289e+00    3.010413e+00
  7.164040e+00    3.059822e+00
  7.195791e+00    2.977463e+00
  7.227542e+00    3.106827e+00
  7.259294e+00    3.034096e+00
  7.291045e+00    3.024976e+00
  7.322796e+00    3.102840e+00
  7.354547e+00    3.000256e+00
  7.386298e+00    3.002548e+00
  7.418049e+00    2.997160e+00
  7.449800e+00    2.980939e+00
  7.481552e+00    2.988692e+00
  7.513303e+00    3.059492e+00
  7.545054e+00    2.944174e+00
  7.576805e+00    3.027847e+00
  7.608556e+00    3.047918e+00
  7.640307e+00    2.987507e+00
  7.672058e+00    2.974982e+00
  7.703810e+00    3.034095e+00
  7.735561e+00    2.897364e+00
  7.767312e+00    3.019189e+00
  7.799063e+00    2.879705e+00
  7.830814e+00    2.953376e+00
  7.862565e+00    2.931584e+00
  7.894317e+00    2.957568e+00
  7.926068e+00    2.970796e+00
  7.957819e+00    2.994580e+00
  7.989570e+00    2.940824e+00
  8.021321e+00    2.961093e+00
  8.053072e+00    2.943735e+00
  8.084823e+00    2.989612e+00
  8.116575e+00    2.923142e+00
  8.148326e+00    2.926228e+00
  8.180077e+00    2.971180e+00
  8.211828e+00    2.958792e+00
  8.243579e+00    2.929736e+00
  8.275330e+00    2.946934e+00
  8.307081e+00    3.008678e+00
  8.338833e+00    2.943888e+00
  8.370584e+00    2.994198e+00
  8.402335e+00    2.878701e+00
  8.434086e+00    2.863253e+00
  8.465837e+00    2.972797e+00
  8.497588e+00    2.887141e+00
  8.529339e+00    2.941604e+00
  8.561091e+00    2.919380e+00
  8.592842e+00    2.859248e+00
  8.624593e+00    2.878113e+00
  8.656344e+00    2.907665e+00
  8.688095e+00    2.868769e+00
  8.719846e+00    2.932313e+00
  8.751598e+00    2.868129e+00
  8.783349e+00    2.904575e+00
  8.815100e+00    2.899369e+00
  8.846851e+00    2.868420e+00
  8.878602e+00    2.869116e+00
  8.910353e+00    2.806200e+00
  8.942104e+00    2.862292e+00
  8.973856e+00    2.826725e+00
  9.005607e+00    2.838216e+00
  9.037358e+00    2.839405e+00
  9.069109e+00    2.814349e+00
  9.100860e+00    2.759211e+00
  9.132611e+00    2.848222e+00
  9.164362e+00    2.787248e+00
  9.196114e+00    2.842280e+00
  9.227865e+00    2.849594e+00
  9.259616e+00    2.814629e+00
  9.291367e+00    2.775529e+00
  9.323118e+00    2.786915e+00
  9.354869e+00    2.780286e+00
  9.386620e+00    2.722096e+00
  9.418372e+00    2.756508e+00
  9.450123e+00    2.765180e+00
  9.481874e+00    2.785642e+00
  9.513625e+00    2.736076e+00
  9.545376e+00    2.813368e+00
  9.577127e+00    2.778357e+00
  9.608878e+00    2.792506e+00
  9.640630e+00    2.745119e+00
  9.672381e+00    2.740744e+00
  9.704132e+00    2.755076e+00
  9.735883e+00    2.739320e+00
  9.767634e+00    2.764679e+00
  9.799385e+00    2.781328e+00
  9.831137e+00    2.764010e+00
  9.862888e+00    2.720129e+00
  9.894639e+00    2.682953e+00
  9.926390e+00    2.819775e+00
  9.958141e+00    2.687956e+00
  9.989892e+00    2.711458e+00
  1.002164e+01    2.725245e+00
  1.005339e+01    2.682370e+00
  1.008515e+01    2.753539e+00
  1.011690e+01    2.665397e+00
  1.014865e+01    2.662259e+00
  1.018040e+01    2.660068e+00
  1.021215e+01    2.652802e+00
  1.024390e+01    2.645219e+00
  1.027565e+01    2.673962e+00
  1.030740e+01    2.684571e+00
  1.033915e+01    2.591636e+00
  1.037091e+01    2.646168e+00
  1.040266e+01    2.641726e+00
  1.043441e+01    2.620289e+00
  1.046616e+01    2.575137e+00
  1.049791e+01    2.639684e+00
  1.052966e+01    2.607727e+00
  1.056141e+01    2.641096e+00
  1.059316e+01    2.642503e+00
  1.062492e+01    2.566667e+00
  1.065667e+01    2.569836e+00
  1.068842e+01    2.609919e+00
  1.072017e+01    2.606538e+00
  1.075192e+01    2.505442e+00
  1.078367e+01    2.491133e+00
  1.081542e+01    2.533580e+00
  1.084717e+01    2.545282e+00
  1.087892e+01    2.542652e+00
  1.091068e+01    2.555521e+00
  1.094243e+01    2.531892e+00
  1.097418e+01    2.560190e+00
  1.100593e+01    2.529468e+00
  1.103768e+01    2.472726e+00
  1.106943e+01    2.432479e+00
  1.110118e+01    2.518316e+00
  1.113293e+01    2.522090e+00
  1.116468e+01    2.495910e+00
  1.119644e+01    2.481824e+00
  1.122819e+01    2.448244e+00
  1.125994e+01    2.477916e+00
  1.129169e+01    2.463362e+00
  1.132344e+01    2.449521e+00
  1.135519e+01    2.412803e+00
  1.138694e+01    2.393501e+00
  1.141869e+01    2.415664e+00
  1.145045e+01    2.439093e+00
  1.148220e+01    2.357927e+00
  1.151395e+01    2.439220e+00
  1.154570e+01    2.436961e+00
  1.157745e+01    2.407589e+00
  1.160920e+01    2.401571e+00
  1.164095e+01    2.376025e+00
  1.167270e+01    2.413616e+00
  1.170445e+01    2.402054e+00
  1.173621e+01    2.427575e+00
  1.176796e+01    2.408478e+00
  1.179971e+01    2.393163e+00
  1.183146e+01    2.376042e+00
  1.186321e+01    2.336751e+00
  1.189496e+01    2.400642e+00
  1.192671e+01    2.383403e+00
  1.195846e+01    2.362699e+00
  1.199021e+01    2.395708e+00
  1.202197e+01    2.347806e+00
  1.205372e+01    2.357655e+00
  1.208547e+01    2.371447e+00
  1.211722e+01    2.344697e+00
  1.214897e+01    2.330672e+00
  1.218072e+01    2.339054e+00
  1.221247e+01    2.369381e+00
  1.224422e+01    2.351593e+00
  1.227597e+01    2.349145e+00
  1.230773e+01    2.328884e+00
  1.233948e+01    2.359699e+00
  1.237123e+01    2.386844e+00
  1.240298e+01    2.391021e+00
  1.243473e+01    2.381136e+00
  1.246648e+01    2.374995e+00
  1.249823e+01    2.374438e+00
  1.252998e+01    2.418396e+00
  1.256174e+01    2.430214e+00
  1.259349e+01    2.440968e+00
  1.262524e+01    2.427514e+00
  1.265699e+01    2.355049e+00
  1.268874e+01    2.490134e+00
  1.272049e+01    2.527687e+00
  1.275224e+01    2.605722e+00
  1.278399e+01    2.670425e+00
  1.281574e+01    2.737166e+00
  1.284750e+01    2.861359e+00
  1.287925e+01    3.037170e+00
  1.291100e+01    3.239411e+00
  1.294275e+01    3.652382e+00
  1.297450e+01    4.266494e+00
  1.300625e+01    5.251676e+00
  1.303800e+01    6.622104e+00
  1.306975e+01    8.948517e+00
  1.310150e+01    1.186527e+01
  1.313326e+01    1.491871e+01
  1.316501e+01    1.794600e+01
  1.319676e+01    1.985528e+01
  1.322851e+01    1.858486e+01
  1.326026e+01    1.419156e+01
  1.329201e+01    9.857457e+00
  1.332376e+01    7.164908e+00
  1.335551e+01    5.526660e+00
  1.338727e+01    4.476005e+00
  1.341902e+01    3.761694e+00
  1.345077e+01    3.398201e+00
  1.348252e+01    3.044853e+00
  1.351427e+01    2.877942e+00
  1.354602e+01    2.683257e+00
  1.357777e+01    2.655646e+00
  1.360952e+01    2.519552e+00
  1.364127e+01    2.456010e+00
  1.367303e+01    2.384341e+00
  1.370478e+01    2.312403e+00
  1.373653e+01    2.273281e+00
  1.376828e+01    2.244977e+00
  1.380003e+01    2.209583e+00
  1.383178e+01    2.192628e+00
  1.386353e+01    2.158834e+00
  1.389528e+01    2.145169e+00
  1.392703e+01    2.165592e+00
  1.395879e+01    2.082163e+00
  1.399054e+01    2.105469e+00
  1.402229e+01    2.041084e+00
  1.405404e+01    2.052546e+00
  1.408579e+01    2.086118e+00
  1.411754e+01    2.063645e+00
  1.414929e+01    2.038882e+00
  1.418104e+01    2.005239e+00
  1.421279e+01    2.000997e+00
  1.424455e+01    2.005239e+00
  1.427630e+01    2.015303e+00
  1.430805e+01    2.007200e+00
  1.433980e+01    1.963332e+00
  1.437155e+01    1.933740e+00
  1.440330e+01    1.937837e+00
  1.443505e+01    1.947645e+00
  1.446680e+01    1.973745e+00
  1.449856e+01    1.951852e+00
  1.453031e+01    1.950055e+00
  1.456206e+01    1.911312e+00
  1.459381e+01    1.938983e+00
  1.462556e+01    2.002893e+00
  1.465731e+01    1.979153e+00
  1.468906e+01    1.925981e+00
  1.472081e+01    1.966943e+00
  1.475256e+01    1.929369e+00
  1.478432e+01    1.907306e+00
  1.481607e+01    1.959791e+00
  1.484782e+01    1.974994e+00
  1.487957e+01    1.969712e+00
  1.491132e+01    1.955413e+00
  1.494307e+01    2.019661e+00
  1.497482e+01    2.106737e+00
  1.500657e+01    2.103983e+00
  1.503832e+01    2.296239e+00
  1.507008e+01    2.421983e+00
  1.510183e+01    2.745457e+00
  1.513358e+01    3.194269e+00
  1.516533e+01    3.897584e+00
  1.519708e+01    4.838113e+00
  1.522883e+01    5.624107e+00
  1.526058e+01    6.362088e+00
  1.529233e+01    6.644147e+00
  1.532409e+01    6.297990e+00
  1.535584e+01    5.114897e+00
  1.538759e+01    3.968657e+00
  1.541934e+01    3.167638e+00
  1.545109e+01    2.721180e+00
  1.548284e+01    2.391380e+00
  1.551459e+01    2.205304e+00
  1.554634e+01    2.094054e+00
  1.557809e+01    1.993413e+00
  1.560985e+01    1.928217e+00
  1.564160e+01    1.882437e+00
  1.567335e+01    1.825703e+00
  1.570510e+01    1.769983e+00
  1.573685e+01    1.790105e+00
  1.576860e+01    1.736161e+00
  1.580035e+01    1.733335e+00
  1.583210e+01    1.676512e+00
  1.586385e+01    1.688136e+00
  1.589561e+01    1.667997e+00
  1.592736e+01    1.646892e+00
  1.595911e+01    1.634609e+00
  1.599086e+01    1.670782e+00
  1.602261e+01    1.591717e+00
  1.605436e+01    1.632524e+00
  1.608611e+01    1.591201e+00
  1.611786e+01    1.610572e+00
  1.614961e+01    1.599169e+00
  1.618137e+01    1.599145e+00
  1.621312e+01    1.625144e+00
  1.624487e+01    1.580896e+00
  1.627662e+01    1.571506e+00
  1.630837e+01    1.514392e+00
  1.634012e+01    1.584204e+00
  1.637187e+01    1.544251e+00
  1.640362e+01    1.567099e+00
  1.643538e+01    1.563805e+00
  1.646713e+01    1.524346e+00
  1.649888e+01    1.535276e+00
  1.653063e+01    1.493512e+00
  1.656238e+01    1.502278e+00
  1.659413e+01    1.516830e+00
  1.662588e+01    1.527326e+00
  1.665763e+01    1.528514e+00
  1.668938e+01    1.485129e+00
  1.672114e+01    1.482635e+00
  1.675289e+01    1.501944e+00
  1.678464e+01    1.504135e+00
  1.681639e+01    1.501989e+00
  1.684814e+01    1.488803e+00
  1.687989e+01    1.478661e+00
  1.691164e+01    1.486454e+00
  1.694339e+01    1.453560e+00
  1.697514e+01    1.471394e+00
  1.700690e+01    1.449408e+00
  1.703865e+01    1.452898e+00
  1.707040e+01    1.429139e+00
  1.710215e+01    1.461488e+00
  1.713390e+01    1.423445e+00
  1.716565e+01    1.421340e+00
  1.719740e+01    1.411804e+00
  1.722915e+01    1.393281e+00
  1.726091e+01    1.393836e+00
  1.729266e+01    1.405175e+00
  1.732441e+01    1.438460e+00
  1.735616e+01    1.400298e+00
  1.738791e+01    1.414232e+00
  1.741966e+01    1.383043e+00
  1.745141e+01    1.351822e+00
  1.748316e+01    1.405066e+00
  1.751491e+01    1.392098e+00
  1.754667e+01    1.385996e+00
  1.757842e+01    1.341066e+00
  1.761017e+01    1.368295e+00
  1.764192e+01    1.360144e+00
  1.767367e+01    1.388452e+00
  1.770542e+01    1.349357e+00
  1.773717e+01    1.385719e+00
  1.776892e+01    1.344852e+00
  1.780067e+01    1.350869e+00
  1.783243e+01    1.366326e+00
  1.786418e+01    1.325063e+00
  1.789593e+01    1.317736e+00
  1.792768e+01    1.319806e+00
  1.795943e+01    1.344530e+00
  1.799118e+01    1.335428e+00
  1.802293e+01    1.304406e+00
  1.805468e+01    1.314266e+00
  1.808643e+01    1.305798e+00
  1.811819e+01    1.290379e+00
  1.814994e+01    1.280803e+00
  1.818169e+01    1.310277e+00
  1.821344e+01    1.296598e+00
  1.824519e+01    1.321482e+00
  1.827694e+01    1.298348e+00
  1.830869e+01    1.291278e+00
  1.834044e+01    1.296866e+00
  1.837220e+01    1.285191e+00
  1.840395e+01    1.265740e+00
  1.843570e+01    1.276814e+00
  1.846745e+01    1.292547e+00
  1.849920e+01    1.291871e+00
  1.853095e+01    1.275947e+00
  1.856270e+01    1.278872e+00
  1.859445e+01    1.244511e+00
  1.862620e+01    1.249555e+00
  1.865796e+01    1.243726e+00
  1.868971e+01    1.216901e+00
  1.872146e+01    1.250998e+00
  1.875321e+01    1.252499e+00
  1.878496e+01    1.251700e+00
  1.881671e+01    1.235963e+00
  1.884846e+01    1.231889e+00
  1.888021e+01    1.246047e+00
  1.891196e+01    1.236741e+00
  1.894372e+01    1.218651e+00
  1.897547e+01    1.213640e+00
  1.900722e+01    1.231791e+00
  1.903897e+01    1.231079e+00
  1.907072e+01    1.220566e+00
  1.910247e+01    1.229697e+00
  1.913422e+01    1.187112e+00
  1.916597e+01    1.193447e+00
  1.919773e+01    1.217237e+00
  1.922948e+01    1.214788e+00
  1.926123e+01    1.202205e+00
  1.929298e+01    1.182562e+00
  1.932473e+01    1.183792e+00
  1.935648e+01    1.180463e+00
  1.938823e+01    1.175093e+00
  1.941998e+01    1.177783e+00
  1.945173e+01    1.212503e+00
  1.948349e+01    1.192269e+00
  1.951524e+01    1.190515e+00
  1.954699e+01    1.174141e+00
  1.957874e+01    1.151756e+00
  1.961049e+01    1.191247e+00
  1.964224e+01    1.188451e+00
  1.967399e+01    1.179253e+00
  1.970574e+01    1.162048e+00
  1.973749e+01    1.173643e+00
  1.976925e+01    1.153759e+00
  1.980100e+01    1.128651e+00
  1.983275e+01    1.146780e+00
  1.986450e+01    1.146414e+00
  1.989625e+01    1.158457e+00
  1.992800e+01    1.169040e+00
  1.995975e+01    1.158671e+00
  1.999150e+01    1.127869e+00
  2.002325e+01    1.147730e+00
  2.005501e+01    1.167108e+00
  2.008676e+01    1.136464e+00
  2.011851e+01    1.111111e+00
  2.015026e+01    1.111641e+00
  2.018201e+01    1.120375e+00
  2.021376e+01    1.113039e+00
  2.024551e+01    1.112200e+00
  2.027726e+01    1.109971e+00
  2.030902e+01    1.126490e+00
  2.034077e+01    1.088170e+00
  2.037252e+01    1.126012e+00
  2.040427e+01    1.122479e+00
  2.043602e+01    1.120937e+00
  2.046777e+01    1.091841e+00
  2.049952e+01    1.130643e+00
  2.053127e+01    1.092558e+00
  2.056302e+01    1.121123e+00
  2.059478e+01    1.111771e+00
  2.062653e+01    1.091992e+00
  2.065828e+01    1.113506e+00
  2.069003e+01    1.082588e+00
  2.072178e+01    1.090539e+00
  2.075353e+01    1.097144e+00
  2.078528e+01    1.112857e+00
  2.081703e+01    1.108389e+00
  2.084878e+01    1.110385e+00
  2.088054e+01    1.115738e+00
  2.091229e+01    1.109058e+00
  2.094404e+01    1.108752e+00
  2.097579e+01    1.111147e+00
  2.100754e+01    1.089510e+00
  2.103929e+01    1.081831e+00
  2.107104e+01    1.094707e+00
  2.110279e+01    1.116320e+00
  2.113455e+01    1.102811e+00
  2.116630e+01    1.113869e+00
  2.119805e+01    1.113653e+00
  2.122980e+01    1.148163e+00
  2.126155e+01    1.122721e+00
  2.129330e+01    1.148524e+00
  2.132505e+01    1.135963e+00
  2.135680e+01    1.186312e+00
  2.138855e+01    1.188205e+00
  2.142031e+01    1.195058e+00
  2.145206e+01    1.209701e+00
  2.148381e+01    1.260082e+00
  2.151556e+01    1.293407e+00
  2.154731e+01    1.363274e+00
  2.157906e+01    1.446729e+00
  2.161081e+01    1.538623e+00
  2.164256e+01    1.736927e+00
  2.167431e+01    1.934576e+00
  2.170607e+01    2.261883e+00
  2.173782e+01    2.767394e+00
  2.176957e+01    3.593747e+00
  2.180132e+01    4.748920e+00
  2.183307e+01    6.239631e+00
  2.186482e+01    7.966428e+00
  2.189657e+01    9.759279e+00
  2.192832e+01    1.091896e+01
  2.196007e+01    1.055173e+01
  2.199183e+01    8.645497e+00
  2.202358e+01    6.314511e+00
  2.205533e+01    4.496429e+00
  2.208708e+01    3.423926e+00
  2.211883e+01    2.624386e+00
  2.215058e+01    2.188083e+00
  2.218233e+01    1.875125e+00
  2.221408e+01    1.647246e+00
  2.224584e+01    1.471804e+00
  2.227759e+01    1.392481e+00
  2.230934e+01    1.286836e+00
  2.234109e+01    1.244036e+00
  2.237284e+01    1.189765e+00
  2.240459e+01    1.154418e+00
  2.243634e+01    1.136276e+00
  2.246809e+01    1.100676e+00
  2.249984e+01    1.095388e+00
  2.253160e+01    1.049005e+00
  2.256335e+01    1.063673e+00
  2.259510e+01    1.029131e+00
  2.262685e+01    1.028476e+00
  2.265860e+01    1.001302e+00
  2.269035e+01    9.989473e-01
  2.272210e+01    1.002389e+00
  2.275385e+01    9.765401e-01
  2.278560e+01    9.858879e-01
  2.281736e+01    9.576672e-01
  2.284911e+01    9.481770e-01
  2.288086e+01    9.434990e-01
  2.291261e+01    9.402270e-01
  2.294436e+01    9.428619e-01
  2.297611e+01    9.583908e-01
  2.300786e+01    9.298325e-01
  2.303961e+01    9.192194e-01
  2.307137e+01    8.927706e-01
  2.310312e+01    9.237015e-01
  2.313487e+01    9.018894e-01
  2.316662e+01    8.776141e-01
  2.319837e+01    8.904185e-01
  2.323012e+01    8.975185e-01
  2.326187e+01    8.862153e-01
  2.329362e+01    8.853118e-01
  2.332537e+01    8.853120e-01
  2.335713e+01    9.012922e-01
  2.338888e+01    8.667881e-01
  2.342063e+01    8.752503e-01
  2.345238e+01    8.607237e-01
  2.348413e+01    8.519878e-01
  2.351588e+01    8.610520e-01
  2.354763e+01    8.625231e-01
  2.357938e+01    8.594373e-01
  2.361113e+01    8.560770e-01
  2.364289e+01    8.592011e-01
  2.367464e+01    8.471197e-01
  2.370639e+01    8.459400e-01
  2.373814e+01    8.556412e-01
  2.376989e+01    8.179656e-01
  2.380164e+01    8.359088e-01
  2.383339e+01    8.142437e-01
  2.386514e+01    8.147987e-01
  2.389689e+01    8.310934e-01
  2.392865e+01    8.105280e-01
  2.396040e+01    7.899596e-01
  2.399215e+01    8.038597e-01
  2.402390e+01    7.885768e-01
  2.405565e+01    7.962190e-01
  2.408740e+01    8.048011e-01
  2.411915e+01    8.054842e-01
  2.415090e+01    7.943635e-01
  2.418266e+01    7.984802e-01
  2.421441e+01    7.873059e-01
  2.424616e+01    8.043182e-01
  2.427791e+01    8.050455e-01
  2.430966e+01    7.887958e-01
  2.434141e+01    7.847303e-01
  2.437316e+01    8.019376e-01
  2.440491e+01    8.145650e-01
  2.443666e+01    8.152601e-01
  2.446842e+01    8.039138e-01
  2.450017e+01    8.033648e-01
  2.453192e+01    7.908676e-01
  2.456367e+01    8.058971e-01
  2.459542e+01    8.050871e-01
  2.462717e+01    7.924750e-01
  2.465892e+01    7.987660e-01
  2.469067e+01    8.014318e-01
  2.472242e+01    7.858420e-01
  2.475418e+01    8.171518e-01
  2.478593e+01    8.121287e-01
  2.481768e+01    7.992609e-01
  2.484943e+01    8.142441e-01
  2.488118e+01    7.953089e-01
  2.491293e+01    8.260456e-01
  2.494468e+01    8.112775e-01
  2.497643e+01    8.069104e-01
  2.500819e+01    8.184780e-01
  2.503994e+01    8.346841e-01
  2.507169e+01    8.133044e-01
  2.510344e+01    8.216327e-01
  2.513519e+01    8.342467e-01
  2.516694e+01    8.396443e-01
  2.519869e+01    8.494810e-01
  2.523044e+01    8.542396e-01
  2.526219e+01    8.792495e-01
  2.529395e+01    9.029709e-01
  2.532570e+01    8.865290e-01
  2.535745e+01    8.850150e-01
  2.538920e+01    9.082473e-01
  2.542095e+01    9.284887e-01
  2.545270e+01    9.532303e-01
  2.548445e+01    9.567357e-01
  2.551620e+01    9.917326e-01
  2.554795e+01    1.014712e+00
  2.557971e+01    1.080657e+00
  2.561146e+01    1.108020e+00
  2.564321e+01    1.182380e+00
  2.567496e+01    1.277280e+00
  2.570671e+01    1.376474e+00
  2.573846e+01    1.533675e+00
  2.577021e+01    1.821866e+00
  2.580196e+01    2.204963e+00
  2.583371e+01    2.739493e+00
  2.586547e+01    3.538569e+00
  2.589722e+01    4.704665e+00
  2.592897e+01    6.253251e+00
  2.596072e+01    7.821042e+00
  2.599247e+01    9.016764e+00
  2.602422e+01    9.083567e+00
  2.605597e+01    7.737554e+00
  2.608772e+01    5.911846e+00
  2.611948e+01    4.305444e+00
  2.615123e+01    3.180185e+00
  2.618298e+01    2.513155e+00
  2.621473e+01    2.017440e+00
  2.624648e+01    1.730169e+00
  2.627823e+01    1.499313e+00
  2.630998e+01    1.385989e+00
  2.634173e+01    1.255299e+00
  2.637348e+01    1.192960e+00
  2.640524e+01    1.074528e+00
  2.643699e+01    1.064962e+00
  2.646874e+01    1.050218e+00
  2.650049e+01    9.803242e-01
  2.653224e+01    9.952163e-01
  2.656399e+01    9.630654e-01
  2.659574e+01    9.526534e-01
  2.662749e+01    9.268758e-01
  2.665924e+01    9.166120e-01
  2.669100e+01    9.317459e-01
  2.672275e+01    9.291655e-01
  2.675450e+01    9.112079e-01
  2.678625e+01    9.082599e-01
  2.681800e+01    9.150013e-01
  2.684975e+01    9.238372e-01
  2.688150e+01    9.263029e-01
  2.691325e+01    9.240440e-01
  2.694501e+01    9.798982e-01
  2.697676e+01    9.968093e-01
  2.700851e+01    1.007720e+00
  2.704026e+01    1.073103e+00
  2.707201e+01    1.117819e+00
  2.710376e+01    1.247151e+00
  2.713551e+01    1.456864e+00
  2.716726e+01    1.702101e+00
  2.719901e+01    2.028896e+00
  2.723077e+01    2.407169e+00
  2.726252e+01    2.610422e+00
  2.729427e+01    2.544905e+00
  2.732602e+01    2.237273e+00
  2.735777e+01    1.817463e+00
  2.738952e+01    1.495871e+00
  2.742127e+01    1.307540e+00
  2.745302e+01    1.163326e+00
  2.748477e+01    1.067549e+00
  2.751653e+01    1.013417e+00
  2.754828e+01    9.562130e-01
  2.758003e+01    9.224267e-01
  2.761178e+01    9.013034e-01
  2.764353e+01    8.776718e-01
  2.767528e+01    8.708378e-01
  2.770703e+01    8.320397e-01
  2.773878e+01    8.583946e-01
  2.777054e+01    8.573179e-01
  2.780229e+01    8.620805e-01
  2.783404e+01    8.193836e-01
  2.786579e+01    8.361378e-01
  2.789754e+01    8.308138e-01
  2.792929e+01    8.205965e-01
  2.796104e+01    8.150474e-01
  2.799279e+01    8.122652e-01
  2.802454e+01    7.884010e-01
  2.805630e+01    8.133796e-01
  2.808805e+01    8.302578e-01
  2.811980e+01    8.017547e-01
  2.815155e+01    8.020897e-01
  2.818330e+01    7.875873e-01
  2.821505e+01    8.160562e-01
  2.824680e+01    8.038761e-01
  2.827855e+01    7.987027e-01
  2.831030e+01    7.890615e-01
  2.834206e+01    7.799945e-01
  2.837381e+01    7.780007e-01
  2.840556e+01    7.623729e-01
  2.843731e+01    7.810568e-01
  2.846906e+01    7.823711e-01
  2.850081e+01    7.664013e-01
  2.853256e+01    7.568458e-01
  2.856431e+01    7.773912e-01
  2.859606e+01    7.728283e-01
  2.862782e+01    7.806701e-01
  2.865957e+01    7.583924e-01
  2.869132e+01    7.716333e-01
  2.872307e+01    7.894744e-01
  2.875482e+01    7.692094e-01
  2.878657e+01    7.656499e-01
  2.881832e+01    7.802790e-01
  2.885007e+01    7.648509e-01
  2.888183e+01    7.879713e-01
  2.891358e+01    7.705674e-01
  2.894533e+01    7.540598e-01
  2.897708e+01    7.462566e-01
  2.900883e+01    7.496060e-01
  2.904058e+01    7.718885e-01
  2.907233e+01    7.378480e-01
  2.910408e+01    7.477003e-01
  2.913583e+01    7.484993e-01
  2.916759e+01    7.527823e-01
  2.919934e+01    7.567785e-01
  2.923109e+01    7.422829e-01
  2.926284e+01    7.424195e-01
  2.929459e+01    7.329033e-01
  2.932634e+01    7.414645e-01
  2.935809e+01    7.474499e-01
  2.938984e+01    7.420304e-01
  2.942159e+01    7.575949e-01
  2.945335e+01    7.404281e-01
  2.948510e+01    7.328625e-01
  2.951685e+01    7.343208e-01
  2.954860e+01    7.437032e-01
  2.958035e+01    6.983145e-01
  2.961210e+01    7.650572e-01
  2.964385e+01    7.313834e-01
  2.967560e+01    7.311025e-01
  2.970736e+01    7.373329e-01
  2.973911e+01    7.361636e-01
  2.977086e+01    7.304989e-01
  2.980261e+01    7.340460e-01
  2.983436e+01    7.362232e-01
  2.986611e+01    7.328525e-01
  2.989786e+01    7.431530e-01
  2.992961e+01    7.379934e-01
  2.996136e+01    7.454098e-01
  2.999312e+01    7.340878e-01
  3.002487e+01    7.446092e-01
  3.005662e+01    7.375801e-01
  3.008837e+01    7.507668e-01
  3.012012e+01    7.277746e-01
  3.015187e+01    7.302389e-01
  3.018362e+01    7.368938e-01
  3.021537e+01    7.171685e-01
  3.024712e+01    7.150148e-01
  3.027888e+01    7.169736e-01
  3.031063e+01    7.385656e-01
  3.034238e+01    7.527465e-01
  3.037413e+01    7.116302e-01
  3.040588e+01    7.407074e-01
  3.043763e+01    7.149153e-01
  3.046938e+01    7.287470e-01
  3.050113e+01    7.163771e-01
  3.053288e+01    7.058082e-01
  3.056464e+01    7.309870e-01
  3.059639e+01    7.204463e-01
  3.062814e+01    7.164908e-01
  3.065989e+01    7.436099e-01
  3.069164e+01    7.236906e-01
  3.072339e+01    7.133176e-01
  3.075514e+01    7.286257e-01
  3.078689e+01    7.347269e-01
  3.081865e+01    7.193841e-01
  3.085040e+01    7.213956e-01
  3.088215e+01    7.170714e-01
  3.091390e+01    7.363095e-01
  3.094565e+01    7.432874e-01
  3.097740e+01    7.203819e-01
  3.100915e+01    7.339148e-01
  3.104090e+01    7.407411e-01
  3.107265e+01    7.482633e-01
  3.110441e+01    7.434217e-01
  3.113616e+01    7.124807e-01
  3.116791e+01    7.404212e-01
  3.119966e+01    7.587427e-01
  3.123141e+01    7.540154e-01
  3.126316e+01    7.435887e-01
  3.129491e+01    7.401210e-01
  3.132666e+01    7.370077e-01
  3.135841e+01    7.657717e-01
  3.139017e+01    7.512602e-01
  3.142192e+01    7.464504e-01
  3.145367e+01    7.581625e-01
  3.148542e+01    7.674963e-01
  3.151717e+01    7.882050e-01
  3.154892e+01    7.973359e-01
  3.158067e+01    7.969203e-01
  3.161242e+01    8.244143e-01
  3.164418e+01    8.414012e-01
  3.167593e+01    8.639534e-01
  3.170768e+01    9.119576e-01
  3.173943e+01    9.970232e-01
  3.177118e+01    1.064853e+00
  3.180293e+01    1.189747e+00
  3.183468e+01    1.393790e+00
  3.186643e+01    1.659250e+00
  3.189818e+01    2.052943e+00
  3.192994e+01    2.425504e+00
  3.196169e+01    2.612231e+00
  3.199344e+01    2.508589e+00
  3.202519e+01    2.198389e+00
  3.205694e+01    1.794374e+00
  3.208869e+01    1.429965e+00
  3.212044e+01    1.216508e+00
  3.215219e+01    1.061905e+00
  3.218394e+01    9.855434e-01
  3.221570e+01    9.115504e-01
  3.224745e+01    8.711099e-01
  3.227920e+01    8.317446e-01
  3.231095e+01    8.109096e-01
  3.234270e+01    7.958497e-01
  3.237445e+01    7.602225e-01
  3.240620e+01    7.632857e-01
  3.243795e+01    7.639205e-01
  3.246970e+01    7.493804e-01
  3.250146e+01    7.488534e-01
  3.253321e+01    7.462994e-01
  3.254908e+01    7.656469e-01