File: XRD/2024-07-27_002_Ru-CGO-ex_Activtation_ramp_000002_data_000117.dat
# == pyFAI calibration ==
# Distance Sample to Detector: 0.4 m
# PONI: 9.750e-02, 1.135e-01 m
# Rotations: -0.000175 0.000000 -0.000000 rad
#
# == Fit2d calibration ==
# Distance Sample-beamCenter: 400.000 mm
# Center: x=1514.000, y=1300.000 pix
# Tilt: 0.010 deg  TiltPlanRot: 0.010 deg
#
# Detector Detector	 Spline= None	 PixelSize= 7.500e-05, 7.500e-05 m
#    Detector has a mask: False
#    Detector has a dark current: False
#    detector has a flat field: False
#
# Wavelength: 6.888e-11 m
# Mask applied: user provided
# Dark current applied: False
# Flat field applied: False
# Polarization factor: 0.99
# Normalization factor: 1.0
# --> /home/myspot/data/2024_07_Rosario/Ru-CGO-ex/2024-07-27_002_Ru-CGO-ex_Activtation_ramp_000002_data_000117.dat
#       q_nm^-1             I
  2.003187e-02    0.000000e+00
  5.178302e-02    4.982497e-02
  8.353417e-02    1.130121e-01
  1.152853e-01    1.798372e-02
  1.470365e-01    2.590703e-02
  1.787876e-01    1.610206e-02
  2.105388e-01    2.233973e-02
  2.422899e-01    2.112998e-02
  2.740411e-01    3.586060e-02
  3.057922e-01    3.986121e-02
  3.375433e-01    1.150587e-02
  3.692945e-01    2.652353e-02
  4.010456e-01    2.242617e-02
  4.327968e-01    2.269029e-02
  4.645479e-01    2.798286e-02
  4.962991e-01    2.694839e-02
  5.280502e-01    7.245600e-03
  5.598014e-01    4.031365e-02
  5.915525e-01    3.755449e-02
  6.233037e-01    5.362846e-02
  6.550548e-01    3.823205e-02
  6.868060e-01    7.039226e-02
  7.185571e-01    3.345187e-02
  7.503083e-01    3.068028e-02
  7.820594e-01    1.127891e-01
  8.138106e-01    1.929492e-01
  8.455617e-01    3.066290e-01
  8.773129e-01    3.846125e-01
  9.090640e-01    5.597143e-01
  9.408152e-01    6.870114e-01
  9.725663e-01    7.558070e-01
  1.004317e+00    1.010906e+00
  1.036069e+00    1.018276e+00
  1.067820e+00    1.314275e+00
  1.099571e+00    1.296253e+00
  1.131322e+00    1.433417e+00
  1.163073e+00    1.424756e+00
  1.194824e+00    1.599822e+00
  1.226575e+00    1.975672e+00
  1.258327e+00    2.336879e+00
  1.290078e+00    2.421266e+00
  1.321829e+00    2.634056e+00
  1.353580e+00    2.479038e+00
  1.385331e+00    2.588268e+00
  1.417082e+00    2.626979e+00
  1.448834e+00    2.567121e+00
  1.480585e+00    2.678000e+00
  1.512336e+00    2.818954e+00
  1.544087e+00    2.882276e+00
  1.575838e+00    2.968360e+00
  1.607589e+00    2.691345e+00
  1.639340e+00    2.904927e+00
  1.671092e+00    2.669632e+00
  1.702843e+00    2.717427e+00
  1.734594e+00    2.701885e+00
  1.766345e+00    2.788299e+00
  1.798096e+00    2.643858e+00
  1.829847e+00    2.615757e+00
  1.861598e+00    2.666804e+00
  1.893350e+00    2.598030e+00
  1.925101e+00    2.743901e+00
  1.956852e+00    2.752545e+00
  1.988603e+00    2.631721e+00
  2.020354e+00    2.682706e+00
  2.052105e+00    2.675517e+00
  2.083856e+00    2.685723e+00
  2.115608e+00    2.772464e+00
  2.147359e+00    2.802934e+00
  2.179110e+00    2.687644e+00
  2.210861e+00    2.712938e+00
  2.242612e+00    2.663698e+00
  2.274363e+00    2.588762e+00
  2.306115e+00    2.734082e+00
  2.337866e+00    2.709539e+00
  2.369617e+00    2.769745e+00
  2.401368e+00    2.675294e+00
  2.433119e+00    2.806435e+00
  2.464870e+00    2.681479e+00
  2.496621e+00    2.690934e+00
  2.528373e+00    2.809597e+00
  2.560124e+00    2.747320e+00
  2.591875e+00    2.775470e+00
  2.623626e+00    2.732854e+00
  2.655377e+00    2.758483e+00
  2.687128e+00    2.705821e+00
  2.718879e+00    2.750277e+00
  2.750631e+00    2.816177e+00
  2.782382e+00    2.702224e+00
  2.814133e+00    2.757847e+00
  2.845884e+00    2.857170e+00
  2.877635e+00    2.755782e+00
  2.909386e+00    2.737879e+00
  2.941137e+00    2.767371e+00
  2.972889e+00    2.720316e+00
  3.004640e+00    2.715820e+00
  3.036391e+00    2.782368e+00
  3.068142e+00    2.815352e+00
  3.099893e+00    2.932384e+00
  3.131644e+00    2.792722e+00
  3.163395e+00    2.819037e+00
  3.195147e+00    2.850963e+00
  3.226898e+00    2.845173e+00
  3.258649e+00    2.799501e+00
  3.290400e+00    2.923075e+00
  3.322151e+00    2.934360e+00
  3.353902e+00    2.853115e+00
  3.385654e+00    2.859655e+00
  3.417405e+00    2.901203e+00
  3.449156e+00    2.933245e+00
  3.480907e+00    2.843102e+00
  3.512658e+00    2.881500e+00
  3.544409e+00    2.873752e+00
  3.576160e+00    2.914759e+00
  3.607912e+00    2.865632e+00
  3.639663e+00    2.918329e+00
  3.671414e+00    2.914978e+00
  3.703165e+00    2.933451e+00
  3.734916e+00    2.999609e+00
  3.766667e+00    2.859064e+00
  3.798418e+00    2.949115e+00
  3.830170e+00    2.902508e+00
  3.861921e+00    2.956989e+00
  3.893672e+00    2.855552e+00
  3.925423e+00    2.967514e+00
  3.957174e+00    2.957219e+00
  3.988925e+00    2.956806e+00
  4.020676e+00    2.933460e+00
  4.052428e+00    2.953480e+00
  4.084179e+00    3.003783e+00
  4.115930e+00    2.910825e+00
  4.147681e+00    2.995428e+00
  4.179432e+00    2.937817e+00
  4.211183e+00    3.000735e+00
  4.242935e+00    2.974663e+00
  4.274686e+00    2.946484e+00
  4.306437e+00    2.941084e+00
  4.338188e+00    3.039315e+00
  4.369939e+00    2.964179e+00
  4.401690e+00    2.971256e+00
  4.433441e+00    3.054016e+00
  4.465193e+00    2.999091e+00
  4.496944e+00    3.043761e+00
  4.528695e+00    3.026333e+00
  4.560446e+00    3.042600e+00
  4.592197e+00    3.057399e+00
  4.623948e+00    3.036031e+00
  4.655699e+00    3.170163e+00
  4.687451e+00    3.156547e+00
  4.719202e+00    3.012213e+00
  4.750953e+00    3.110085e+00
  4.782704e+00    2.953552e+00
  4.814455e+00    3.048088e+00
  4.846206e+00    3.038156e+00
  4.877957e+00    3.079257e+00
  4.909709e+00    2.996538e+00
  4.941460e+00    2.960127e+00
  4.973211e+00    3.111275e+00
  5.004962e+00    3.052140e+00
  5.036713e+00    3.102826e+00
  5.068464e+00    3.178298e+00
  5.100216e+00    3.105212e+00
  5.131967e+00    3.104072e+00
  5.163718e+00    3.031479e+00
  5.195469e+00    3.079685e+00
  5.227220e+00    3.069902e+00
  5.258971e+00    3.031958e+00
  5.290722e+00    3.161824e+00
  5.322474e+00    3.029445e+00
  5.354225e+00    3.112884e+00
  5.385976e+00    3.106473e+00
  5.417727e+00    3.019149e+00
  5.449478e+00    3.032525e+00
  5.481229e+00    3.015443e+00
  5.512980e+00    3.091224e+00
  5.544732e+00    2.965500e+00
  5.576483e+00    2.971946e+00
  5.608234e+00    3.003250e+00
  5.639985e+00    3.090106e+00
  5.671736e+00    2.996871e+00
  5.703487e+00    3.023200e+00
  5.735238e+00    2.968589e+00
  5.766990e+00    2.995071e+00
  5.798741e+00    2.999201e+00
  5.830492e+00    3.028806e+00
  5.862243e+00    3.014329e+00
  5.893994e+00    2.958848e+00
  5.925745e+00    3.004524e+00
  5.957497e+00    2.936331e+00
  5.989248e+00    2.878358e+00
  6.020999e+00    2.926939e+00
  6.052750e+00    2.893365e+00
  6.084501e+00    2.989155e+00
  6.116252e+00    2.975992e+00
  6.148003e+00    3.005689e+00
  6.179755e+00    3.039747e+00
  6.211506e+00    2.984197e+00
  6.243257e+00    2.986045e+00
  6.275008e+00    2.988809e+00
  6.306759e+00    2.978228e+00
  6.338510e+00    2.958224e+00
  6.370261e+00    2.863739e+00
  6.402013e+00    2.993598e+00
  6.433764e+00    3.024394e+00
  6.465515e+00    2.990498e+00
  6.497266e+00    3.030838e+00
  6.529017e+00    2.992679e+00
  6.560768e+00    2.976718e+00
  6.592519e+00    3.024501e+00
  6.624271e+00    2.966398e+00
  6.656022e+00    3.030289e+00
  6.687773e+00    2.991554e+00
  6.719524e+00    2.981074e+00
  6.751275e+00    2.996397e+00
  6.783026e+00    3.001063e+00
  6.814777e+00    2.936979e+00
  6.846529e+00    2.967734e+00
  6.878280e+00    2.927174e+00
  6.910031e+00    2.937502e+00
  6.941782e+00    2.946891e+00
  6.973533e+00    3.023484e+00
  7.005284e+00    2.964603e+00
  7.037036e+00    2.968283e+00
  7.068787e+00    2.951358e+00
  7.100538e+00    2.867451e+00
  7.132289e+00    2.919575e+00
  7.164040e+00    2.900634e+00
  7.195791e+00    2.889062e+00
  7.227542e+00    2.961360e+00
  7.259294e+00    2.924778e+00
  7.291045e+00    2.983554e+00
  7.322796e+00    2.923490e+00
  7.354547e+00    2.923359e+00
  7.386298e+00    2.916673e+00
  7.418049e+00    2.904513e+00
  7.449800e+00    3.058496e+00
  7.481552e+00    2.896551e+00
  7.513303e+00    2.920387e+00
  7.545054e+00    2.950445e+00
  7.576805e+00    2.893543e+00
  7.608556e+00    2.931080e+00
  7.640307e+00    2.874384e+00
  7.672058e+00    2.949543e+00
  7.703810e+00    2.868739e+00
  7.735561e+00    2.839918e+00
  7.767312e+00    2.913752e+00
  7.799063e+00    2.883404e+00
  7.830814e+00    2.851107e+00
  7.862565e+00    2.916052e+00
  7.894317e+00    2.847504e+00
  7.926068e+00    2.837936e+00
  7.957819e+00    2.816443e+00
  7.989570e+00    2.894481e+00
  8.021321e+00    2.884575e+00
  8.053072e+00    2.916611e+00
  8.084823e+00    2.848068e+00
  8.116575e+00    2.869336e+00
  8.148326e+00    2.861424e+00
  8.180077e+00    2.939103e+00
  8.211828e+00    2.922418e+00
  8.243579e+00    2.923584e+00
  8.275330e+00    2.898118e+00
  8.307081e+00    2.812256e+00
  8.338833e+00    2.816306e+00
  8.370584e+00    2.853227e+00
  8.402335e+00    2.778661e+00
  8.434086e+00    2.829566e+00
  8.465837e+00    2.856439e+00
  8.497588e+00    2.832699e+00
  8.529339e+00    2.826423e+00
  8.561091e+00    2.785137e+00
  8.592842e+00    2.840568e+00
  8.624593e+00    2.871531e+00
  8.656344e+00    2.807836e+00
  8.688095e+00    2.837726e+00
  8.719846e+00    2.851077e+00
  8.751598e+00    2.810583e+00
  8.783349e+00    2.814364e+00
  8.815100e+00    2.884469e+00
  8.846851e+00    2.751491e+00
  8.878602e+00    2.734272e+00
  8.910353e+00    2.773339e+00
  8.942104e+00    2.772933e+00
  8.973856e+00    2.781945e+00
  9.005607e+00    2.757327e+00
  9.037358e+00    2.765960e+00
  9.069109e+00    2.768888e+00
  9.100860e+00    2.769481e+00
  9.132611e+00    2.733427e+00
  9.164362e+00    2.708948e+00
  9.196114e+00    2.736249e+00
  9.227865e+00    2.762485e+00
  9.259616e+00    2.738778e+00
  9.291367e+00    2.722032e+00
  9.323118e+00    2.795738e+00
  9.354869e+00    2.740685e+00
  9.386620e+00    2.727616e+00
  9.418372e+00    2.723898e+00
  9.450123e+00    2.761784e+00
  9.481874e+00    2.738966e+00
  9.513625e+00    2.762428e+00
  9.545376e+00    2.710356e+00
  9.577127e+00    2.670019e+00
  9.608878e+00    2.670761e+00
  9.640630e+00    2.636270e+00
  9.672381e+00    2.719661e+00
  9.704132e+00    2.706089e+00
  9.735883e+00    2.676827e+00
  9.767634e+00    2.658044e+00
  9.799385e+00    2.627653e+00
  9.831137e+00    2.588072e+00
  9.862888e+00    2.707976e+00
  9.894639e+00    2.636892e+00
  9.926390e+00    2.596873e+00
  9.958141e+00    2.631888e+00
  9.989892e+00    2.626245e+00
  1.002164e+01    2.644671e+00
  1.005339e+01    2.622895e+00
  1.008515e+01    2.614144e+00
  1.011690e+01    2.576138e+00
  1.014865e+01    2.586195e+00
  1.018040e+01    2.535388e+00
  1.021215e+01    2.644512e+00
  1.024390e+01    2.531496e+00
  1.027565e+01    2.606872e+00
  1.030740e+01    2.568523e+00
  1.033915e+01    2.506531e+00
  1.037091e+01    2.565454e+00
  1.040266e+01    2.519048e+00
  1.043441e+01    2.532855e+00
  1.046616e+01    2.567778e+00
  1.049791e+01    2.536590e+00
  1.052966e+01    2.500857e+00
  1.056141e+01    2.493139e+00
  1.059316e+01    2.555696e+00
  1.062492e+01    2.541430e+00
  1.065667e+01    2.531594e+00
  1.068842e+01    2.500815e+00
  1.072017e+01    2.528312e+00
  1.075192e+01    2.523312e+00
  1.078367e+01    2.489789e+00
  1.081542e+01    2.478548e+00
  1.084717e+01    2.514097e+00
  1.087892e+01    2.459000e+00
  1.091068e+01    2.535312e+00
  1.094243e+01    2.436847e+00
  1.097418e+01    2.494173e+00
  1.100593e+01    2.421207e+00
  1.103768e+01    2.433771e+00
  1.106943e+01    2.388796e+00
  1.110118e+01    2.420381e+00
  1.113293e+01    2.392756e+00
  1.116468e+01    2.441236e+00
  1.119644e+01    2.420208e+00
  1.122819e+01    2.424269e+00
  1.125994e+01    2.401950e+00
  1.129169e+01    2.355574e+00
  1.132344e+01    2.383923e+00
  1.135519e+01    2.396494e+00
  1.138694e+01    2.364446e+00
  1.141869e+01    2.377672e+00
  1.145045e+01    2.332723e+00
  1.148220e+01    2.383160e+00
  1.151395e+01    2.425595e+00
  1.154570e+01    2.391704e+00
  1.157745e+01    2.316848e+00
  1.160920e+01    2.340845e+00
  1.164095e+01    2.351708e+00
  1.167270e+01    2.389414e+00
  1.170445e+01    2.286579e+00
  1.173621e+01    2.303928e+00
  1.176796e+01    2.286052e+00
  1.179971e+01    2.325543e+00
  1.183146e+01    2.325011e+00
  1.186321e+01    2.337655e+00
  1.189496e+01    2.292889e+00
  1.192671e+01    2.270404e+00
  1.195846e+01    2.317433e+00
  1.199021e+01    2.311456e+00
  1.202197e+01    2.284602e+00
  1.205372e+01    2.305499e+00
  1.208547e+01    2.234425e+00
  1.211722e+01    2.268315e+00
  1.214897e+01    2.253826e+00
  1.218072e+01    2.288814e+00
  1.221247e+01    2.283881e+00
  1.224422e+01    2.249507e+00
  1.227597e+01    2.243370e+00
  1.230773e+01    2.304827e+00
  1.233948e+01    2.270021e+00
  1.237123e+01    2.254038e+00
  1.240298e+01    2.329903e+00
  1.243473e+01    2.286539e+00
  1.246648e+01    2.311148e+00
  1.249823e+01    2.297742e+00
  1.252998e+01    2.300949e+00
  1.256174e+01    2.340431e+00
  1.259349e+01    2.337487e+00
  1.262524e+01    2.360529e+00
  1.265699e+01    2.354494e+00
  1.268874e+01    2.388594e+00
  1.272049e+01    2.510347e+00
  1.275224e+01    2.521405e+00
  1.278399e+01    2.591897e+00
  1.281574e+01    2.668613e+00
  1.284750e+01    2.820144e+00
  1.287925e+01    2.975644e+00
  1.291100e+01    3.238698e+00
  1.294275e+01    3.663728e+00
  1.297450e+01    4.256594e+00
  1.300625e+01    5.357004e+00
  1.303800e+01    6.890202e+00
  1.306975e+01    9.466038e+00
  1.310150e+01    1.197773e+01
  1.313326e+01    1.449325e+01
  1.316501e+01    1.660608e+01
  1.319676e+01    1.713238e+01
  1.322851e+01    1.432347e+01
  1.326026e+01    1.031832e+01
  1.329201e+01    7.425972e+00
  1.332376e+01    5.522347e+00
  1.335551e+01    4.491113e+00
  1.338727e+01    3.777389e+00
  1.341902e+01    3.346372e+00
  1.345077e+01    2.971231e+00
  1.348252e+01    2.773424e+00
  1.351427e+01    2.649373e+00
  1.354602e+01    2.488467e+00
  1.357777e+01    2.401970e+00
  1.360952e+01    2.374433e+00
  1.364127e+01    2.322332e+00
  1.367303e+01    2.229601e+00
  1.370478e+01    2.208903e+00
  1.373653e+01    2.152376e+00
  1.376828e+01    2.167350e+00
  1.380003e+01    2.121008e+00
  1.383178e+01    2.053358e+00
  1.386353e+01    2.072639e+00
  1.389528e+01    2.064224e+00
  1.392703e+01    2.087293e+00
  1.395879e+01    2.033110e+00
  1.399054e+01    2.024745e+00
  1.402229e+01    2.023793e+00
  1.405404e+01    2.032295e+00
  1.408579e+01    2.003980e+00
  1.411754e+01    1.976051e+00
  1.414929e+01    2.023090e+00
  1.418104e+01    1.932709e+00
  1.421279e+01    1.992712e+00
  1.424455e+01    1.914843e+00
  1.427630e+01    1.926280e+00
  1.430805e+01    1.937850e+00
  1.433980e+01    1.889395e+00
  1.437155e+01    1.915974e+00
  1.440330e+01    1.909460e+00
  1.443505e+01    1.873272e+00
  1.446680e+01    1.886352e+00
  1.449856e+01    1.895952e+00
  1.453031e+01    1.928407e+00
  1.456206e+01    1.861873e+00
  1.459381e+01    1.883195e+00
  1.462556e+01    1.897484e+00
  1.465731e+01    1.907335e+00
  1.468906e+01    1.881803e+00
  1.472081e+01    1.883981e+00
  1.475256e+01    1.877277e+00
  1.478432e+01    1.922437e+00
  1.481607e+01    1.841239e+00
  1.484782e+01    1.904969e+00
  1.487957e+01    1.919537e+00
  1.491132e+01    1.946271e+00
  1.494307e+01    2.018327e+00
  1.497482e+01    2.038612e+00
  1.500657e+01    2.122971e+00
  1.503832e+01    2.279448e+00
  1.507008e+01    2.459667e+00
  1.510183e+01    2.821960e+00
  1.513358e+01    3.292167e+00
  1.516533e+01    4.035080e+00
  1.519708e+01    4.871722e+00
  1.522883e+01    5.404482e+00
  1.526058e+01    5.848969e+00
  1.529233e+01    5.778190e+00
  1.532409e+01    5.036308e+00
  1.535584e+01    3.888717e+00
  1.538759e+01    3.115646e+00
  1.541934e+01    2.630808e+00
  1.545109e+01    2.298068e+00
  1.548284e+01    2.119689e+00
  1.551459e+01    1.994239e+00
  1.554634e+01    1.916214e+00
  1.557809e+01    1.858174e+00
  1.560985e+01    1.811156e+00
  1.564160e+01    1.768552e+00
  1.567335e+01    1.738539e+00
  1.570510e+01    1.702691e+00
  1.573685e+01    1.706179e+00
  1.576860e+01    1.661133e+00
  1.580035e+01    1.672639e+00
  1.583210e+01    1.640527e+00
  1.586385e+01    1.629656e+00
  1.589561e+01    1.620165e+00
  1.592736e+01    1.577004e+00
  1.595911e+01    1.628793e+00
  1.599086e+01    1.562015e+00
  1.602261e+01    1.591560e+00
  1.605436e+01    1.611166e+00
  1.608611e+01    1.582117e+00
  1.611786e+01    1.560343e+00
  1.614961e+01    1.558049e+00
  1.618137e+01    1.512460e+00
  1.621312e+01    1.532692e+00
  1.624487e+01    1.524237e+00
  1.627662e+01    1.530203e+00
  1.630837e+01    1.522809e+00
  1.634012e+01    1.535056e+00
  1.637187e+01    1.484239e+00
  1.640362e+01    1.526431e+00
  1.643538e+01    1.534455e+00
  1.646713e+01    1.484806e+00
  1.649888e+01    1.476359e+00
  1.653063e+01    1.470526e+00
  1.656238e+01    1.502319e+00
  1.659413e+01    1.463670e+00
  1.662588e+01    1.453067e+00
  1.665763e+01    1.423337e+00
  1.668938e+01    1.431474e+00
  1.672114e+01    1.465344e+00
  1.675289e+01    1.463912e+00
  1.678464e+01    1.450649e+00
  1.681639e+01    1.415635e+00
  1.684814e+01    1.428107e+00
  1.687989e+01    1.449632e+00
  1.691164e+01    1.414333e+00
  1.694339e+01    1.407334e+00
  1.697514e+01    1.448244e+00
  1.700690e+01    1.424291e+00
  1.703865e+01    1.394201e+00
  1.707040e+01    1.380431e+00
  1.710215e+01    1.405155e+00
  1.713390e+01    1.400580e+00
  1.716565e+01    1.410958e+00
  1.719740e+01    1.415677e+00
  1.722915e+01    1.399686e+00
  1.726091e+01    1.395450e+00
  1.729266e+01    1.359804e+00
  1.732441e+01    1.361636e+00
  1.735616e+01    1.365150e+00
  1.738791e+01    1.348419e+00
  1.741966e+01    1.333281e+00
  1.745141e+01    1.343414e+00
  1.748316e+01    1.352388e+00
  1.751491e+01    1.320147e+00
  1.754667e+01    1.326545e+00
  1.757842e+01    1.338622e+00
  1.761017e+01    1.331360e+00
  1.764192e+01    1.336740e+00
  1.767367e+01    1.321360e+00
  1.770542e+01    1.313827e+00
  1.773717e+01    1.320421e+00
  1.776892e+01    1.325075e+00
  1.780067e+01    1.307162e+00
  1.783243e+01    1.295208e+00
  1.786418e+01    1.301527e+00
  1.789593e+01    1.262452e+00
  1.792768e+01    1.268823e+00
  1.795943e+01    1.281886e+00
  1.799118e+01    1.282001e+00
  1.802293e+01    1.296692e+00
  1.805468e+01    1.276590e+00
  1.808643e+01    1.275465e+00
  1.811819e+01    1.287248e+00
  1.814994e+01    1.264533e+00
  1.818169e+01    1.268125e+00
  1.821344e+01    1.275091e+00
  1.824519e+01    1.270409e+00
  1.827694e+01    1.267492e+00
  1.830869e+01    1.237934e+00
  1.834044e+01    1.279384e+00
  1.837220e+01    1.241079e+00
  1.840395e+01    1.236208e+00
  1.843570e+01    1.229093e+00
  1.846745e+01    1.250024e+00
  1.849920e+01    1.249473e+00
  1.853095e+01    1.225098e+00
  1.856270e+01    1.237596e+00
  1.859445e+01    1.204765e+00
  1.862620e+01    1.219491e+00
  1.865796e+01    1.199303e+00
  1.868971e+01    1.238959e+00
  1.872146e+01    1.227804e+00
  1.875321e+01    1.231195e+00
  1.878496e+01    1.216572e+00
  1.881671e+01    1.209352e+00
  1.884846e+01    1.178071e+00
  1.888021e+01    1.217575e+00
  1.891196e+01    1.175859e+00
  1.894372e+01    1.181461e+00
  1.897547e+01    1.202790e+00
  1.900722e+01    1.188151e+00
  1.903897e+01    1.200570e+00
  1.907072e+01    1.175172e+00
  1.910247e+01    1.175380e+00
  1.913422e+01    1.167909e+00
  1.916597e+01    1.169562e+00
  1.919773e+01    1.158242e+00
  1.922948e+01    1.176222e+00
  1.926123e+01    1.171285e+00
  1.929298e+01    1.156886e+00
  1.932473e+01    1.177523e+00
  1.935648e+01    1.175992e+00
  1.938823e+01    1.175899e+00
  1.941998e+01    1.144046e+00
  1.945173e+01    1.142440e+00
  1.948349e+01    1.147725e+00
  1.951524e+01    1.150026e+00
  1.954699e+01    1.129380e+00
  1.957874e+01    1.134363e+00
  1.961049e+01    1.145722e+00
  1.964224e+01    1.132557e+00
  1.967399e+01    1.116976e+00
  1.970574e+01    1.090694e+00
  1.973749e+01    1.136543e+00
  1.976925e+01    1.123512e+00
  1.980100e+01    1.112064e+00
  1.983275e+01    1.108554e+00
  1.986450e+01    1.093226e+00
  1.989625e+01    1.096511e+00
  1.992800e+01    1.109882e+00
  1.995975e+01    1.095795e+00
  1.999150e+01    1.109789e+00
  2.002325e+01    1.079970e+00
  2.005501e+01    1.084636e+00
  2.008676e+01    1.113343e+00
  2.011851e+01    1.097380e+00
  2.015026e+01    1.104514e+00
  2.018201e+01    1.098159e+00
  2.021376e+01    1.069073e+00
  2.024551e+01    1.095850e+00
  2.027726e+01    1.068875e+00
  2.030902e+01    1.087864e+00
  2.034077e+01    1.089370e+00
  2.037252e+01    1.074894e+00
  2.040427e+01    1.079697e+00
  2.043602e+01    1.076324e+00
  2.046777e+01    1.072732e+00
  2.049952e+01    1.078385e+00
  2.053127e+01    1.052017e+00
  2.056302e+01    1.047698e+00
  2.059478e+01    1.065081e+00
  2.062653e+01    1.073557e+00
  2.065828e+01    1.053614e+00
  2.069003e+01    1.079119e+00
  2.072178e+01    1.059943e+00
  2.075353e+01    1.068562e+00
  2.078528e+01    1.065954e+00
  2.081703e+01    1.072509e+00
  2.084878e+01    1.073528e+00
  2.088054e+01    1.052528e+00
  2.091229e+01    1.056814e+00
  2.094404e+01    1.058214e+00
  2.097579e+01    1.086762e+00
  2.100754e+01    1.036296e+00
  2.103929e+01    1.058517e+00
  2.107104e+01    1.067847e+00
  2.110279e+01    1.087879e+00
  2.113455e+01    1.080665e+00
  2.116630e+01    1.082710e+00
  2.119805e+01    1.084254e+00
  2.122980e+01    1.079160e+00
  2.126155e+01    1.097137e+00
  2.129330e+01    1.121685e+00
  2.132505e+01    1.115388e+00
  2.135680e+01    1.136402e+00
  2.138855e+01    1.163578e+00
  2.142031e+01    1.153528e+00
  2.145206e+01    1.188973e+00
  2.148381e+01    1.225657e+00
  2.151556e+01    1.295117e+00
  2.154731e+01    1.376953e+00
  2.157906e+01    1.448062e+00
  2.161081e+01    1.571466e+00
  2.164256e+01    1.757422e+00
  2.167431e+01    2.026921e+00
  2.170607e+01    2.414989e+00
  2.173782e+01    3.118426e+00
  2.176957e+01    4.047540e+00
  2.180132e+01    5.321918e+00
  2.183307e+01    6.751060e+00
  2.186482e+01    8.218059e+00
  2.189657e+01    9.381583e+00
  2.192832e+01    9.280176e+00
  2.196007e+01    7.783743e+00
  2.199183e+01    5.704981e+00
  2.202358e+01    4.158083e+00
  2.205533e+01    3.083308e+00
  2.208708e+01    2.433247e+00
  2.211883e+01    2.007129e+00
  2.215058e+01    1.726258e+00
  2.218233e+01    1.541523e+00
  2.221408e+01    1.417896e+00
  2.224584e+01    1.342078e+00
  2.227759e+01    1.219418e+00
  2.230934e+01    1.149602e+00
  2.234109e+01    1.145364e+00
  2.237284e+01    1.093269e+00
  2.240459e+01    1.058550e+00
  2.243634e+01    1.064980e+00
  2.246809e+01    1.037120e+00
  2.249984e+01    1.025840e+00
  2.253160e+01    9.705050e-01
  2.256335e+01    9.922271e-01
  2.259510e+01    9.807978e-01
  2.262685e+01    9.681277e-01
  2.265860e+01    9.595412e-01
  2.269035e+01    9.310393e-01
  2.272210e+01    9.484426e-01
  2.275385e+01    9.102371e-01
  2.278560e+01    9.356771e-01
  2.281736e+01    9.104792e-01
  2.284911e+01    9.119364e-01
  2.288086e+01    9.329647e-01
  2.291261e+01    9.035113e-01
  2.294436e+01    9.106127e-01
  2.297611e+01    8.898482e-01
  2.300786e+01    8.663495e-01
  2.303961e+01    8.627266e-01
  2.307137e+01    8.711177e-01
  2.310312e+01    8.773850e-01
  2.313487e+01    8.742061e-01
  2.316662e+01    8.749642e-01
  2.319837e+01    8.530591e-01
  2.323012e+01    8.726291e-01
  2.326187e+01    8.519104e-01
  2.329362e+01    8.553484e-01
  2.332537e+01    8.277215e-01
  2.335713e+01    8.649522e-01
  2.338888e+01    8.558534e-01
  2.342063e+01    8.356307e-01
  2.345238e+01    8.421240e-01
  2.348413e+01    8.173497e-01
  2.351588e+01    8.257999e-01
  2.354763e+01    8.386052e-01
  2.357938e+01    8.234571e-01
  2.361113e+01    8.381507e-01
  2.364289e+01    8.332232e-01
  2.367464e+01    8.154787e-01
  2.370639e+01    8.021004e-01
  2.373814e+01    8.155652e-01
  2.376989e+01    8.011865e-01
  2.380164e+01    8.013254e-01
  2.383339e+01    8.014855e-01
  2.386514e+01    8.086210e-01
  2.389689e+01    7.688476e-01
  2.392865e+01    7.902671e-01
  2.396040e+01    7.761730e-01
  2.399215e+01    7.888069e-01
  2.402390e+01    7.824132e-01
  2.405565e+01    7.645313e-01
  2.408740e+01    7.696738e-01
  2.411915e+01    7.685953e-01
  2.415090e+01    7.517298e-01
  2.418266e+01    7.807640e-01
  2.421441e+01    7.802732e-01
  2.424616e+01    7.615982e-01
  2.427791e+01    7.831948e-01
  2.430966e+01    7.825573e-01
  2.434141e+01    7.712969e-01
  2.437316e+01    7.991994e-01
  2.440491e+01    7.800926e-01
  2.443666e+01    7.637478e-01
  2.446842e+01    7.858746e-01
  2.450017e+01    7.912802e-01
  2.453192e+01    7.828090e-01
  2.456367e+01    7.869161e-01
  2.459542e+01    7.658082e-01
  2.462717e+01    7.717209e-01
  2.465892e+01    7.736220e-01
  2.469067e+01    8.013639e-01
  2.472242e+01    7.830763e-01
  2.475418e+01    7.703981e-01
  2.478593e+01    7.925712e-01
  2.481768e+01    7.905564e-01
  2.484943e+01    7.880550e-01
  2.488118e+01    7.874560e-01
  2.491293e+01    7.933429e-01
  2.494468e+01    7.882173e-01
  2.497643e+01    7.963895e-01
  2.500819e+01    8.075196e-01
  2.503994e+01    7.909160e-01
  2.507169e+01    8.114186e-01
  2.510344e+01    8.059849e-01
  2.513519e+01    7.936631e-01
  2.516694e+01    8.203109e-01
  2.519869e+01    8.380327e-01
  2.523044e+01    8.394407e-01
  2.526219e+01    8.402094e-01
  2.529395e+01    8.524352e-01
  2.532570e+01    8.616598e-01
  2.535745e+01    8.804404e-01
  2.538920e+01    9.014933e-01
  2.542095e+01    9.103701e-01
  2.545270e+01    9.285030e-01
  2.548445e+01    9.209076e-01
  2.551620e+01    9.803670e-01
  2.554795e+01    9.799404e-01
  2.557971e+01    1.056023e+00
  2.561146e+01    1.102394e+00
  2.564321e+01    1.202697e+00
  2.567496e+01    1.285982e+00
  2.570671e+01    1.451486e+00
  2.573846e+01    1.683292e+00
  2.577021e+01    2.000831e+00
  2.580196e+01    2.483069e+00
  2.583371e+01    3.231101e+00
  2.586547e+01    4.239326e+00
  2.589722e+01    5.402219e+00
  2.592897e+01    6.784004e+00
  2.596072e+01    7.756595e+00
  2.599247e+01    7.662838e+00
  2.602422e+01    6.650052e+00
  2.605597e+01    5.001306e+00
  2.608772e+01    3.640920e+00
  2.611948e+01    2.769204e+00
  2.615123e+01    2.176633e+00
  2.618298e+01    1.818782e+00
  2.621473e+01    1.546733e+00
  2.624648e+01    1.367141e+00
  2.627823e+01    1.239879e+00
  2.630998e+01    1.151778e+00
  2.634173e+01    1.059363e+00
  2.637348e+01    1.052485e+00
  2.640524e+01    9.988521e-01
  2.643699e+01    9.499857e-01
  2.646874e+01    9.332572e-01
  2.650049e+01    9.221315e-01
  2.653224e+01    9.188368e-01
  2.656399e+01    9.018689e-01
  2.659574e+01    9.162459e-01
  2.662749e+01    8.904070e-01
  2.665924e+01    8.741431e-01
  2.669100e+01    8.915368e-01
  2.672275e+01    8.781044e-01
  2.675450e+01    8.831674e-01
  2.678625e+01    8.723404e-01
  2.681800e+01    9.007198e-01
  2.684975e+01    8.979948e-01
  2.688150e+01    8.960887e-01
  2.691325e+01    9.062957e-01
  2.694501e+01    9.280845e-01
  2.697676e+01    9.455133e-01
  2.700851e+01    1.019604e+00
  2.704026e+01    1.078347e+00
  2.707201e+01    1.182860e+00
  2.710376e+01    1.334933e+00
  2.713551e+01    1.570789e+00
  2.716726e+01    1.851047e+00
  2.719901e+01    2.131717e+00
  2.723077e+01    2.278731e+00
  2.726252e+01    2.184219e+00
  2.729427e+01    1.908898e+00
  2.732602e+01    1.556581e+00
  2.735777e+01    1.352668e+00
  2.738952e+01    1.181992e+00
  2.742127e+01    1.057859e+00
  2.745302e+01    1.012524e+00
  2.748477e+01    9.464301e-01
  2.751653e+01    9.014826e-01
  2.754828e+01    8.522724e-01
  2.758003e+01    8.609551e-01
  2.761178e+01    8.310148e-01
  2.764353e+01    8.425292e-01
  2.767528e+01    8.278898e-01
  2.770703e+01    8.045163e-01
  2.773878e+01    8.047315e-01
  2.777054e+01    7.831046e-01
  2.780229e+01    8.109263e-01
  2.783404e+01    7.823141e-01
  2.786579e+01    7.672222e-01
  2.789754e+01    7.812805e-01
  2.792929e+01    7.972691e-01
  2.796104e+01    7.823362e-01
  2.799279e+01    7.893865e-01
  2.802454e+01    7.568751e-01
  2.805630e+01    7.800828e-01
  2.808805e+01    7.629960e-01
  2.811980e+01    7.846749e-01
  2.815155e+01    7.693292e-01
  2.818330e+01    7.801191e-01
  2.821505e+01    7.886403e-01
  2.824680e+01    7.623379e-01
  2.827855e+01    7.755730e-01
  2.831030e+01    7.596316e-01
  2.834206e+01    7.516677e-01
  2.837381e+01    7.674769e-01
  2.840556e+01    7.465124e-01
  2.843731e+01    7.421839e-01
  2.846906e+01    7.554120e-01
  2.850081e+01    7.360498e-01
  2.853256e+01    7.502169e-01
  2.856431e+01    7.370970e-01
  2.859606e+01    7.506436e-01
  2.862782e+01    7.450154e-01
  2.865957e+01    7.549775e-01
  2.869132e+01    7.359116e-01
  2.872307e+01    7.337323e-01
  2.875482e+01    7.389846e-01
  2.878657e+01    7.331975e-01
  2.881832e+01    7.182504e-01
  2.885007e+01    7.078773e-01
  2.888183e+01    7.211354e-01
  2.891358e+01    7.590762e-01
  2.894533e+01    7.318952e-01
  2.897708e+01    7.322127e-01
  2.900883e+01    7.238664e-01
  2.904058e+01    7.141479e-01
  2.907233e+01    7.525515e-01
  2.910408e+01    7.261268e-01
  2.913583e+01    7.476498e-01
  2.916759e+01    7.150143e-01
  2.919934e+01    7.034742e-01
  2.923109e+01    7.218635e-01
  2.926284e+01    7.211593e-01
  2.929459e+01    7.237790e-01
  2.932634e+01    7.171382e-01
  2.935809e+01    7.305964e-01
  2.938984e+01    7.192552e-01
  2.942159e+01    7.102184e-01
  2.945335e+01    7.184446e-01
  2.948510e+01    7.241570e-01
  2.951685e+01    7.133456e-01
  2.954860e+01    7.048389e-01
  2.958035e+01    7.102700e-01
  2.961210e+01    6.889483e-01
  2.964385e+01    7.081019e-01
  2.967560e+01    7.208731e-01
  2.970736e+01    7.062501e-01
  2.973911e+01    6.993701e-01
  2.977086e+01    7.263292e-01
  2.980261e+01    7.281161e-01
  2.983436e+01    7.166988e-01
  2.986611e+01    7.204610e-01
  2.989786e+01    7.043288e-01
  2.992961e+01    7.049195e-01
  2.996136e+01    6.878762e-01
  2.999312e+01    7.137631e-01
  3.002487e+01    6.955334e-01
  3.005662e+01    7.173581e-01
  3.008837e+01    7.153453e-01
  3.012012e+01    7.245421e-01
  3.015187e+01    7.077234e-01
  3.018362e+01    6.998081e-01
  3.021537e+01    7.171209e-01
  3.024712e+01    7.163911e-01
  3.027888e+01    6.852997e-01
  3.031063e+01    7.073772e-01
  3.034238e+01    7.032827e-01
  3.037413e+01    7.127427e-01
  3.040588e+01    7.031651e-01
  3.043763e+01    6.990041e-01
  3.046938e+01    6.817536e-01
  3.050113e+01    7.045586e-01
  3.053288e+01    6.979343e-01
  3.056464e+01    7.192540e-01
  3.059639e+01    6.924683e-01
  3.062814e+01    7.136621e-01
  3.065989e+01    7.200193e-01
  3.069164e+01    6.935719e-01
  3.072339e+01    6.873230e-01
  3.075514e+01    7.163345e-01
  3.078689e+01    7.132326e-01
  3.081865e+01    6.992232e-01
  3.085040e+01    7.221186e-01
  3.088215e+01    7.138712e-01
  3.091390e+01    6.998299e-01
  3.094565e+01    7.132407e-01
  3.097740e+01    6.927979e-01
  3.100915e+01    7.077481e-01
  3.104090e+01    7.119963e-01
  3.107265e+01    6.929145e-01
  3.110441e+01    6.835661e-01
  3.113616e+01    7.166914e-01
  3.116791e+01    7.002084e-01
  3.119966e+01    7.094814e-01
  3.123141e+01    7.308729e-01
  3.126316e+01    7.158007e-01
  3.129491e+01    7.141384e-01
  3.132666e+01    7.333475e-01
  3.135841e+01    7.426817e-01
  3.139017e+01    7.444758e-01
  3.142192e+01    7.435506e-01
  3.145367e+01    7.305168e-01
  3.148542e+01    7.293727e-01
  3.151717e+01    7.538559e-01
  3.154892e+01    7.572631e-01
  3.158067e+01    7.765343e-01
  3.161242e+01    7.954533e-01
  3.164418e+01    8.409531e-01
  3.167593e+01    8.985074e-01
  3.170768e+01    9.348423e-01
  3.173943e+01    1.007565e+00
  3.177118e+01    1.147831e+00
  3.180293e+01    1.329083e+00
  3.183468e+01    1.542207e+00
  3.186643e+01    1.882516e+00
  3.189818e+01    2.177775e+00
  3.192994e+01    2.273156e+00
  3.196169e+01    2.161707e+00
  3.199344e+01    1.832193e+00
  3.202519e+01    1.501339e+00
  3.205694e+01    1.230502e+00
  3.208869e+01    1.073223e+00
  3.212044e+01    9.592351e-01
  3.215219e+01    9.177601e-01
  3.218394e+01    8.421808e-01
  3.221570e+01    8.235879e-01
  3.224745e+01    8.046956e-01
  3.227920e+01    7.621504e-01
  3.231095e+01    7.609938e-01
  3.234270e+01    7.756790e-01
  3.237445e+01    7.382457e-01
  3.240620e+01    7.321030e-01
  3.243795e+01    7.256402e-01
  3.246970e+01    7.130756e-01
  3.250146e+01    7.600610e-01
  3.253321e+01    7.216835e-01
  3.254908e+01    7.270576e-01