File: XRD/2024-07-27_001_Ru-CGO-ex_Pristine_Rt_000058_data_000001.dat
# == pyFAI calibration ==
# Distance Sample to Detector: 0.4 m
# PONI: 9.750e-02, 1.135e-01 m
# Rotations: -0.000175 0.000000 -0.000000 rad
#
# == Fit2d calibration ==
# Distance Sample-beamCenter: 400.000 mm
# Center: x=1514.000, y=1300.000 pix
# Tilt: 0.010 deg  TiltPlanRot: 0.010 deg
#
# Detector Detector	 Spline= None	 PixelSize= 7.500e-05, 7.500e-05 m
#    Detector has a mask: False
#    Detector has a dark current: False
#    detector has a flat field: False
#
# Wavelength: 6.888e-11 m
# Mask applied: user provided
# Dark current applied: False
# Flat field applied: False
# Polarization factor: 0.99
# Normalization factor: 1.0
# --> /home/myspot/data/2024_07_Rosario/2024-07-27_001_Ru-CGO-ex_Pristine_Rt_000058_data_000001.dat
#       q_nm^-1             I
  2.003187e-02    1.542462e-01
  5.178302e-02    2.153983e-01
  8.353417e-02    2.908032e-01
  1.152853e-01    3.799306e-02
  1.470365e-01    1.535639e-01
  1.787876e-01    3.301710e-02
  2.105388e-01    1.823753e-02
  2.422899e-01    7.011883e-03
  2.740411e-01    5.769733e-02
  3.057922e-01    3.052684e-02
  3.375433e-01    6.514539e-02
  3.692945e-01    1.730984e-02
  4.010456e-01    6.333919e-02
  4.327968e-01    6.252244e-02
  4.645479e-01    7.635047e-02
  4.962991e-01    3.438847e-02
  5.280502e-01    5.576000e-02
  5.598014e-01    2.642072e-02
  5.915525e-01    2.998978e-02
  6.233037e-01    5.613506e-02
  6.550548e-01    3.765164e-02
  6.868060e-01    4.525052e-02
  7.185571e-01    5.574741e-02
  7.503083e-01    3.681277e-02
  7.820594e-01    1.119035e-01
  8.138106e-01    2.008048e-01
  8.455617e-01    3.535681e-01
  8.773129e-01    5.204970e-01
  9.090640e-01    6.314689e-01
  9.408152e-01    8.744886e-01
  9.725663e-01    1.039848e+00
  1.004317e+00    1.172973e+00
  1.036069e+00    1.401142e+00
  1.067820e+00    1.411632e+00
  1.099571e+00    1.528930e+00
  1.131322e+00    1.677123e+00
  1.163073e+00    1.574003e+00
  1.194824e+00    1.872671e+00
  1.226575e+00    2.372393e+00
  1.258327e+00    2.676087e+00
  1.290078e+00    2.909195e+00
  1.321829e+00    2.947222e+00
  1.353580e+00    3.049226e+00
  1.385331e+00    2.931332e+00
  1.417082e+00    3.167921e+00
  1.448834e+00    3.194996e+00
  1.480585e+00    3.206393e+00
  1.512336e+00    3.348336e+00
  1.544087e+00    3.702011e+00
  1.575838e+00    3.465454e+00
  1.607589e+00    3.433029e+00
  1.639340e+00    3.180718e+00
  1.671092e+00    3.338767e+00
  1.702843e+00    3.295194e+00
  1.734594e+00    3.190794e+00
  1.766345e+00    3.204753e+00
  1.798096e+00    3.242606e+00
  1.829847e+00    3.217021e+00
  1.861598e+00    3.160163e+00
  1.893350e+00    3.295226e+00
  1.925101e+00    3.180634e+00
  1.956852e+00    3.198627e+00
  1.988603e+00    3.139083e+00
  2.020354e+00    2.981566e+00
  2.052105e+00    3.171991e+00
  2.083856e+00    3.099740e+00
  2.115608e+00    3.069574e+00
  2.147359e+00    3.234180e+00
  2.179110e+00    3.203518e+00
  2.210861e+00    3.172474e+00
  2.242612e+00    3.102168e+00
  2.274363e+00    3.229932e+00
  2.306115e+00    3.186086e+00
  2.337866e+00    3.217218e+00
  2.369617e+00    3.220434e+00
  2.401368e+00    3.221460e+00
  2.433119e+00    3.299870e+00
  2.464870e+00    3.258770e+00
  2.496621e+00    3.216581e+00
  2.528373e+00    3.219565e+00
  2.560124e+00    3.282624e+00
  2.591875e+00    3.367560e+00
  2.623626e+00    3.147417e+00
  2.655377e+00    3.283705e+00
  2.687128e+00    3.255576e+00
  2.718879e+00    3.170828e+00
  2.750631e+00    3.291476e+00
  2.782382e+00    3.206088e+00
  2.814133e+00    3.182880e+00
  2.845884e+00    3.238898e+00
  2.877635e+00    3.220526e+00
  2.909386e+00    3.323097e+00
  2.941137e+00    3.275762e+00
  2.972889e+00    3.280424e+00
  3.004640e+00    3.309860e+00
  3.036391e+00    3.372501e+00
  3.068142e+00    3.279733e+00
  3.099893e+00    3.343702e+00
  3.131644e+00    3.333855e+00
  3.163395e+00    3.413798e+00
  3.195147e+00    3.409230e+00
  3.226898e+00    3.413760e+00
  3.258649e+00    3.315879e+00
  3.290400e+00    3.366416e+00
  3.322151e+00    3.310618e+00
  3.353902e+00    3.328605e+00
  3.385654e+00    3.501364e+00
  3.417405e+00    3.439044e+00
  3.449156e+00    3.356093e+00
  3.480907e+00    3.443382e+00
  3.512658e+00    3.411420e+00
  3.544409e+00    3.439016e+00
  3.576160e+00    3.352979e+00
  3.607912e+00    3.473864e+00
  3.639663e+00    3.390844e+00
  3.671414e+00    3.362123e+00
  3.703165e+00    3.502686e+00
  3.734916e+00    3.484894e+00
  3.766667e+00    3.435400e+00
  3.798418e+00    3.406478e+00
  3.830170e+00    3.456952e+00
  3.861921e+00    3.475425e+00
  3.893672e+00    3.626360e+00
  3.925423e+00    3.471586e+00
  3.957174e+00    3.391547e+00
  3.988925e+00    3.423501e+00
  4.020676e+00    3.443481e+00
  4.052428e+00    3.513797e+00
  4.084179e+00    3.560492e+00
  4.115930e+00    3.494809e+00
  4.147681e+00    3.527157e+00
  4.179432e+00    3.486450e+00
  4.211183e+00    3.472614e+00
  4.242935e+00    3.500495e+00
  4.274686e+00    3.590165e+00
  4.306437e+00    3.506487e+00
  4.338188e+00    3.534218e+00
  4.369939e+00    3.471404e+00
  4.401690e+00    3.556578e+00
  4.433441e+00    3.614476e+00
  4.465193e+00    3.518548e+00
  4.496944e+00    3.514233e+00
  4.528695e+00    3.469634e+00
  4.560446e+00    3.529977e+00
  4.592197e+00    3.691347e+00
  4.623948e+00    3.558593e+00
  4.655699e+00    3.524288e+00
  4.687451e+00    3.523018e+00
  4.719202e+00    3.555408e+00
  4.750953e+00    3.542212e+00
  4.782704e+00    3.670963e+00
  4.814455e+00    3.593297e+00
  4.846206e+00    3.641981e+00
  4.877957e+00    3.604290e+00
  4.909709e+00    3.584064e+00
  4.941460e+00    3.502955e+00
  4.973211e+00    3.616407e+00
  5.004962e+00    3.595881e+00
  5.036713e+00    3.542081e+00
  5.068464e+00    3.570588e+00
  5.100216e+00    3.595010e+00
  5.131967e+00    3.632579e+00
  5.163718e+00    3.685045e+00
  5.195469e+00    3.547203e+00
  5.227220e+00    3.555259e+00
  5.258971e+00    3.611163e+00
  5.290722e+00    3.638883e+00
  5.322474e+00    3.629026e+00
  5.354225e+00    3.621488e+00
  5.385976e+00    3.522264e+00
  5.417727e+00    3.585381e+00
  5.449478e+00    3.626941e+00
  5.481229e+00    3.585326e+00
  5.512980e+00    3.562001e+00
  5.544732e+00    3.533861e+00
  5.576483e+00    3.503666e+00
  5.608234e+00    3.517472e+00
  5.639985e+00    3.501211e+00
  5.671736e+00    3.544255e+00
  5.703487e+00    3.541457e+00
  5.735238e+00    3.528095e+00
  5.766990e+00    3.559264e+00
  5.798741e+00    3.583750e+00
  5.830492e+00    3.463886e+00
  5.862243e+00    3.577639e+00
  5.893994e+00    3.503299e+00
  5.925745e+00    3.464294e+00
  5.957497e+00    3.414422e+00
  5.989248e+00    3.464910e+00
  6.020999e+00    3.561343e+00
  6.052750e+00    3.546182e+00
  6.084501e+00    3.485194e+00
  6.116252e+00    3.551838e+00
  6.148003e+00    3.586617e+00
  6.179755e+00    3.431766e+00
  6.211506e+00    3.524380e+00
  6.243257e+00    3.563847e+00
  6.275008e+00    3.571331e+00
  6.306759e+00    3.573883e+00
  6.338510e+00    3.578170e+00
  6.370261e+00    3.475619e+00
  6.402013e+00    3.517683e+00
  6.433764e+00    3.507006e+00
  6.465515e+00    3.456673e+00
  6.497266e+00    3.457356e+00
  6.529017e+00    3.518413e+00
  6.560768e+00    3.491307e+00
  6.592519e+00    3.503266e+00
  6.624271e+00    3.550342e+00
  6.656022e+00    3.491632e+00
  6.687773e+00    3.546267e+00
  6.719524e+00    3.578544e+00
  6.751275e+00    3.498049e+00
  6.783026e+00    3.483603e+00
  6.814777e+00    3.389303e+00
  6.846529e+00    3.466768e+00
  6.878280e+00    3.405678e+00
  6.910031e+00    3.514810e+00
  6.941782e+00    3.539925e+00
  6.973533e+00    3.483047e+00
  7.005284e+00    3.497609e+00
  7.037036e+00    3.526680e+00
  7.068787e+00    3.509842e+00
  7.100538e+00    3.430175e+00
  7.132289e+00    3.463040e+00
  7.164040e+00    3.517892e+00
  7.195791e+00    3.477779e+00
  7.227542e+00    3.473495e+00
  7.259294e+00    3.480691e+00
  7.291045e+00    3.456469e+00
  7.322796e+00    3.512698e+00
  7.354547e+00    3.402121e+00
  7.386298e+00    3.467425e+00
  7.418049e+00    3.411477e+00
  7.449800e+00    3.491018e+00
  7.481552e+00    3.456125e+00
  7.513303e+00    3.477588e+00
  7.545054e+00    3.440608e+00
  7.576805e+00    3.460678e+00
  7.608556e+00    3.414874e+00
  7.640307e+00    3.399197e+00
  7.672058e+00    3.424445e+00
  7.703810e+00    3.466839e+00
  7.735561e+00    3.421318e+00
  7.767312e+00    3.378929e+00
  7.799063e+00    3.449477e+00
  7.830814e+00    3.422923e+00
  7.862565e+00    3.401937e+00
  7.894317e+00    3.362039e+00
  7.926068e+00    3.378928e+00
  7.957819e+00    3.391277e+00
  7.989570e+00    3.403654e+00
  8.021321e+00    3.344188e+00
  8.053072e+00    3.411288e+00
  8.084823e+00    3.442746e+00
  8.116575e+00    3.517217e+00
  8.148326e+00    3.392477e+00
  8.180077e+00    3.414712e+00
  8.211828e+00    3.480596e+00
  8.243579e+00    3.471636e+00
  8.275330e+00    3.397563e+00
  8.307081e+00    3.316259e+00
  8.338833e+00    3.386227e+00
  8.370584e+00    3.341805e+00
  8.402335e+00    3.346971e+00
  8.434086e+00    3.391560e+00
  8.465837e+00    3.315032e+00
  8.497588e+00    3.332271e+00
  8.529339e+00    3.309829e+00
  8.561091e+00    3.368162e+00
  8.592842e+00    3.305888e+00
  8.624593e+00    3.330916e+00
  8.656344e+00    3.307868e+00
  8.688095e+00    3.308283e+00
  8.719846e+00    3.291710e+00
  8.751598e+00    3.314231e+00
  8.783349e+00    3.338148e+00
  8.815100e+00    3.263624e+00
  8.846851e+00    3.331966e+00
  8.878602e+00    3.273630e+00
  8.910353e+00    3.283246e+00
  8.942104e+00    3.252965e+00
  8.973856e+00    3.290594e+00
  9.005607e+00    3.291169e+00
  9.037358e+00    3.252150e+00
  9.069109e+00    3.289171e+00
  9.100860e+00    3.253812e+00
  9.132611e+00    3.291085e+00
  9.164362e+00    3.267342e+00
  9.196114e+00    3.246222e+00
  9.227865e+00    3.248683e+00
  9.259616e+00    3.240414e+00
  9.291367e+00    3.236632e+00
  9.323118e+00    3.171970e+00
  9.354869e+00    3.247901e+00
  9.386620e+00    3.202590e+00
  9.418372e+00    3.197711e+00
  9.450123e+00    3.202167e+00
  9.481874e+00    3.211667e+00
  9.513625e+00    3.194749e+00
  9.545376e+00    3.199543e+00
  9.577127e+00    3.232917e+00
  9.608878e+00    3.213727e+00
  9.640630e+00    3.212567e+00
  9.672381e+00    3.158235e+00
  9.704132e+00    3.182068e+00
  9.735883e+00    3.143304e+00
  9.767634e+00    3.087844e+00
  9.799385e+00    3.104250e+00
  9.831137e+00    3.165377e+00
  9.862888e+00    3.115236e+00
  9.894639e+00    3.142659e+00
  9.926390e+00    3.121561e+00
  9.958141e+00    3.176773e+00
  9.989892e+00    3.117711e+00
  1.002164e+01    3.167726e+00
  1.005339e+01    3.112940e+00
  1.008515e+01    3.109114e+00
  1.011690e+01    3.169679e+00
  1.014865e+01    3.081551e+00
  1.018040e+01    3.049728e+00
  1.021215e+01    3.093467e+00
  1.024390e+01    3.019253e+00
  1.027565e+01    3.075657e+00
  1.030740e+01    3.055983e+00
  1.033915e+01    3.055204e+00
  1.037091e+01    3.046841e+00
  1.040266e+01    3.062475e+00
  1.043441e+01    3.082869e+00
  1.046616e+01    2.964518e+00
  1.049791e+01    2.959675e+00
  1.052966e+01    3.046796e+00
  1.056141e+01    3.017741e+00
  1.059316e+01    2.982941e+00
  1.062492e+01    3.019581e+00
  1.065667e+01    2.976703e+00
  1.068842e+01    2.954189e+00
  1.072017e+01    2.953013e+00
  1.075192e+01    2.930702e+00
  1.078367e+01    2.917978e+00
  1.081542e+01    2.947252e+00
  1.084717e+01    2.948010e+00
  1.087892e+01    2.933613e+00
  1.091068e+01    2.982288e+00
  1.094243e+01    2.907135e+00
  1.097418e+01    2.923071e+00
  1.100593e+01    2.857204e+00
  1.103768e+01    2.889181e+00
  1.106943e+01    2.895080e+00
  1.110118e+01    2.877327e+00
  1.113293e+01    2.855546e+00
  1.116468e+01    2.892123e+00
  1.119644e+01    2.856496e+00
  1.122819e+01    2.866735e+00
  1.125994e+01    2.821299e+00
  1.129169e+01    2.857469e+00
  1.132344e+01    2.794503e+00
  1.135519e+01    2.754589e+00
  1.138694e+01    2.803321e+00
  1.141869e+01    2.809608e+00
  1.145045e+01    2.823901e+00
  1.148220e+01    2.845633e+00
  1.151395e+01    2.817126e+00
  1.154570e+01    2.815833e+00
  1.157745e+01    2.729874e+00
  1.160920e+01    2.722547e+00
  1.164095e+01    2.736508e+00
  1.167270e+01    2.757094e+00
  1.170445e+01    2.754520e+00
  1.173621e+01    2.777586e+00
  1.176796e+01    2.743055e+00
  1.179971e+01    2.759684e+00
  1.183146e+01    2.705255e+00
  1.186321e+01    2.735242e+00
  1.189496e+01    2.743488e+00
  1.192671e+01    2.749193e+00
  1.195846e+01    2.720622e+00
  1.199021e+01    2.701876e+00
  1.202197e+01    2.727052e+00
  1.205372e+01    2.686841e+00
  1.208547e+01    2.739794e+00
  1.211722e+01    2.714317e+00
  1.214897e+01    2.725264e+00
  1.218072e+01    2.635621e+00
  1.221247e+01    2.685011e+00
  1.224422e+01    2.709318e+00
  1.227597e+01    2.711071e+00
  1.230773e+01    2.640742e+00
  1.233948e+01    2.758693e+00
  1.237123e+01    2.668666e+00
  1.240298e+01    2.675323e+00
  1.243473e+01    2.703608e+00
  1.246648e+01    2.683423e+00
  1.249823e+01    2.684866e+00
  1.252998e+01    2.716006e+00
  1.256174e+01    2.796800e+00
  1.259349e+01    2.767059e+00
  1.262524e+01    2.787981e+00
  1.265699e+01    2.850606e+00
  1.268874e+01    2.930340e+00
  1.272049e+01    2.914864e+00
  1.275224e+01    2.984928e+00
  1.278399e+01    3.031872e+00
  1.281574e+01    3.123103e+00
  1.284750e+01    3.247455e+00
  1.287925e+01    3.578874e+00
  1.291100e+01    3.818771e+00
  1.294275e+01    4.283312e+00
  1.297450e+01    4.990170e+00
  1.300625e+01    6.083853e+00
  1.303800e+01    8.100071e+00
  1.306975e+01    1.081623e+01
  1.310150e+01    1.435831e+01
  1.313326e+01    1.775683e+01
  1.316501e+01    2.097112e+01
  1.319676e+01    2.240862e+01
  1.322851e+01    1.983573e+01
  1.326026e+01    1.473425e+01
  1.329201e+01    1.066001e+01
  1.332376e+01    7.952364e+00
  1.335551e+01    6.313542e+00
  1.338727e+01    5.227971e+00
  1.341902e+01    4.437226e+00
  1.345077e+01    4.020807e+00
  1.348252e+01    3.604722e+00
  1.351427e+01    3.359554e+00
  1.354602e+01    3.191629e+00
  1.357777e+01    3.052252e+00
  1.360952e+01    2.974107e+00
  1.364127e+01    2.823825e+00
  1.367303e+01    2.807541e+00
  1.370478e+01    2.770329e+00
  1.373653e+01    2.751589e+00
  1.376828e+01    2.673022e+00
  1.380003e+01    2.588203e+00
  1.383178e+01    2.568629e+00
  1.386353e+01    2.565630e+00
  1.389528e+01    2.552590e+00
  1.392703e+01    2.567697e+00
  1.395879e+01    2.489064e+00
  1.399054e+01    2.484756e+00
  1.402229e+01    2.436808e+00
  1.405404e+01    2.448813e+00
  1.408579e+01    2.447328e+00
  1.411754e+01    2.382093e+00
  1.414929e+01    2.386968e+00
  1.418104e+01    2.368296e+00
  1.421279e+01    2.368840e+00
  1.424455e+01    2.383464e+00
  1.427630e+01    2.357831e+00
  1.430805e+01    2.347655e+00
  1.433980e+01    2.349204e+00
  1.437155e+01    2.322962e+00
  1.440330e+01    2.342488e+00
  1.443505e+01    2.288740e+00
  1.446680e+01    2.307446e+00
  1.449856e+01    2.273394e+00
  1.453031e+01    2.233261e+00
  1.456206e+01    2.248766e+00
  1.459381e+01    2.208566e+00
  1.462556e+01    2.271472e+00
  1.465731e+01    2.230972e+00
  1.468906e+01    2.185985e+00
  1.472081e+01    2.244846e+00
  1.475256e+01    2.219152e+00
  1.478432e+01    2.236297e+00
  1.481607e+01    2.234542e+00
  1.484782e+01    2.213690e+00
  1.487957e+01    2.265713e+00
  1.491132e+01    2.290802e+00
  1.494307e+01    2.335732e+00
  1.497482e+01    2.372561e+00
  1.500657e+01    2.495289e+00
  1.503832e+01    2.617949e+00
  1.507008e+01    2.824818e+00
  1.510183e+01    3.241137e+00
  1.513358e+01    3.810700e+00
  1.516533e+01    4.643913e+00
  1.519708e+01    5.770938e+00
  1.522883e+01    6.601395e+00
  1.526058e+01    7.374123e+00
  1.529233e+01    7.463646e+00
  1.532409e+01    6.741094e+00
  1.535584e+01    5.388022e+00
  1.538759e+01    4.280177e+00
  1.541934e+01    3.521541e+00
  1.545109e+01    3.137113e+00
  1.548284e+01    2.814772e+00
  1.551459e+01    2.603560e+00
  1.554634e+01    2.407828e+00
  1.557809e+01    2.340401e+00
  1.560985e+01    2.250173e+00
  1.564160e+01    2.179131e+00
  1.567335e+01    2.169907e+00
  1.570510e+01    2.119572e+00
  1.573685e+01    2.073406e+00
  1.576860e+01    2.060139e+00
  1.580035e+01    2.042885e+00
  1.583210e+01    1.999712e+00
  1.586385e+01    2.004161e+00
  1.589561e+01    1.939799e+00
  1.592736e+01    1.956483e+00
  1.595911e+01    1.916038e+00
  1.599086e+01    1.890503e+00
  1.602261e+01    1.936385e+00
  1.605436e+01    1.919582e+00
  1.608611e+01    1.890795e+00
  1.611786e+01    1.909013e+00
  1.614961e+01    1.906815e+00
  1.618137e+01    1.884050e+00
  1.621312e+01    1.857197e+00
  1.624487e+01    1.831306e+00
  1.627662e+01    1.860916e+00
  1.630837e+01    1.842717e+00
  1.634012e+01    1.835980e+00
  1.637187e+01    1.798848e+00
  1.640362e+01    1.814414e+00
  1.643538e+01    1.774668e+00
  1.646713e+01    1.783857e+00
  1.649888e+01    1.773733e+00
  1.653063e+01    1.790244e+00
  1.656238e+01    1.760833e+00
  1.659413e+01    1.786218e+00
  1.662588e+01    1.747177e+00
  1.665763e+01    1.724784e+00
  1.668938e+01    1.713249e+00
  1.672114e+01    1.702949e+00
  1.675289e+01    1.747260e+00
  1.678464e+01    1.706789e+00
  1.681639e+01    1.714720e+00
  1.684814e+01    1.719421e+00
  1.687989e+01    1.741995e+00
  1.691164e+01    1.708440e+00
  1.694339e+01    1.694113e+00
  1.697514e+01    1.700838e+00
  1.700690e+01    1.688636e+00
  1.703865e+01    1.683388e+00
  1.707040e+01    1.630824e+00
  1.710215e+01    1.655566e+00
  1.713390e+01    1.659962e+00
  1.716565e+01    1.681826e+00
  1.719740e+01    1.638361e+00
  1.722915e+01    1.647419e+00
  1.726091e+01    1.629083e+00
  1.729266e+01    1.576478e+00
  1.732441e+01    1.579282e+00
  1.735616e+01    1.572950e+00
  1.738791e+01    1.599625e+00
  1.741966e+01    1.584493e+00
  1.745141e+01    1.610617e+00
  1.748316e+01    1.584920e+00
  1.751491e+01    1.622886e+00
  1.754667e+01    1.590566e+00
  1.757842e+01    1.544045e+00
  1.761017e+01    1.556818e+00
  1.764192e+01    1.528719e+00
  1.767367e+01    1.597659e+00
  1.770542e+01    1.548962e+00
  1.773717e+01    1.547356e+00
  1.776892e+01    1.538133e+00
  1.780067e+01    1.527256e+00
  1.783243e+01    1.554085e+00
  1.786418e+01    1.551379e+00
  1.789593e+01    1.510938e+00
  1.792768e+01    1.507714e+00
  1.795943e+01    1.468987e+00
  1.799118e+01    1.521865e+00
  1.802293e+01    1.507205e+00
  1.805468e+01    1.500154e+00
  1.808643e+01    1.508304e+00
  1.811819e+01    1.503051e+00
  1.814994e+01    1.485412e+00
  1.818169e+01    1.499974e+00
  1.821344e+01    1.499849e+00
  1.824519e+01    1.474705e+00
  1.827694e+01    1.458936e+00
  1.830869e+01    1.462890e+00
  1.834044e+01    1.476708e+00
  1.837220e+01    1.497342e+00
  1.840395e+01    1.443747e+00
  1.843570e+01    1.427754e+00
  1.846745e+01    1.459790e+00
  1.849920e+01    1.442262e+00
  1.853095e+01    1.446078e+00
  1.856270e+01    1.427195e+00
  1.859445e+01    1.437588e+00
  1.862620e+01    1.482655e+00
  1.865796e+01    1.432376e+00
  1.868971e+01    1.443699e+00
  1.872146e+01    1.413289e+00
  1.875321e+01    1.374376e+00
  1.878496e+01    1.396354e+00
  1.881671e+01    1.406411e+00
  1.884846e+01    1.398761e+00
  1.888021e+01    1.410868e+00
  1.891196e+01    1.372789e+00
  1.894372e+01    1.404435e+00
  1.897547e+01    1.391267e+00
  1.900722e+01    1.365747e+00
  1.903897e+01    1.356192e+00
  1.907072e+01    1.376072e+00
  1.910247e+01    1.363339e+00
  1.913422e+01    1.362134e+00
  1.916597e+01    1.353807e+00
  1.919773e+01    1.355408e+00
  1.922948e+01    1.378696e+00
  1.926123e+01    1.373181e+00
  1.929298e+01    1.362256e+00
  1.932473e+01    1.348873e+00
  1.935648e+01    1.327731e+00
  1.938823e+01    1.346857e+00
  1.941998e+01    1.347288e+00
  1.945173e+01    1.340623e+00
  1.948349e+01    1.318788e+00
  1.951524e+01    1.334507e+00
  1.954699e+01    1.324955e+00
  1.957874e+01    1.325997e+00
  1.961049e+01    1.326824e+00
  1.964224e+01    1.312346e+00
  1.967399e+01    1.287064e+00
  1.970574e+01    1.333217e+00
  1.973749e+01    1.312767e+00
  1.976925e+01    1.310084e+00
  1.980100e+01    1.277867e+00
  1.983275e+01    1.283811e+00
  1.986450e+01    1.308001e+00
  1.989625e+01    1.263975e+00
  1.992800e+01    1.286159e+00
  1.995975e+01    1.278321e+00
  1.999150e+01    1.267586e+00
  2.002325e+01    1.294067e+00
  2.005501e+01    1.274649e+00
  2.008676e+01    1.302886e+00
  2.011851e+01    1.241152e+00
  2.015026e+01    1.262163e+00
  2.018201e+01    1.252736e+00
  2.021376e+01    1.262462e+00
  2.024551e+01    1.279081e+00
  2.027726e+01    1.242211e+00
  2.030902e+01    1.239352e+00
  2.034077e+01    1.262785e+00
  2.037252e+01    1.265801e+00
  2.040427e+01    1.241109e+00
  2.043602e+01    1.238645e+00
  2.046777e+01    1.245075e+00
  2.049952e+01    1.236949e+00
  2.053127e+01    1.217583e+00
  2.056302e+01    1.243874e+00
  2.059478e+01    1.231718e+00
  2.062653e+01    1.255729e+00
  2.065828e+01    1.241774e+00
  2.069003e+01    1.242305e+00
  2.072178e+01    1.255661e+00
  2.075353e+01    1.224828e+00
  2.078528e+01    1.197755e+00
  2.081703e+01    1.220071e+00
  2.084878e+01    1.244636e+00
  2.088054e+01    1.245887e+00
  2.091229e+01    1.232244e+00
  2.094404e+01    1.241379e+00
  2.097579e+01    1.186904e+00
  2.100754e+01    1.203625e+00
  2.103929e+01    1.232893e+00
  2.107104e+01    1.218271e+00
  2.110279e+01    1.246466e+00
  2.113455e+01    1.216936e+00
  2.116630e+01    1.262887e+00
  2.119805e+01    1.245187e+00
  2.122980e+01    1.265586e+00
  2.126155e+01    1.283814e+00
  2.129330e+01    1.280759e+00
  2.132505e+01    1.271729e+00
  2.135680e+01    1.302307e+00
  2.138855e+01    1.318204e+00
  2.142031e+01    1.345788e+00
  2.145206e+01    1.394198e+00
  2.148381e+01    1.432238e+00
  2.151556e+01    1.499753e+00
  2.154731e+01    1.550247e+00
  2.157906e+01    1.629468e+00
  2.161081e+01    1.790593e+00
  2.164256e+01    1.981640e+00
  2.167431e+01    2.273936e+00
  2.170607e+01    2.764119e+00
  2.173782e+01    3.440832e+00
  2.176957e+01    4.521853e+00
  2.180132e+01    5.963653e+00
  2.183307e+01    7.737794e+00
  2.186482e+01    9.865267e+00
  2.189657e+01    1.177602e+01
  2.192832e+01    1.244262e+01
  2.196007e+01    1.126081e+01
  2.199183e+01    8.811329e+00
  2.202358e+01    6.553248e+00
  2.205533e+01    4.884492e+00
  2.208708e+01    3.786326e+00
  2.211883e+01    3.096874e+00
  2.215058e+01    2.621804e+00
  2.218233e+01    2.226121e+00
  2.221408e+01    1.978225e+00
  2.224584e+01    1.836778e+00
  2.227759e+01    1.706657e+00
  2.230934e+01    1.578403e+00
  2.234109e+01    1.494477e+00
  2.237284e+01    1.435176e+00
  2.240459e+01    1.409559e+00
  2.243634e+01    1.371361e+00
  2.246809e+01    1.336861e+00
  2.249984e+01    1.306366e+00
  2.253160e+01    1.280156e+00
  2.256335e+01    1.253746e+00
  2.259510e+01    1.225257e+00
  2.262685e+01    1.217656e+00
  2.265860e+01    1.223832e+00
  2.269035e+01    1.171508e+00
  2.272210e+01    1.176137e+00
  2.275385e+01    1.132006e+00
  2.278560e+01    1.153015e+00
  2.281736e+01    1.141761e+00
  2.284911e+01    1.120542e+00
  2.288086e+01    1.116644e+00
  2.291261e+01    1.087384e+00
  2.294436e+01    1.105556e+00
  2.297611e+01    1.096521e+00
  2.300786e+01    1.084609e+00
  2.303961e+01    1.085744e+00
  2.307137e+01    1.062861e+00
  2.310312e+01    1.063787e+00
  2.313487e+01    1.065351e+00
  2.316662e+01    1.057922e+00
  2.319837e+01    1.040615e+00
  2.323012e+01    1.020892e+00
  2.326187e+01    1.048805e+00
  2.329362e+01    1.035270e+00
  2.332537e+01    1.025455e+00
  2.335713e+01    9.852755e-01
  2.338888e+01    1.007853e+00
  2.342063e+01    1.016876e+00
  2.345238e+01    9.771851e-01
  2.348413e+01    9.861347e-01
  2.351588e+01    9.836326e-01
  2.354763e+01    9.999203e-01
  2.357938e+01    1.022008e+00
  2.361113e+01    9.829381e-01
  2.364289e+01    9.771999e-01
  2.367464e+01    9.797286e-01
  2.370639e+01    9.498407e-01
  2.373814e+01    9.773670e-01
  2.376989e+01    9.799820e-01
  2.380164e+01    9.577253e-01
  2.383339e+01    9.354623e-01
  2.386514e+01    9.504972e-01
  2.389689e+01    9.446313e-01
  2.392865e+01    9.346228e-01
  2.396040e+01    9.251822e-01
  2.399215e+01    9.082616e-01
  2.402390e+01    9.089263e-01
  2.405565e+01    9.143341e-01
  2.408740e+01    9.341472e-01
  2.411915e+01    8.948637e-01
  2.415090e+01    8.941253e-01
  2.418266e+01    9.091691e-01
  2.421441e+01    8.917944e-01
  2.424616e+01    8.980165e-01
  2.427791e+01    9.193455e-01
  2.430966e+01    9.189316e-01
  2.434141e+01    9.383879e-01
  2.437316e+01    9.155572e-01
  2.440491e+01    9.246054e-01
  2.443666e+01    9.128861e-01
  2.446842e+01    9.149976e-01
  2.450017e+01    9.170299e-01
  2.453192e+01    9.265404e-01
  2.456367e+01    9.176036e-01
  2.459542e+01    9.026433e-01
  2.462717e+01    9.391179e-01
  2.465892e+01    9.193239e-01
  2.469067e+01    9.258429e-01
  2.472242e+01    8.951255e-01
  2.475418e+01    9.182869e-01
  2.478593e+01    9.066719e-01
  2.481768e+01    8.980803e-01
  2.484943e+01    9.311780e-01
  2.488118e+01    8.850546e-01
  2.491293e+01    9.323352e-01
  2.494468e+01    9.080234e-01
  2.497643e+01    9.072223e-01
  2.500819e+01    9.161976e-01
  2.503994e+01    9.104288e-01
  2.507169e+01    9.235873e-01
  2.510344e+01    9.575244e-01
  2.513519e+01    9.217624e-01
  2.516694e+01    9.507240e-01
  2.519869e+01    9.469101e-01
  2.523044e+01    9.339232e-01
  2.526219e+01    9.759234e-01
  2.529395e+01    9.870231e-01
  2.532570e+01    1.010650e+00
  2.535745e+01    1.017932e+00
  2.538920e+01    1.021325e+00
  2.542095e+01    1.032576e+00
  2.545270e+01    1.087517e+00
  2.548445e+01    1.103941e+00
  2.551620e+01    1.112293e+00
  2.554795e+01    1.161921e+00
  2.557971e+01    1.191719e+00
  2.561146e+01    1.261796e+00
  2.564321e+01    1.345549e+00
  2.567496e+01    1.451723e+00
  2.570671e+01    1.593380e+00
  2.573846e+01    1.836199e+00
  2.577021e+01    2.136912e+00
  2.580196e+01    2.636893e+00
  2.583371e+01    3.410123e+00
  2.586547e+01    4.511219e+00
  2.589722e+01    5.958311e+00
  2.592897e+01    7.743304e+00
  2.596072e+01    9.331967e+00
  2.599247e+01    1.010430e+01
  2.602422e+01    9.470981e+00
  2.605597e+01    7.716843e+00
  2.608772e+01    5.916539e+00
  2.611948e+01    4.508902e+00
  2.615123e+01    3.520927e+00
  2.618298e+01    2.867112e+00
  2.621473e+01    2.371814e+00
  2.624648e+01    2.079017e+00
  2.627823e+01    1.807747e+00
  2.630998e+01    1.703429e+00
  2.634173e+01    1.588013e+00
  2.637348e+01    1.447808e+00
  2.640524e+01    1.359143e+00
  2.643699e+01    1.309493e+00
  2.646874e+01    1.279953e+00
  2.650049e+01    1.272320e+00
  2.653224e+01    1.246262e+00
  2.656399e+01    1.212835e+00
  2.659574e+01    1.170518e+00
  2.662749e+01    1.168957e+00
  2.665924e+01    1.164196e+00
  2.669100e+01    1.177489e+00
  2.672275e+01    1.136912e+00
  2.675450e+01    1.146683e+00
  2.678625e+01    1.124409e+00
  2.681800e+01    1.119606e+00
  2.684975e+01    1.126104e+00
  2.688150e+01    1.139867e+00
  2.691325e+01    1.131638e+00
  2.694501e+01    1.165578e+00
  2.697676e+01    1.152321e+00
  2.700851e+01    1.204044e+00
  2.704026e+01    1.281153e+00
  2.707201e+01    1.398537e+00
  2.710376e+01    1.552420e+00
  2.713551e+01    1.783455e+00
  2.716726e+01    2.098277e+00
  2.719901e+01    2.492508e+00
  2.723077e+01    2.830647e+00
  2.726252e+01    2.861502e+00
  2.729427e+01    2.648641e+00
  2.732602e+01    2.260961e+00
  2.735777e+01    1.946926e+00
  2.738952e+01    1.675446e+00
  2.742127e+01    1.518728e+00
  2.745302e+01    1.373625e+00
  2.748477e+01    1.248281e+00
  2.751653e+01    1.209954e+00
  2.754828e+01    1.146865e+00
  2.758003e+01    1.126560e+00
  2.761178e+01    1.083669e+00
  2.764353e+01    1.049940e+00
  2.767528e+01    1.015900e+00
  2.770703e+01    9.973311e-01
  2.773878e+01    1.016578e+00
  2.777054e+01    9.777457e-01
  2.780229e+01    9.922528e-01
  2.783404e+01    9.881061e-01
  2.786579e+01    9.665343e-01
  2.789754e+01    9.605242e-01
  2.792929e+01    9.686988e-01
  2.796104e+01    9.670581e-01
  2.799279e+01    9.514040e-01
  2.802454e+01    9.485664e-01
  2.805630e+01    9.553630e-01
  2.808805e+01    9.348687e-01
  2.811980e+01    9.360504e-01
  2.815155e+01    9.253909e-01
  2.818330e+01    9.315158e-01
  2.821505e+01    9.306976e-01
  2.824680e+01    9.421173e-01
  2.827855e+01    9.184532e-01
  2.831030e+01    9.259841e-01
  2.834206e+01    9.240470e-01
  2.837381e+01    9.172094e-01
  2.840556e+01    8.963906e-01
  2.843731e+01    8.902925e-01
  2.846906e+01    9.146944e-01
  2.850081e+01    9.090205e-01
  2.853256e+01    8.665465e-01
  2.856431e+01    8.856053e-01
  2.859606e+01    9.153180e-01
  2.862782e+01    8.803818e-01
  2.865957e+01    8.747039e-01
  2.869132e+01    8.788420e-01
  2.872307e+01    8.976772e-01
  2.875482e+01    8.848590e-01
  2.878657e+01    8.806309e-01
  2.881832e+01    8.999104e-01
  2.885007e+01    8.579841e-01
  2.888183e+01    8.675912e-01
  2.891358e+01    8.858146e-01
  2.894533e+01    8.698159e-01
  2.897708e+01    8.702316e-01
  2.900883e+01    8.901161e-01
  2.904058e+01    8.617244e-01
  2.907233e+01    8.720976e-01
  2.910408e+01    8.693620e-01
  2.913583e+01    8.684871e-01
  2.916759e+01    8.707293e-01
  2.919934e+01    8.648440e-01
  2.923109e+01    8.458579e-01
  2.926284e+01    8.450050e-01
  2.929459e+01    8.648166e-01
  2.932634e+01    8.599502e-01
  2.935809e+01    8.402353e-01
  2.938984e+01    8.489321e-01
  2.942159e+01    8.523636e-01
  2.945335e+01    8.635428e-01
  2.948510e+01    8.324260e-01
  2.951685e+01    8.601416e-01
  2.954860e+01    8.134553e-01
  2.958035e+01    8.642329e-01
  2.961210e+01    8.415811e-01
  2.964385e+01    8.482623e-01
  2.967560e+01    8.373896e-01
  2.970736e+01    8.452498e-01
  2.973911e+01    8.189139e-01
  2.977086e+01    8.421828e-01
  2.980261e+01    8.526239e-01
  2.983436e+01    8.366567e-01
  2.986611e+01    8.116276e-01
  2.989786e+01    8.368083e-01
  2.992961e+01    8.299156e-01
  2.996136e+01    8.334502e-01
  2.999312e+01    8.679485e-01
  3.002487e+01    8.659797e-01
  3.005662e+01    8.684666e-01
  3.008837e+01    8.580991e-01
  3.012012e+01    8.433399e-01
  3.015187e+01    8.223099e-01
  3.018362e+01    8.121570e-01
  3.021537e+01    8.130423e-01
  3.024712e+01    8.231423e-01
  3.027888e+01    8.199721e-01
  3.031063e+01    8.262653e-01
  3.034238e+01    8.429142e-01
  3.037413e+01    8.412871e-01
  3.040588e+01    8.276066e-01
  3.043763e+01    8.289629e-01
  3.046938e+01    8.208272e-01
  3.050113e+01    8.343455e-01
  3.053288e+01    8.307610e-01
  3.056464e+01    8.169199e-01
  3.059639e+01    8.244119e-01
  3.062814e+01    8.324286e-01
  3.065989e+01    8.307464e-01
  3.069164e+01    8.237348e-01
  3.072339e+01    8.264126e-01
  3.075514e+01    8.372607e-01
  3.078689e+01    7.976845e-01
  3.081865e+01    8.369340e-01
  3.085040e+01    8.281786e-01
  3.088215e+01    8.249177e-01
  3.091390e+01    8.185073e-01
  3.094565e+01    8.374076e-01
  3.097740e+01    8.077065e-01
  3.100915e+01    8.317696e-01
  3.104090e+01    8.227803e-01
  3.107265e+01    8.080768e-01
  3.110441e+01    8.312295e-01
  3.113616e+01    8.474633e-01
  3.116791e+01    8.419365e-01
  3.119966e+01    8.235573e-01
  3.123141e+01    8.308155e-01
  3.126316e+01    8.379764e-01
  3.129491e+01    8.617794e-01
  3.132666e+01    8.537167e-01
  3.135841e+01    8.323814e-01
  3.139017e+01    8.640217e-01
  3.142192e+01    8.488627e-01
  3.145367e+01    8.726941e-01
  3.148542e+01    8.615518e-01
  3.151717e+01    8.772947e-01
  3.154892e+01    9.183020e-01
  3.158067e+01    9.108728e-01
  3.161242e+01    9.109855e-01
  3.164418e+01    9.469541e-01
  3.167593e+01    1.010057e+00
  3.170768e+01    1.029911e+00
  3.173943e+01    1.125313e+00
  3.177118e+01    1.260772e+00
  3.180293e+01    1.447588e+00
  3.183468e+01    1.687029e+00
  3.186643e+01    2.054411e+00
  3.189818e+01    2.486449e+00
  3.192994e+01    2.806993e+00
  3.196169e+01    2.890583e+00
  3.199344e+01    2.600306e+00
  3.202519e+01    2.227928e+00
  3.205694e+01    1.859758e+00
  3.208869e+01    1.533482e+00
  3.212044e+01    1.362507e+00
  3.215219e+01    1.252625e+00
  3.218394e+01    1.168336e+00
  3.221570e+01    1.093160e+00
  3.224745e+01    1.012615e+00
  3.227920e+01    1.017956e+00
  3.231095e+01    9.658024e-01
  3.234270e+01    9.314892e-01
  3.237445e+01    9.074392e-01
  3.240620e+01    9.140923e-01
  3.243795e+01    9.057910e-01
  3.246970e+01    8.871165e-01
  3.250146e+01    8.569461e-01
  3.253321e+01    8.934169e-01
  3.254908e+01    8.808231e-01