File: XRD/2024-07-27_002_Ru-CGO-ex_Activtation_ramp_000002_data_000085.dat
# == pyFAI calibration ==
# Distance Sample to Detector: 0.4 m
# PONI: 9.750e-02, 1.135e-01 m
# Rotations: -0.000175 0.000000 -0.000000 rad
#
# == Fit2d calibration ==
# Distance Sample-beamCenter: 400.000 mm
# Center: x=1514.000, y=1300.000 pix
# Tilt: 0.010 deg  TiltPlanRot: 0.010 deg
#
# Detector Detector	 Spline= None	 PixelSize= 7.500e-05, 7.500e-05 m
#    Detector has a mask: False
#    Detector has a dark current: False
#    detector has a flat field: False
#
# Wavelength: 6.888e-11 m
# Mask applied: user provided
# Dark current applied: False
# Flat field applied: False
# Polarization factor: 0.99
# Normalization factor: 1.0
# --> /home/myspot/data/2024_07_Rosario/Ru-CGO-ex/2024-07-27_002_Ru-CGO-ex_Activtation_ramp_000002_data_000085.dat
#       q_nm^-1             I
  2.003187e-02    0.000000e+00
  5.178302e-02    7.652282e-02
  8.353417e-02    8.947652e-02
  1.152853e-01    0.000000e+00
  1.470365e-01    6.883736e-02
  1.787876e-01    2.565632e-02
  2.105388e-01    8.492098e-02
  2.422899e-01    3.148777e-02
  2.740411e-01    0.000000e+00
  3.057922e-01    6.489373e-02
  3.375433e-01    1.398510e-02
  3.692945e-01    2.922495e-02
  4.010456e-01    4.351600e-02
  4.327968e-01    6.450772e-02
  4.645479e-01    2.077351e-02
  4.962991e-01    2.820132e-02
  5.280502e-01    3.877718e-02
  5.598014e-01    2.754031e-02
  5.915525e-01    4.189571e-02
  6.233037e-01    2.259903e-02
  6.550548e-01    5.464246e-02
  6.868060e-01    1.358610e-02
  7.185571e-01    1.068255e-02
  7.503083e-01    4.415730e-02
  7.820594e-01    1.086049e-01
  8.138106e-01    2.138971e-01
  8.455617e-01    2.850403e-01
  8.773129e-01    4.104460e-01
  9.090640e-01    5.431354e-01
  9.408152e-01    7.403171e-01
  9.725663e-01    8.539064e-01
  1.004317e+00    9.956299e-01
  1.036069e+00    1.128001e+00
  1.067820e+00    1.213595e+00
  1.099571e+00    1.241236e+00
  1.131322e+00    1.419878e+00
  1.163073e+00    1.484176e+00
  1.194824e+00    1.556088e+00
  1.226575e+00    1.979658e+00
  1.258327e+00    2.363853e+00
  1.290078e+00    2.449607e+00
  1.321829e+00    2.602244e+00
  1.353580e+00    2.704031e+00
  1.385331e+00    2.534567e+00
  1.417082e+00    2.671723e+00
  1.448834e+00    2.770709e+00
  1.480585e+00    2.775086e+00
  1.512336e+00    2.817246e+00
  1.544087e+00    2.883355e+00
  1.575838e+00    2.859612e+00
  1.607589e+00    2.922747e+00
  1.639340e+00    2.983361e+00
  1.671092e+00    2.732621e+00
  1.702843e+00    2.814467e+00
  1.734594e+00    2.900640e+00
  1.766345e+00    2.779366e+00
  1.798096e+00    2.756993e+00
  1.829847e+00    2.675561e+00
  1.861598e+00    2.708277e+00
  1.893350e+00    2.691630e+00
  1.925101e+00    2.720201e+00
  1.956852e+00    2.859073e+00
  1.988603e+00    2.754860e+00
  2.020354e+00    2.695835e+00
  2.052105e+00    2.674192e+00
  2.083856e+00    2.726197e+00
  2.115608e+00    2.738246e+00
  2.147359e+00    2.721789e+00
  2.179110e+00    2.602927e+00
  2.210861e+00    2.752227e+00
  2.242612e+00    2.602707e+00
  2.274363e+00    2.714239e+00
  2.306115e+00    2.637726e+00
  2.337866e+00    2.619678e+00
  2.369617e+00    2.793963e+00
  2.401368e+00    2.844428e+00
  2.433119e+00    2.739208e+00
  2.464870e+00    2.771706e+00
  2.496621e+00    2.780477e+00
  2.528373e+00    2.766443e+00
  2.560124e+00    2.726802e+00
  2.591875e+00    2.732057e+00
  2.623626e+00    2.736701e+00
  2.655377e+00    2.912016e+00
  2.687128e+00    2.839782e+00
  2.718879e+00    2.863080e+00
  2.750631e+00    2.811450e+00
  2.782382e+00    2.825880e+00
  2.814133e+00    2.789804e+00
  2.845884e+00    2.782683e+00
  2.877635e+00    2.833099e+00
  2.909386e+00    2.822795e+00
  2.941137e+00    2.856922e+00
  2.972889e+00    2.830076e+00
  3.004640e+00    2.961006e+00
  3.036391e+00    2.862546e+00
  3.068142e+00    2.888575e+00
  3.099893e+00    2.772369e+00
  3.131644e+00    2.888592e+00
  3.163395e+00    2.797201e+00
  3.195147e+00    2.930857e+00
  3.226898e+00    2.812775e+00
  3.258649e+00    2.876864e+00
  3.290400e+00    2.948796e+00
  3.322151e+00    2.788166e+00
  3.353902e+00    2.867155e+00
  3.385654e+00    2.903181e+00
  3.417405e+00    2.876348e+00
  3.449156e+00    2.921974e+00
  3.480907e+00    2.912172e+00
  3.512658e+00    2.880067e+00
  3.544409e+00    2.953668e+00
  3.576160e+00    2.912535e+00
  3.607912e+00    2.918693e+00
  3.639663e+00    2.954544e+00
  3.671414e+00    2.890765e+00
  3.703165e+00    3.015079e+00
  3.734916e+00    3.036793e+00
  3.766667e+00    2.911070e+00
  3.798418e+00    3.013811e+00
  3.830170e+00    2.916874e+00
  3.861921e+00    2.945317e+00
  3.893672e+00    2.987137e+00
  3.925423e+00    2.960686e+00
  3.957174e+00    2.965640e+00
  3.988925e+00    3.019556e+00
  4.020676e+00    2.992632e+00
  4.052428e+00    2.966413e+00
  4.084179e+00    2.997839e+00
  4.115930e+00    2.868163e+00
  4.147681e+00    2.935841e+00
  4.179432e+00    3.062034e+00
  4.211183e+00    3.059651e+00
  4.242935e+00    3.018883e+00
  4.274686e+00    2.997630e+00
  4.306437e+00    3.033225e+00
  4.338188e+00    2.956264e+00
  4.369939e+00    3.024172e+00
  4.401690e+00    3.036232e+00
  4.433441e+00    3.001427e+00
  4.465193e+00    3.020561e+00
  4.496944e+00    3.107122e+00
  4.528695e+00    3.092042e+00
  4.560446e+00    3.129964e+00
  4.592197e+00    3.142126e+00
  4.623948e+00    3.008711e+00
  4.655699e+00    3.050351e+00
  4.687451e+00    3.069651e+00
  4.719202e+00    3.047648e+00
  4.750953e+00    3.033997e+00
  4.782704e+00    3.095855e+00
  4.814455e+00    3.161220e+00
  4.846206e+00    3.075528e+00
  4.877957e+00    3.146735e+00
  4.909709e+00    3.132140e+00
  4.941460e+00    3.058034e+00
  4.973211e+00    3.086825e+00
  5.004962e+00    3.149085e+00
  5.036713e+00    3.083169e+00
  5.068464e+00    3.084384e+00
  5.100216e+00    3.123480e+00
  5.131967e+00    3.116277e+00
  5.163718e+00    3.053951e+00
  5.195469e+00    3.138075e+00
  5.227220e+00    3.102364e+00
  5.258971e+00    3.069136e+00
  5.290722e+00    3.021946e+00
  5.322474e+00    3.155220e+00
  5.354225e+00    3.084795e+00
  5.385976e+00    3.096311e+00
  5.417727e+00    3.081960e+00
  5.449478e+00    2.982529e+00
  5.481229e+00    3.083849e+00
  5.512980e+00    3.044450e+00
  5.544732e+00    3.091293e+00
  5.576483e+00    3.064635e+00
  5.608234e+00    2.991405e+00
  5.639985e+00    3.110311e+00
  5.671736e+00    2.953682e+00
  5.703487e+00    3.015484e+00
  5.735238e+00    3.028313e+00
  5.766990e+00    2.992509e+00
  5.798741e+00    3.014869e+00
  5.830492e+00    3.056790e+00
  5.862243e+00    3.014909e+00
  5.893994e+00    3.044514e+00
  5.925745e+00    2.908155e+00
  5.957497e+00    3.025293e+00
  5.989248e+00    3.004316e+00
  6.020999e+00    3.026787e+00
  6.052750e+00    3.006504e+00
  6.084501e+00    2.996511e+00
  6.116252e+00    2.998304e+00
  6.148003e+00    3.035045e+00
  6.179755e+00    2.956306e+00
  6.211506e+00    3.000938e+00
  6.243257e+00    3.049629e+00
  6.275008e+00    3.043508e+00
  6.306759e+00    3.028729e+00
  6.338510e+00    2.973015e+00
  6.370261e+00    3.034829e+00
  6.402013e+00    3.023016e+00
  6.433764e+00    2.926398e+00
  6.465515e+00    2.973526e+00
  6.497266e+00    2.974885e+00
  6.529017e+00    2.996886e+00
  6.560768e+00    3.011638e+00
  6.592519e+00    3.026723e+00
  6.624271e+00    3.059770e+00
  6.656022e+00    3.042249e+00
  6.687773e+00    2.975413e+00
  6.719524e+00    2.962609e+00
  6.751275e+00    3.003417e+00
  6.783026e+00    3.007303e+00
  6.814777e+00    3.030049e+00
  6.846529e+00    2.961768e+00
  6.878280e+00    2.997735e+00
  6.910031e+00    2.930186e+00
  6.941782e+00    3.004673e+00
  6.973533e+00    2.974047e+00
  7.005284e+00    2.935932e+00
  7.037036e+00    3.012937e+00
  7.068787e+00    2.989291e+00
  7.100538e+00    2.991041e+00
  7.132289e+00    2.960643e+00
  7.164040e+00    2.925821e+00
  7.195791e+00    2.977571e+00
  7.227542e+00    2.979749e+00
  7.259294e+00    2.916994e+00
  7.291045e+00    2.964470e+00
  7.322796e+00    2.998956e+00
  7.354547e+00    2.953561e+00
  7.386298e+00    3.010874e+00
  7.418049e+00    2.904117e+00
  7.449800e+00    2.898250e+00
  7.481552e+00    2.923669e+00
  7.513303e+00    2.902925e+00
  7.545054e+00    2.942447e+00
  7.576805e+00    2.938168e+00
  7.608556e+00    2.960252e+00
  7.640307e+00    2.892718e+00
  7.672058e+00    2.832651e+00
  7.703810e+00    2.866755e+00
  7.735561e+00    2.907798e+00
  7.767312e+00    2.905329e+00
  7.799063e+00    2.891798e+00
  7.830814e+00    2.892135e+00
  7.862565e+00    2.938175e+00
  7.894317e+00    2.858364e+00
  7.926068e+00    2.872124e+00
  7.957819e+00    2.807580e+00
  7.989570e+00    2.904702e+00
  8.021321e+00    2.895425e+00
  8.053072e+00    2.913473e+00
  8.084823e+00    2.908574e+00
  8.116575e+00    2.953979e+00
  8.148326e+00    2.918727e+00
  8.180077e+00    2.873191e+00
  8.211828e+00    2.970932e+00
  8.243579e+00    2.913316e+00
  8.275330e+00    2.876337e+00
  8.307081e+00    2.883568e+00
  8.338833e+00    2.942137e+00
  8.370584e+00    2.884629e+00
  8.402335e+00    2.856999e+00
  8.434086e+00    2.831197e+00
  8.465837e+00    2.825730e+00
  8.497588e+00    2.890671e+00
  8.529339e+00    2.769707e+00
  8.561091e+00    2.899848e+00
  8.592842e+00    2.888932e+00
  8.624593e+00    2.790454e+00
  8.656344e+00    2.940429e+00
  8.688095e+00    2.808502e+00
  8.719846e+00    2.793365e+00
  8.751598e+00    2.838839e+00
  8.783349e+00    2.858181e+00
  8.815100e+00    2.739682e+00
  8.846851e+00    2.861735e+00
  8.878602e+00    2.857178e+00
  8.910353e+00    2.800422e+00
  8.942104e+00    2.771050e+00
  8.973856e+00    2.837393e+00
  9.005607e+00    2.753953e+00
  9.037358e+00    2.788280e+00
  9.069109e+00    2.794188e+00
  9.100860e+00    2.829260e+00
  9.132611e+00    2.837110e+00
  9.164362e+00    2.799969e+00
  9.196114e+00    2.800232e+00
  9.227865e+00    2.748816e+00
  9.259616e+00    2.781260e+00
  9.291367e+00    2.701148e+00
  9.323118e+00    2.745571e+00
  9.354869e+00    2.732547e+00
  9.386620e+00    2.746512e+00
  9.418372e+00    2.726993e+00
  9.450123e+00    2.721303e+00
  9.481874e+00    2.784134e+00
  9.513625e+00    2.767207e+00
  9.545376e+00    2.690113e+00
  9.577127e+00    2.668924e+00
  9.608878e+00    2.727522e+00
  9.640630e+00    2.711612e+00
  9.672381e+00    2.707213e+00
  9.704132e+00    2.663118e+00
  9.735883e+00    2.678882e+00
  9.767634e+00    2.735208e+00
  9.799385e+00    2.622483e+00
  9.831137e+00    2.725994e+00
  9.862888e+00    2.666322e+00
  9.894639e+00    2.598296e+00
  9.926390e+00    2.633252e+00
  9.958141e+00    2.635166e+00
  9.989892e+00    2.664657e+00
  1.002164e+01    2.678098e+00
  1.005339e+01    2.639644e+00
  1.008515e+01    2.632066e+00
  1.011690e+01    2.653421e+00
  1.014865e+01    2.669423e+00
  1.018040e+01    2.587114e+00
  1.021215e+01    2.668648e+00
  1.024390e+01    2.604225e+00
  1.027565e+01    2.613789e+00
  1.030740e+01    2.662002e+00
  1.033915e+01    2.600083e+00
  1.037091e+01    2.620929e+00
  1.040266e+01    2.608142e+00
  1.043441e+01    2.573927e+00
  1.046616e+01    2.551993e+00
  1.049791e+01    2.645195e+00
  1.052966e+01    2.585963e+00
  1.056141e+01    2.575630e+00
  1.059316e+01    2.597511e+00
  1.062492e+01    2.555666e+00
  1.065667e+01    2.522655e+00
  1.068842e+01    2.549365e+00
  1.072017e+01    2.506422e+00
  1.075192e+01    2.530441e+00
  1.078367e+01    2.495501e+00
  1.081542e+01    2.506421e+00
  1.084717e+01    2.488693e+00
  1.087892e+01    2.535025e+00
  1.091068e+01    2.501975e+00
  1.094243e+01    2.464234e+00
  1.097418e+01    2.394805e+00
  1.100593e+01    2.500511e+00
  1.103768e+01    2.370722e+00
  1.106943e+01    2.446662e+00
  1.110118e+01    2.488401e+00
  1.113293e+01    2.471785e+00
  1.116468e+01    2.425646e+00
  1.119644e+01    2.429142e+00
  1.122819e+01    2.410120e+00
  1.125994e+01    2.386415e+00
  1.129169e+01    2.415354e+00
  1.132344e+01    2.422484e+00
  1.135519e+01    2.409985e+00
  1.138694e+01    2.405421e+00
  1.141869e+01    2.421647e+00
  1.145045e+01    2.386766e+00
  1.148220e+01    2.384048e+00
  1.151395e+01    2.367782e+00
  1.154570e+01    2.341485e+00
  1.157745e+01    2.353983e+00
  1.160920e+01    2.409037e+00
  1.164095e+01    2.348536e+00
  1.167270e+01    2.308107e+00
  1.170445e+01    2.377390e+00
  1.173621e+01    2.311626e+00
  1.176796e+01    2.308292e+00
  1.179971e+01    2.279320e+00
  1.183146e+01    2.357585e+00
  1.186321e+01    2.371432e+00
  1.189496e+01    2.303102e+00
  1.192671e+01    2.319055e+00
  1.195846e+01    2.328227e+00
  1.199021e+01    2.342054e+00
  1.202197e+01    2.305508e+00
  1.205372e+01    2.301300e+00
  1.208547e+01    2.248529e+00
  1.211722e+01    2.300211e+00
  1.214897e+01    2.326263e+00
  1.218072e+01    2.321799e+00
  1.221247e+01    2.283071e+00
  1.224422e+01    2.271523e+00
  1.227597e+01    2.309796e+00
  1.230773e+01    2.298926e+00
  1.233948e+01    2.318650e+00
  1.237123e+01    2.313029e+00
  1.240298e+01    2.351825e+00
  1.243473e+01    2.300904e+00
  1.246648e+01    2.343155e+00
  1.249823e+01    2.340086e+00
  1.252998e+01    2.328197e+00
  1.256174e+01    2.339567e+00
  1.259349e+01    2.384297e+00
  1.262524e+01    2.393264e+00
  1.265699e+01    2.422388e+00
  1.268874e+01    2.440562e+00
  1.272049e+01    2.471923e+00
  1.275224e+01    2.584357e+00
  1.278399e+01    2.582397e+00
  1.281574e+01    2.690308e+00
  1.284750e+01    2.868122e+00
  1.287925e+01    3.016525e+00
  1.291100e+01    3.195199e+00
  1.294275e+01    3.647379e+00
  1.297450e+01    4.274657e+00
  1.300625e+01    5.309297e+00
  1.303800e+01    6.788045e+00
  1.306975e+01    9.281099e+00
  1.310150e+01    1.213890e+01
  1.313326e+01    1.466506e+01
  1.316501e+01    1.720442e+01
  1.319676e+01    1.817141e+01
  1.322851e+01    1.583051e+01
  1.326026e+01    1.146118e+01
  1.329201e+01    8.158907e+00
  1.332376e+01    6.025916e+00
  1.335551e+01    4.823908e+00
  1.338727e+01    3.958369e+00
  1.341902e+01    3.465806e+00
  1.345077e+01    3.108865e+00
  1.348252e+01    2.866934e+00
  1.351427e+01    2.668780e+00
  1.354602e+01    2.575239e+00
  1.357777e+01    2.451140e+00
  1.360952e+01    2.406085e+00
  1.364127e+01    2.359890e+00
  1.367303e+01    2.325221e+00
  1.370478e+01    2.266116e+00
  1.373653e+01    2.247013e+00
  1.376828e+01    2.199884e+00
  1.380003e+01    2.187458e+00
  1.383178e+01    2.109046e+00
  1.386353e+01    2.077850e+00
  1.389528e+01    2.119018e+00
  1.392703e+01    2.110340e+00
  1.395879e+01    2.072627e+00
  1.399054e+01    2.010279e+00
  1.402229e+01    2.058583e+00
  1.405404e+01    2.014480e+00
  1.408579e+01    1.985798e+00
  1.411754e+01    2.025648e+00
  1.414929e+01    2.017188e+00
  1.418104e+01    1.984349e+00
  1.421279e+01    1.972156e+00
  1.424455e+01    1.980031e+00
  1.427630e+01    1.938075e+00
  1.430805e+01    1.918980e+00
  1.433980e+01    1.954482e+00
  1.437155e+01    1.926948e+00
  1.440330e+01    1.910083e+00
  1.443505e+01    1.929642e+00
  1.446680e+01    1.908283e+00
  1.449856e+01    1.930124e+00
  1.453031e+01    1.920812e+00
  1.456206e+01    1.910790e+00
  1.459381e+01    1.905032e+00
  1.462556e+01    1.918622e+00
  1.465731e+01    1.899388e+00
  1.468906e+01    1.901348e+00
  1.472081e+01    1.895975e+00
  1.475256e+01    1.907186e+00
  1.478432e+01    1.883165e+00
  1.481607e+01    1.942046e+00
  1.484782e+01    1.908743e+00
  1.487957e+01    1.927567e+00
  1.491132e+01    1.949583e+00
  1.494307e+01    1.980945e+00
  1.497482e+01    2.023988e+00
  1.500657e+01    2.119418e+00
  1.503832e+01    2.289530e+00
  1.507008e+01    2.435527e+00
  1.510183e+01    2.739328e+00
  1.513358e+01    3.268959e+00
  1.516533e+01    4.005205e+00
  1.519708e+01    4.830739e+00
  1.522883e+01    5.474413e+00
  1.526058e+01    6.042210e+00
  1.529233e+01    6.005677e+00
  1.532409e+01    5.426196e+00
  1.535584e+01    4.263637e+00
  1.538759e+01    3.367483e+00
  1.541934e+01    2.807040e+00
  1.545109e+01    2.472847e+00
  1.548284e+01    2.220719e+00
  1.551459e+01    2.054195e+00
  1.554634e+01    1.946671e+00
  1.557809e+01    1.891103e+00
  1.560985e+01    1.808900e+00
  1.564160e+01    1.783060e+00
  1.567335e+01    1.775985e+00
  1.570510e+01    1.729939e+00
  1.573685e+01    1.727146e+00
  1.576860e+01    1.705726e+00
  1.580035e+01    1.658705e+00
  1.583210e+01    1.677078e+00
  1.586385e+01    1.635134e+00
  1.589561e+01    1.625188e+00
  1.592736e+01    1.619496e+00
  1.595911e+01    1.543361e+00
  1.599086e+01    1.627202e+00
  1.602261e+01    1.635982e+00
  1.605436e+01    1.611501e+00
  1.608611e+01    1.562796e+00
  1.611786e+01    1.548897e+00
  1.614961e+01    1.570575e+00
  1.618137e+01    1.558508e+00
  1.621312e+01    1.541913e+00
  1.624487e+01    1.544127e+00
  1.627662e+01    1.532752e+00
  1.630837e+01    1.550958e+00
  1.634012e+01    1.518994e+00
  1.637187e+01    1.549863e+00
  1.640362e+01    1.480192e+00
  1.643538e+01    1.487997e+00
  1.646713e+01    1.503917e+00
  1.649888e+01    1.523235e+00
  1.653063e+01    1.531077e+00
  1.656238e+01    1.492508e+00
  1.659413e+01    1.480628e+00
  1.662588e+01    1.481881e+00
  1.665763e+01    1.468355e+00
  1.668938e+01    1.454872e+00
  1.672114e+01    1.475972e+00
  1.675289e+01    1.453769e+00
  1.678464e+01    1.440441e+00
  1.681639e+01    1.480288e+00
  1.684814e+01    1.470449e+00
  1.687989e+01    1.431473e+00
  1.691164e+01    1.471252e+00
  1.694339e+01    1.427637e+00
  1.697514e+01    1.421452e+00
  1.700690e+01    1.401976e+00
  1.703865e+01    1.402645e+00
  1.707040e+01    1.411509e+00
  1.710215e+01    1.393758e+00
  1.713390e+01    1.420224e+00
  1.716565e+01    1.376048e+00
  1.719740e+01    1.420667e+00
  1.722915e+01    1.411506e+00
  1.726091e+01    1.367418e+00
  1.729266e+01    1.375116e+00
  1.732441e+01    1.382611e+00
  1.735616e+01    1.340365e+00
  1.738791e+01    1.409140e+00
  1.741966e+01    1.378522e+00
  1.745141e+01    1.347402e+00
  1.748316e+01    1.348628e+00
  1.751491e+01    1.344606e+00
  1.754667e+01    1.330990e+00
  1.757842e+01    1.337497e+00
  1.761017e+01    1.375373e+00
  1.764192e+01    1.328796e+00
  1.767367e+01    1.327416e+00
  1.770542e+01    1.308304e+00
  1.773717e+01    1.323130e+00
  1.776892e+01    1.310173e+00
  1.780067e+01    1.310899e+00
  1.783243e+01    1.296208e+00
  1.786418e+01    1.302101e+00
  1.789593e+01    1.297198e+00
  1.792768e+01    1.310537e+00
  1.795943e+01    1.313865e+00
  1.799118e+01    1.294935e+00
  1.802293e+01    1.302654e+00
  1.805468e+01    1.300980e+00
  1.808643e+01    1.285074e+00
  1.811819e+01    1.274031e+00
  1.814994e+01    1.269981e+00
  1.818169e+01    1.255098e+00
  1.821344e+01    1.263943e+00
  1.824519e+01    1.265432e+00
  1.827694e+01    1.280490e+00
  1.830869e+01    1.240152e+00
  1.834044e+01    1.282711e+00
  1.837220e+01    1.270302e+00
  1.840395e+01    1.221274e+00
  1.843570e+01    1.256915e+00
  1.846745e+01    1.248756e+00
  1.849920e+01    1.237367e+00
  1.853095e+01    1.239538e+00
  1.856270e+01    1.230506e+00
  1.859445e+01    1.199322e+00
  1.862620e+01    1.228514e+00
  1.865796e+01    1.220934e+00
  1.868971e+01    1.214304e+00
  1.872146e+01    1.196540e+00
  1.875321e+01    1.221247e+00
  1.878496e+01    1.250356e+00
  1.881671e+01    1.219882e+00
  1.884846e+01    1.207629e+00
  1.888021e+01    1.215335e+00
  1.891196e+01    1.192987e+00
  1.894372e+01    1.201069e+00
  1.897547e+01    1.177996e+00
  1.900722e+01    1.184738e+00
  1.903897e+01    1.188142e+00
  1.907072e+01    1.178316e+00
  1.910247e+01    1.172093e+00
  1.913422e+01    1.169254e+00
  1.916597e+01    1.146079e+00
  1.919773e+01    1.189641e+00
  1.922948e+01    1.163342e+00
  1.926123e+01    1.151191e+00
  1.929298e+01    1.150677e+00
  1.932473e+01    1.169637e+00
  1.935648e+01    1.152193e+00
  1.938823e+01    1.147426e+00
  1.941998e+01    1.166465e+00
  1.945173e+01    1.155707e+00
  1.948349e+01    1.156520e+00
  1.951524e+01    1.147594e+00
  1.954699e+01    1.189806e+00
  1.957874e+01    1.150763e+00
  1.961049e+01    1.142682e+00
  1.964224e+01    1.161026e+00
  1.967399e+01    1.127731e+00
  1.970574e+01    1.133472e+00
  1.973749e+01    1.143585e+00
  1.976925e+01    1.091442e+00
  1.980100e+01    1.106935e+00
  1.983275e+01    1.122065e+00
  1.986450e+01    1.135105e+00
  1.989625e+01    1.115620e+00
  1.992800e+01    1.107190e+00
  1.995975e+01    1.101658e+00
  1.999150e+01    1.125672e+00
  2.002325e+01    1.131129e+00
  2.005501e+01    1.095665e+00
  2.008676e+01    1.120073e+00
  2.011851e+01    1.103427e+00
  2.015026e+01    1.098675e+00
  2.018201e+01    1.090447e+00
  2.021376e+01    1.116853e+00
  2.024551e+01    1.089339e+00
  2.027726e+01    1.101004e+00
  2.030902e+01    1.066604e+00
  2.034077e+01    1.090037e+00
  2.037252e+01    1.099457e+00
  2.040427e+01    1.100087e+00
  2.043602e+01    1.073188e+00
  2.046777e+01    1.071858e+00
  2.049952e+01    1.074429e+00
  2.053127e+01    1.090303e+00
  2.056302e+01    1.086595e+00
  2.059478e+01    1.046088e+00
  2.062653e+01    1.064800e+00
  2.065828e+01    1.082798e+00
  2.069003e+01    1.082360e+00
  2.072178e+01    1.073493e+00
  2.075353e+01    1.069495e+00
  2.078528e+01    1.083213e+00
  2.081703e+01    1.082181e+00
  2.084878e+01    1.055605e+00
  2.088054e+01    1.069617e+00
  2.091229e+01    1.070667e+00
  2.094404e+01    1.065534e+00
  2.097579e+01    1.050047e+00
  2.100754e+01    1.075160e+00
  2.103929e+01    1.077474e+00
  2.107104e+01    1.060911e+00
  2.110279e+01    1.067013e+00
  2.113455e+01    1.074609e+00
  2.116630e+01    1.107242e+00
  2.119805e+01    1.073640e+00
  2.122980e+01    1.069328e+00
  2.126155e+01    1.103913e+00
  2.129330e+01    1.110173e+00
  2.132505e+01    1.103242e+00
  2.135680e+01    1.121704e+00
  2.138855e+01    1.158080e+00
  2.142031e+01    1.168830e+00
  2.145206e+01    1.195912e+00
  2.148381e+01    1.249190e+00
  2.151556e+01    1.287414e+00
  2.154731e+01    1.367333e+00
  2.157906e+01    1.456489e+00
  2.161081e+01    1.577986e+00
  2.164256e+01    1.775467e+00
  2.167431e+01    2.007167e+00
  2.170607e+01    2.395268e+00
  2.173782e+01    2.969471e+00
  2.176957e+01    3.918888e+00
  2.180132e+01    5.132071e+00
  2.183307e+01    6.617151e+00
  2.186482e+01    8.186027e+00
  2.189657e+01    9.636344e+00
  2.192832e+01    1.001641e+01
  2.196007e+01    8.717085e+00
  2.199183e+01    6.591170e+00
  2.202358e+01    4.736711e+00
  2.205533e+01    3.428889e+00
  2.208708e+01    2.634962e+00
  2.211883e+01    2.189624e+00
  2.215058e+01    1.853433e+00
  2.218233e+01    1.640630e+00
  2.221408e+01    1.478062e+00
  2.224584e+01    1.341720e+00
  2.227759e+01    1.289062e+00
  2.230934e+01    1.209146e+00
  2.234109e+01    1.183001e+00
  2.237284e+01    1.123112e+00
  2.240459e+01    1.085575e+00
  2.243634e+01    1.080048e+00
  2.246809e+01    1.057876e+00
  2.249984e+01    1.031235e+00
  2.253160e+01    1.017272e+00
  2.256335e+01    1.012686e+00
  2.259510e+01    9.743859e-01
  2.262685e+01    9.893698e-01
  2.265860e+01    9.814406e-01
  2.269035e+01    9.670296e-01
  2.272210e+01    9.641429e-01
  2.275385e+01    9.377187e-01
  2.278560e+01    9.242001e-01
  2.281736e+01    9.347030e-01
  2.284911e+01    9.335954e-01
  2.288086e+01    9.227878e-01
  2.291261e+01    8.973732e-01
  2.294436e+01    9.161270e-01
  2.297611e+01    9.104514e-01
  2.300786e+01    8.934416e-01
  2.303961e+01    8.966334e-01
  2.307137e+01    9.009491e-01
  2.310312e+01    8.789350e-01
  2.313487e+01    8.851903e-01
  2.316662e+01    8.708745e-01
  2.319837e+01    8.892218e-01
  2.323012e+01    8.716589e-01
  2.326187e+01    8.871965e-01
  2.329362e+01    8.615388e-01
  2.332537e+01    8.682752e-01
  2.335713e+01    8.757558e-01
  2.338888e+01    8.424809e-01
  2.342063e+01    8.603892e-01
  2.345238e+01    8.478144e-01
  2.348413e+01    8.447559e-01
  2.351588e+01    8.520689e-01
  2.354763e+01    8.532164e-01
  2.357938e+01    8.455485e-01
  2.361113e+01    8.415203e-01
  2.364289e+01    8.348717e-01
  2.367464e+01    8.193974e-01
  2.370639e+01    8.240104e-01
  2.373814e+01    8.066185e-01
  2.376989e+01    8.084369e-01
  2.380164e+01    7.999386e-01
  2.383339e+01    7.875272e-01
  2.386514e+01    7.942577e-01
  2.389689e+01    7.772926e-01
  2.392865e+01    8.157907e-01
  2.396040e+01    8.112837e-01
  2.399215e+01    7.979747e-01
  2.402390e+01    7.855843e-01
  2.405565e+01    7.851966e-01
  2.408740e+01    7.839767e-01
  2.411915e+01    7.612441e-01
  2.415090e+01    7.702139e-01
  2.418266e+01    7.928521e-01
  2.421441e+01    7.788917e-01
  2.424616e+01    7.881691e-01
  2.427791e+01    7.999779e-01
  2.430966e+01    7.696506e-01
  2.434141e+01    7.919859e-01
  2.437316e+01    7.789817e-01
  2.440491e+01    7.764874e-01
  2.443666e+01    7.754251e-01
  2.446842e+01    7.871916e-01
  2.450017e+01    7.850854e-01
  2.453192e+01    7.786086e-01
  2.456367e+01    7.900738e-01
  2.459542e+01    7.951164e-01
  2.462717e+01    7.914853e-01
  2.465892e+01    7.978754e-01
  2.469067e+01    7.649984e-01
  2.472242e+01    8.094516e-01
  2.475418e+01    7.965592e-01
  2.478593e+01    7.726850e-01
  2.481768e+01    8.003375e-01
  2.484943e+01    8.092824e-01
  2.488118e+01    7.771562e-01
  2.491293e+01    8.003998e-01
  2.494468e+01    8.096566e-01
  2.497643e+01    8.077568e-01
  2.500819e+01    7.994446e-01
  2.503994e+01    7.877196e-01
  2.507169e+01    8.082097e-01
  2.510344e+01    8.144011e-01
  2.513519e+01    8.336230e-01
  2.516694e+01    8.150654e-01
  2.519869e+01    8.307545e-01
  2.523044e+01    8.411447e-01
  2.526219e+01    8.531348e-01
  2.529395e+01    8.557057e-01
  2.532570e+01    8.718606e-01
  2.535745e+01    8.812518e-01
  2.538920e+01    8.761113e-01
  2.542095e+01    8.934973e-01
  2.545270e+01    9.105609e-01
  2.548445e+01    9.430020e-01
  2.551620e+01    9.929574e-01
  2.554795e+01    1.019268e+00
  2.557971e+01    1.072423e+00
  2.561146e+01    1.127455e+00
  2.564321e+01    1.167401e+00
  2.567496e+01    1.285725e+00
  2.570671e+01    1.447821e+00
  2.573846e+01    1.593139e+00
  2.577021e+01    1.947134e+00
  2.580196e+01    2.398110e+00
  2.583371e+01    3.038987e+00
  2.586547e+01    3.985526e+00
  2.589722e+01    5.205181e+00
  2.592897e+01    6.631584e+00
  2.596072e+01    7.885430e+00
  2.599247e+01    8.275903e+00
  2.602422e+01    7.422363e+00
  2.605597e+01    5.823440e+00
  2.608772e+01    4.242949e+00
  2.611948e+01    3.152291e+00
  2.615123e+01    2.429792e+00
  2.618298e+01    1.966282e+00
  2.621473e+01    1.687508e+00
  2.624648e+01    1.454145e+00
  2.627823e+01    1.304757e+00
  2.630998e+01    1.208800e+00
  2.634173e+01    1.119391e+00
  2.637348e+01    1.064522e+00
  2.640524e+01    1.022839e+00
  2.643699e+01    9.875410e-01
  2.646874e+01    9.865032e-01
  2.650049e+01    9.570417e-01
  2.653224e+01    9.410395e-01
  2.656399e+01    9.282762e-01
  2.659574e+01    9.465492e-01
  2.662749e+01    9.241465e-01
  2.665924e+01    9.092818e-01
  2.669100e+01    8.908303e-01
  2.672275e+01    9.136420e-01
  2.675450e+01    8.916637e-01
  2.678625e+01    8.882724e-01
  2.681800e+01    8.960570e-01
  2.684975e+01    9.332645e-01
  2.688150e+01    9.096205e-01
  2.691325e+01    9.229063e-01
  2.694501e+01    9.342911e-01
  2.697676e+01    9.715894e-01
  2.700851e+01    1.011227e+00
  2.704026e+01    1.077796e+00
  2.707201e+01    1.153480e+00
  2.710376e+01    1.309649e+00
  2.713551e+01    1.491126e+00
  2.716726e+01    1.774286e+00
  2.719901e+01    2.146470e+00
  2.723077e+01    2.342957e+00
  2.726252e+01    2.399287e+00
  2.729427e+01    2.136894e+00
  2.732602e+01    1.789611e+00
  2.735777e+01    1.487037e+00
  2.738952e+01    1.248841e+00
  2.742127e+01    1.136034e+00
  2.745302e+01    1.036592e+00
  2.748477e+01    9.888857e-01
  2.751653e+01    9.394621e-01
  2.754828e+01    9.055793e-01
  2.758003e+01    8.925070e-01
  2.761178e+01    8.781031e-01
  2.764353e+01    8.411685e-01
  2.767528e+01    8.228112e-01
  2.770703e+01    8.440979e-01
  2.773878e+01    8.499900e-01
  2.777054e+01    8.240814e-01
  2.780229e+01    8.020690e-01
  2.783404e+01    7.986801e-01
  2.786579e+01    7.976729e-01
  2.789754e+01    7.943028e-01
  2.792929e+01    8.041437e-01
  2.796104e+01    7.968152e-01
  2.799279e+01    8.057309e-01
  2.802454e+01    7.807897e-01
  2.805630e+01    7.786180e-01
  2.808805e+01    7.665620e-01
  2.811980e+01    7.846169e-01
  2.815155e+01    8.054537e-01
  2.818330e+01    7.729059e-01
  2.821505e+01    7.536665e-01
  2.824680e+01    7.832388e-01
  2.827855e+01    7.507553e-01
  2.831030e+01    7.683243e-01
  2.834206e+01    7.541156e-01
  2.837381e+01    7.520205e-01
  2.840556e+01    7.692209e-01
  2.843731e+01    7.576894e-01
  2.846906e+01    7.652998e-01
  2.850081e+01    7.423139e-01
  2.853256e+01    7.740479e-01
  2.856431e+01    7.636088e-01
  2.859606e+01    7.455007e-01
  2.862782e+01    7.425593e-01
  2.865957e+01    7.648762e-01
  2.869132e+01    7.440227e-01
  2.872307e+01    7.592722e-01
  2.875482e+01    7.401286e-01
  2.878657e+01    7.289407e-01
  2.881832e+01    7.513048e-01
  2.885007e+01    7.617759e-01
  2.888183e+01    7.331585e-01
  2.891358e+01    7.258917e-01
  2.894533e+01    7.290835e-01
  2.897708e+01    7.417009e-01
  2.900883e+01    7.278336e-01
  2.904058e+01    7.597214e-01
  2.907233e+01    7.350614e-01
  2.910408e+01    7.389452e-01
  2.913583e+01    7.411427e-01
  2.916759e+01    7.343824e-01
  2.919934e+01    7.295656e-01
  2.923109e+01    7.077649e-01
  2.926284e+01    7.333770e-01
  2.929459e+01    7.342381e-01
  2.932634e+01    7.387990e-01
  2.935809e+01    7.252198e-01
  2.938984e+01    7.124224e-01
  2.942159e+01    7.093645e-01
  2.945335e+01    7.347854e-01
  2.948510e+01    7.232320e-01
  2.951685e+01    7.224655e-01
  2.954860e+01    7.228434e-01
  2.958035e+01    7.158677e-01
  2.961210e+01    7.195190e-01
  2.964385e+01    7.137110e-01
  2.967560e+01    7.256156e-01
  2.970736e+01    7.085544e-01
  2.973911e+01    7.271737e-01
  2.977086e+01    7.361479e-01
  2.980261e+01    7.408649e-01
  2.983436e+01    6.995071e-01
  2.986611e+01    7.115498e-01
  2.989786e+01    7.254048e-01
  2.992961e+01    7.013646e-01
  2.996136e+01    7.181621e-01
  2.999312e+01    7.381070e-01
  3.002487e+01    7.078351e-01
  3.005662e+01    7.325909e-01
  3.008837e+01    7.375866e-01
  3.012012e+01    7.454069e-01
  3.015187e+01    7.036898e-01
  3.018362e+01    7.184454e-01
  3.021537e+01    6.811607e-01
  3.024712e+01    6.926318e-01
  3.027888e+01    6.994144e-01
  3.031063e+01    6.952347e-01
  3.034238e+01    7.012507e-01
  3.037413e+01    7.103398e-01
  3.040588e+01    7.361318e-01
  3.043763e+01    7.077668e-01
  3.046938e+01    7.113193e-01
  3.050113e+01    7.143312e-01
  3.053288e+01    7.068435e-01
  3.056464e+01    7.056434e-01
  3.059639e+01    7.228160e-01
  3.062814e+01    7.130883e-01
  3.065989e+01    7.266687e-01
  3.069164e+01    7.181789e-01
  3.072339e+01    7.105162e-01
  3.075514e+01    6.973205e-01
  3.078689e+01    7.352469e-01
  3.081865e+01    6.996185e-01
  3.085040e+01    7.199806e-01
  3.088215e+01    7.067061e-01
  3.091390e+01    7.233406e-01
  3.094565e+01    7.136483e-01
  3.097740e+01    6.988906e-01
  3.100915e+01    7.226042e-01
  3.104090e+01    7.116500e-01
  3.107265e+01    7.142594e-01
  3.110441e+01    7.176864e-01
  3.113616e+01    7.094424e-01
  3.116791e+01    7.118332e-01
  3.119966e+01    7.115586e-01
  3.123141e+01    7.061092e-01
  3.126316e+01    7.306073e-01
  3.129491e+01    7.508303e-01
  3.132666e+01    7.324753e-01
  3.135841e+01    7.175384e-01
  3.139017e+01    7.375371e-01
  3.142192e+01    7.490080e-01
  3.145367e+01    7.294456e-01
  3.148542e+01    7.817572e-01
  3.151717e+01    7.684082e-01
  3.154892e+01    8.008795e-01
  3.158067e+01    7.699242e-01
  3.161242e+01    8.107969e-01
  3.164418e+01    8.496970e-01
  3.167593e+01    8.898445e-01
  3.170768e+01    9.397390e-01
  3.173943e+01    1.007835e+00
  3.177118e+01    1.101781e+00
  3.180293e+01    1.284511e+00
  3.183468e+01    1.500694e+00
  3.186643e+01    1.817967e+00
  3.189818e+01    2.177622e+00
  3.192994e+01    2.381854e+00
  3.196169e+01    2.332637e+00
  3.199344e+01    2.042412e+00
  3.202519e+01    1.707710e+00
  3.205694e+01    1.399073e+00
  3.208869e+01    1.162547e+00
  3.212044e+01    1.030040e+00
  3.215219e+01    9.544913e-01
  3.218394e+01    8.935444e-01
  3.221570e+01    8.574998e-01
  3.224745e+01    8.086768e-01
  3.227920e+01    7.893564e-01
  3.231095e+01    7.933502e-01
  3.234270e+01    7.645811e-01
  3.237445e+01    7.431319e-01
  3.240620e+01    7.335353e-01
  3.243795e+01    7.210240e-01
  3.246970e+01    7.166274e-01
  3.250146e+01    7.419226e-01
  3.253321e+01    7.272245e-01
  3.254908e+01    7.418584e-01