File: XRD/2024-07-27_002_Ru-CGO-ex_Activtation_ramp_000002_data_000059.dat
# == pyFAI calibration ==
# Distance Sample to Detector: 0.4 m
# PONI: 9.750e-02, 1.135e-01 m
# Rotations: -0.000175 0.000000 -0.000000 rad
#
# == Fit2d calibration ==
# Distance Sample-beamCenter: 400.000 mm
# Center: x=1514.000, y=1300.000 pix
# Tilt: 0.010 deg  TiltPlanRot: 0.010 deg
#
# Detector Detector	 Spline= None	 PixelSize= 7.500e-05, 7.500e-05 m
#    Detector has a mask: False
#    Detector has a dark current: False
#    detector has a flat field: False
#
# Wavelength: 6.888e-11 m
# Mask applied: user provided
# Dark current applied: False
# Flat field applied: False
# Polarization factor: 0.99
# Normalization factor: 1.0
# --> /home/myspot/data/2024_07_Rosario/Ru-CGO-ex/2024-07-27_002_Ru-CGO-ex_Activtation_ramp_000002_data_000059.dat
#       q_nm^-1             I
  2.003187e-02    0.000000e+00
  5.178302e-02    0.000000e+00
  8.353417e-02    1.032867e-01
  1.152853e-01    9.524145e-02
  1.470365e-01    7.443251e-02
  1.787876e-01    3.071125e-02
  2.105388e-01    2.169819e-02
  2.422899e-01    3.003633e-02
  2.740411e-01    5.891678e-02
  3.057922e-01    2.543910e-02
  3.375433e-01    1.874702e-02
  3.692945e-01    1.107341e-02
  4.010456e-01    5.515947e-02
  4.327968e-01    7.696947e-02
  4.645479e-01    3.492050e-02
  4.962991e-01    4.571449e-02
  5.280502e-01    3.439886e-02
  5.598014e-01    4.742280e-02
  5.915525e-01    3.931972e-02
  6.233037e-01    2.370350e-02
  6.550548e-01    3.997872e-02
  6.868060e-01    4.024059e-02
  7.185571e-01    2.218646e-02
  7.503083e-01    6.436140e-02
  7.820594e-01    1.210621e-01
  8.138106e-01    2.209276e-01
  8.455617e-01    2.706052e-01
  8.773129e-01    3.745943e-01
  9.090640e-01    5.758380e-01
  9.408152e-01    7.533367e-01
  9.725663e-01    9.529067e-01
  1.004317e+00    9.719347e-01
  1.036069e+00    1.046942e+00
  1.067820e+00    1.315879e+00
  1.099571e+00    1.346595e+00
  1.131322e+00    1.519633e+00
  1.163073e+00    1.520122e+00
  1.194824e+00    1.585760e+00
  1.226575e+00    2.170607e+00
  1.258327e+00    2.419240e+00
  1.290078e+00    2.551715e+00
  1.321829e+00    2.473507e+00
  1.353580e+00    2.617602e+00
  1.385331e+00    2.766084e+00
  1.417082e+00    2.686590e+00
  1.448834e+00    2.755627e+00
  1.480585e+00    2.827613e+00
  1.512336e+00    2.987336e+00
  1.544087e+00    3.066733e+00
  1.575838e+00    2.954042e+00
  1.607589e+00    3.021505e+00
  1.639340e+00    2.947471e+00
  1.671092e+00    2.923688e+00
  1.702843e+00    2.836739e+00
  1.734594e+00    2.901190e+00
  1.766345e+00    2.778118e+00
  1.798096e+00    2.764751e+00
  1.829847e+00    2.721648e+00
  1.861598e+00    2.812604e+00
  1.893350e+00    2.799244e+00
  1.925101e+00    2.934976e+00
  1.956852e+00    2.790146e+00
  1.988603e+00    2.831674e+00
  2.020354e+00    2.796784e+00
  2.052105e+00    2.831216e+00
  2.083856e+00    2.715248e+00
  2.115608e+00    2.833757e+00
  2.147359e+00    2.706974e+00
  2.179110e+00    2.726021e+00
  2.210861e+00    2.778609e+00
  2.242612e+00    2.807763e+00
  2.274363e+00    2.864462e+00
  2.306115e+00    2.838924e+00
  2.337866e+00    2.966643e+00
  2.369617e+00    2.849773e+00
  2.401368e+00    2.700469e+00
  2.433119e+00    2.756998e+00
  2.464870e+00    2.730951e+00
  2.496621e+00    2.723824e+00
  2.528373e+00    2.835629e+00
  2.560124e+00    2.782081e+00
  2.591875e+00    2.731475e+00
  2.623626e+00    2.860579e+00
  2.655377e+00    2.814112e+00
  2.687128e+00    2.745815e+00
  2.718879e+00    2.800672e+00
  2.750631e+00    2.953291e+00
  2.782382e+00    2.875708e+00
  2.814133e+00    2.904467e+00
  2.845884e+00    2.900941e+00
  2.877635e+00    2.875784e+00
  2.909386e+00    2.819340e+00
  2.941137e+00    2.900785e+00
  2.972889e+00    2.836510e+00
  3.004640e+00    2.772629e+00
  3.036391e+00    2.871747e+00
  3.068142e+00    2.831424e+00
  3.099893e+00    2.920817e+00
  3.131644e+00    2.865967e+00
  3.163395e+00    2.974730e+00
  3.195147e+00    2.976171e+00
  3.226898e+00    2.855891e+00
  3.258649e+00    2.876625e+00
  3.290400e+00    2.947280e+00
  3.322151e+00    2.949202e+00
  3.353902e+00    3.030160e+00
  3.385654e+00    2.944785e+00
  3.417405e+00    2.932109e+00
  3.449156e+00    2.835073e+00
  3.480907e+00    3.016383e+00
  3.512658e+00    3.020012e+00
  3.544409e+00    2.917523e+00
  3.576160e+00    2.914376e+00
  3.607912e+00    2.969714e+00
  3.639663e+00    2.963162e+00
  3.671414e+00    2.982082e+00
  3.703165e+00    3.011966e+00
  3.734916e+00    3.009088e+00
  3.766667e+00    2.931155e+00
  3.798418e+00    2.987630e+00
  3.830170e+00    3.012009e+00
  3.861921e+00    3.011540e+00
  3.893672e+00    3.012277e+00
  3.925423e+00    2.967203e+00
  3.957174e+00    3.002789e+00
  3.988925e+00    3.026915e+00
  4.020676e+00    3.003487e+00
  4.052428e+00    3.103856e+00
  4.084179e+00    3.031178e+00
  4.115930e+00    3.049392e+00
  4.147681e+00    2.973788e+00
  4.179432e+00    3.003912e+00
  4.211183e+00    3.032768e+00
  4.242935e+00    3.106055e+00
  4.274686e+00    3.119377e+00
  4.306437e+00    3.043994e+00
  4.338188e+00    2.993312e+00
  4.369939e+00    3.054594e+00
  4.401690e+00    3.078893e+00
  4.433441e+00    3.087812e+00
  4.465193e+00    3.115741e+00
  4.496944e+00    3.075404e+00
  4.528695e+00    3.058399e+00
  4.560446e+00    3.112033e+00
  4.592197e+00    3.125074e+00
  4.623948e+00    3.083107e+00
  4.655699e+00    3.124903e+00
  4.687451e+00    3.087230e+00
  4.719202e+00    3.116208e+00
  4.750953e+00    3.145235e+00
  4.782704e+00    3.085639e+00
  4.814455e+00    3.011421e+00
  4.846206e+00    3.214474e+00
  4.877957e+00    3.071868e+00
  4.909709e+00    3.112163e+00
  4.941460e+00    3.249185e+00
  4.973211e+00    3.123199e+00
  5.004962e+00    3.161191e+00
  5.036713e+00    3.115831e+00
  5.068464e+00    3.127251e+00
  5.100216e+00    3.150919e+00
  5.131967e+00    3.213290e+00
  5.163718e+00    3.077629e+00
  5.195469e+00    3.143284e+00
  5.227220e+00    3.149481e+00
  5.258971e+00    3.105770e+00
  5.290722e+00    3.088401e+00
  5.322474e+00    3.190609e+00
  5.354225e+00    3.191113e+00
  5.385976e+00    3.088808e+00
  5.417727e+00    3.138799e+00
  5.449478e+00    3.128259e+00
  5.481229e+00    3.075874e+00
  5.512980e+00    3.098676e+00
  5.544732e+00    3.075627e+00
  5.576483e+00    3.020194e+00
  5.608234e+00    3.079170e+00
  5.639985e+00    3.155706e+00
  5.671736e+00    3.059284e+00
  5.703487e+00    3.086668e+00
  5.735238e+00    3.050549e+00
  5.766990e+00    3.047176e+00
  5.798741e+00    2.989606e+00
  5.830492e+00    3.078959e+00
  5.862243e+00    3.143042e+00
  5.893994e+00    3.125342e+00
  5.925745e+00    3.028619e+00
  5.957497e+00    3.004735e+00
  5.989248e+00    2.991702e+00
  6.020999e+00    2.984586e+00
  6.052750e+00    2.991912e+00
  6.084501e+00    3.057525e+00
  6.116252e+00    3.047067e+00
  6.148003e+00    3.065459e+00
  6.179755e+00    3.035146e+00
  6.211506e+00    3.079275e+00
  6.243257e+00    3.106684e+00
  6.275008e+00    2.994631e+00
  6.306759e+00    3.034124e+00
  6.338510e+00    3.054111e+00
  6.370261e+00    3.059439e+00
  6.402013e+00    3.010604e+00
  6.433764e+00    3.067398e+00
  6.465515e+00    3.042218e+00
  6.497266e+00    3.054965e+00
  6.529017e+00    3.031687e+00
  6.560768e+00    3.040524e+00
  6.592519e+00    3.014823e+00
  6.624271e+00    3.040296e+00
  6.656022e+00    3.077721e+00
  6.687773e+00    3.055635e+00
  6.719524e+00    2.987168e+00
  6.751275e+00    3.034989e+00
  6.783026e+00    2.969408e+00
  6.814777e+00    2.983836e+00
  6.846529e+00    3.012879e+00
  6.878280e+00    3.079413e+00
  6.910031e+00    3.064937e+00
  6.941782e+00    3.008815e+00
  6.973533e+00    3.014355e+00
  7.005284e+00    2.945976e+00
  7.037036e+00    2.928428e+00
  7.068787e+00    3.006235e+00
  7.100538e+00    3.033877e+00
  7.132289e+00    2.957601e+00
  7.164040e+00    2.975955e+00
  7.195791e+00    2.982598e+00
  7.227542e+00    2.994645e+00
  7.259294e+00    2.998644e+00
  7.291045e+00    2.996880e+00
  7.322796e+00    3.032888e+00
  7.354547e+00    3.013964e+00
  7.386298e+00    2.972293e+00
  7.418049e+00    3.057909e+00
  7.449800e+00    2.982509e+00
  7.481552e+00    2.979113e+00
  7.513303e+00    3.047671e+00
  7.545054e+00    3.044879e+00
  7.576805e+00    2.967574e+00
  7.608556e+00    2.954607e+00
  7.640307e+00    2.927220e+00
  7.672058e+00    2.984483e+00
  7.703810e+00    2.959598e+00
  7.735561e+00    2.942608e+00
  7.767312e+00    2.946225e+00
  7.799063e+00    2.991663e+00
  7.830814e+00    2.898281e+00
  7.862565e+00    2.952680e+00
  7.894317e+00    2.948071e+00
  7.926068e+00    2.935278e+00
  7.957819e+00    2.953185e+00
  7.989570e+00    2.985902e+00
  8.021321e+00    2.919624e+00
  8.053072e+00    2.973640e+00
  8.084823e+00    2.924839e+00
  8.116575e+00    2.955008e+00
  8.148326e+00    2.887487e+00
  8.180077e+00    3.028211e+00
  8.211828e+00    2.966238e+00
  8.243579e+00    2.934505e+00
  8.275330e+00    2.922516e+00
  8.307081e+00    2.938359e+00
  8.338833e+00    2.857105e+00
  8.370584e+00    2.939682e+00
  8.402335e+00    2.882099e+00
  8.434086e+00    2.794134e+00
  8.465837e+00    2.883639e+00
  8.497588e+00    2.870983e+00
  8.529339e+00    2.891510e+00
  8.561091e+00    2.873351e+00
  8.592842e+00    2.884947e+00
  8.624593e+00    2.879908e+00
  8.656344e+00    2.879919e+00
  8.688095e+00    2.956546e+00
  8.719846e+00    2.904002e+00
  8.751598e+00    2.881139e+00
  8.783349e+00    2.853380e+00
  8.815100e+00    2.844530e+00
  8.846851e+00    2.889520e+00
  8.878602e+00    2.825248e+00
  8.910353e+00    2.843226e+00
  8.942104e+00    2.831642e+00
  8.973856e+00    2.807311e+00
  9.005607e+00    2.822018e+00
  9.037358e+00    2.861790e+00
  9.069109e+00    2.810724e+00
  9.100860e+00    2.790967e+00
  9.132611e+00    2.854953e+00
  9.164362e+00    2.778597e+00
  9.196114e+00    2.724201e+00
  9.227865e+00    2.798963e+00
  9.259616e+00    2.809235e+00
  9.291367e+00    2.770756e+00
  9.323118e+00    2.766210e+00
  9.354869e+00    2.826045e+00
  9.386620e+00    2.794095e+00
  9.418372e+00    2.769646e+00
  9.450123e+00    2.849420e+00
  9.481874e+00    2.765133e+00
  9.513625e+00    2.799072e+00
  9.545376e+00    2.729363e+00
  9.577127e+00    2.739333e+00
  9.608878e+00    2.776437e+00
  9.640630e+00    2.821035e+00
  9.672381e+00    2.691577e+00
  9.704132e+00    2.756954e+00
  9.735883e+00    2.761212e+00
  9.767634e+00    2.753930e+00
  9.799385e+00    2.779982e+00
  9.831137e+00    2.727167e+00
  9.862888e+00    2.686670e+00
  9.894639e+00    2.692055e+00
  9.926390e+00    2.708665e+00
  9.958141e+00    2.742368e+00
  9.989892e+00    2.691445e+00
  1.002164e+01    2.654368e+00
  1.005339e+01    2.658983e+00
  1.008515e+01    2.659313e+00
  1.011690e+01    2.629598e+00
  1.014865e+01    2.661973e+00
  1.018040e+01    2.680392e+00
  1.021215e+01    2.635175e+00
  1.024390e+01    2.656711e+00
  1.027565e+01    2.611139e+00
  1.030740e+01    2.690251e+00
  1.033915e+01    2.662140e+00
  1.037091e+01    2.630900e+00
  1.040266e+01    2.617386e+00
  1.043441e+01    2.642947e+00
  1.046616e+01    2.589680e+00
  1.049791e+01    2.614672e+00
  1.052966e+01    2.585584e+00
  1.056141e+01    2.580092e+00
  1.059316e+01    2.620340e+00
  1.062492e+01    2.594532e+00
  1.065667e+01    2.604782e+00
  1.068842e+01    2.579803e+00
  1.072017e+01    2.549938e+00
  1.075192e+01    2.572528e+00
  1.078367e+01    2.533317e+00
  1.081542e+01    2.564348e+00
  1.084717e+01    2.543197e+00
  1.087892e+01    2.540053e+00
  1.091068e+01    2.564531e+00
  1.094243e+01    2.498308e+00
  1.097418e+01    2.485178e+00
  1.100593e+01    2.488410e+00
  1.103768e+01    2.474500e+00
  1.106943e+01    2.551256e+00
  1.110118e+01    2.489922e+00
  1.113293e+01    2.486710e+00
  1.116468e+01    2.426998e+00
  1.119644e+01    2.430435e+00
  1.122819e+01    2.485546e+00
  1.125994e+01    2.440782e+00
  1.129169e+01    2.485861e+00
  1.132344e+01    2.433715e+00
  1.135519e+01    2.454090e+00
  1.138694e+01    2.417168e+00
  1.141869e+01    2.463622e+00
  1.145045e+01    2.459847e+00
  1.148220e+01    2.422419e+00
  1.151395e+01    2.403825e+00
  1.154570e+01    2.382100e+00
  1.157745e+01    2.400896e+00
  1.160920e+01    2.396826e+00
  1.164095e+01    2.396478e+00
  1.167270e+01    2.332923e+00
  1.170445e+01    2.378343e+00
  1.173621e+01    2.376638e+00
  1.176796e+01    2.356379e+00
  1.179971e+01    2.367061e+00
  1.183146e+01    2.364956e+00
  1.186321e+01    2.319909e+00
  1.189496e+01    2.349282e+00
  1.192671e+01    2.368163e+00
  1.195846e+01    2.352459e+00
  1.199021e+01    2.361724e+00
  1.202197e+01    2.323853e+00
  1.205372e+01    2.336232e+00
  1.208547e+01    2.352637e+00
  1.211722e+01    2.356801e+00
  1.214897e+01    2.298708e+00
  1.218072e+01    2.278290e+00
  1.221247e+01    2.346687e+00
  1.224422e+01    2.368928e+00
  1.227597e+01    2.313007e+00
  1.230773e+01    2.364784e+00
  1.233948e+01    2.345285e+00
  1.237123e+01    2.344271e+00
  1.240298e+01    2.378214e+00
  1.243473e+01    2.374553e+00
  1.246648e+01    2.372192e+00
  1.249823e+01    2.337473e+00
  1.252998e+01    2.347649e+00
  1.256174e+01    2.361401e+00
  1.259349e+01    2.368505e+00
  1.262524e+01    2.416445e+00
  1.265699e+01    2.461422e+00
  1.268874e+01    2.496111e+00
  1.272049e+01    2.539397e+00
  1.275224e+01    2.561944e+00
  1.278399e+01    2.689670e+00
  1.281574e+01    2.728293e+00
  1.284750e+01    2.826222e+00
  1.287925e+01    3.011539e+00
  1.291100e+01    3.339928e+00
  1.294275e+01    3.726753e+00
  1.297450e+01    4.323352e+00
  1.300625e+01    5.384079e+00
  1.303800e+01    6.935663e+00
  1.306975e+01    9.259029e+00
  1.310150e+01    1.225268e+01
  1.313326e+01    1.507450e+01
  1.316501e+01    1.770427e+01
  1.319676e+01    1.915857e+01
  1.322851e+01    1.690832e+01
  1.326026e+01    1.235741e+01
  1.329201e+01    8.711064e+00
  1.332376e+01    6.437476e+00
  1.335551e+01    5.001800e+00
  1.338727e+01    4.169814e+00
  1.341902e+01    3.648344e+00
  1.345077e+01    3.229901e+00
  1.348252e+01    2.980376e+00
  1.351427e+01    2.784634e+00
  1.354602e+01    2.613169e+00
  1.357777e+01    2.564264e+00
  1.360952e+01    2.442295e+00
  1.364127e+01    2.372223e+00
  1.367303e+01    2.340948e+00
  1.370478e+01    2.279503e+00
  1.373653e+01    2.258683e+00
  1.376828e+01    2.203030e+00
  1.380003e+01    2.173959e+00
  1.383178e+01    2.147013e+00
  1.386353e+01    2.123340e+00
  1.389528e+01    2.111683e+00
  1.392703e+01    2.094813e+00
  1.395879e+01    2.118238e+00
  1.399054e+01    2.092788e+00
  1.402229e+01    2.115088e+00
  1.405404e+01    2.052010e+00
  1.408579e+01    2.057037e+00
  1.411754e+01    2.050508e+00
  1.414929e+01    2.041818e+00
  1.418104e+01    2.025972e+00
  1.421279e+01    2.033335e+00
  1.424455e+01    1.998605e+00
  1.427630e+01    1.956390e+00
  1.430805e+01    1.993581e+00
  1.433980e+01    1.962705e+00
  1.437155e+01    1.967338e+00
  1.440330e+01    1.959679e+00
  1.443505e+01    1.958778e+00
  1.446680e+01    1.965225e+00
  1.449856e+01    1.944945e+00
  1.453031e+01    1.883409e+00
  1.456206e+01    1.925809e+00
  1.459381e+01    1.938651e+00
  1.462556e+01    1.918888e+00
  1.465731e+01    1.941523e+00
  1.468906e+01    1.935695e+00
  1.472081e+01    1.896705e+00
  1.475256e+01    1.937991e+00
  1.478432e+01    1.955105e+00
  1.481607e+01    1.912621e+00
  1.484782e+01    1.884911e+00
  1.487957e+01    1.949340e+00
  1.491132e+01    1.948900e+00
  1.494307e+01    2.054336e+00
  1.497482e+01    2.108204e+00
  1.500657e+01    2.104733e+00
  1.503832e+01    2.296438e+00
  1.507008e+01    2.434196e+00
  1.510183e+01    2.757817e+00
  1.513358e+01    3.271456e+00
  1.516533e+01    4.103078e+00
  1.519708e+01    4.946079e+00
  1.522883e+01    5.630515e+00
  1.526058e+01    6.186021e+00
  1.529233e+01    6.300268e+00
  1.532409e+01    5.736815e+00
  1.535584e+01    4.547476e+00
  1.538759e+01    3.528124e+00
  1.541934e+01    2.880800e+00
  1.545109e+01    2.558278e+00
  1.548284e+01    2.279553e+00
  1.551459e+01    2.105135e+00
  1.554634e+01    1.960188e+00
  1.557809e+01    1.958485e+00
  1.560985e+01    1.883809e+00
  1.564160e+01    1.867905e+00
  1.567335e+01    1.787484e+00
  1.570510e+01    1.760673e+00
  1.573685e+01    1.760993e+00
  1.576860e+01    1.707549e+00
  1.580035e+01    1.731366e+00
  1.583210e+01    1.724425e+00
  1.586385e+01    1.657876e+00
  1.589561e+01    1.672183e+00
  1.592736e+01    1.652976e+00
  1.595911e+01    1.679024e+00
  1.599086e+01    1.636971e+00
  1.602261e+01    1.622224e+00
  1.605436e+01    1.616030e+00
  1.608611e+01    1.621983e+00
  1.611786e+01    1.584492e+00
  1.614961e+01    1.578884e+00
  1.618137e+01    1.584169e+00
  1.621312e+01    1.565942e+00
  1.624487e+01    1.592196e+00
  1.627662e+01    1.561152e+00
  1.630837e+01    1.564995e+00
  1.634012e+01    1.584122e+00
  1.637187e+01    1.526975e+00
  1.640362e+01    1.523216e+00
  1.643538e+01    1.528724e+00
  1.646713e+01    1.558396e+00
  1.649888e+01    1.528297e+00
  1.653063e+01    1.554772e+00
  1.656238e+01    1.538728e+00
  1.659413e+01    1.473809e+00
  1.662588e+01    1.509946e+00
  1.665763e+01    1.458911e+00
  1.668938e+01    1.486122e+00
  1.672114e+01    1.479470e+00
  1.675289e+01    1.487095e+00
  1.678464e+01    1.506817e+00
  1.681639e+01    1.472733e+00
  1.684814e+01    1.480022e+00
  1.687989e+01    1.473571e+00
  1.691164e+01    1.452882e+00
  1.694339e+01    1.461327e+00
  1.697514e+01    1.436410e+00
  1.700690e+01    1.448396e+00
  1.703865e+01    1.411293e+00
  1.707040e+01    1.403337e+00
  1.710215e+01    1.446330e+00
  1.713390e+01    1.419649e+00
  1.716565e+01    1.401377e+00
  1.719740e+01    1.410560e+00
  1.722915e+01    1.408929e+00
  1.726091e+01    1.368978e+00
  1.729266e+01    1.387153e+00
  1.732441e+01    1.389430e+00
  1.735616e+01    1.398249e+00
  1.738791e+01    1.407713e+00
  1.741966e+01    1.400229e+00
  1.745141e+01    1.401167e+00
  1.748316e+01    1.403232e+00
  1.751491e+01    1.378014e+00
  1.754667e+01    1.386587e+00
  1.757842e+01    1.385571e+00
  1.761017e+01    1.358179e+00
  1.764192e+01    1.346583e+00
  1.767367e+01    1.363497e+00
  1.770542e+01    1.335487e+00
  1.773717e+01    1.330144e+00
  1.776892e+01    1.339592e+00
  1.780067e+01    1.326693e+00
  1.783243e+01    1.356415e+00
  1.786418e+01    1.308606e+00
  1.789593e+01    1.304944e+00
  1.792768e+01    1.317437e+00
  1.795943e+01    1.311431e+00
  1.799118e+01    1.319537e+00
  1.802293e+01    1.300664e+00
  1.805468e+01    1.313817e+00
  1.808643e+01    1.330842e+00
  1.811819e+01    1.272707e+00
  1.814994e+01    1.280453e+00
  1.818169e+01    1.290038e+00
  1.821344e+01    1.307255e+00
  1.824519e+01    1.297741e+00
  1.827694e+01    1.282329e+00
  1.830869e+01    1.275545e+00
  1.834044e+01    1.285727e+00
  1.837220e+01    1.256312e+00
  1.840395e+01    1.275646e+00
  1.843570e+01    1.265305e+00
  1.846745e+01    1.255991e+00
  1.849920e+01    1.262159e+00
  1.853095e+01    1.274532e+00
  1.856270e+01    1.238564e+00
  1.859445e+01    1.249056e+00
  1.862620e+01    1.264907e+00
  1.865796e+01    1.256826e+00
  1.868971e+01    1.221809e+00
  1.872146e+01    1.244792e+00
  1.875321e+01    1.242141e+00
  1.878496e+01    1.221336e+00
  1.881671e+01    1.225909e+00
  1.884846e+01    1.209102e+00
  1.888021e+01    1.238724e+00
  1.891196e+01    1.232230e+00
  1.894372e+01    1.208297e+00
  1.897547e+01    1.236698e+00
  1.900722e+01    1.207368e+00
  1.903897e+01    1.217777e+00
  1.907072e+01    1.204312e+00
  1.910247e+01    1.200402e+00
  1.913422e+01    1.191690e+00
  1.916597e+01    1.217925e+00
  1.919773e+01    1.175517e+00
  1.922948e+01    1.201536e+00
  1.926123e+01    1.187784e+00
  1.929298e+01    1.182190e+00
  1.932473e+01    1.190173e+00
  1.935648e+01    1.182260e+00
  1.938823e+01    1.161801e+00
  1.941998e+01    1.174290e+00
  1.945173e+01    1.182711e+00
  1.948349e+01    1.168963e+00
  1.951524e+01    1.170358e+00
  1.954699e+01    1.186507e+00
  1.957874e+01    1.176860e+00
  1.961049e+01    1.178660e+00
  1.964224e+01    1.163909e+00
  1.967399e+01    1.159866e+00
  1.970574e+01    1.119422e+00
  1.973749e+01    1.160160e+00
  1.976925e+01    1.152147e+00
  1.980100e+01    1.153299e+00
  1.983275e+01    1.155569e+00
  1.986450e+01    1.147658e+00
  1.989625e+01    1.163945e+00
  1.992800e+01    1.114549e+00
  1.995975e+01    1.140136e+00
  1.999150e+01    1.113053e+00
  2.002325e+01    1.130431e+00
  2.005501e+01    1.114158e+00
  2.008676e+01    1.118849e+00
  2.011851e+01    1.120578e+00
  2.015026e+01    1.117714e+00
  2.018201e+01    1.133696e+00
  2.021376e+01    1.108182e+00
  2.024551e+01    1.106169e+00
  2.027726e+01    1.137169e+00
  2.030902e+01    1.094470e+00
  2.034077e+01    1.082358e+00
  2.037252e+01    1.107272e+00
  2.040427e+01    1.095777e+00
  2.043602e+01    1.092602e+00
  2.046777e+01    1.091626e+00
  2.049952e+01    1.104169e+00
  2.053127e+01    1.119520e+00
  2.056302e+01    1.096586e+00
  2.059478e+01    1.067129e+00
  2.062653e+01    1.080179e+00
  2.065828e+01    1.075364e+00
  2.069003e+01    1.097135e+00
  2.072178e+01    1.065857e+00
  2.075353e+01    1.090094e+00
  2.078528e+01    1.079176e+00
  2.081703e+01    1.069323e+00
  2.084878e+01    1.062222e+00
  2.088054e+01    1.108354e+00
  2.091229e+01    1.096574e+00
  2.094404e+01    1.062019e+00
  2.097579e+01    1.136316e+00
  2.100754e+01    1.088876e+00
  2.103929e+01    1.083201e+00
  2.107104e+01    1.072446e+00
  2.110279e+01    1.078550e+00
  2.113455e+01    1.098991e+00
  2.116630e+01    1.097420e+00
  2.119805e+01    1.093305e+00
  2.122980e+01    1.103164e+00
  2.126155e+01    1.117249e+00
  2.129330e+01    1.138358e+00
  2.132505e+01    1.125485e+00
  2.135680e+01    1.131669e+00
  2.138855e+01    1.163479e+00
  2.142031e+01    1.181200e+00
  2.145206e+01    1.209783e+00
  2.148381e+01    1.257601e+00
  2.151556e+01    1.303736e+00
  2.154731e+01    1.386550e+00
  2.157906e+01    1.440943e+00
  2.161081e+01    1.579956e+00
  2.164256e+01    1.760134e+00
  2.167431e+01    1.994901e+00
  2.170607e+01    2.429187e+00
  2.173782e+01    2.987108e+00
  2.176957e+01    3.834395e+00
  2.180132e+01    5.104846e+00
  2.183307e+01    6.610567e+00
  2.186482e+01    8.310208e+00
  2.189657e+01    9.862700e+00
  2.192832e+01    1.048916e+01
  2.196007e+01    9.419599e+00
  2.199183e+01    7.265620e+00
  2.202358e+01    5.233656e+00
  2.205533e+01    3.786791e+00
  2.208708e+01    2.880106e+00
  2.211883e+01    2.341219e+00
  2.215058e+01    1.961435e+00
  2.218233e+01    1.711806e+00
  2.221408e+01    1.557634e+00
  2.224584e+01    1.397185e+00
  2.227759e+01    1.330852e+00
  2.230934e+01    1.276885e+00
  2.234109e+01    1.190570e+00
  2.237284e+01    1.143535e+00
  2.240459e+01    1.118550e+00
  2.243634e+01    1.113923e+00
  2.246809e+01    1.068301e+00
  2.249984e+01    1.040126e+00
  2.253160e+01    1.039549e+00
  2.256335e+01    1.037837e+00
  2.259510e+01    1.002904e+00
  2.262685e+01    9.927003e-01
  2.265860e+01    9.695054e-01
  2.269035e+01    9.654626e-01
  2.272210e+01    9.782670e-01
  2.275385e+01    9.460361e-01
  2.278560e+01    9.355760e-01
  2.281736e+01    9.580703e-01
  2.284911e+01    9.284272e-01
  2.288086e+01    9.295399e-01
  2.291261e+01    9.276419e-01
  2.294436e+01    9.045272e-01
  2.297611e+01    9.389335e-01
  2.300786e+01    9.011078e-01
  2.303961e+01    9.075304e-01
  2.307137e+01    9.060974e-01
  2.310312e+01    9.030752e-01
  2.313487e+01    8.895891e-01
  2.316662e+01    8.983625e-01
  2.319837e+01    8.941945e-01
  2.323012e+01    8.798997e-01
  2.326187e+01    8.789069e-01
  2.329362e+01    8.887674e-01
  2.332537e+01    8.887373e-01
  2.335713e+01    8.666398e-01
  2.338888e+01    8.902656e-01
  2.342063e+01    8.629187e-01
  2.345238e+01    8.667004e-01
  2.348413e+01    8.533908e-01
  2.351588e+01    8.540564e-01
  2.354763e+01    8.684060e-01
  2.357938e+01    8.513077e-01
  2.361113e+01    8.551648e-01
  2.364289e+01    8.373836e-01
  2.367464e+01    8.481399e-01
  2.370639e+01    8.418362e-01
  2.373814e+01    8.241270e-01
  2.376989e+01    8.041188e-01
  2.380164e+01    8.116719e-01
  2.383339e+01    8.085038e-01
  2.386514e+01    8.255359e-01
  2.389689e+01    8.046216e-01
  2.392865e+01    7.998358e-01
  2.396040e+01    8.124213e-01
  2.399215e+01    7.889166e-01
  2.402390e+01    7.812589e-01
  2.405565e+01    8.089963e-01
  2.408740e+01    7.970586e-01
  2.411915e+01    7.959671e-01
  2.415090e+01    7.679791e-01
  2.418266e+01    7.697768e-01
  2.421441e+01    8.024752e-01
  2.424616e+01    7.832782e-01
  2.427791e+01    7.855630e-01
  2.430966e+01    7.971834e-01
  2.434141e+01    8.013587e-01
  2.437316e+01    8.293006e-01
  2.440491e+01    7.941788e-01
  2.443666e+01    8.067405e-01
  2.446842e+01    8.075575e-01
  2.450017e+01    7.894349e-01
  2.453192e+01    8.094694e-01
  2.456367e+01    7.870559e-01
  2.459542e+01    7.984715e-01
  2.462717e+01    7.830907e-01
  2.465892e+01    7.997431e-01
  2.469067e+01    8.181643e-01
  2.472242e+01    8.137947e-01
  2.475418e+01    8.037661e-01
  2.478593e+01    7.979707e-01
  2.481768e+01    8.091756e-01
  2.484943e+01    7.943309e-01
  2.488118e+01    8.087040e-01
  2.491293e+01    8.113477e-01
  2.494468e+01    8.253652e-01
  2.497643e+01    8.092665e-01
  2.500819e+01    8.050745e-01
  2.503994e+01    7.886108e-01
  2.507169e+01    7.993192e-01
  2.510344e+01    7.941935e-01
  2.513519e+01    8.293641e-01
  2.516694e+01    8.493934e-01
  2.519869e+01    8.569570e-01
  2.523044e+01    8.482655e-01
  2.526219e+01    8.601782e-01
  2.529395e+01    8.683659e-01
  2.532570e+01    8.880330e-01
  2.535745e+01    8.946139e-01
  2.538920e+01    8.898917e-01
  2.542095e+01    9.236847e-01
  2.545270e+01    9.503736e-01
  2.548445e+01    9.606850e-01
  2.551620e+01    9.829096e-01
  2.554795e+01    1.026080e+00
  2.557971e+01    1.077253e+00
  2.561146e+01    1.103844e+00
  2.564321e+01    1.201207e+00
  2.567496e+01    1.300803e+00
  2.570671e+01    1.454713e+00
  2.573846e+01    1.601301e+00
  2.577021e+01    1.920737e+00
  2.580196e+01    2.357914e+00
  2.583371e+01    2.989078e+00
  2.586547e+01    3.924138e+00
  2.589722e+01    5.183325e+00
  2.592897e+01    6.723755e+00
  2.596072e+01    8.000360e+00
  2.599247e+01    8.753073e+00
  2.602422e+01    8.082044e+00
  2.605597e+01    6.491877e+00
  2.608772e+01    4.759195e+00
  2.611948e+01    3.450577e+00
  2.615123e+01    2.657872e+00
  2.618298e+01    2.160336e+00
  2.621473e+01    1.796666e+00
  2.624648e+01    1.572491e+00
  2.627823e+01    1.380241e+00
  2.630998e+01    1.271603e+00
  2.634173e+01    1.178833e+00
  2.637348e+01    1.124652e+00
  2.640524e+01    1.067512e+00
  2.643699e+01    1.024472e+00
  2.646874e+01    9.911354e-01
  2.650049e+01    9.805919e-01
  2.653224e+01    9.485645e-01
  2.656399e+01    9.773998e-01
  2.659574e+01    9.004807e-01
  2.662749e+01    9.287062e-01
  2.665924e+01    9.294073e-01
  2.669100e+01    9.407379e-01
  2.672275e+01    9.128028e-01
  2.675450e+01    9.393883e-01
  2.678625e+01    9.014584e-01
  2.681800e+01    9.357617e-01
  2.684975e+01    9.311544e-01
  2.688150e+01    9.501632e-01
  2.691325e+01    9.124473e-01
  2.694501e+01    9.577820e-01
  2.697676e+01    9.700633e-01
  2.700851e+01    1.001657e+00
  2.704026e+01    1.084440e+00
  2.707201e+01    1.134530e+00
  2.710376e+01    1.305785e+00
  2.713551e+01    1.493402e+00
  2.716726e+01    1.795161e+00
  2.719901e+01    2.117665e+00
  2.723077e+01    2.427114e+00
  2.726252e+01    2.493660e+00
  2.729427e+01    2.288209e+00
  2.732602e+01    1.884425e+00
  2.735777e+01    1.602386e+00
  2.738952e+01    1.342403e+00
  2.742127e+01    1.201574e+00
  2.745302e+01    1.091028e+00
  2.748477e+01    1.014053e+00
  2.751653e+01    9.772245e-01
  2.754828e+01    9.176338e-01
  2.758003e+01    9.030222e-01
  2.761178e+01    8.865646e-01
  2.764353e+01    8.516606e-01
  2.767528e+01    8.395279e-01
  2.770703e+01    8.447214e-01
  2.773878e+01    8.306653e-01
  2.777054e+01    8.171148e-01
  2.780229e+01    8.451660e-01
  2.783404e+01    8.352673e-01
  2.786579e+01    8.370342e-01
  2.789754e+01    8.087403e-01
  2.792929e+01    8.344897e-01
  2.796104e+01    7.878251e-01
  2.799279e+01    8.152268e-01
  2.802454e+01    7.933645e-01
  2.805630e+01    7.822771e-01
  2.808805e+01    7.890730e-01
  2.811980e+01    7.695220e-01
  2.815155e+01    7.889981e-01
  2.818330e+01    7.855967e-01
  2.821505e+01    7.854126e-01
  2.824680e+01    7.605872e-01
  2.827855e+01    7.779351e-01
  2.831030e+01    7.893792e-01
  2.834206e+01    7.652318e-01
  2.837381e+01    7.643260e-01
  2.840556e+01    7.618263e-01
  2.843731e+01    7.659812e-01
  2.846906e+01    7.660102e-01
  2.850081e+01    7.747338e-01
  2.853256e+01    7.753422e-01
  2.856431e+01    7.605559e-01
  2.859606e+01    7.844851e-01
  2.862782e+01    7.571275e-01
  2.865957e+01    7.680442e-01
  2.869132e+01    7.441335e-01
  2.872307e+01    7.746564e-01
  2.875482e+01    7.577910e-01
  2.878657e+01    7.556288e-01
  2.881832e+01    7.525589e-01
  2.885007e+01    7.692286e-01
  2.888183e+01    7.490820e-01
  2.891358e+01    7.463794e-01
  2.894533e+01    7.586823e-01
  2.897708e+01    7.516045e-01
  2.900883e+01    7.269534e-01
  2.904058e+01    7.582577e-01
  2.907233e+01    7.178535e-01
  2.910408e+01    7.201052e-01
  2.913583e+01    7.452376e-01
  2.916759e+01    7.845110e-01
  2.919934e+01    7.287579e-01
  2.923109e+01    7.394057e-01
  2.926284e+01    7.418216e-01
  2.929459e+01    7.375481e-01
  2.932634e+01    7.610121e-01
  2.935809e+01    7.118208e-01
  2.938984e+01    7.440648e-01
  2.942159e+01    7.339711e-01
  2.945335e+01    7.267720e-01
  2.948510e+01    7.380173e-01
  2.951685e+01    7.327272e-01
  2.954860e+01    7.477393e-01
  2.958035e+01    7.364257e-01
  2.961210e+01    7.186547e-01
  2.964385e+01    7.423795e-01
  2.967560e+01    7.242413e-01
  2.970736e+01    7.300914e-01
  2.973911e+01    7.260865e-01
  2.977086e+01    7.153641e-01
  2.980261e+01    7.139179e-01
  2.983436e+01    7.193146e-01
  2.986611e+01    7.361966e-01
  2.989786e+01    7.188399e-01
  2.992961e+01    7.440287e-01
  2.996136e+01    7.196571e-01
  2.999312e+01    7.522538e-01
  3.002487e+01    7.316691e-01
  3.005662e+01    7.420230e-01
  3.008837e+01    7.484189e-01
  3.012012e+01    7.497192e-01
  3.015187e+01    7.369421e-01
  3.018362e+01    7.267745e-01
  3.021537e+01    7.286493e-01
  3.024712e+01    7.166528e-01
  3.027888e+01    7.292513e-01
  3.031063e+01    7.100149e-01
  3.034238e+01    7.264585e-01
  3.037413e+01    7.241215e-01
  3.040588e+01    7.162524e-01
  3.043763e+01    7.144975e-01
  3.046938e+01    7.257788e-01
  3.050113e+01    7.176025e-01
  3.053288e+01    7.004009e-01
  3.056464e+01    7.175537e-01
  3.059639e+01    7.359106e-01
  3.062814e+01    7.206720e-01
  3.065989e+01    7.268685e-01
  3.069164e+01    7.165776e-01
  3.072339e+01    7.075589e-01
  3.075514e+01    7.275552e-01
  3.078689e+01    7.470998e-01
  3.081865e+01    7.136227e-01
  3.085040e+01    7.199917e-01
  3.088215e+01    7.318463e-01
  3.091390e+01    7.138034e-01
  3.094565e+01    7.142900e-01
  3.097740e+01    6.958493e-01
  3.100915e+01    7.307190e-01
  3.104090e+01    7.433532e-01
  3.107265e+01    7.305032e-01
  3.110441e+01    7.454959e-01
  3.113616e+01    7.339348e-01
  3.116791e+01    7.362056e-01
  3.119966e+01    7.331523e-01
  3.123141e+01    7.401181e-01
  3.126316e+01    7.585629e-01
  3.129491e+01    7.561180e-01
  3.132666e+01    7.251580e-01
  3.135841e+01    7.212996e-01
  3.139017e+01    7.499980e-01
  3.142192e+01    7.458989e-01
  3.145367e+01    7.715262e-01
  3.148542e+01    7.683747e-01
  3.151717e+01    7.852030e-01
  3.154892e+01    8.052703e-01
  3.158067e+01    7.905983e-01
  3.161242e+01    8.276161e-01
  3.164418e+01    8.687426e-01
  3.167593e+01    8.565246e-01
  3.170768e+01    9.408179e-01
  3.173943e+01    1.021073e+00
  3.177118e+01    1.109404e+00
  3.180293e+01    1.233284e+00
  3.183468e+01    1.488080e+00
  3.186643e+01    1.817364e+00
  3.189818e+01    2.162700e+00
  3.192994e+01    2.427245e+00
  3.196169e+01    2.460455e+00
  3.199344e+01    2.217429e+00
  3.202519e+01    1.863401e+00
  3.205694e+01    1.533446e+00
  3.208869e+01    1.264913e+00
  3.212044e+01    1.097973e+00
  3.215219e+01    1.001119e+00
  3.218394e+01    9.222046e-01
  3.221570e+01    8.936273e-01
  3.224745e+01    8.310357e-01
  3.227920e+01    8.203625e-01
  3.231095e+01    7.956239e-01
  3.234270e+01    7.880712e-01
  3.237445e+01    7.622578e-01
  3.240620e+01    7.619853e-01
  3.243795e+01    7.429490e-01
  3.246970e+01    7.260856e-01
  3.250146e+01    7.259202e-01
  3.253321e+01    7.302782e-01
  3.254908e+01    7.488313e-01