File: XRD/2024-07-27_002_Ru-CGO-ex_Activtation_ramp_000002_data_000084.dat
# == pyFAI calibration ==
# Distance Sample to Detector: 0.4 m
# PONI: 9.750e-02, 1.135e-01 m
# Rotations: -0.000175 0.000000 -0.000000 rad
#
# == Fit2d calibration ==
# Distance Sample-beamCenter: 400.000 mm
# Center: x=1514.000, y=1300.000 pix
# Tilt: 0.010 deg  TiltPlanRot: 0.010 deg
#
# Detector Detector	 Spline= None	 PixelSize= 7.500e-05, 7.500e-05 m
#    Detector has a mask: False
#    Detector has a dark current: False
#    detector has a flat field: False
#
# Wavelength: 6.888e-11 m
# Mask applied: user provided
# Dark current applied: False
# Flat field applied: False
# Polarization factor: 0.99
# Normalization factor: 1.0
# --> /home/myspot/data/2024_07_Rosario/Ru-CGO-ex/2024-07-27_002_Ru-CGO-ex_Activtation_ramp_000002_data_000084.dat
#       q_nm^-1             I
  2.003187e-02    0.000000e+00
  5.178302e-02    2.671064e-02
  8.353417e-02    1.464180e-01
  1.152853e-01    1.884233e-03
  1.470365e-01    2.606170e-02
  1.787876e-01    3.922686e-02
  2.105388e-01    1.731820e-02
  2.422899e-01    1.455738e-02
  2.740411e-01    6.147247e-02
  3.057922e-01    2.038276e-02
  3.375433e-01    2.745052e-02
  3.692945e-01    1.758211e-02
  4.010456e-01    3.706143e-02
  4.327968e-01    2.435288e-02
  4.645479e-01    5.788149e-02
  4.962991e-01    2.417686e-02
  5.280502e-01    2.146865e-02
  5.598014e-01    4.125125e-02
  5.915525e-01    4.666536e-02
  6.233037e-01    4.304232e-02
  6.550548e-01    5.683183e-02
  6.868060e-01    5.178718e-02
  7.185571e-01    4.919729e-02
  7.503083e-01    8.786477e-02
  7.820594e-01    1.239258e-01
  8.138106e-01    2.039627e-01
  8.455617e-01    3.017008e-01
  8.773129e-01    4.570166e-01
  9.090640e-01    5.634689e-01
  9.408152e-01    7.950193e-01
  9.725663e-01    9.206672e-01
  1.004317e+00    1.082420e+00
  1.036069e+00    1.163189e+00
  1.067820e+00    1.332759e+00
  1.099571e+00    1.445764e+00
  1.131322e+00    1.476649e+00
  1.163073e+00    1.429532e+00
  1.194824e+00    1.578616e+00
  1.226575e+00    2.127867e+00
  1.258327e+00    2.251199e+00
  1.290078e+00    2.495896e+00
  1.321829e+00    2.460463e+00
  1.353580e+00    2.474642e+00
  1.385331e+00    2.608183e+00
  1.417082e+00    2.507788e+00
  1.448834e+00    2.789141e+00
  1.480585e+00    2.898556e+00
  1.512336e+00    2.851614e+00
  1.544087e+00    3.075893e+00
  1.575838e+00    2.894506e+00
  1.607589e+00    2.896390e+00
  1.639340e+00    2.865517e+00
  1.671092e+00    2.839369e+00
  1.702843e+00    2.983474e+00
  1.734594e+00    2.729419e+00
  1.766345e+00    2.839507e+00
  1.798096e+00    2.738488e+00
  1.829847e+00    2.639198e+00
  1.861598e+00    2.715364e+00
  1.893350e+00    2.730410e+00
  1.925101e+00    2.701477e+00
  1.956852e+00    2.724334e+00
  1.988603e+00    2.770955e+00
  2.020354e+00    2.716150e+00
  2.052105e+00    2.652006e+00
  2.083856e+00    2.775619e+00
  2.115608e+00    2.751761e+00
  2.147359e+00    2.683893e+00
  2.179110e+00    2.739003e+00
  2.210861e+00    2.697077e+00
  2.242612e+00    2.640361e+00
  2.274363e+00    2.728591e+00
  2.306115e+00    2.676515e+00
  2.337866e+00    2.735602e+00
  2.369617e+00    2.729648e+00
  2.401368e+00    2.756186e+00
  2.433119e+00    2.852991e+00
  2.464870e+00    2.716572e+00
  2.496621e+00    2.799604e+00
  2.528373e+00    2.899934e+00
  2.560124e+00    2.815415e+00
  2.591875e+00    2.667529e+00
  2.623626e+00    2.777235e+00
  2.655377e+00    2.773760e+00
  2.687128e+00    2.782897e+00
  2.718879e+00    2.743921e+00
  2.750631e+00    2.840672e+00
  2.782382e+00    2.788041e+00
  2.814133e+00    2.829086e+00
  2.845884e+00    2.813653e+00
  2.877635e+00    2.917262e+00
  2.909386e+00    2.886971e+00
  2.941137e+00    2.746180e+00
  2.972889e+00    2.946157e+00
  3.004640e+00    2.972044e+00
  3.036391e+00    2.905909e+00
  3.068142e+00    2.935967e+00
  3.099893e+00    2.828589e+00
  3.131644e+00    2.774402e+00
  3.163395e+00    2.922714e+00
  3.195147e+00    2.893434e+00
  3.226898e+00    2.931184e+00
  3.258649e+00    2.978751e+00
  3.290400e+00    2.913496e+00
  3.322151e+00    2.895253e+00
  3.353902e+00    2.887768e+00
  3.385654e+00    2.839950e+00
  3.417405e+00    2.926168e+00
  3.449156e+00    2.966575e+00
  3.480907e+00    2.890566e+00
  3.512658e+00    2.918274e+00
  3.544409e+00    2.858581e+00
  3.576160e+00    2.855375e+00
  3.607912e+00    3.027163e+00
  3.639663e+00    2.941213e+00
  3.671414e+00    2.787652e+00
  3.703165e+00    2.954595e+00
  3.734916e+00    2.886887e+00
  3.766667e+00    3.009552e+00
  3.798418e+00    2.915691e+00
  3.830170e+00    2.951740e+00
  3.861921e+00    2.940653e+00
  3.893672e+00    2.968565e+00
  3.925423e+00    2.970137e+00
  3.957174e+00    2.995910e+00
  3.988925e+00    2.974804e+00
  4.020676e+00    3.011469e+00
  4.052428e+00    3.013235e+00
  4.084179e+00    2.976724e+00
  4.115930e+00    2.972675e+00
  4.147681e+00    2.987091e+00
  4.179432e+00    2.924876e+00
  4.211183e+00    2.947859e+00
  4.242935e+00    3.088937e+00
  4.274686e+00    2.990401e+00
  4.306437e+00    2.927374e+00
  4.338188e+00    3.019898e+00
  4.369939e+00    3.049020e+00
  4.401690e+00    3.027709e+00
  4.433441e+00    3.058747e+00
  4.465193e+00    3.040272e+00
  4.496944e+00    3.001489e+00
  4.528695e+00    3.022677e+00
  4.560446e+00    3.044117e+00
  4.592197e+00    3.072837e+00
  4.623948e+00    3.001802e+00
  4.655699e+00    3.023225e+00
  4.687451e+00    3.138127e+00
  4.719202e+00    3.100396e+00
  4.750953e+00    3.061317e+00
  4.782704e+00    3.050421e+00
  4.814455e+00    3.097101e+00
  4.846206e+00    3.147093e+00
  4.877957e+00    3.018657e+00
  4.909709e+00    3.041495e+00
  4.941460e+00    3.109376e+00
  4.973211e+00    3.106092e+00
  5.004962e+00    3.079556e+00
  5.036713e+00    3.170634e+00
  5.068464e+00    3.030154e+00
  5.100216e+00    3.103173e+00
  5.131967e+00    3.135494e+00
  5.163718e+00    3.113804e+00
  5.195469e+00    3.161039e+00
  5.227220e+00    3.127578e+00
  5.258971e+00    3.068254e+00
  5.290722e+00    3.157616e+00
  5.322474e+00    3.133644e+00
  5.354225e+00    3.061668e+00
  5.385976e+00    3.027056e+00
  5.417727e+00    3.142435e+00
  5.449478e+00    3.088139e+00
  5.481229e+00    2.976431e+00
  5.512980e+00    2.979016e+00
  5.544732e+00    3.089235e+00
  5.576483e+00    3.001969e+00
  5.608234e+00    3.074960e+00
  5.639985e+00    3.017192e+00
  5.671736e+00    3.128011e+00
  5.703487e+00    3.005091e+00
  5.735238e+00    3.039816e+00
  5.766990e+00    3.040762e+00
  5.798741e+00    3.024015e+00
  5.830492e+00    2.960116e+00
  5.862243e+00    3.033226e+00
  5.893994e+00    3.017716e+00
  5.925745e+00    2.995881e+00
  5.957497e+00    2.920544e+00
  5.989248e+00    2.966257e+00
  6.020999e+00    3.012298e+00
  6.052750e+00    2.978855e+00
  6.084501e+00    3.035334e+00
  6.116252e+00    2.998393e+00
  6.148003e+00    3.045297e+00
  6.179755e+00    3.035880e+00
  6.211506e+00    3.051070e+00
  6.243257e+00    2.880817e+00
  6.275008e+00    2.911111e+00
  6.306759e+00    2.996069e+00
  6.338510e+00    3.050611e+00
  6.370261e+00    2.985258e+00
  6.402013e+00    3.049351e+00
  6.433764e+00    3.013607e+00
  6.465515e+00    2.902830e+00
  6.497266e+00    2.949680e+00
  6.529017e+00    3.015025e+00
  6.560768e+00    3.003881e+00
  6.592519e+00    3.046482e+00
  6.624271e+00    3.014480e+00
  6.656022e+00    2.990519e+00
  6.687773e+00    2.990832e+00
  6.719524e+00    3.027890e+00
  6.751275e+00    2.988831e+00
  6.783026e+00    3.017806e+00
  6.814777e+00    2.986516e+00
  6.846529e+00    2.955251e+00
  6.878280e+00    2.937762e+00
  6.910031e+00    2.963743e+00
  6.941782e+00    2.890726e+00
  6.973533e+00    2.993499e+00
  7.005284e+00    2.998810e+00
  7.037036e+00    2.966021e+00
  7.068787e+00    2.981929e+00
  7.100538e+00    2.963028e+00
  7.132289e+00    2.959878e+00
  7.164040e+00    2.942476e+00
  7.195791e+00    2.933478e+00
  7.227542e+00    2.975235e+00
  7.259294e+00    2.870353e+00
  7.291045e+00    2.929967e+00
  7.322796e+00    2.962113e+00
  7.354547e+00    2.929174e+00
  7.386298e+00    2.912400e+00
  7.418049e+00    2.933626e+00
  7.449800e+00    2.951586e+00
  7.481552e+00    2.915845e+00
  7.513303e+00    2.944574e+00
  7.545054e+00    2.939485e+00
  7.576805e+00    2.926750e+00
  7.608556e+00    2.912047e+00
  7.640307e+00    2.916452e+00
  7.672058e+00    2.980833e+00
  7.703810e+00    2.907800e+00
  7.735561e+00    2.864153e+00
  7.767312e+00    2.908658e+00
  7.799063e+00    2.883010e+00
  7.830814e+00    2.838612e+00
  7.862565e+00    2.912018e+00
  7.894317e+00    2.850751e+00
  7.926068e+00    2.896489e+00
  7.957819e+00    2.829427e+00
  7.989570e+00    2.845050e+00
  8.021321e+00    2.913643e+00
  8.053072e+00    2.886442e+00
  8.084823e+00    2.879369e+00
  8.116575e+00    2.893622e+00
  8.148326e+00    2.904059e+00
  8.180077e+00    2.914836e+00
  8.211828e+00    2.896013e+00
  8.243579e+00    2.977745e+00
  8.275330e+00    2.886601e+00
  8.307081e+00    2.830146e+00
  8.338833e+00    2.862435e+00
  8.370584e+00    2.858709e+00
  8.402335e+00    2.864275e+00
  8.434086e+00    2.830894e+00
  8.465837e+00    2.881303e+00
  8.497588e+00    2.816692e+00
  8.529339e+00    2.739385e+00
  8.561091e+00    2.848423e+00
  8.592842e+00    2.850247e+00
  8.624593e+00    2.800007e+00
  8.656344e+00    2.892091e+00
  8.688095e+00    2.818732e+00
  8.719846e+00    2.866678e+00
  8.751598e+00    2.840547e+00
  8.783349e+00    2.770813e+00
  8.815100e+00    2.885410e+00
  8.846851e+00    2.792911e+00
  8.878602e+00    2.814999e+00
  8.910353e+00    2.808241e+00
  8.942104e+00    2.749785e+00
  8.973856e+00    2.835838e+00
  9.005607e+00    2.810205e+00
  9.037358e+00    2.768845e+00
  9.069109e+00    2.814037e+00
  9.100860e+00    2.796930e+00
  9.132611e+00    2.702816e+00
  9.164362e+00    2.821419e+00
  9.196114e+00    2.821657e+00
  9.227865e+00    2.784793e+00
  9.259616e+00    2.800445e+00
  9.291367e+00    2.764368e+00
  9.323118e+00    2.754333e+00
  9.354869e+00    2.755067e+00
  9.386620e+00    2.764884e+00
  9.418372e+00    2.821989e+00
  9.450123e+00    2.729185e+00
  9.481874e+00    2.749707e+00
  9.513625e+00    2.768104e+00
  9.545376e+00    2.767646e+00
  9.577127e+00    2.744319e+00
  9.608878e+00    2.669854e+00
  9.640630e+00    2.748851e+00
  9.672381e+00    2.700304e+00
  9.704132e+00    2.685752e+00
  9.735883e+00    2.685967e+00
  9.767634e+00    2.650798e+00
  9.799385e+00    2.710967e+00
  9.831137e+00    2.655353e+00
  9.862888e+00    2.745182e+00
  9.894639e+00    2.697587e+00
  9.926390e+00    2.650072e+00
  9.958141e+00    2.628163e+00
  9.989892e+00    2.630230e+00
  1.002164e+01    2.621740e+00
  1.005339e+01    2.644646e+00
  1.008515e+01    2.649577e+00
  1.011690e+01    2.617914e+00
  1.014865e+01    2.613628e+00
  1.018040e+01    2.626651e+00
  1.021215e+01    2.602448e+00
  1.024390e+01    2.611141e+00
  1.027565e+01    2.579248e+00
  1.030740e+01    2.580674e+00
  1.033915e+01    2.622615e+00
  1.037091e+01    2.568107e+00
  1.040266e+01    2.621702e+00
  1.043441e+01    2.546296e+00
  1.046616e+01    2.531495e+00
  1.049791e+01    2.582544e+00
  1.052966e+01    2.586305e+00
  1.056141e+01    2.567950e+00
  1.059316e+01    2.524559e+00
  1.062492e+01    2.522702e+00
  1.065667e+01    2.558169e+00
  1.068842e+01    2.519420e+00
  1.072017e+01    2.489064e+00
  1.075192e+01    2.582707e+00
  1.078367e+01    2.496888e+00
  1.081542e+01    2.494882e+00
  1.084717e+01    2.498816e+00
  1.087892e+01    2.481649e+00
  1.091068e+01    2.459786e+00
  1.094243e+01    2.471934e+00
  1.097418e+01    2.463540e+00
  1.100593e+01    2.473292e+00
  1.103768e+01    2.421072e+00
  1.106943e+01    2.460078e+00
  1.110118e+01    2.465382e+00
  1.113293e+01    2.456689e+00
  1.116468e+01    2.441620e+00
  1.119644e+01    2.401662e+00
  1.122819e+01    2.378264e+00
  1.125994e+01    2.440928e+00
  1.129169e+01    2.413283e+00
  1.132344e+01    2.422429e+00
  1.135519e+01    2.382653e+00
  1.138694e+01    2.418539e+00
  1.141869e+01    2.362952e+00
  1.145045e+01    2.398009e+00
  1.148220e+01    2.380115e+00
  1.151395e+01    2.364666e+00
  1.154570e+01    2.393844e+00
  1.157745e+01    2.394150e+00
  1.160920e+01    2.332488e+00
  1.164095e+01    2.375368e+00
  1.167270e+01    2.384007e+00
  1.170445e+01    2.337840e+00
  1.173621e+01    2.398966e+00
  1.176796e+01    2.314636e+00
  1.179971e+01    2.326581e+00
  1.183146e+01    2.310759e+00
  1.186321e+01    2.281172e+00
  1.189496e+01    2.342647e+00
  1.192671e+01    2.337168e+00
  1.195846e+01    2.278669e+00
  1.199021e+01    2.325781e+00
  1.202197e+01    2.299846e+00
  1.205372e+01    2.295460e+00
  1.208547e+01    2.296865e+00
  1.211722e+01    2.293316e+00
  1.214897e+01    2.317383e+00
  1.218072e+01    2.263669e+00
  1.221247e+01    2.296789e+00
  1.224422e+01    2.261505e+00
  1.227597e+01    2.302657e+00
  1.230773e+01    2.252395e+00
  1.233948e+01    2.305087e+00
  1.237123e+01    2.296908e+00
  1.240298e+01    2.340053e+00
  1.243473e+01    2.297283e+00
  1.246648e+01    2.313715e+00
  1.249823e+01    2.332067e+00
  1.252998e+01    2.334629e+00
  1.256174e+01    2.360536e+00
  1.259349e+01    2.359180e+00
  1.262524e+01    2.366038e+00
  1.265699e+01    2.389039e+00
  1.268874e+01    2.437714e+00
  1.272049e+01    2.488218e+00
  1.275224e+01    2.525714e+00
  1.278399e+01    2.558132e+00
  1.281574e+01    2.727653e+00
  1.284750e+01    2.819988e+00
  1.287925e+01    3.050062e+00
  1.291100e+01    3.266999e+00
  1.294275e+01    3.686907e+00
  1.297450e+01    4.274081e+00
  1.300625e+01    5.243887e+00
  1.303800e+01    6.841371e+00
  1.306975e+01    9.276443e+00
  1.310150e+01    1.212485e+01
  1.313326e+01    1.481944e+01
  1.316501e+01    1.725486e+01
  1.319676e+01    1.822192e+01
  1.322851e+01    1.582223e+01
  1.326026e+01    1.149524e+01
  1.329201e+01    8.124996e+00
  1.332376e+01    6.029068e+00
  1.335551e+01    4.732479e+00
  1.338727e+01    3.895186e+00
  1.341902e+01    3.423014e+00
  1.345077e+01    3.093058e+00
  1.348252e+01    2.867769e+00
  1.351427e+01    2.686043e+00
  1.354602e+01    2.565026e+00
  1.357777e+01    2.487981e+00
  1.360952e+01    2.369501e+00
  1.364127e+01    2.336210e+00
  1.367303e+01    2.307338e+00
  1.370478e+01    2.304263e+00
  1.373653e+01    2.172889e+00
  1.376828e+01    2.215183e+00
  1.380003e+01    2.161858e+00
  1.383178e+01    2.177463e+00
  1.386353e+01    2.104670e+00
  1.389528e+01    2.077212e+00
  1.392703e+01    2.097462e+00
  1.395879e+01    2.078030e+00
  1.399054e+01    2.032509e+00
  1.402229e+01    1.998829e+00
  1.405404e+01    2.008554e+00
  1.408579e+01    1.986975e+00
  1.411754e+01    2.004800e+00
  1.414929e+01    2.006977e+00
  1.418104e+01    1.952368e+00
  1.421279e+01    1.942054e+00
  1.424455e+01    1.962635e+00
  1.427630e+01    1.915743e+00
  1.430805e+01    1.981015e+00
  1.433980e+01    1.955273e+00
  1.437155e+01    1.883854e+00
  1.440330e+01    1.948770e+00
  1.443505e+01    1.916546e+00
  1.446680e+01    1.942203e+00
  1.449856e+01    1.899548e+00
  1.453031e+01    1.913968e+00
  1.456206e+01    1.924108e+00
  1.459381e+01    1.886552e+00
  1.462556e+01    1.873231e+00
  1.465731e+01    1.885656e+00
  1.468906e+01    1.903400e+00
  1.472081e+01    1.864574e+00
  1.475256e+01    1.901863e+00
  1.478432e+01    1.901295e+00
  1.481607e+01    1.861092e+00
  1.484782e+01    1.936018e+00
  1.487957e+01    1.943666e+00
  1.491132e+01    1.932319e+00
  1.494307e+01    1.993513e+00
  1.497482e+01    2.020730e+00
  1.500657e+01    2.128081e+00
  1.503832e+01    2.291487e+00
  1.507008e+01    2.489342e+00
  1.510183e+01    2.754260e+00
  1.513358e+01    3.289823e+00
  1.516533e+01    4.049416e+00
  1.519708e+01    4.931829e+00
  1.522883e+01    5.497020e+00
  1.526058e+01    6.080196e+00
  1.529233e+01    6.130579e+00
  1.532409e+01    5.416178e+00
  1.535584e+01    4.231354e+00
  1.538759e+01    3.379507e+00
  1.541934e+01    2.818491e+00
  1.545109e+01    2.456683e+00
  1.548284e+01    2.218172e+00
  1.551459e+01    2.067440e+00
  1.554634e+01    1.954921e+00
  1.557809e+01    1.881239e+00
  1.560985e+01    1.847941e+00
  1.564160e+01    1.785812e+00
  1.567335e+01    1.766494e+00
  1.570510e+01    1.775719e+00
  1.573685e+01    1.689487e+00
  1.576860e+01    1.703186e+00
  1.580035e+01    1.654891e+00
  1.583210e+01    1.630598e+00
  1.586385e+01    1.644774e+00
  1.589561e+01    1.622120e+00
  1.592736e+01    1.640205e+00
  1.595911e+01    1.596689e+00
  1.599086e+01    1.612747e+00
  1.602261e+01    1.585913e+00
  1.605436e+01    1.589769e+00
  1.608611e+01    1.586620e+00
  1.611786e+01    1.564966e+00
  1.614961e+01    1.568017e+00
  1.618137e+01    1.524428e+00
  1.621312e+01    1.533537e+00
  1.624487e+01    1.534688e+00
  1.627662e+01    1.567793e+00
  1.630837e+01    1.561803e+00
  1.634012e+01    1.553999e+00
  1.637187e+01    1.516963e+00
  1.640362e+01    1.524096e+00
  1.643538e+01    1.478852e+00
  1.646713e+01    1.492709e+00
  1.649888e+01    1.509437e+00
  1.653063e+01    1.528385e+00
  1.656238e+01    1.490655e+00
  1.659413e+01    1.511028e+00
  1.662588e+01    1.449700e+00
  1.665763e+01    1.461529e+00
  1.668938e+01    1.444271e+00
  1.672114e+01    1.430786e+00
  1.675289e+01    1.454189e+00
  1.678464e+01    1.428059e+00
  1.681639e+01    1.454720e+00
  1.684814e+01    1.433893e+00
  1.687989e+01    1.401434e+00
  1.691164e+01    1.463876e+00
  1.694339e+01    1.399288e+00
  1.697514e+01    1.430524e+00
  1.700690e+01    1.432136e+00
  1.703865e+01    1.389895e+00
  1.707040e+01    1.403898e+00
  1.710215e+01    1.419439e+00
  1.713390e+01    1.392436e+00
  1.716565e+01    1.383263e+00
  1.719740e+01    1.389985e+00
  1.722915e+01    1.376619e+00
  1.726091e+01    1.368596e+00
  1.729266e+01    1.380996e+00
  1.732441e+01    1.375161e+00
  1.735616e+01    1.354749e+00
  1.738791e+01    1.375184e+00
  1.741966e+01    1.376061e+00
  1.745141e+01    1.366821e+00
  1.748316e+01    1.341279e+00
  1.751491e+01    1.333236e+00
  1.754667e+01    1.349236e+00
  1.757842e+01    1.339788e+00
  1.761017e+01    1.310568e+00
  1.764192e+01    1.325567e+00
  1.767367e+01    1.315854e+00
  1.770542e+01    1.343906e+00
  1.773717e+01    1.335684e+00
  1.776892e+01    1.299271e+00
  1.780067e+01    1.325654e+00
  1.783243e+01    1.287789e+00
  1.786418e+01    1.291691e+00
  1.789593e+01    1.302063e+00
  1.792768e+01    1.268508e+00
  1.795943e+01    1.314411e+00
  1.799118e+01    1.316617e+00
  1.802293e+01    1.284213e+00
  1.805468e+01    1.262001e+00
  1.808643e+01    1.291911e+00
  1.811819e+01    1.273684e+00
  1.814994e+01    1.264535e+00
  1.818169e+01    1.293787e+00
  1.821344e+01    1.285631e+00
  1.824519e+01    1.254640e+00
  1.827694e+01    1.271518e+00
  1.830869e+01    1.270471e+00
  1.834044e+01    1.280207e+00
  1.837220e+01    1.236561e+00
  1.840395e+01    1.239523e+00
  1.843570e+01    1.234122e+00
  1.846745e+01    1.268900e+00
  1.849920e+01    1.218465e+00
  1.853095e+01    1.261414e+00
  1.856270e+01    1.226354e+00
  1.859445e+01    1.205949e+00
  1.862620e+01    1.232244e+00
  1.865796e+01    1.206395e+00
  1.868971e+01    1.202939e+00
  1.872146e+01    1.200746e+00
  1.875321e+01    1.172598e+00
  1.878496e+01    1.228874e+00
  1.881671e+01    1.211286e+00
  1.884846e+01    1.200289e+00
  1.888021e+01    1.200040e+00
  1.891196e+01    1.206643e+00
  1.894372e+01    1.198125e+00
  1.897547e+01    1.167779e+00
  1.900722e+01    1.186730e+00
  1.903897e+01    1.200055e+00
  1.907072e+01    1.179499e+00
  1.910247e+01    1.201500e+00
  1.913422e+01    1.175468e+00
  1.916597e+01    1.177894e+00
  1.919773e+01    1.207723e+00
  1.922948e+01    1.159071e+00
  1.926123e+01    1.181667e+00
  1.929298e+01    1.187264e+00
  1.932473e+01    1.176035e+00
  1.935648e+01    1.184523e+00
  1.938823e+01    1.169197e+00
  1.941998e+01    1.142992e+00
  1.945173e+01    1.144033e+00
  1.948349e+01    1.156744e+00
  1.951524e+01    1.146897e+00
  1.954699e+01    1.141481e+00
  1.957874e+01    1.139045e+00
  1.961049e+01    1.144457e+00
  1.964224e+01    1.130491e+00
  1.967399e+01    1.149005e+00
  1.970574e+01    1.144992e+00
  1.973749e+01    1.124375e+00
  1.976925e+01    1.142661e+00
  1.980100e+01    1.126922e+00
  1.983275e+01    1.132411e+00
  1.986450e+01    1.133624e+00
  1.989625e+01    1.114250e+00
  1.992800e+01    1.097573e+00
  1.995975e+01    1.139347e+00
  1.999150e+01    1.088242e+00
  2.002325e+01    1.113962e+00
  2.005501e+01    1.087363e+00
  2.008676e+01    1.099441e+00
  2.011851e+01    1.117211e+00
  2.015026e+01    1.086396e+00
  2.018201e+01    1.098307e+00
  2.021376e+01    1.084258e+00
  2.024551e+01    1.096119e+00
  2.027726e+01    1.091062e+00
  2.030902e+01    1.095735e+00
  2.034077e+01    1.079193e+00
  2.037252e+01    1.095322e+00
  2.040427e+01    1.099411e+00
  2.043602e+01    1.080953e+00
  2.046777e+01    1.095454e+00
  2.049952e+01    1.064823e+00
  2.053127e+01    1.080176e+00
  2.056302e+01    1.078898e+00
  2.059478e+01    1.073675e+00
  2.062653e+01    1.079734e+00
  2.065828e+01    1.103711e+00
  2.069003e+01    1.095083e+00
  2.072178e+01    1.047585e+00
  2.075353e+01    1.060559e+00
  2.078528e+01    1.076656e+00
  2.081703e+01    1.050207e+00
  2.084878e+01    1.074335e+00
  2.088054e+01    1.070590e+00
  2.091229e+01    1.074125e+00
  2.094404e+01    1.046412e+00
  2.097579e+01    1.076475e+00
  2.100754e+01    1.072945e+00
  2.103929e+01    1.084000e+00
  2.107104e+01    1.053058e+00
  2.110279e+01    1.066979e+00
  2.113455e+01    1.088687e+00
  2.116630e+01    1.090140e+00
  2.119805e+01    1.092565e+00
  2.122980e+01    1.070548e+00
  2.126155e+01    1.104030e+00
  2.129330e+01    1.131540e+00
  2.132505e+01    1.123519e+00
  2.135680e+01    1.140672e+00
  2.138855e+01    1.154408e+00
  2.142031e+01    1.167260e+00
  2.145206e+01    1.219403e+00
  2.148381e+01    1.230373e+00
  2.151556e+01    1.277418e+00
  2.154731e+01    1.372910e+00
  2.157906e+01    1.436154e+00
  2.161081e+01    1.551981e+00
  2.164256e+01    1.739901e+00
  2.167431e+01    1.998674e+00
  2.170607e+01    2.429549e+00
  2.173782e+01    3.003295e+00
  2.176957e+01    3.915201e+00
  2.180132e+01    5.170168e+00
  2.183307e+01    6.623394e+00
  2.186482e+01    8.246140e+00
  2.189657e+01    9.698708e+00
  2.192832e+01    9.989872e+00
  2.196007e+01    8.735677e+00
  2.199183e+01    6.586963e+00
  2.202358e+01    4.626019e+00
  2.205533e+01    3.473248e+00
  2.208708e+01    2.684283e+00
  2.211883e+01    2.185029e+00
  2.215058e+01    1.859580e+00
  2.218233e+01    1.697261e+00
  2.221408e+01    1.477340e+00
  2.224584e+01    1.351377e+00
  2.227759e+01    1.307483e+00
  2.230934e+01    1.236719e+00
  2.234109e+01    1.163488e+00
  2.237284e+01    1.110688e+00
  2.240459e+01    1.117101e+00
  2.243634e+01    1.077612e+00
  2.246809e+01    1.085319e+00
  2.249984e+01    1.049425e+00
  2.253160e+01    1.038973e+00
  2.256335e+01    9.857774e-01
  2.259510e+01    9.999859e-01
  2.262685e+01    9.729016e-01
  2.265860e+01    9.675757e-01
  2.269035e+01    9.608668e-01
  2.272210e+01    9.353781e-01
  2.275385e+01    9.659216e-01
  2.278560e+01    9.359254e-01
  2.281736e+01    9.420112e-01
  2.284911e+01    9.356565e-01
  2.288086e+01    9.331355e-01
  2.291261e+01    8.973448e-01
  2.294436e+01    8.923911e-01
  2.297611e+01    8.902653e-01
  2.300786e+01    9.056724e-01
  2.303961e+01    9.053837e-01
  2.307137e+01    9.045246e-01
  2.310312e+01    8.574858e-01
  2.313487e+01    8.982879e-01
  2.316662e+01    8.788314e-01
  2.319837e+01    8.640050e-01
  2.323012e+01    8.616945e-01
  2.326187e+01    8.671805e-01
  2.329362e+01    8.696773e-01
  2.332537e+01    8.705440e-01
  2.335713e+01    8.640367e-01
  2.338888e+01    8.316390e-01
  2.342063e+01    8.466089e-01
  2.345238e+01    8.648495e-01
  2.348413e+01    8.434535e-01
  2.351588e+01    8.430636e-01
  2.354763e+01    8.459992e-01
  2.357938e+01    8.374467e-01
  2.361113e+01    8.338284e-01
  2.364289e+01    8.513415e-01
  2.367464e+01    8.332212e-01
  2.370639e+01    8.323647e-01
  2.373814e+01    7.993417e-01
  2.376989e+01    8.121279e-01
  2.380164e+01    8.147038e-01
  2.383339e+01    8.036234e-01
  2.386514e+01    7.997625e-01
  2.389689e+01    7.868832e-01
  2.392865e+01    7.951275e-01
  2.396040e+01    8.039256e-01
  2.399215e+01    8.013557e-01
  2.402390e+01    7.712271e-01
  2.405565e+01    7.882804e-01
  2.408740e+01    7.698849e-01
  2.411915e+01    7.794966e-01
  2.415090e+01    7.542139e-01
  2.418266e+01    7.745206e-01
  2.421441e+01    7.650624e-01
  2.424616e+01    7.733978e-01
  2.427791e+01    7.884561e-01
  2.430966e+01    7.950276e-01
  2.434141e+01    7.847497e-01
  2.437316e+01    8.072685e-01
  2.440491e+01    8.041322e-01
  2.443666e+01    7.886164e-01
  2.446842e+01    7.882606e-01
  2.450017e+01    7.721577e-01
  2.453192e+01    7.824073e-01
  2.456367e+01    7.815093e-01
  2.459542e+01    7.866067e-01
  2.462717e+01    8.168347e-01
  2.465892e+01    7.975780e-01
  2.469067e+01    7.752135e-01
  2.472242e+01    7.874634e-01
  2.475418e+01    7.800496e-01
  2.478593e+01    7.662264e-01
  2.481768e+01    8.053157e-01
  2.484943e+01    7.815155e-01
  2.488118e+01    7.742993e-01
  2.491293e+01    7.736752e-01
  2.494468e+01    7.731520e-01
  2.497643e+01    8.015803e-01
  2.500819e+01    8.221789e-01
  2.503994e+01    8.141439e-01
  2.507169e+01    8.019459e-01
  2.510344e+01    8.131195e-01
  2.513519e+01    8.199013e-01
  2.516694e+01    8.240123e-01
  2.519869e+01    8.273071e-01
  2.523044e+01    8.261533e-01
  2.526219e+01    8.396384e-01
  2.529395e+01    8.503590e-01
  2.532570e+01    8.814769e-01
  2.535745e+01    8.803447e-01
  2.538920e+01    8.880383e-01
  2.542095e+01    9.133413e-01
  2.545270e+01    9.284508e-01
  2.548445e+01    9.553655e-01
  2.551620e+01    9.900176e-01
  2.554795e+01    1.004936e+00
  2.557971e+01    1.047775e+00
  2.561146e+01    1.109838e+00
  2.564321e+01    1.186502e+00
  2.567496e+01    1.308465e+00
  2.570671e+01    1.406906e+00
  2.573846e+01    1.619934e+00
  2.577021e+01    1.921947e+00
  2.580196e+01    2.386689e+00
  2.583371e+01    3.069453e+00
  2.586547e+01    4.074443e+00
  2.589722e+01    5.258119e+00
  2.592897e+01    6.675868e+00
  2.596072e+01    7.905442e+00
  2.599247e+01    8.360192e+00
  2.602422e+01    7.493601e+00
  2.605597e+01    5.831767e+00
  2.608772e+01    4.284149e+00
  2.611948e+01    3.155822e+00
  2.615123e+01    2.456498e+00
  2.618298e+01    1.997312e+00
  2.621473e+01    1.662819e+00
  2.624648e+01    1.419887e+00
  2.627823e+01    1.317727e+00
  2.630998e+01    1.194590e+00
  2.634173e+01    1.118747e+00
  2.637348e+01    1.074790e+00
  2.640524e+01    1.012552e+00
  2.643699e+01    9.885174e-01
  2.646874e+01    9.804360e-01
  2.650049e+01    9.576119e-01
  2.653224e+01    9.341630e-01
  2.656399e+01    9.343811e-01
  2.659574e+01    9.114990e-01
  2.662749e+01    9.239367e-01
  2.665924e+01    8.834540e-01
  2.669100e+01    9.072275e-01
  2.672275e+01    9.028471e-01
  2.675450e+01    9.073389e-01
  2.678625e+01    8.721379e-01
  2.681800e+01    9.053876e-01
  2.684975e+01    9.179471e-01
  2.688150e+01    9.101464e-01
  2.691325e+01    9.323671e-01
  2.694501e+01    9.366826e-01
  2.697676e+01    9.759288e-01
  2.700851e+01    1.027245e+00
  2.704026e+01    1.071800e+00
  2.707201e+01    1.188020e+00
  2.710376e+01    1.281126e+00
  2.713551e+01    1.511332e+00
  2.716726e+01    1.806497e+00
  2.719901e+01    2.107922e+00
  2.723077e+01    2.311611e+00
  2.726252e+01    2.394341e+00
  2.729427e+01    2.122813e+00
  2.732602e+01    1.772678e+00
  2.735777e+01    1.477675e+00
  2.738952e+01    1.245735e+00
  2.742127e+01    1.154255e+00
  2.745302e+01    1.052116e+00
  2.748477e+01    9.954432e-01
  2.751653e+01    9.458619e-01
  2.754828e+01    9.061052e-01
  2.758003e+01    9.088477e-01
  2.761178e+01    8.543658e-01
  2.764353e+01    8.235597e-01
  2.767528e+01    8.241385e-01
  2.770703e+01    8.141872e-01
  2.773878e+01    8.367169e-01
  2.777054e+01    8.189510e-01
  2.780229e+01    7.980107e-01
  2.783404e+01    8.129528e-01
  2.786579e+01    7.982734e-01
  2.789754e+01    7.983083e-01
  2.792929e+01    7.688921e-01
  2.796104e+01    8.009173e-01
  2.799279e+01    8.061262e-01
  2.802454e+01    8.010300e-01
  2.805630e+01    7.739434e-01
  2.808805e+01    7.579945e-01
  2.811980e+01    7.650381e-01
  2.815155e+01    7.730674e-01
  2.818330e+01    7.784176e-01
  2.821505e+01    7.652525e-01
  2.824680e+01    7.808458e-01
  2.827855e+01    7.458284e-01
  2.831030e+01    7.717836e-01
  2.834206e+01    7.722771e-01
  2.837381e+01    7.750444e-01
  2.840556e+01    7.364965e-01
  2.843731e+01    7.608044e-01
  2.846906e+01    7.777122e-01
  2.850081e+01    7.779984e-01
  2.853256e+01    7.687384e-01
  2.856431e+01    7.741473e-01
  2.859606e+01    7.490898e-01
  2.862782e+01    7.544320e-01
  2.865957e+01    7.692372e-01
  2.869132e+01    7.456440e-01
  2.872307e+01    7.850558e-01
  2.875482e+01    7.447765e-01
  2.878657e+01    7.224325e-01
  2.881832e+01    7.459810e-01
  2.885007e+01    7.555327e-01
  2.888183e+01    7.291053e-01
  2.891358e+01    7.297692e-01
  2.894533e+01    7.230948e-01
  2.897708e+01    7.282341e-01
  2.900883e+01    7.208168e-01
  2.904058e+01    7.442827e-01
  2.907233e+01    7.298750e-01
  2.910408e+01    7.265203e-01
  2.913583e+01    7.227414e-01
  2.916759e+01    7.322217e-01
  2.919934e+01    7.175552e-01
  2.923109e+01    7.231758e-01
  2.926284e+01    7.309299e-01
  2.929459e+01    7.280141e-01
  2.932634e+01    7.368595e-01
  2.935809e+01    7.330053e-01
  2.938984e+01    7.176381e-01
  2.942159e+01    7.165086e-01
  2.945335e+01    7.292556e-01
  2.948510e+01    7.320651e-01
  2.951685e+01    7.128561e-01
  2.954860e+01    7.127562e-01
  2.958035e+01    7.366203e-01
  2.961210e+01    7.506004e-01
  2.964385e+01    7.154848e-01
  2.967560e+01    7.149366e-01
  2.970736e+01    7.232438e-01
  2.973911e+01    7.286847e-01
  2.977086e+01    7.095630e-01
  2.980261e+01    7.304012e-01
  2.983436e+01    7.071183e-01
  2.986611e+01    7.087862e-01
  2.989786e+01    7.050776e-01
  2.992961e+01    7.243566e-01
  2.996136e+01    7.146437e-01
  2.999312e+01    7.118680e-01
  3.002487e+01    7.427468e-01
  3.005662e+01    7.424882e-01
  3.008837e+01    7.332446e-01
  3.012012e+01    7.172976e-01
  3.015187e+01    7.250225e-01
  3.018362e+01    7.077740e-01
  3.021537e+01    6.842111e-01
  3.024712e+01    7.090982e-01
  3.027888e+01    7.147505e-01
  3.031063e+01    7.124738e-01
  3.034238e+01    6.977893e-01
  3.037413e+01    7.092403e-01
  3.040588e+01    7.149684e-01
  3.043763e+01    7.034172e-01
  3.046938e+01    7.063209e-01
  3.050113e+01    7.160960e-01
  3.053288e+01    7.097394e-01
  3.056464e+01    7.118899e-01
  3.059639e+01    7.230763e-01
  3.062814e+01    7.013510e-01
  3.065989e+01    7.129270e-01
  3.069164e+01    7.151148e-01
  3.072339e+01    7.091637e-01
  3.075514e+01    6.958573e-01
  3.078689e+01    7.091837e-01
  3.081865e+01    6.925876e-01
  3.085040e+01    6.961374e-01
  3.088215e+01    7.223864e-01
  3.091390e+01    7.285687e-01
  3.094565e+01    7.232957e-01
  3.097740e+01    6.868345e-01
  3.100915e+01    7.014733e-01
  3.104090e+01    7.163702e-01
  3.107265e+01    7.130601e-01
  3.110441e+01    7.247696e-01
  3.113616e+01    7.025207e-01
  3.116791e+01    7.381864e-01
  3.119966e+01    7.289563e-01
  3.123141e+01    7.187015e-01
  3.126316e+01    7.414856e-01
  3.129491e+01    7.006276e-01
  3.132666e+01    7.271772e-01
  3.135841e+01    7.305373e-01
  3.139017e+01    7.417755e-01
  3.142192e+01    7.446407e-01
  3.145367e+01    7.609419e-01
  3.148542e+01    7.706006e-01
  3.151717e+01    7.602106e-01
  3.154892e+01    7.674204e-01
  3.158067e+01    7.977670e-01
  3.161242e+01    8.134637e-01
  3.164418e+01    8.530059e-01
  3.167593e+01    8.576772e-01
  3.170768e+01    9.251018e-01
  3.173943e+01    9.928162e-01
  3.177118e+01    1.126120e+00
  3.180293e+01    1.286627e+00
  3.183468e+01    1.478496e+00
  3.186643e+01    1.805491e+00
  3.189818e+01    2.172906e+00
  3.192994e+01    2.369317e+00
  3.196169e+01    2.334359e+00
  3.199344e+01    2.097831e+00
  3.202519e+01    1.696660e+00
  3.205694e+01    1.397328e+00
  3.208869e+01    1.164578e+00
  3.212044e+01    1.046266e+00
  3.215219e+01    9.531704e-01
  3.218394e+01    8.787308e-01
  3.221570e+01    8.377966e-01
  3.224745e+01    8.410214e-01
  3.227920e+01    7.955707e-01
  3.231095e+01    7.742676e-01
  3.234270e+01    7.864192e-01
  3.237445e+01    7.404944e-01
  3.240620e+01    7.415251e-01
  3.243795e+01    7.322869e-01
  3.246970e+01    7.517931e-01
  3.250146e+01    7.177349e-01
  3.253321e+01    7.194222e-01
  3.254908e+01    7.261608e-01