File: XRD/2024-07-27_002_Ru-CGO-ex_Activtation_ramp_000002_data_000010.dat
# == pyFAI calibration ==
# Distance Sample to Detector: 0.4 m
# PONI: 9.750e-02, 1.135e-01 m
# Rotations: -0.000175 0.000000 -0.000000 rad
#
# == Fit2d calibration ==
# Distance Sample-beamCenter: 400.000 mm
# Center: x=1514.000, y=1300.000 pix
# Tilt: 0.010 deg  TiltPlanRot: 0.010 deg
#
# Detector Detector	 Spline= None	 PixelSize= 7.500e-05, 7.500e-05 m
#    Detector has a mask: False
#    Detector has a dark current: False
#    detector has a flat field: False
#
# Wavelength: 6.888e-11 m
# Mask applied: user provided
# Dark current applied: False
# Flat field applied: False
# Polarization factor: 0.99
# Normalization factor: 1.0
# --> /home/myspot/data/2024_07_Rosario/Ru-CGO-ex/2024-07-27_002_Ru-CGO-ex_Activtation_ramp_000002_data_000010.dat
#       q_nm^-1             I
  2.003187e-02    0.000000e+00
  5.178302e-02    1.929053e-01
  8.353417e-02    1.459449e-01
  1.152853e-01    2.832399e-02
  1.470365e-01    3.260268e-02
  1.787876e-01    1.085811e-02
  2.105388e-01    8.154132e-02
  2.422899e-01    3.547358e-02
  2.740411e-01    5.816410e-02
  3.057922e-01    4.477354e-02
  3.375433e-01    2.754544e-02
  3.692945e-01    1.989629e-02
  4.010456e-01    4.961608e-02
  4.327968e-01    3.917849e-02
  4.645479e-01    2.255904e-02
  4.962991e-01    1.466258e-02
  5.280502e-01    3.716428e-02
  5.598014e-01    1.257276e-02
  5.915525e-01    5.021299e-02
  6.233037e-01    4.341917e-02
  6.550548e-01    2.742702e-02
  6.868060e-01    4.192536e-02
  7.185571e-01    3.320608e-02
  7.503083e-01    4.696001e-02
  7.820594e-01    1.368686e-01
  8.138106e-01    1.833635e-01
  8.455617e-01    3.007250e-01
  8.773129e-01    3.961195e-01
  9.090640e-01    5.553828e-01
  9.408152e-01    6.595597e-01
  9.725663e-01    9.265259e-01
  1.004317e+00    1.001731e+00
  1.036069e+00    1.184011e+00
  1.067820e+00    1.331377e+00
  1.099571e+00    1.287272e+00
  1.131322e+00    1.525901e+00
  1.163073e+00    1.527587e+00
  1.194824e+00    1.614608e+00
  1.226575e+00    2.203893e+00
  1.258327e+00    2.294347e+00
  1.290078e+00    2.523685e+00
  1.321829e+00    2.513783e+00
  1.353580e+00    2.613922e+00
  1.385331e+00    2.687787e+00
  1.417082e+00    2.571266e+00
  1.448834e+00    2.872364e+00
  1.480585e+00    2.997191e+00
  1.512336e+00    2.906594e+00
  1.544087e+00    3.169098e+00
  1.575838e+00    3.220846e+00
  1.607589e+00    2.875214e+00
  1.639340e+00    2.950358e+00
  1.671092e+00    3.046944e+00
  1.702843e+00    2.870230e+00
  1.734594e+00    2.678697e+00
  1.766345e+00    2.850454e+00
  1.798096e+00    2.939274e+00
  1.829847e+00    2.797600e+00
  1.861598e+00    2.917357e+00
  1.893350e+00    2.880087e+00
  1.925101e+00    2.751933e+00
  1.956852e+00    2.828015e+00
  1.988603e+00    2.885308e+00
  2.020354e+00    2.885134e+00
  2.052105e+00    2.754587e+00
  2.083856e+00    2.687083e+00
  2.115608e+00    2.913569e+00
  2.147359e+00    2.706235e+00
  2.179110e+00    2.878215e+00
  2.210861e+00    2.829290e+00
  2.242612e+00    2.913972e+00
  2.274363e+00    2.788526e+00
  2.306115e+00    2.961932e+00
  2.337866e+00    2.866341e+00
  2.369617e+00    2.835016e+00
  2.401368e+00    2.809322e+00
  2.433119e+00    2.977319e+00
  2.464870e+00    2.870973e+00
  2.496621e+00    2.844036e+00
  2.528373e+00    2.863299e+00
  2.560124e+00    2.769859e+00
  2.591875e+00    2.832394e+00
  2.623626e+00    2.821003e+00
  2.655377e+00    2.853020e+00
  2.687128e+00    2.840188e+00
  2.718879e+00    2.816593e+00
  2.750631e+00    2.895961e+00
  2.782382e+00    2.937093e+00
  2.814133e+00    2.876465e+00
  2.845884e+00    2.869167e+00
  2.877635e+00    2.818295e+00
  2.909386e+00    2.893436e+00
  2.941137e+00    2.874733e+00
  2.972889e+00    2.903726e+00
  3.004640e+00    2.822017e+00
  3.036391e+00    2.928493e+00
  3.068142e+00    2.919315e+00
  3.099893e+00    2.962332e+00
  3.131644e+00    2.937047e+00
  3.163395e+00    2.872902e+00
  3.195147e+00    2.929653e+00
  3.226898e+00    2.927221e+00
  3.258649e+00    2.934114e+00
  3.290400e+00    2.943726e+00
  3.322151e+00    2.977673e+00
  3.353902e+00    2.924697e+00
  3.385654e+00    2.924620e+00
  3.417405e+00    2.924067e+00
  3.449156e+00    2.941340e+00
  3.480907e+00    2.991702e+00
  3.512658e+00    2.957011e+00
  3.544409e+00    3.093565e+00
  3.576160e+00    3.042215e+00
  3.607912e+00    2.973373e+00
  3.639663e+00    2.988295e+00
  3.671414e+00    2.999308e+00
  3.703165e+00    2.993028e+00
  3.734916e+00    3.007170e+00
  3.766667e+00    2.912214e+00
  3.798418e+00    3.037305e+00
  3.830170e+00    3.063860e+00
  3.861921e+00    3.049283e+00
  3.893672e+00    3.024658e+00
  3.925423e+00    2.982321e+00
  3.957174e+00    3.093170e+00
  3.988925e+00    2.994632e+00
  4.020676e+00    2.904189e+00
  4.052428e+00    3.025512e+00
  4.084179e+00    3.052547e+00
  4.115930e+00    3.116021e+00
  4.147681e+00    2.960211e+00
  4.179432e+00    3.058273e+00
  4.211183e+00    3.070546e+00
  4.242935e+00    3.059593e+00
  4.274686e+00    3.031881e+00
  4.306437e+00    3.056847e+00
  4.338188e+00    3.067997e+00
  4.369939e+00    3.127718e+00
  4.401690e+00    3.072670e+00
  4.433441e+00    3.164736e+00
  4.465193e+00    3.100529e+00
  4.496944e+00    3.168404e+00
  4.528695e+00    3.103958e+00
  4.560446e+00    3.054671e+00
  4.592197e+00    3.082092e+00
  4.623948e+00    3.155698e+00
  4.655699e+00    3.001644e+00
  4.687451e+00    3.141484e+00
  4.719202e+00    3.158814e+00
  4.750953e+00    3.156496e+00
  4.782704e+00    3.096299e+00
  4.814455e+00    3.101234e+00
  4.846206e+00    3.140547e+00
  4.877957e+00    3.176386e+00
  4.909709e+00    3.097402e+00
  4.941460e+00    3.149894e+00
  4.973211e+00    3.151216e+00
  5.004962e+00    3.093775e+00
  5.036713e+00    3.159682e+00
  5.068464e+00    3.157489e+00
  5.100216e+00    3.102328e+00
  5.131967e+00    3.145452e+00
  5.163718e+00    3.126889e+00
  5.195469e+00    3.175537e+00
  5.227220e+00    3.133413e+00
  5.258971e+00    3.192599e+00
  5.290722e+00    3.127874e+00
  5.322474e+00    3.094642e+00
  5.354225e+00    3.134296e+00
  5.385976e+00    3.171760e+00
  5.417727e+00    3.128490e+00
  5.449478e+00    3.211550e+00
  5.481229e+00    3.106141e+00
  5.512980e+00    3.030946e+00
  5.544732e+00    3.102263e+00
  5.576483e+00    3.137134e+00
  5.608234e+00    3.049392e+00
  5.639985e+00    3.103708e+00
  5.671736e+00    3.085793e+00
  5.703487e+00    3.087123e+00
  5.735238e+00    3.080507e+00
  5.766990e+00    3.107440e+00
  5.798741e+00    3.127733e+00
  5.830492e+00    3.135534e+00
  5.862243e+00    3.156819e+00
  5.893994e+00    3.039226e+00
  5.925745e+00    3.067585e+00
  5.957497e+00    3.038017e+00
  5.989248e+00    3.061266e+00
  6.020999e+00    3.126760e+00
  6.052750e+00    3.013128e+00
  6.084501e+00    3.098542e+00
  6.116252e+00    3.074390e+00
  6.148003e+00    3.046561e+00
  6.179755e+00    3.035353e+00
  6.211506e+00    3.044463e+00
  6.243257e+00    3.045869e+00
  6.275008e+00    3.061178e+00
  6.306759e+00    3.124935e+00
  6.338510e+00    3.028164e+00
  6.370261e+00    3.018744e+00
  6.402013e+00    3.079041e+00
  6.433764e+00    3.057343e+00
  6.465515e+00    3.103301e+00
  6.497266e+00    3.031803e+00
  6.529017e+00    2.988253e+00
  6.560768e+00    2.997108e+00
  6.592519e+00    3.114106e+00
  6.624271e+00    3.035093e+00
  6.656022e+00    3.068751e+00
  6.687773e+00    3.000591e+00
  6.719524e+00    3.092195e+00
  6.751275e+00    3.046637e+00
  6.783026e+00    3.069855e+00
  6.814777e+00    3.001955e+00
  6.846529e+00    3.016383e+00
  6.878280e+00    3.016572e+00
  6.910031e+00    3.027174e+00
  6.941782e+00    3.055459e+00
  6.973533e+00    2.956234e+00
  7.005284e+00    3.067836e+00
  7.037036e+00    3.092826e+00
  7.068787e+00    3.048678e+00
  7.100538e+00    3.078400e+00
  7.132289e+00    3.064440e+00
  7.164040e+00    2.998936e+00
  7.195791e+00    2.993745e+00
  7.227542e+00    3.051471e+00
  7.259294e+00    3.023589e+00
  7.291045e+00    3.011535e+00
  7.322796e+00    2.992355e+00
  7.354547e+00    2.993615e+00
  7.386298e+00    2.977682e+00
  7.418049e+00    2.996685e+00
  7.449800e+00    3.064466e+00
  7.481552e+00    2.948047e+00
  7.513303e+00    2.974761e+00
  7.545054e+00    2.996111e+00
  7.576805e+00    3.033913e+00
  7.608556e+00    3.058958e+00
  7.640307e+00    2.942177e+00
  7.672058e+00    2.954377e+00
  7.703810e+00    3.019100e+00
  7.735561e+00    3.026716e+00
  7.767312e+00    2.989823e+00
  7.799063e+00    2.994243e+00
  7.830814e+00    3.005064e+00
  7.862565e+00    2.930353e+00
  7.894317e+00    2.910816e+00
  7.926068e+00    2.943336e+00
  7.957819e+00    2.967721e+00
  7.989570e+00    2.987893e+00
  8.021321e+00    2.951309e+00
  8.053072e+00    2.899129e+00
  8.084823e+00    2.982938e+00
  8.116575e+00    2.993132e+00
  8.148326e+00    3.040069e+00
  8.180077e+00    3.011370e+00
  8.211828e+00    2.979404e+00
  8.243579e+00    3.018961e+00
  8.275330e+00    2.984599e+00
  8.307081e+00    2.899503e+00
  8.338833e+00    2.943390e+00
  8.370584e+00    2.966757e+00
  8.402335e+00    2.962954e+00
  8.434086e+00    2.895178e+00
  8.465837e+00    2.876457e+00
  8.497588e+00    2.953355e+00
  8.529339e+00    2.872388e+00
  8.561091e+00    2.891837e+00
  8.592842e+00    2.926910e+00
  8.624593e+00    2.923015e+00
  8.656344e+00    2.860389e+00
  8.688095e+00    2.904668e+00
  8.719846e+00    2.841726e+00
  8.751598e+00    2.868361e+00
  8.783349e+00    2.892113e+00
  8.815100e+00    2.890629e+00
  8.846851e+00    2.858198e+00
  8.878602e+00    2.892395e+00
  8.910353e+00    2.855689e+00
  8.942104e+00    2.829696e+00
  8.973856e+00    2.851883e+00
  9.005607e+00    2.904277e+00
  9.037358e+00    2.785574e+00
  9.069109e+00    2.769468e+00
  9.100860e+00    2.810017e+00
  9.132611e+00    2.883029e+00
  9.164362e+00    2.809057e+00
  9.196114e+00    2.914555e+00
  9.227865e+00    2.804419e+00
  9.259616e+00    2.809450e+00
  9.291367e+00    2.825122e+00
  9.323118e+00    2.803616e+00
  9.354869e+00    2.773467e+00
  9.386620e+00    2.821288e+00
  9.418372e+00    2.742163e+00
  9.450123e+00    2.801064e+00
  9.481874e+00    2.831292e+00
  9.513625e+00    2.760667e+00
  9.545376e+00    2.786756e+00
  9.577127e+00    2.802571e+00
  9.608878e+00    2.818971e+00
  9.640630e+00    2.749907e+00
  9.672381e+00    2.722481e+00
  9.704132e+00    2.751478e+00
  9.735883e+00    2.733356e+00
  9.767634e+00    2.740858e+00
  9.799385e+00    2.737200e+00
  9.831137e+00    2.773747e+00
  9.862888e+00    2.677336e+00
  9.894639e+00    2.668930e+00
  9.926390e+00    2.746121e+00
  9.958141e+00    2.697560e+00
  9.989892e+00    2.699041e+00
  1.002164e+01    2.693370e+00
  1.005339e+01    2.643614e+00
  1.008515e+01    2.665188e+00
  1.011690e+01    2.703110e+00
  1.014865e+01    2.701256e+00
  1.018040e+01    2.708541e+00
  1.021215e+01    2.652905e+00
  1.024390e+01    2.660160e+00
  1.027565e+01    2.658416e+00
  1.030740e+01    2.626579e+00
  1.033915e+01    2.609770e+00
  1.037091e+01    2.663103e+00
  1.040266e+01    2.584655e+00
  1.043441e+01    2.615584e+00
  1.046616e+01    2.613862e+00
  1.049791e+01    2.661850e+00
  1.052966e+01    2.604458e+00
  1.056141e+01    2.644741e+00
  1.059316e+01    2.641175e+00
  1.062492e+01    2.581162e+00
  1.065667e+01    2.544605e+00
  1.068842e+01    2.566644e+00
  1.072017e+01    2.557187e+00
  1.075192e+01    2.514623e+00
  1.078367e+01    2.551650e+00
  1.081542e+01    2.569834e+00
  1.084717e+01    2.572722e+00
  1.087892e+01    2.585247e+00
  1.091068e+01    2.555532e+00
  1.094243e+01    2.519504e+00
  1.097418e+01    2.544008e+00
  1.100593e+01    2.510645e+00
  1.103768e+01    2.497545e+00
  1.106943e+01    2.526188e+00
  1.110118e+01    2.500034e+00
  1.113293e+01    2.502081e+00
  1.116468e+01    2.511711e+00
  1.119644e+01    2.493236e+00
  1.122819e+01    2.478897e+00
  1.125994e+01    2.436161e+00
  1.129169e+01    2.464008e+00
  1.132344e+01    2.432868e+00
  1.135519e+01    2.420148e+00
  1.138694e+01    2.438173e+00
  1.141869e+01    2.442330e+00
  1.145045e+01    2.393935e+00
  1.148220e+01    2.423217e+00
  1.151395e+01    2.475427e+00
  1.154570e+01    2.434305e+00
  1.157745e+01    2.403274e+00
  1.160920e+01    2.418977e+00
  1.164095e+01    2.413707e+00
  1.167270e+01    2.383149e+00
  1.170445e+01    2.375978e+00
  1.173621e+01    2.380637e+00
  1.176796e+01    2.348061e+00
  1.179971e+01    2.413469e+00
  1.183146e+01    2.390033e+00
  1.186321e+01    2.389048e+00
  1.189496e+01    2.371164e+00
  1.192671e+01    2.370653e+00
  1.195846e+01    2.355718e+00
  1.199021e+01    2.337059e+00
  1.202197e+01    2.385481e+00
  1.205372e+01    2.335323e+00
  1.208547e+01    2.391662e+00
  1.211722e+01    2.349907e+00
  1.214897e+01    2.362091e+00
  1.218072e+01    2.333639e+00
  1.221247e+01    2.291648e+00
  1.224422e+01    2.310771e+00
  1.227597e+01    2.311074e+00
  1.230773e+01    2.358768e+00
  1.233948e+01    2.342216e+00
  1.237123e+01    2.374897e+00
  1.240298e+01    2.367557e+00
  1.243473e+01    2.374516e+00
  1.246648e+01    2.362409e+00
  1.249823e+01    2.364435e+00
  1.252998e+01    2.349010e+00
  1.256174e+01    2.431906e+00
  1.259349e+01    2.467492e+00
  1.262524e+01    2.453914e+00
  1.265699e+01    2.485397e+00
  1.268874e+01    2.467591e+00
  1.272049e+01    2.563311e+00
  1.275224e+01    2.637718e+00
  1.278399e+01    2.630878e+00
  1.281574e+01    2.722371e+00
  1.284750e+01    2.849931e+00
  1.287925e+01    2.952082e+00
  1.291100e+01    3.297662e+00
  1.294275e+01    3.706394e+00
  1.297450e+01    4.246005e+00
  1.300625e+01    5.067100e+00
  1.303800e+01    6.521404e+00
  1.306975e+01    8.909375e+00
  1.310150e+01    1.189957e+01
  1.313326e+01    1.496874e+01
  1.316501e+01    1.795233e+01
  1.319676e+01    1.994692e+01
  1.322851e+01    1.882677e+01
  1.326026e+01    1.440295e+01
  1.329201e+01    1.008417e+01
  1.332376e+01    7.353776e+00
  1.335551e+01    5.691497e+00
  1.338727e+01    4.574431e+00
  1.341902e+01    3.872089e+00
  1.345077e+01    3.394457e+00
  1.348252e+01    3.046969e+00
  1.351427e+01    2.824528e+00
  1.354602e+01    2.707435e+00
  1.357777e+01    2.602589e+00
  1.360952e+01    2.518244e+00
  1.364127e+01    2.417620e+00
  1.367303e+01    2.337826e+00
  1.370478e+01    2.301396e+00
  1.373653e+01    2.307860e+00
  1.376828e+01    2.270133e+00
  1.380003e+01    2.211508e+00
  1.383178e+01    2.242626e+00
  1.386353e+01    2.136662e+00
  1.389528e+01    2.181270e+00
  1.392703e+01    2.116524e+00
  1.395879e+01    2.141421e+00
  1.399054e+01    2.119390e+00
  1.402229e+01    2.101556e+00
  1.405404e+01    2.096940e+00
  1.408579e+01    2.084189e+00
  1.411754e+01    2.016461e+00
  1.414929e+01    2.061055e+00
  1.418104e+01    2.074477e+00
  1.421279e+01    2.045143e+00
  1.424455e+01    2.027272e+00
  1.427630e+01    2.020233e+00
  1.430805e+01    1.964288e+00
  1.433980e+01    1.987449e+00
  1.437155e+01    1.997315e+00
  1.440330e+01    1.985709e+00
  1.443505e+01    1.972018e+00
  1.446680e+01    1.993320e+00
  1.449856e+01    1.967460e+00
  1.453031e+01    1.944523e+00
  1.456206e+01    1.937368e+00
  1.459381e+01    1.958702e+00
  1.462556e+01    1.954338e+00
  1.465731e+01    1.928958e+00
  1.468906e+01    1.900006e+00
  1.472081e+01    1.920273e+00
  1.475256e+01    1.946277e+00
  1.478432e+01    1.920377e+00
  1.481607e+01    1.920797e+00
  1.484782e+01    1.965351e+00
  1.487957e+01    1.957058e+00
  1.491132e+01    2.010816e+00
  1.494307e+01    2.068194e+00
  1.497482e+01    2.051280e+00
  1.500657e+01    2.127063e+00
  1.503832e+01    2.249567e+00
  1.507008e+01    2.427624e+00
  1.510183e+01    2.773143e+00
  1.513358e+01    3.238158e+00
  1.516533e+01    3.891578e+00
  1.519708e+01    4.778565e+00
  1.522883e+01    5.710603e+00
  1.526058e+01    6.345969e+00
  1.529233e+01    6.671120e+00
  1.532409e+01    6.411921e+00
  1.535584e+01    5.101306e+00
  1.538759e+01    4.033964e+00
  1.541934e+01    3.177382e+00
  1.545109e+01    2.689337e+00
  1.548284e+01    2.417188e+00
  1.551459e+01    2.194989e+00
  1.554634e+01    2.064766e+00
  1.557809e+01    2.003946e+00
  1.560985e+01    1.887698e+00
  1.564160e+01    1.885609e+00
  1.567335e+01    1.815139e+00
  1.570510e+01    1.775425e+00
  1.573685e+01    1.750890e+00
  1.576860e+01    1.720790e+00
  1.580035e+01    1.704911e+00
  1.583210e+01    1.708844e+00
  1.586385e+01    1.674552e+00
  1.589561e+01    1.664044e+00
  1.592736e+01    1.703519e+00
  1.595911e+01    1.676719e+00
  1.599086e+01    1.678151e+00
  1.602261e+01    1.615191e+00
  1.605436e+01    1.614182e+00
  1.608611e+01    1.651847e+00
  1.611786e+01    1.592760e+00
  1.614961e+01    1.629583e+00
  1.618137e+01    1.579721e+00
  1.621312e+01    1.605750e+00
  1.624487e+01    1.590511e+00
  1.627662e+01    1.595025e+00
  1.630837e+01    1.591108e+00
  1.634012e+01    1.602482e+00
  1.637187e+01    1.547679e+00
  1.640362e+01    1.577612e+00
  1.643538e+01    1.536937e+00
  1.646713e+01    1.546532e+00
  1.649888e+01    1.513770e+00
  1.653063e+01    1.542669e+00
  1.656238e+01    1.529535e+00
  1.659413e+01    1.539123e+00
  1.662588e+01    1.514713e+00
  1.665763e+01    1.490369e+00
  1.668938e+01    1.510722e+00
  1.672114e+01    1.490359e+00
  1.675289e+01    1.480883e+00
  1.678464e+01    1.479948e+00
  1.681639e+01    1.485940e+00
  1.684814e+01    1.490785e+00
  1.687989e+01    1.496950e+00
  1.691164e+01    1.456442e+00
  1.694339e+01    1.456590e+00
  1.697514e+01    1.451245e+00
  1.700690e+01    1.440409e+00
  1.703865e+01    1.444066e+00
  1.707040e+01    1.448183e+00
  1.710215e+01    1.452986e+00
  1.713390e+01    1.454785e+00
  1.716565e+01    1.462384e+00
  1.719740e+01    1.433101e+00
  1.722915e+01    1.412713e+00
  1.726091e+01    1.387986e+00
  1.729266e+01    1.430809e+00
  1.732441e+01    1.365441e+00
  1.735616e+01    1.395359e+00
  1.738791e+01    1.385388e+00
  1.741966e+01    1.433169e+00
  1.745141e+01    1.377927e+00
  1.748316e+01    1.412708e+00
  1.751491e+01    1.387336e+00
  1.754667e+01    1.351843e+00
  1.757842e+01    1.376560e+00
  1.761017e+01    1.370363e+00
  1.764192e+01    1.358202e+00
  1.767367e+01    1.317187e+00
  1.770542e+01    1.356794e+00
  1.773717e+01    1.329796e+00
  1.776892e+01    1.335251e+00
  1.780067e+01    1.376308e+00
  1.783243e+01    1.352198e+00
  1.786418e+01    1.346540e+00
  1.789593e+01    1.350119e+00
  1.792768e+01    1.336247e+00
  1.795943e+01    1.318613e+00
  1.799118e+01    1.301800e+00
  1.802293e+01    1.328703e+00
  1.805468e+01    1.325725e+00
  1.808643e+01    1.288702e+00
  1.811819e+01    1.319552e+00
  1.814994e+01    1.283385e+00
  1.818169e+01    1.308176e+00
  1.821344e+01    1.291647e+00
  1.824519e+01    1.285643e+00
  1.827694e+01    1.304860e+00
  1.830869e+01    1.310371e+00
  1.834044e+01    1.283050e+00
  1.837220e+01    1.299169e+00
  1.840395e+01    1.285620e+00
  1.843570e+01    1.254292e+00
  1.846745e+01    1.289079e+00
  1.849920e+01    1.267283e+00
  1.853095e+01    1.256292e+00
  1.856270e+01    1.260201e+00
  1.859445e+01    1.228851e+00
  1.862620e+01    1.233621e+00
  1.865796e+01    1.263373e+00
  1.868971e+01    1.234288e+00
  1.872146e+01    1.260967e+00
  1.875321e+01    1.265143e+00
  1.878496e+01    1.225997e+00
  1.881671e+01    1.249676e+00
  1.884846e+01    1.232738e+00
  1.888021e+01    1.199032e+00
  1.891196e+01    1.220800e+00
  1.894372e+01    1.195419e+00
  1.897547e+01    1.235019e+00
  1.900722e+01    1.232019e+00
  1.903897e+01    1.233670e+00
  1.907072e+01    1.223154e+00
  1.910247e+01    1.195267e+00
  1.913422e+01    1.201761e+00
  1.916597e+01    1.185321e+00
  1.919773e+01    1.215881e+00
  1.922948e+01    1.204694e+00
  1.926123e+01    1.196417e+00
  1.929298e+01    1.205308e+00
  1.932473e+01    1.168148e+00
  1.935648e+01    1.209617e+00
  1.938823e+01    1.181766e+00
  1.941998e+01    1.211190e+00
  1.945173e+01    1.183813e+00
  1.948349e+01    1.177037e+00
  1.951524e+01    1.157590e+00
  1.954699e+01    1.157817e+00
  1.957874e+01    1.190089e+00
  1.961049e+01    1.169535e+00
  1.964224e+01    1.150156e+00
  1.967399e+01    1.169380e+00
  1.970574e+01    1.158132e+00
  1.973749e+01    1.133600e+00
  1.976925e+01    1.129436e+00
  1.980100e+01    1.158392e+00
  1.983275e+01    1.147841e+00
  1.986450e+01    1.130915e+00
  1.989625e+01    1.157466e+00
  1.992800e+01    1.148349e+00
  1.995975e+01    1.116588e+00
  1.999150e+01    1.135034e+00
  2.002325e+01    1.140808e+00
  2.005501e+01    1.122394e+00
  2.008676e+01    1.142642e+00
  2.011851e+01    1.114863e+00
  2.015026e+01    1.116352e+00
  2.018201e+01    1.138252e+00
  2.021376e+01    1.119591e+00
  2.024551e+01    1.122129e+00
  2.027726e+01    1.120745e+00
  2.030902e+01    1.119150e+00
  2.034077e+01    1.123376e+00
  2.037252e+01    1.109646e+00
  2.040427e+01    1.118458e+00
  2.043602e+01    1.126152e+00
  2.046777e+01    1.118846e+00
  2.049952e+01    1.116445e+00
  2.053127e+01    1.125761e+00
  2.056302e+01    1.087567e+00
  2.059478e+01    1.107222e+00
  2.062653e+01    1.082783e+00
  2.065828e+01    1.094939e+00
  2.069003e+01    1.094790e+00
  2.072178e+01    1.089910e+00
  2.075353e+01    1.098608e+00
  2.078528e+01    1.088855e+00
  2.081703e+01    1.117812e+00
  2.084878e+01    1.109408e+00
  2.088054e+01    1.100018e+00
  2.091229e+01    1.096698e+00
  2.094404e+01    1.099812e+00
  2.097579e+01    1.095842e+00
  2.100754e+01    1.091095e+00
  2.103929e+01    1.108396e+00
  2.107104e+01    1.130624e+00
  2.110279e+01    1.095268e+00
  2.113455e+01    1.132532e+00
  2.116630e+01    1.121172e+00
  2.119805e+01    1.111473e+00
  2.122980e+01    1.090175e+00
  2.126155e+01    1.112553e+00
  2.129330e+01    1.139472e+00
  2.132505e+01    1.181304e+00
  2.135680e+01    1.182929e+00
  2.138855e+01    1.165445e+00
  2.142031e+01    1.210712e+00
  2.145206e+01    1.257537e+00
  2.148381e+01    1.254064e+00
  2.151556e+01    1.318979e+00
  2.154731e+01    1.358401e+00
  2.157906e+01    1.449296e+00
  2.161081e+01    1.539887e+00
  2.164256e+01    1.688447e+00
  2.167431e+01    1.927387e+00
  2.170607e+01    2.271323e+00
  2.173782e+01    2.775547e+00
  2.176957e+01    3.576662e+00
  2.180132e+01    4.731196e+00
  2.183307e+01    6.211031e+00
  2.186482e+01    7.882172e+00
  2.189657e+01    9.729547e+00
  2.192832e+01    1.100842e+01
  2.196007e+01    1.077258e+01
  2.199183e+01    8.807598e+00
  2.202358e+01    6.434783e+00
  2.205533e+01    4.583896e+00
  2.208708e+01    3.415468e+00
  2.211883e+01    2.671733e+00
  2.215058e+01    2.208727e+00
  2.218233e+01    1.909942e+00
  2.221408e+01    1.668425e+00
  2.224584e+01    1.511191e+00
  2.227759e+01    1.377674e+00
  2.230934e+01    1.308818e+00
  2.234109e+01    1.249125e+00
  2.237284e+01    1.236060e+00
  2.240459e+01    1.157895e+00
  2.243634e+01    1.138680e+00
  2.246809e+01    1.135423e+00
  2.249984e+01    1.099097e+00
  2.253160e+01    1.066995e+00
  2.256335e+01    1.053829e+00
  2.259510e+01    1.033775e+00
  2.262685e+01    1.018101e+00
  2.265860e+01    9.996845e-01
  2.269035e+01    1.019519e+00
  2.272210e+01    9.742559e-01
  2.275385e+01    9.683844e-01
  2.278560e+01    9.808161e-01
  2.281736e+01    9.326643e-01
  2.284911e+01    9.470580e-01
  2.288086e+01    9.599634e-01
  2.291261e+01    9.279806e-01
  2.294436e+01    9.198101e-01
  2.297611e+01    9.329842e-01
  2.300786e+01    9.149286e-01
  2.303961e+01    9.081714e-01
  2.307137e+01    9.100337e-01
  2.310312e+01    8.935881e-01
  2.313487e+01    9.122232e-01
  2.316662e+01    8.985764e-01
  2.319837e+01    8.732991e-01
  2.323012e+01    9.036437e-01
  2.326187e+01    8.871789e-01
  2.329362e+01    9.028019e-01
  2.332537e+01    8.518608e-01
  2.335713e+01    8.649513e-01
  2.338888e+01    8.722731e-01
  2.342063e+01    8.560438e-01
  2.345238e+01    8.730593e-01
  2.348413e+01    8.633588e-01
  2.351588e+01    8.664201e-01
  2.354763e+01    8.576780e-01
  2.357938e+01    8.464216e-01
  2.361113e+01    8.570942e-01
  2.364289e+01    8.521392e-01
  2.367464e+01    8.409415e-01
  2.370639e+01    8.406320e-01
  2.373814e+01    8.207311e-01
  2.376989e+01    8.325101e-01
  2.380164e+01    8.173035e-01
  2.383339e+01    8.314940e-01
  2.386514e+01    8.185467e-01
  2.389689e+01    8.069627e-01
  2.392865e+01    8.249113e-01
  2.396040e+01    8.302019e-01
  2.399215e+01    7.952034e-01
  2.402390e+01    8.202789e-01
  2.405565e+01    8.121267e-01
  2.408740e+01    8.274698e-01
  2.411915e+01    8.164023e-01
  2.415090e+01    8.079734e-01
  2.418266e+01    7.801332e-01
  2.421441e+01    7.754608e-01
  2.424616e+01    7.847168e-01
  2.427791e+01    7.870600e-01
  2.430966e+01    8.011467e-01
  2.434141e+01    8.101259e-01
  2.437316e+01    8.084563e-01
  2.440491e+01    8.027012e-01
  2.443666e+01    8.201352e-01
  2.446842e+01    8.027754e-01
  2.450017e+01    8.141328e-01
  2.453192e+01    7.884660e-01
  2.456367e+01    8.009371e-01
  2.459542e+01    7.868961e-01
  2.462717e+01    8.170921e-01
  2.465892e+01    7.962847e-01
  2.469067e+01    8.066465e-01
  2.472242e+01    8.068087e-01
  2.475418e+01    8.124706e-01
  2.478593e+01    8.172075e-01
  2.481768e+01    8.052394e-01
  2.484943e+01    8.050048e-01
  2.488118e+01    7.995539e-01
  2.491293e+01    8.122874e-01
  2.494468e+01    8.166895e-01
  2.497643e+01    8.132550e-01
  2.500819e+01    8.004069e-01
  2.503994e+01    7.988389e-01
  2.507169e+01    8.158746e-01
  2.510344e+01    8.374684e-01
  2.513519e+01    8.451439e-01
  2.516694e+01    8.284237e-01
  2.519869e+01    8.369858e-01
  2.523044e+01    8.625996e-01
  2.526219e+01    8.704185e-01
  2.529395e+01    8.706330e-01
  2.532570e+01    8.788981e-01
  2.535745e+01    8.990648e-01
  2.538920e+01    8.974435e-01
  2.542095e+01    9.248364e-01
  2.545270e+01    9.268350e-01
  2.548445e+01    9.615505e-01
  2.551620e+01    9.896265e-01
  2.554795e+01    1.002800e+00
  2.557971e+01    1.057397e+00
  2.561146e+01    1.098057e+00
  2.564321e+01    1.179927e+00
  2.567496e+01    1.257506e+00
  2.570671e+01    1.339374e+00
  2.573846e+01    1.549709e+00
  2.577021e+01    1.797396e+00
  2.580196e+01    2.160063e+00
  2.583371e+01    2.663246e+00
  2.586547e+01    3.489354e+00
  2.589722e+01    4.631614e+00
  2.592897e+01    6.109097e+00
  2.596072e+01    7.755481e+00
  2.599247e+01    8.997949e+00
  2.602422e+01    9.267828e+00
  2.605597e+01    7.997230e+00
  2.608772e+01    6.146368e+00
  2.611948e+01    4.420447e+00
  2.615123e+01    3.277439e+00
  2.618298e+01    2.490711e+00
  2.621473e+01    2.065965e+00
  2.624648e+01    1.741705e+00
  2.627823e+01    1.544240e+00
  2.630998e+01    1.362422e+00
  2.634173e+01    1.239336e+00
  2.637348e+01    1.164088e+00
  2.640524e+01    1.101096e+00
  2.643699e+01    1.068913e+00
  2.646874e+01    1.068813e+00
  2.650049e+01    1.005701e+00
  2.653224e+01    9.980753e-01
  2.656399e+01    9.811384e-01
  2.659574e+01    9.467351e-01
  2.662749e+01    9.506645e-01
  2.665924e+01    9.580007e-01
  2.669100e+01    9.597066e-01
  2.672275e+01    9.388782e-01
  2.675450e+01    9.320134e-01
  2.678625e+01    9.042492e-01
  2.681800e+01    9.316789e-01
  2.684975e+01    9.495632e-01
  2.688150e+01    9.351164e-01
  2.691325e+01    9.325071e-01
  2.694501e+01    9.578892e-01
  2.697676e+01    9.631252e-01
  2.700851e+01    1.014773e+00
  2.704026e+01    1.065784e+00
  2.707201e+01    1.150443e+00
  2.710376e+01    1.236697e+00
  2.713551e+01    1.437883e+00
  2.716726e+01    1.695316e+00
  2.719901e+01    2.023009e+00
  2.723077e+01    2.387337e+00
  2.726252e+01    2.621906e+00
  2.729427e+01    2.546871e+00
  2.732602e+01    2.250544e+00
  2.735777e+01    1.873894e+00
  2.738952e+01    1.559231e+00
  2.742127e+01    1.353509e+00
  2.745302e+01    1.162719e+00
  2.748477e+01    1.084521e+00
  2.751653e+01    1.042165e+00
  2.754828e+01    9.712818e-01
  2.758003e+01    9.417149e-01
  2.761178e+01    9.152161e-01
  2.764353e+01    9.047746e-01
  2.767528e+01    8.863646e-01
  2.770703e+01    8.615708e-01
  2.773878e+01    8.625228e-01
  2.777054e+01    8.525293e-01
  2.780229e+01    8.540873e-01
  2.783404e+01    8.343124e-01
  2.786579e+01    8.271838e-01
  2.789754e+01    8.148680e-01
  2.792929e+01    8.249690e-01
  2.796104e+01    8.332811e-01
  2.799279e+01    8.271363e-01
  2.802454e+01    8.085331e-01
  2.805630e+01    8.082753e-01
  2.808805e+01    8.115774e-01
  2.811980e+01    7.993037e-01
  2.815155e+01    8.095219e-01
  2.818330e+01    8.098258e-01
  2.821505e+01    8.040803e-01
  2.824680e+01    7.976105e-01
  2.827855e+01    7.946371e-01
  2.831030e+01    7.936005e-01
  2.834206e+01    7.767519e-01
  2.837381e+01    7.896820e-01
  2.840556e+01    7.947184e-01
  2.843731e+01    7.946085e-01
  2.846906e+01    7.720125e-01
  2.850081e+01    7.845027e-01
  2.853256e+01    7.758685e-01
  2.856431e+01    7.794493e-01
  2.859606e+01    7.818966e-01
  2.862782e+01    7.732405e-01
  2.865957e+01    7.809046e-01
  2.869132e+01    7.662567e-01
  2.872307e+01    7.859724e-01
  2.875482e+01    7.612219e-01
  2.878657e+01    7.757958e-01
  2.881832e+01    7.452865e-01
  2.885007e+01    7.590607e-01
  2.888183e+01    7.542133e-01
  2.891358e+01    7.762494e-01
  2.894533e+01    7.599633e-01
  2.897708e+01    7.324547e-01
  2.900883e+01    7.716710e-01
  2.904058e+01    7.562435e-01
  2.907233e+01    7.484607e-01
  2.910408e+01    7.505560e-01
  2.913583e+01    7.401745e-01
  2.916759e+01    7.485194e-01
  2.919934e+01    7.601538e-01
  2.923109e+01    7.409258e-01
  2.926284e+01    7.654558e-01
  2.929459e+01    7.448268e-01
  2.932634e+01    7.420703e-01
  2.935809e+01    7.544079e-01
  2.938984e+01    7.455602e-01
  2.942159e+01    7.182207e-01
  2.945335e+01    7.606633e-01
  2.948510e+01    7.454591e-01
  2.951685e+01    7.422792e-01
  2.954860e+01    7.333302e-01
  2.958035e+01    7.285171e-01
  2.961210e+01    7.423074e-01
  2.964385e+01    7.164879e-01
  2.967560e+01    7.162740e-01
  2.970736e+01    7.314463e-01
  2.973911e+01    7.341489e-01
  2.977086e+01    7.256579e-01
  2.980261e+01    7.441939e-01
  2.983436e+01    7.288579e-01
  2.986611e+01    7.250970e-01
  2.989786e+01    7.323778e-01
  2.992961e+01    7.398229e-01
  2.996136e+01    7.306991e-01
  2.999312e+01    7.385998e-01
  3.002487e+01    7.432054e-01
  3.005662e+01    7.508468e-01
  3.008837e+01    7.607517e-01
  3.012012e+01    7.278996e-01
  3.015187e+01    7.251635e-01
  3.018362e+01    7.147600e-01
  3.021537e+01    7.454655e-01
  3.024712e+01    7.254495e-01
  3.027888e+01    7.196436e-01
  3.031063e+01    7.186081e-01
  3.034238e+01    7.140428e-01
  3.037413e+01    7.205597e-01
  3.040588e+01    7.282548e-01
  3.043763e+01    7.074044e-01
  3.046938e+01    7.353871e-01
  3.050113e+01    7.083635e-01
  3.053288e+01    7.520799e-01
  3.056464e+01    7.055684e-01
  3.059639e+01    7.168779e-01
  3.062814e+01    7.268723e-01
  3.065989e+01    6.996163e-01
  3.069164e+01    7.337075e-01
  3.072339e+01    7.370201e-01
  3.075514e+01    7.367594e-01
  3.078689e+01    7.194421e-01
  3.081865e+01    7.422708e-01
  3.085040e+01    7.254892e-01
  3.088215e+01    7.539760e-01
  3.091390e+01    7.281787e-01
  3.094565e+01    7.340848e-01
  3.097740e+01    7.341672e-01
  3.100915e+01    7.312601e-01
  3.104090e+01    7.239033e-01
  3.107265e+01    7.159382e-01
  3.110441e+01    7.548755e-01
  3.113616e+01    7.569929e-01
  3.116791e+01    7.565938e-01
  3.119966e+01    7.255301e-01
  3.123141e+01    7.436590e-01
  3.126316e+01    7.465793e-01
  3.129491e+01    7.544939e-01
  3.132666e+01    7.703005e-01
  3.135841e+01    7.473275e-01
  3.139017e+01    7.547741e-01
  3.142192e+01    7.521722e-01
  3.145367e+01    7.547027e-01
  3.148542e+01    7.900416e-01
  3.151717e+01    7.655329e-01
  3.154892e+01    7.758741e-01
  3.158067e+01    8.078240e-01
  3.161242e+01    8.229262e-01
  3.164418e+01    8.464922e-01
  3.167593e+01    8.799314e-01
  3.170768e+01    9.237976e-01
  3.173943e+01    9.626730e-01
  3.177118e+01    1.045748e+00
  3.180293e+01    1.173390e+00
  3.183468e+01    1.372171e+00
  3.186643e+01    1.640840e+00
  3.189818e+01    2.017288e+00
  3.192994e+01    2.360081e+00
  3.196169e+01    2.611852e+00
  3.199344e+01    2.563334e+00
  3.202519e+01    2.236509e+00
  3.205694e+01    1.835106e+00
  3.208869e+01    1.476720e+00
  3.212044e+01    1.253301e+00
  3.215219e+01    1.087247e+00
  3.218394e+01    1.020835e+00
  3.221570e+01    9.072586e-01
  3.224745e+01    8.763400e-01
  3.227920e+01    8.472402e-01
  3.231095e+01    8.382524e-01
  3.234270e+01    8.175044e-01
  3.237445e+01    7.649983e-01
  3.240620e+01    7.623751e-01
  3.243795e+01    7.451728e-01
  3.246970e+01    7.554209e-01
  3.250146e+01    7.418307e-01
  3.253321e+01    7.402259e-01
  3.254908e+01    7.566329e-01