File: XRD/2024-07-27_002_Ru-CGO-ex_Activtation_ramp_000002_data_000038.dat
# == pyFAI calibration ==
# Distance Sample to Detector: 0.4 m
# PONI: 9.750e-02, 1.135e-01 m
# Rotations: -0.000175 0.000000 -0.000000 rad
#
# == Fit2d calibration ==
# Distance Sample-beamCenter: 400.000 mm
# Center: x=1514.000, y=1300.000 pix
# Tilt: 0.010 deg  TiltPlanRot: 0.010 deg
#
# Detector Detector	 Spline= None	 PixelSize= 7.500e-05, 7.500e-05 m
#    Detector has a mask: False
#    Detector has a dark current: False
#    detector has a flat field: False
#
# Wavelength: 6.888e-11 m
# Mask applied: user provided
# Dark current applied: False
# Flat field applied: False
# Polarization factor: 0.99
# Normalization factor: 1.0
# --> /home/myspot/data/2024_07_Rosario/Ru-CGO-ex/2024-07-27_002_Ru-CGO-ex_Activtation_ramp_000002_data_000038.dat
#       q_nm^-1             I
  2.003187e-02    0.000000e+00
  5.178302e-02    4.781393e-02
  8.353417e-02    1.450709e-01
  1.152853e-01    6.261969e-03
  1.470365e-01    4.088449e-02
  1.787876e-01    6.570202e-02
  2.105388e-01    2.106920e-02
  2.422899e-01    7.012007e-03
  2.740411e-01    4.732898e-02
  3.057922e-01    2.945030e-02
  3.375433e-01    6.555617e-02
  3.692945e-01    2.981707e-02
  4.010456e-01    2.404370e-02
  4.327968e-01    5.496494e-02
  4.645479e-01    3.053164e-02
  4.962991e-01    3.422076e-02
  5.280502e-01    2.659019e-02
  5.598014e-01    3.631703e-02
  5.915525e-01    3.447567e-02
  6.233037e-01    2.135113e-02
  6.550548e-01    3.098799e-02
  6.868060e-01    7.329872e-02
  7.185571e-01    3.985865e-02
  7.503083e-01    5.736966e-02
  7.820594e-01    1.045245e-01
  8.138106e-01    1.733835e-01
  8.455617e-01    3.643419e-01
  8.773129e-01    4.458513e-01
  9.090640e-01    5.883795e-01
  9.408152e-01    7.123567e-01
  9.725663e-01    8.602719e-01
  1.004317e+00    1.017425e+00
  1.036069e+00    1.163562e+00
  1.067820e+00    1.268199e+00
  1.099571e+00    1.395233e+00
  1.131322e+00    1.449964e+00
  1.163073e+00    1.402704e+00
  1.194824e+00    1.605324e+00
  1.226575e+00    2.081776e+00
  1.258327e+00    2.318798e+00
  1.290078e+00    2.456052e+00
  1.321829e+00    2.553483e+00
  1.353580e+00    2.499599e+00
  1.385331e+00    2.744832e+00
  1.417082e+00    2.778761e+00
  1.448834e+00    2.803819e+00
  1.480585e+00    3.112823e+00
  1.512336e+00    2.873523e+00
  1.544087e+00    3.090369e+00
  1.575838e+00    3.019848e+00
  1.607589e+00    2.901994e+00
  1.639340e+00    3.057746e+00
  1.671092e+00    2.903227e+00
  1.702843e+00    2.925213e+00
  1.734594e+00    3.023065e+00
  1.766345e+00    2.850706e+00
  1.798096e+00    2.789502e+00
  1.829847e+00    2.774901e+00
  1.861598e+00    2.855032e+00
  1.893350e+00    2.873682e+00
  1.925101e+00    2.774499e+00
  1.956852e+00    2.771974e+00
  1.988603e+00    2.910463e+00
  2.020354e+00    2.829669e+00
  2.052105e+00    2.873418e+00
  2.083856e+00    2.812403e+00
  2.115608e+00    2.649190e+00
  2.147359e+00    2.924127e+00
  2.179110e+00    2.799031e+00
  2.210861e+00    2.834582e+00
  2.242612e+00    2.905816e+00
  2.274363e+00    2.759495e+00
  2.306115e+00    2.806336e+00
  2.337866e+00    2.779684e+00
  2.369617e+00    2.771642e+00
  2.401368e+00    2.838979e+00
  2.433119e+00    2.740687e+00
  2.464870e+00    2.762852e+00
  2.496621e+00    2.884629e+00
  2.528373e+00    2.798045e+00
  2.560124e+00    2.813987e+00
  2.591875e+00    2.836016e+00
  2.623626e+00    2.810108e+00
  2.655377e+00    2.854572e+00
  2.687128e+00    2.879083e+00
  2.718879e+00    2.759700e+00
  2.750631e+00    2.894619e+00
  2.782382e+00    2.860783e+00
  2.814133e+00    2.755082e+00
  2.845884e+00    2.789846e+00
  2.877635e+00    2.865930e+00
  2.909386e+00    2.935638e+00
  2.941137e+00    2.822021e+00
  2.972889e+00    2.842726e+00
  3.004640e+00    2.908295e+00
  3.036391e+00    2.963521e+00
  3.068142e+00    2.848646e+00
  3.099893e+00    2.864937e+00
  3.131644e+00    2.922774e+00
  3.163395e+00    2.975760e+00
  3.195147e+00    2.890695e+00
  3.226898e+00    2.932233e+00
  3.258649e+00    2.968378e+00
  3.290400e+00    2.943849e+00
  3.322151e+00    2.939104e+00
  3.353902e+00    2.911383e+00
  3.385654e+00    2.955653e+00
  3.417405e+00    2.967206e+00
  3.449156e+00    2.878461e+00
  3.480907e+00    2.957351e+00
  3.512658e+00    3.018660e+00
  3.544409e+00    2.963372e+00
  3.576160e+00    3.043480e+00
  3.607912e+00    2.986490e+00
  3.639663e+00    2.975992e+00
  3.671414e+00    3.040210e+00
  3.703165e+00    2.899201e+00
  3.734916e+00    2.973060e+00
  3.766667e+00    2.932544e+00
  3.798418e+00    2.984138e+00
  3.830170e+00    2.906659e+00
  3.861921e+00    3.003320e+00
  3.893672e+00    3.036836e+00
  3.925423e+00    3.047417e+00
  3.957174e+00    3.064336e+00
  3.988925e+00    2.927748e+00
  4.020676e+00    3.079799e+00
  4.052428e+00    3.057341e+00
  4.084179e+00    3.062416e+00
  4.115930e+00    3.011151e+00
  4.147681e+00    3.082225e+00
  4.179432e+00    3.090479e+00
  4.211183e+00    3.120499e+00
  4.242935e+00    3.182233e+00
  4.274686e+00    3.113625e+00
  4.306437e+00    3.141173e+00
  4.338188e+00    3.011848e+00
  4.369939e+00    3.032830e+00
  4.401690e+00    3.076474e+00
  4.433441e+00    3.065186e+00
  4.465193e+00    3.108086e+00
  4.496944e+00    3.192605e+00
  4.528695e+00    3.047696e+00
  4.560446e+00    3.101161e+00
  4.592197e+00    3.092881e+00
  4.623948e+00    3.064155e+00
  4.655699e+00    3.066265e+00
  4.687451e+00    3.101831e+00
  4.719202e+00    3.053159e+00
  4.750953e+00    3.272307e+00
  4.782704e+00    3.119018e+00
  4.814455e+00    3.067810e+00
  4.846206e+00    3.177176e+00
  4.877957e+00    3.102017e+00
  4.909709e+00    3.130734e+00
  4.941460e+00    3.133046e+00
  4.973211e+00    3.143731e+00
  5.004962e+00    3.101559e+00
  5.036713e+00    3.134058e+00
  5.068464e+00    3.137138e+00
  5.100216e+00    3.144102e+00
  5.131967e+00    3.149230e+00
  5.163718e+00    3.090076e+00
  5.195469e+00    3.213013e+00
  5.227220e+00    3.128088e+00
  5.258971e+00    3.072082e+00
  5.290722e+00    3.149852e+00
  5.322474e+00    3.169093e+00
  5.354225e+00    3.095613e+00
  5.385976e+00    3.158099e+00
  5.417727e+00    3.100384e+00
  5.449478e+00    3.129061e+00
  5.481229e+00    3.082101e+00
  5.512980e+00    3.138501e+00
  5.544732e+00    3.084615e+00
  5.576483e+00    3.227196e+00
  5.608234e+00    3.059399e+00
  5.639985e+00    3.111866e+00
  5.671736e+00    3.073052e+00
  5.703487e+00    3.109219e+00
  5.735238e+00    3.051084e+00
  5.766990e+00    3.091512e+00
  5.798741e+00    3.084280e+00
  5.830492e+00    3.103619e+00
  5.862243e+00    3.122754e+00
  5.893994e+00    3.012615e+00
  5.925745e+00    3.002666e+00
  5.957497e+00    3.052540e+00
  5.989248e+00    3.034047e+00
  6.020999e+00    2.939215e+00
  6.052750e+00    2.987406e+00
  6.084501e+00    3.084441e+00
  6.116252e+00    3.048022e+00
  6.148003e+00    3.046409e+00
  6.179755e+00    3.044950e+00
  6.211506e+00    3.102747e+00
  6.243257e+00    3.088491e+00
  6.275008e+00    3.086118e+00
  6.306759e+00    3.100410e+00
  6.338510e+00    3.031116e+00
  6.370261e+00    3.084300e+00
  6.402013e+00    3.056257e+00
  6.433764e+00    3.035149e+00
  6.465515e+00    3.079102e+00
  6.497266e+00    3.034628e+00
  6.529017e+00    3.049730e+00
  6.560768e+00    3.035563e+00
  6.592519e+00    3.071520e+00
  6.624271e+00    3.058548e+00
  6.656022e+00    2.998638e+00
  6.687773e+00    3.051538e+00
  6.719524e+00    2.949060e+00
  6.751275e+00    2.989522e+00
  6.783026e+00    3.071034e+00
  6.814777e+00    3.033920e+00
  6.846529e+00    3.076424e+00
  6.878280e+00    2.987795e+00
  6.910031e+00    3.019272e+00
  6.941782e+00    3.029445e+00
  6.973533e+00    3.033860e+00
  7.005284e+00    3.052669e+00
  7.037036e+00    3.102226e+00
  7.068787e+00    3.078818e+00
  7.100538e+00    2.970645e+00
  7.132289e+00    3.027187e+00
  7.164040e+00    3.080757e+00
  7.195791e+00    3.022780e+00
  7.227542e+00    3.025761e+00
  7.259294e+00    3.037699e+00
  7.291045e+00    3.008868e+00
  7.322796e+00    3.007189e+00
  7.354547e+00    3.009598e+00
  7.386298e+00    3.000024e+00
  7.418049e+00    3.003848e+00
  7.449800e+00    2.944298e+00
  7.481552e+00    2.970974e+00
  7.513303e+00    3.022245e+00
  7.545054e+00    3.022871e+00
  7.576805e+00    2.967396e+00
  7.608556e+00    2.983500e+00
  7.640307e+00    2.933651e+00
  7.672058e+00    2.973014e+00
  7.703810e+00    2.966833e+00
  7.735561e+00    2.968889e+00
  7.767312e+00    2.944150e+00
  7.799063e+00    2.992475e+00
  7.830814e+00    2.941004e+00
  7.862565e+00    2.962769e+00
  7.894317e+00    2.908867e+00
  7.926068e+00    2.917115e+00
  7.957819e+00    2.947960e+00
  7.989570e+00    2.906386e+00
  8.021321e+00    2.944419e+00
  8.053072e+00    2.982260e+00
  8.084823e+00    2.932979e+00
  8.116575e+00    2.969609e+00
  8.148326e+00    2.991880e+00
  8.180077e+00    2.961949e+00
  8.211828e+00    2.987317e+00
  8.243579e+00    2.990262e+00
  8.275330e+00    2.959832e+00
  8.307081e+00    2.973561e+00
  8.338833e+00    2.943301e+00
  8.370584e+00    2.913554e+00
  8.402335e+00    2.948514e+00
  8.434086e+00    2.872702e+00
  8.465837e+00    2.907793e+00
  8.497588e+00    2.926708e+00
  8.529339e+00    2.885444e+00
  8.561091e+00    2.877961e+00
  8.592842e+00    2.920492e+00
  8.624593e+00    2.911057e+00
  8.656344e+00    2.892834e+00
  8.688095e+00    2.907082e+00
  8.719846e+00    2.832443e+00
  8.751598e+00    2.895216e+00
  8.783349e+00    2.894100e+00
  8.815100e+00    2.835115e+00
  8.846851e+00    2.857553e+00
  8.878602e+00    2.854729e+00
  8.910353e+00    2.864676e+00
  8.942104e+00    2.853244e+00
  8.973856e+00    2.810281e+00
  9.005607e+00    2.784158e+00
  9.037358e+00    2.831708e+00
  9.069109e+00    2.835367e+00
  9.100860e+00    2.812660e+00
  9.132611e+00    2.812321e+00
  9.164362e+00    2.764889e+00
  9.196114e+00    2.755686e+00
  9.227865e+00    2.791948e+00
  9.259616e+00    2.758781e+00
  9.291367e+00    2.804303e+00
  9.323118e+00    2.769881e+00
  9.354869e+00    2.783624e+00
  9.386620e+00    2.736645e+00
  9.418372e+00    2.748099e+00
  9.450123e+00    2.760503e+00
  9.481874e+00    2.792115e+00
  9.513625e+00    2.818167e+00
  9.545376e+00    2.737317e+00
  9.577127e+00    2.778727e+00
  9.608878e+00    2.854729e+00
  9.640630e+00    2.779947e+00
  9.672381e+00    2.752846e+00
  9.704132e+00    2.742785e+00
  9.735883e+00    2.740976e+00
  9.767634e+00    2.703841e+00
  9.799385e+00    2.731485e+00
  9.831137e+00    2.751534e+00
  9.862888e+00    2.765239e+00
  9.894639e+00    2.758196e+00
  9.926390e+00    2.689714e+00
  9.958141e+00    2.674201e+00
  9.989892e+00    2.688410e+00
  1.002164e+01    2.719132e+00
  1.005339e+01    2.660323e+00
  1.008515e+01    2.678819e+00
  1.011690e+01    2.675487e+00
  1.014865e+01    2.663265e+00
  1.018040e+01    2.626829e+00
  1.021215e+01    2.675805e+00
  1.024390e+01    2.634814e+00
  1.027565e+01    2.626275e+00
  1.030740e+01    2.590107e+00
  1.033915e+01    2.630053e+00
  1.037091e+01    2.627932e+00
  1.040266e+01    2.595326e+00
  1.043441e+01    2.634540e+00
  1.046616e+01    2.661013e+00
  1.049791e+01    2.626826e+00
  1.052966e+01    2.579476e+00
  1.056141e+01    2.557909e+00
  1.059316e+01    2.586730e+00
  1.062492e+01    2.598704e+00
  1.065667e+01    2.619209e+00
  1.068842e+01    2.546582e+00
  1.072017e+01    2.595251e+00
  1.075192e+01    2.548440e+00
  1.078367e+01    2.519109e+00
  1.081542e+01    2.564848e+00
  1.084717e+01    2.522103e+00
  1.087892e+01    2.512379e+00
  1.091068e+01    2.513746e+00
  1.094243e+01    2.511388e+00
  1.097418e+01    2.549479e+00
  1.100593e+01    2.512167e+00
  1.103768e+01    2.517382e+00
  1.106943e+01    2.551786e+00
  1.110118e+01    2.486666e+00
  1.113293e+01    2.491310e+00
  1.116468e+01    2.460732e+00
  1.119644e+01    2.480353e+00
  1.122819e+01    2.428413e+00
  1.125994e+01    2.497145e+00
  1.129169e+01    2.487957e+00
  1.132344e+01    2.442391e+00
  1.135519e+01    2.478667e+00
  1.138694e+01    2.467049e+00
  1.141869e+01    2.423326e+00
  1.145045e+01    2.426889e+00
  1.148220e+01    2.438354e+00
  1.151395e+01    2.454626e+00
  1.154570e+01    2.401224e+00
  1.157745e+01    2.423012e+00
  1.160920e+01    2.396325e+00
  1.164095e+01    2.354035e+00
  1.167270e+01    2.382684e+00
  1.170445e+01    2.403668e+00
  1.173621e+01    2.410861e+00
  1.176796e+01    2.369564e+00
  1.179971e+01    2.348457e+00
  1.183146e+01    2.385590e+00
  1.186321e+01    2.360805e+00
  1.189496e+01    2.311080e+00
  1.192671e+01    2.403284e+00
  1.195846e+01    2.339353e+00
  1.199021e+01    2.344660e+00
  1.202197e+01    2.383034e+00
  1.205372e+01    2.360596e+00
  1.208547e+01    2.359123e+00
  1.211722e+01    2.372093e+00
  1.214897e+01    2.336056e+00
  1.218072e+01    2.399074e+00
  1.221247e+01    2.334303e+00
  1.224422e+01    2.348216e+00
  1.227597e+01    2.359529e+00
  1.230773e+01    2.411557e+00
  1.233948e+01    2.352617e+00
  1.237123e+01    2.398538e+00
  1.240298e+01    2.345897e+00
  1.243473e+01    2.340020e+00
  1.246648e+01    2.403022e+00
  1.249823e+01    2.381580e+00
  1.252998e+01    2.395662e+00
  1.256174e+01    2.386134e+00
  1.259349e+01    2.385074e+00
  1.262524e+01    2.436543e+00
  1.265699e+01    2.490449e+00
  1.268874e+01    2.495802e+00
  1.272049e+01    2.538500e+00
  1.275224e+01    2.563327e+00
  1.278399e+01    2.654475e+00
  1.281574e+01    2.753500e+00
  1.284750e+01    2.868920e+00
  1.287925e+01    3.080738e+00
  1.291100e+01    3.270378e+00
  1.294275e+01    3.660580e+00
  1.297450e+01    4.377053e+00
  1.300625e+01    5.267489e+00
  1.303800e+01    6.728785e+00
  1.306975e+01    9.063506e+00
  1.310150e+01    1.216531e+01
  1.313326e+01    1.498884e+01
  1.316501e+01    1.797038e+01
  1.319676e+01    1.952041e+01
  1.322851e+01    1.776212e+01
  1.326026e+01    1.331350e+01
  1.329201e+01    9.296617e+00
  1.332376e+01    6.784618e+00
  1.335551e+01    5.362629e+00
  1.338727e+01    4.304531e+00
  1.341902e+01    3.705538e+00
  1.345077e+01    3.279664e+00
  1.348252e+01    2.999388e+00
  1.351427e+01    2.845883e+00
  1.354602e+01    2.669411e+00
  1.357777e+01    2.580015e+00
  1.360952e+01    2.496033e+00
  1.364127e+01    2.383938e+00
  1.367303e+01    2.342452e+00
  1.370478e+01    2.292734e+00
  1.373653e+01    2.255761e+00
  1.376828e+01    2.245120e+00
  1.380003e+01    2.217695e+00
  1.383178e+01    2.152496e+00
  1.386353e+01    2.168778e+00
  1.389528e+01    2.114722e+00
  1.392703e+01    2.129586e+00
  1.395879e+01    2.123298e+00
  1.399054e+01    2.062266e+00
  1.402229e+01    2.064502e+00
  1.405404e+01    2.033724e+00
  1.408579e+01    2.047019e+00
  1.411754e+01    1.960463e+00
  1.414929e+01    2.054644e+00
  1.418104e+01    2.016611e+00
  1.421279e+01    2.024271e+00
  1.424455e+01    1.951668e+00
  1.427630e+01    2.006127e+00
  1.430805e+01    1.988298e+00
  1.433980e+01    1.967919e+00
  1.437155e+01    1.998751e+00
  1.440330e+01    1.946437e+00
  1.443505e+01    1.962247e+00
  1.446680e+01    1.975698e+00
  1.449856e+01    1.924401e+00
  1.453031e+01    1.929865e+00
  1.456206e+01    1.907906e+00
  1.459381e+01    1.934551e+00
  1.462556e+01    1.952142e+00
  1.465731e+01    1.924650e+00
  1.468906e+01    1.944391e+00
  1.472081e+01    1.925322e+00
  1.475256e+01    1.965401e+00
  1.478432e+01    1.952411e+00
  1.481607e+01    1.939727e+00
  1.484782e+01    1.948341e+00
  1.487957e+01    1.935089e+00
  1.491132e+01    1.980448e+00
  1.494307e+01    1.992487e+00
  1.497482e+01    2.070912e+00
  1.500657e+01    2.179949e+00
  1.503832e+01    2.255080e+00
  1.507008e+01    2.498520e+00
  1.510183e+01    2.803473e+00
  1.513358e+01    3.318543e+00
  1.516533e+01    4.028802e+00
  1.519708e+01    4.823095e+00
  1.522883e+01    5.754748e+00
  1.526058e+01    6.279557e+00
  1.529233e+01    6.544744e+00
  1.532409e+01    6.008042e+00
  1.535584e+01    4.858358e+00
  1.538759e+01    3.752311e+00
  1.541934e+01    3.091300e+00
  1.545109e+01    2.639335e+00
  1.548284e+01    2.345010e+00
  1.551459e+01    2.175719e+00
  1.554634e+01    2.048084e+00
  1.557809e+01    1.980795e+00
  1.560985e+01    1.887830e+00
  1.564160e+01    1.876450e+00
  1.567335e+01    1.780328e+00
  1.570510e+01    1.792581e+00
  1.573685e+01    1.743885e+00
  1.576860e+01    1.776844e+00
  1.580035e+01    1.767463e+00
  1.583210e+01    1.694131e+00
  1.586385e+01    1.674010e+00
  1.589561e+01    1.668929e+00
  1.592736e+01    1.623917e+00
  1.595911e+01    1.646542e+00
  1.599086e+01    1.637538e+00
  1.602261e+01    1.660496e+00
  1.605436e+01    1.608407e+00
  1.608611e+01    1.639496e+00
  1.611786e+01    1.612370e+00
  1.614961e+01    1.594310e+00
  1.618137e+01    1.589905e+00
  1.621312e+01    1.587144e+00
  1.624487e+01    1.570839e+00
  1.627662e+01    1.583789e+00
  1.630837e+01    1.561302e+00
  1.634012e+01    1.570881e+00
  1.637187e+01    1.524965e+00
  1.640362e+01    1.531038e+00
  1.643538e+01    1.554593e+00
  1.646713e+01    1.538146e+00
  1.649888e+01    1.518826e+00
  1.653063e+01    1.523468e+00
  1.656238e+01    1.504733e+00
  1.659413e+01    1.502271e+00
  1.662588e+01    1.508741e+00
  1.665763e+01    1.489143e+00
  1.668938e+01    1.485865e+00
  1.672114e+01    1.475079e+00
  1.675289e+01    1.460947e+00
  1.678464e+01    1.489808e+00
  1.681639e+01    1.470298e+00
  1.684814e+01    1.467726e+00
  1.687989e+01    1.474287e+00
  1.691164e+01    1.442999e+00
  1.694339e+01    1.483071e+00
  1.697514e+01    1.464364e+00
  1.700690e+01    1.452796e+00
  1.703865e+01    1.469549e+00
  1.707040e+01    1.453318e+00
  1.710215e+01    1.457669e+00
  1.713390e+01    1.428377e+00
  1.716565e+01    1.413411e+00
  1.719740e+01    1.403363e+00
  1.722915e+01    1.437652e+00
  1.726091e+01    1.408667e+00
  1.729266e+01    1.436477e+00
  1.732441e+01    1.401656e+00
  1.735616e+01    1.404000e+00
  1.738791e+01    1.387692e+00
  1.741966e+01    1.402530e+00
  1.745141e+01    1.392950e+00
  1.748316e+01    1.408016e+00
  1.751491e+01    1.374978e+00
  1.754667e+01    1.329316e+00
  1.757842e+01    1.387871e+00
  1.761017e+01    1.357187e+00
  1.764192e+01    1.364511e+00
  1.767367e+01    1.367700e+00
  1.770542e+01    1.369289e+00
  1.773717e+01    1.334058e+00
  1.776892e+01    1.349827e+00
  1.780067e+01    1.340001e+00
  1.783243e+01    1.346534e+00
  1.786418e+01    1.328135e+00
  1.789593e+01    1.339803e+00
  1.792768e+01    1.304032e+00
  1.795943e+01    1.345655e+00
  1.799118e+01    1.332341e+00
  1.802293e+01    1.330688e+00
  1.805468e+01    1.306180e+00
  1.808643e+01    1.282061e+00
  1.811819e+01    1.302505e+00
  1.814994e+01    1.307283e+00
  1.818169e+01    1.279505e+00
  1.821344e+01    1.277131e+00
  1.824519e+01    1.293867e+00
  1.827694e+01    1.279106e+00
  1.830869e+01    1.272526e+00
  1.834044e+01    1.265906e+00
  1.837220e+01    1.266159e+00
  1.840395e+01    1.270313e+00
  1.843570e+01    1.272158e+00
  1.846745e+01    1.263870e+00
  1.849920e+01    1.255667e+00
  1.853095e+01    1.281027e+00
  1.856270e+01    1.279210e+00
  1.859445e+01    1.274814e+00
  1.862620e+01    1.233348e+00
  1.865796e+01    1.229283e+00
  1.868971e+01    1.271812e+00
  1.872146e+01    1.256582e+00
  1.875321e+01    1.237570e+00
  1.878496e+01    1.222545e+00
  1.881671e+01    1.214383e+00
  1.884846e+01    1.229185e+00
  1.888021e+01    1.236780e+00
  1.891196e+01    1.232226e+00
  1.894372e+01    1.205772e+00
  1.897547e+01    1.215084e+00
  1.900722e+01    1.213663e+00
  1.903897e+01    1.213246e+00
  1.907072e+01    1.222161e+00
  1.910247e+01    1.205315e+00
  1.913422e+01    1.203890e+00
  1.916597e+01    1.192311e+00
  1.919773e+01    1.195403e+00
  1.922948e+01    1.207773e+00
  1.926123e+01    1.209948e+00
  1.929298e+01    1.167368e+00
  1.932473e+01    1.171797e+00
  1.935648e+01    1.211776e+00
  1.938823e+01    1.185227e+00
  1.941998e+01    1.196170e+00
  1.945173e+01    1.176145e+00
  1.948349e+01    1.194719e+00
  1.951524e+01    1.162248e+00
  1.954699e+01    1.182988e+00
  1.957874e+01    1.171736e+00
  1.961049e+01    1.174349e+00
  1.964224e+01    1.178930e+00
  1.967399e+01    1.118266e+00
  1.970574e+01    1.175201e+00
  1.973749e+01    1.146471e+00
  1.976925e+01    1.157056e+00
  1.980100e+01    1.172695e+00
  1.983275e+01    1.163948e+00
  1.986450e+01    1.162089e+00
  1.989625e+01    1.130844e+00
  1.992800e+01    1.144199e+00
  1.995975e+01    1.148481e+00
  1.999150e+01    1.135704e+00
  2.002325e+01    1.128753e+00
  2.005501e+01    1.143262e+00
  2.008676e+01    1.137770e+00
  2.011851e+01    1.110001e+00
  2.015026e+01    1.126275e+00
  2.018201e+01    1.121783e+00
  2.021376e+01    1.123152e+00
  2.024551e+01    1.110370e+00
  2.027726e+01    1.108067e+00
  2.030902e+01    1.105556e+00
  2.034077e+01    1.098464e+00
  2.037252e+01    1.114102e+00
  2.040427e+01    1.109715e+00
  2.043602e+01    1.095146e+00
  2.046777e+01    1.102581e+00
  2.049952e+01    1.111514e+00
  2.053127e+01    1.108618e+00
  2.056302e+01    1.078894e+00
  2.059478e+01    1.100243e+00
  2.062653e+01    1.102197e+00
  2.065828e+01    1.088657e+00
  2.069003e+01    1.093464e+00
  2.072178e+01    1.100779e+00
  2.075353e+01    1.104988e+00
  2.078528e+01    1.098026e+00
  2.081703e+01    1.071898e+00
  2.084878e+01    1.090274e+00
  2.088054e+01    1.099607e+00
  2.091229e+01    1.092949e+00
  2.094404e+01    1.087400e+00
  2.097579e+01    1.106670e+00
  2.100754e+01    1.104928e+00
  2.103929e+01    1.092440e+00
  2.107104e+01    1.097495e+00
  2.110279e+01    1.081302e+00
  2.113455e+01    1.111297e+00
  2.116630e+01    1.084874e+00
  2.119805e+01    1.129752e+00
  2.122980e+01    1.107421e+00
  2.126155e+01    1.133109e+00
  2.129330e+01    1.137457e+00
  2.132505e+01    1.145539e+00
  2.135680e+01    1.154937e+00
  2.138855e+01    1.159295e+00
  2.142031e+01    1.181332e+00
  2.145206e+01    1.238687e+00
  2.148381e+01    1.274932e+00
  2.151556e+01    1.308440e+00
  2.154731e+01    1.386278e+00
  2.157906e+01    1.442169e+00
  2.161081e+01    1.555137e+00
  2.164256e+01    1.721138e+00
  2.167431e+01    1.986968e+00
  2.170607e+01    2.368505e+00
  2.173782e+01    2.907804e+00
  2.176957e+01    3.744490e+00
  2.180132e+01    4.945055e+00
  2.183307e+01    6.507351e+00
  2.186482e+01    8.189318e+00
  2.189657e+01    9.839399e+00
  2.192832e+01    1.082705e+01
  2.196007e+01    1.006592e+01
  2.199183e+01    8.001758e+00
  2.202358e+01    5.750669e+00
  2.205533e+01    4.138559e+00
  2.208708e+01    3.084452e+00
  2.211883e+01    2.494317e+00
  2.215058e+01    2.060560e+00
  2.218233e+01    1.794269e+00
  2.221408e+01    1.607631e+00
  2.224584e+01    1.447386e+00
  2.227759e+01    1.368670e+00
  2.230934e+01    1.273049e+00
  2.234109e+01    1.231869e+00
  2.237284e+01    1.172213e+00
  2.240459e+01    1.155453e+00
  2.243634e+01    1.107189e+00
  2.246809e+01    1.092914e+00
  2.249984e+01    1.075284e+00
  2.253160e+01    1.042674e+00
  2.256335e+01    1.042329e+00
  2.259510e+01    1.038615e+00
  2.262685e+01    1.021616e+00
  2.265860e+01    9.925898e-01
  2.269035e+01    9.713950e-01
  2.272210e+01    9.566678e-01
  2.275385e+01    9.723763e-01
  2.278560e+01    9.368554e-01
  2.281736e+01    9.576475e-01
  2.284911e+01    9.518364e-01
  2.288086e+01    9.626917e-01
  2.291261e+01    9.344978e-01
  2.294436e+01    9.193249e-01
  2.297611e+01    9.113240e-01
  2.300786e+01    9.277095e-01
  2.303961e+01    9.063208e-01
  2.307137e+01    9.052618e-01
  2.310312e+01    9.010373e-01
  2.313487e+01    9.000117e-01
  2.316662e+01    8.860418e-01
  2.319837e+01    9.026573e-01
  2.323012e+01    9.035079e-01
  2.326187e+01    8.930415e-01
  2.329362e+01    8.764528e-01
  2.332537e+01    8.582630e-01
  2.335713e+01    8.948707e-01
  2.338888e+01    8.597079e-01
  2.342063e+01    8.626883e-01
  2.345238e+01    8.808221e-01
  2.348413e+01    8.628065e-01
  2.351588e+01    8.616534e-01
  2.354763e+01    8.515123e-01
  2.357938e+01    8.593920e-01
  2.361113e+01    8.564262e-01
  2.364289e+01    8.489959e-01
  2.367464e+01    8.644184e-01
  2.370639e+01    8.487732e-01
  2.373814e+01    8.329313e-01
  2.376989e+01    8.393189e-01
  2.380164e+01    8.088687e-01
  2.383339e+01    8.176849e-01
  2.386514e+01    8.226301e-01
  2.389689e+01    8.216408e-01
  2.392865e+01    7.964610e-01
  2.396040e+01    8.160238e-01
  2.399215e+01    8.195254e-01
  2.402390e+01    8.181182e-01
  2.405565e+01    7.938867e-01
  2.408740e+01    8.154508e-01
  2.411915e+01    8.119472e-01
  2.415090e+01    7.983888e-01
  2.418266e+01    7.943008e-01
  2.421441e+01    7.698188e-01
  2.424616e+01    8.169305e-01
  2.427791e+01    8.101599e-01
  2.430966e+01    8.014354e-01
  2.434141e+01    7.932796e-01
  2.437316e+01    8.140568e-01
  2.440491e+01    8.173025e-01
  2.443666e+01    8.009946e-01
  2.446842e+01    8.047486e-01
  2.450017e+01    8.115423e-01
  2.453192e+01    8.172392e-01
  2.456367e+01    8.065127e-01
  2.459542e+01    7.917731e-01
  2.462717e+01    7.971740e-01
  2.465892e+01    7.927578e-01
  2.469067e+01    8.166221e-01
  2.472242e+01    8.014434e-01
  2.475418e+01    8.190426e-01
  2.478593e+01    8.135878e-01
  2.481768e+01    7.973549e-01
  2.484943e+01    7.916073e-01
  2.488118e+01    7.991722e-01
  2.491293e+01    8.253955e-01
  2.494468e+01    8.170041e-01
  2.497643e+01    8.029597e-01
  2.500819e+01    8.018301e-01
  2.503994e+01    8.171968e-01
  2.507169e+01    8.116917e-01
  2.510344e+01    8.270882e-01
  2.513519e+01    8.345692e-01
  2.516694e+01    8.665286e-01
  2.519869e+01    8.555390e-01
  2.523044e+01    8.536981e-01
  2.526219e+01    8.864784e-01
  2.529395e+01    8.673244e-01
  2.532570e+01    8.834621e-01
  2.535745e+01    8.961224e-01
  2.538920e+01    9.121961e-01
  2.542095e+01    9.076282e-01
  2.545270e+01    9.283493e-01
  2.548445e+01    9.790434e-01
  2.551620e+01    9.928315e-01
  2.554795e+01    1.010046e+00
  2.557971e+01    1.040684e+00
  2.561146e+01    1.126668e+00
  2.564321e+01    1.177603e+00
  2.567496e+01    1.273944e+00
  2.570671e+01    1.400667e+00
  2.573846e+01    1.594392e+00
  2.577021e+01    1.847439e+00
  2.580196e+01    2.278436e+00
  2.583371e+01    2.840233e+00
  2.586547e+01    3.759790e+00
  2.589722e+01    4.977859e+00
  2.592897e+01    6.465669e+00
  2.596072e+01    7.971000e+00
  2.599247e+01    8.868644e+00
  2.602422e+01    8.570771e+00
  2.605597e+01    7.195121e+00
  2.608772e+01    5.284220e+00
  2.611948e+01    3.853914e+00
  2.615123e+01    2.931279e+00
  2.618298e+01    2.303447e+00
  2.621473e+01    1.874499e+00
  2.624648e+01    1.649458e+00
  2.627823e+01    1.453592e+00
  2.630998e+01    1.287945e+00
  2.634173e+01    1.194106e+00
  2.637348e+01    1.121225e+00
  2.640524e+01    1.077507e+00
  2.643699e+01    1.023534e+00
  2.646874e+01    1.023233e+00
  2.650049e+01    9.893465e-01
  2.653224e+01    9.615069e-01
  2.656399e+01    9.533513e-01
  2.659574e+01    9.478197e-01
  2.662749e+01    9.352276e-01
  2.665924e+01    9.295748e-01
  2.669100e+01    9.261634e-01
  2.672275e+01    9.320896e-01
  2.675450e+01    9.305109e-01
  2.678625e+01    9.092208e-01
  2.681800e+01    9.399085e-01
  2.684975e+01    9.187617e-01
  2.688150e+01    9.211409e-01
  2.691325e+01    9.359442e-01
  2.694501e+01    9.592773e-01
  2.697676e+01    9.730698e-01
  2.700851e+01    1.016176e+00
  2.704026e+01    1.077499e+00
  2.707201e+01    1.182189e+00
  2.710376e+01    1.273873e+00
  2.713551e+01    1.469503e+00
  2.716726e+01    1.749262e+00
  2.719901e+01    2.072570e+00
  2.723077e+01    2.441878e+00
  2.726252e+01    2.569650e+00
  2.729427e+01    2.410305e+00
  2.732602e+01    2.094496e+00
  2.735777e+01    1.703023e+00
  2.738952e+01    1.402172e+00
  2.742127e+01    1.253476e+00
  2.745302e+01    1.119749e+00
  2.748477e+01    1.054953e+00
  2.751653e+01    9.958270e-01
  2.754828e+01    9.696011e-01
  2.758003e+01    9.060018e-01
  2.761178e+01    9.010215e-01
  2.764353e+01    8.657479e-01
  2.767528e+01    8.487017e-01
  2.770703e+01    8.336717e-01
  2.773878e+01    8.406245e-01
  2.777054e+01    8.535903e-01
  2.780229e+01    8.126358e-01
  2.783404e+01    8.466070e-01
  2.786579e+01    8.466070e-01
  2.789754e+01    8.045503e-01
  2.792929e+01    8.049420e-01
  2.796104e+01    8.278086e-01
  2.799279e+01    8.091604e-01
  2.802454e+01    7.906919e-01
  2.805630e+01    8.065203e-01
  2.808805e+01    7.996289e-01
  2.811980e+01    7.968455e-01
  2.815155e+01    8.072603e-01
  2.818330e+01    8.035651e-01
  2.821505e+01    8.050302e-01
  2.824680e+01    7.917135e-01
  2.827855e+01    7.891122e-01
  2.831030e+01    8.088886e-01
  2.834206e+01    7.864565e-01
  2.837381e+01    7.887058e-01
  2.840556e+01    7.609711e-01
  2.843731e+01    7.780290e-01
  2.846906e+01    7.885593e-01
  2.850081e+01    7.751918e-01
  2.853256e+01    7.581745e-01
  2.856431e+01    7.715710e-01
  2.859606e+01    7.697120e-01
  2.862782e+01    7.952353e-01
  2.865957e+01    7.655854e-01
  2.869132e+01    7.638159e-01
  2.872307e+01    7.863234e-01
  2.875482e+01    7.603678e-01
  2.878657e+01    7.626384e-01
  2.881832e+01    7.866387e-01
  2.885007e+01    7.797822e-01
  2.888183e+01    7.504802e-01
  2.891358e+01    7.550540e-01
  2.894533e+01    7.583855e-01
  2.897708e+01    7.460850e-01
  2.900883e+01    7.516559e-01
  2.904058e+01    7.398453e-01
  2.907233e+01    7.511827e-01
  2.910408e+01    7.557151e-01
  2.913583e+01    7.382447e-01
  2.916759e+01    7.434118e-01
  2.919934e+01    7.530989e-01
  2.923109e+01    7.446472e-01
  2.926284e+01    7.428844e-01
  2.929459e+01    7.458446e-01
  2.932634e+01    7.495039e-01
  2.935809e+01    7.450399e-01
  2.938984e+01    7.490117e-01
  2.942159e+01    7.191036e-01
  2.945335e+01    7.348925e-01
  2.948510e+01    7.483374e-01
  2.951685e+01    7.681386e-01
  2.954860e+01    7.469474e-01
  2.958035e+01    7.348807e-01
  2.961210e+01    7.321707e-01
  2.964385e+01    7.406377e-01
  2.967560e+01    7.245862e-01
  2.970736e+01    7.245538e-01
  2.973911e+01    7.149247e-01
  2.977086e+01    7.157416e-01
  2.980261e+01    7.623188e-01
  2.983436e+01    7.231348e-01
  2.986611e+01    7.308774e-01
  2.989786e+01    7.310452e-01
  2.992961e+01    7.338659e-01
  2.996136e+01    7.449010e-01
  2.999312e+01    7.368823e-01
  3.002487e+01    7.456890e-01
  3.005662e+01    7.430876e-01
  3.008837e+01    7.390035e-01
  3.012012e+01    7.338214e-01
  3.015187e+01    7.227135e-01
  3.018362e+01    7.174194e-01
  3.021537e+01    7.342713e-01
  3.024712e+01    7.180117e-01
  3.027888e+01    7.361386e-01
  3.031063e+01    7.379770e-01
  3.034238e+01    7.277122e-01
  3.037413e+01    7.381232e-01
  3.040588e+01    7.236565e-01
  3.043763e+01    7.192877e-01
  3.046938e+01    7.126637e-01
  3.050113e+01    7.272146e-01
  3.053288e+01    7.298095e-01
  3.056464e+01    7.178034e-01
  3.059639e+01    7.155228e-01
  3.062814e+01    7.065494e-01
  3.065989e+01    7.405484e-01
  3.069164e+01    7.209686e-01
  3.072339e+01    7.175089e-01
  3.075514e+01    7.301444e-01
  3.078689e+01    7.179928e-01
  3.081865e+01    7.223660e-01
  3.085040e+01    6.931229e-01
  3.088215e+01    7.106526e-01
  3.091390e+01    7.246689e-01
  3.094565e+01    7.227165e-01
  3.097740e+01    7.165396e-01
  3.100915e+01    7.235381e-01
  3.104090e+01    7.282445e-01
  3.107265e+01    7.481313e-01
  3.110441e+01    7.452083e-01
  3.113616e+01    7.520970e-01
  3.116791e+01    7.456460e-01
  3.119966e+01    7.180378e-01
  3.123141e+01    7.187800e-01
  3.126316e+01    7.269074e-01
  3.129491e+01    7.519336e-01
  3.132666e+01    7.561012e-01
  3.135841e+01    7.574355e-01
  3.139017e+01    7.500116e-01
  3.142192e+01    7.369320e-01
  3.145367e+01    7.748281e-01
  3.148542e+01    7.851237e-01
  3.151717e+01    7.523423e-01
  3.154892e+01    7.902781e-01
  3.158067e+01    8.061417e-01
  3.161242e+01    8.082113e-01
  3.164418e+01    8.441470e-01
  3.167593e+01    9.025428e-01
  3.170768e+01    9.156222e-01
  3.173943e+01    1.013804e+00
  3.177118e+01    1.074479e+00
  3.180293e+01    1.229238e+00
  3.183468e+01    1.429433e+00
  3.186643e+01    1.754838e+00
  3.189818e+01    2.113113e+00
  3.192994e+01    2.440987e+00
  3.196169e+01    2.564022e+00
  3.199344e+01    2.430827e+00
  3.202519e+01    2.014941e+00
  3.205694e+01    1.654595e+00
  3.208869e+01    1.331938e+00
  3.212044e+01    1.182113e+00
  3.215219e+01    1.031073e+00
  3.218394e+01    9.552732e-01
  3.221570e+01    9.126020e-01
  3.224745e+01    8.350917e-01
  3.227920e+01    8.465112e-01
  3.231095e+01    8.067252e-01
  3.234270e+01    7.937654e-01
  3.237445e+01    7.891999e-01
  3.240620e+01    7.477189e-01
  3.243795e+01    7.583561e-01
  3.246970e+01    7.664072e-01
  3.250146e+01    7.275411e-01
  3.253321e+01    7.659825e-01
  3.254908e+01    7.235419e-01