File: XRD/2024-07-27_002_Ru-CGO-ex_Activtation_ramp_000002_data_000177.dat
# == pyFAI calibration ==
# Distance Sample to Detector: 0.4 m
# PONI: 9.750e-02, 1.135e-01 m
# Rotations: -0.000175 0.000000 -0.000000 rad
#
# == Fit2d calibration ==
# Distance Sample-beamCenter: 400.000 mm
# Center: x=1514.000, y=1300.000 pix
# Tilt: 0.010 deg  TiltPlanRot: 0.010 deg
#
# Detector Detector	 Spline= None	 PixelSize= 7.500e-05, 7.500e-05 m
#    Detector has a mask: False
#    Detector has a dark current: False
#    detector has a flat field: False
#
# Wavelength: 6.888e-11 m
# Mask applied: user provided
# Dark current applied: False
# Flat field applied: False
# Polarization factor: 0.99
# Normalization factor: 1.0
# --> /home/myspot/data/2024_07_Rosario/Ru-CGO-ex/2024-07-27_002_Ru-CGO-ex_Activtation_ramp_000002_data_000177.dat
#       q_nm^-1             I
  2.003187e-02    2.227120e-02
  5.178302e-02    3.063896e-01
  8.353417e-02    1.108470e-01
  1.152853e-01    2.271410e-02
  1.470365e-01    1.613366e-02
  1.787876e-01    8.283167e-02
  2.105388e-01    4.319880e-02
  2.422899e-01    2.442939e-02
  2.740411e-01    6.204928e-02
  3.057922e-01    6.684844e-02
  3.375433e-01    1.271215e-02
  3.692945e-01    3.773604e-02
  4.010456e-01    2.199435e-02
  4.327968e-01    6.388393e-02
  4.645479e-01    4.927416e-02
  4.962991e-01    9.564233e-03
  5.280502e-01    5.511636e-02
  5.598014e-01    6.268123e-02
  5.915525e-01    3.268741e-02
  6.233037e-01    3.922557e-02
  6.550548e-01    3.183285e-02
  6.868060e-01    4.140076e-02
  7.185571e-01    4.969256e-02
  7.503083e-01    2.083166e-02
  7.820594e-01    7.454681e-02
  8.138106e-01    1.862144e-01
  8.455617e-01    2.947363e-01
  8.773129e-01    4.792271e-01
  9.090640e-01    6.271814e-01
  9.408152e-01    7.710707e-01
  9.725663e-01    8.960155e-01
  1.004317e+00    1.010669e+00
  1.036069e+00    1.100622e+00
  1.067820e+00    1.272403e+00
  1.099571e+00    1.403465e+00
  1.131322e+00    1.406898e+00
  1.163073e+00    1.457013e+00
  1.194824e+00    1.689198e+00
  1.226575e+00    2.035729e+00
  1.258327e+00    2.185118e+00
  1.290078e+00    2.277281e+00
  1.321829e+00    2.408893e+00
  1.353580e+00    2.543028e+00
  1.385331e+00    2.467178e+00
  1.417082e+00    2.548308e+00
  1.448834e+00    2.677229e+00
  1.480585e+00    2.641129e+00
  1.512336e+00    2.860235e+00
  1.544087e+00    2.875908e+00
  1.575838e+00    2.804594e+00
  1.607589e+00    2.795683e+00
  1.639340e+00    2.758030e+00
  1.671092e+00    2.672130e+00
  1.702843e+00    2.762266e+00
  1.734594e+00    2.803070e+00
  1.766345e+00    2.748100e+00
  1.798096e+00    2.730915e+00
  1.829847e+00    2.666359e+00
  1.861598e+00    2.705695e+00
  1.893350e+00    2.615995e+00
  1.925101e+00    2.649048e+00
  1.956852e+00    2.640739e+00
  1.988603e+00    2.671182e+00
  2.020354e+00    2.709173e+00
  2.052105e+00    2.677539e+00
  2.083856e+00    2.776064e+00
  2.115608e+00    2.850800e+00
  2.147359e+00    2.742069e+00
  2.179110e+00    2.670756e+00
  2.210861e+00    2.832544e+00
  2.242612e+00    2.766021e+00
  2.274363e+00    2.596978e+00
  2.306115e+00    2.706078e+00
  2.337866e+00    2.708091e+00
  2.369617e+00    2.747030e+00
  2.401368e+00    2.739962e+00
  2.433119e+00    2.815577e+00
  2.464870e+00    2.719935e+00
  2.496621e+00    2.687795e+00
  2.528373e+00    2.873890e+00
  2.560124e+00    2.724862e+00
  2.591875e+00    2.820537e+00
  2.623626e+00    2.832229e+00
  2.655377e+00    2.885679e+00
  2.687128e+00    2.783242e+00
  2.718879e+00    2.860650e+00
  2.750631e+00    2.841719e+00
  2.782382e+00    2.701107e+00
  2.814133e+00    2.834722e+00
  2.845884e+00    2.787722e+00
  2.877635e+00    2.922544e+00
  2.909386e+00    2.910923e+00
  2.941137e+00    2.882419e+00
  2.972889e+00    2.967161e+00
  3.004640e+00    2.948858e+00
  3.036391e+00    2.796557e+00
  3.068142e+00    2.833831e+00
  3.099893e+00    2.752736e+00
  3.131644e+00    2.848856e+00
  3.163395e+00    2.841792e+00
  3.195147e+00    2.875350e+00
  3.226898e+00    2.994519e+00
  3.258649e+00    3.042091e+00
  3.290400e+00    2.909091e+00
  3.322151e+00    2.959177e+00
  3.353902e+00    2.957436e+00
  3.385654e+00    2.910704e+00
  3.417405e+00    2.971891e+00
  3.449156e+00    2.930011e+00
  3.480907e+00    3.011861e+00
  3.512658e+00    2.985492e+00
  3.544409e+00    2.982790e+00
  3.576160e+00    2.993080e+00
  3.607912e+00    3.025097e+00
  3.639663e+00    2.989199e+00
  3.671414e+00    2.965740e+00
  3.703165e+00    2.922012e+00
  3.734916e+00    2.982614e+00
  3.766667e+00    2.955281e+00
  3.798418e+00    3.086370e+00
  3.830170e+00    3.057852e+00
  3.861921e+00    3.040905e+00
  3.893672e+00    2.996133e+00
  3.925423e+00    3.039955e+00
  3.957174e+00    3.025283e+00
  3.988925e+00    3.005800e+00
  4.020676e+00    3.028701e+00
  4.052428e+00    3.063186e+00
  4.084179e+00    3.116056e+00
  4.115930e+00    3.003129e+00
  4.147681e+00    3.086403e+00
  4.179432e+00    2.988288e+00
  4.211183e+00    3.007543e+00
  4.242935e+00    3.037966e+00
  4.274686e+00    3.099637e+00
  4.306437e+00    3.023851e+00
  4.338188e+00    3.088325e+00
  4.369939e+00    3.022643e+00
  4.401690e+00    3.157831e+00
  4.433441e+00    3.004428e+00
  4.465193e+00    3.017689e+00
  4.496944e+00    3.199623e+00
  4.528695e+00    3.099497e+00
  4.560446e+00    3.037236e+00
  4.592197e+00    3.119831e+00
  4.623948e+00    3.049944e+00
  4.655699e+00    3.194221e+00
  4.687451e+00    3.101448e+00
  4.719202e+00    3.213472e+00
  4.750953e+00    3.319530e+00
  4.782704e+00    3.099306e+00
  4.814455e+00    3.055257e+00
  4.846206e+00    3.131473e+00
  4.877957e+00    3.236405e+00
  4.909709e+00    3.158362e+00
  4.941460e+00    3.158614e+00
  4.973211e+00    3.221438e+00
  5.004962e+00    3.175696e+00
  5.036713e+00    3.162938e+00
  5.068464e+00    3.167387e+00
  5.100216e+00    3.071148e+00
  5.131967e+00    3.126222e+00
  5.163718e+00    3.128805e+00
  5.195469e+00    3.129351e+00
  5.227220e+00    3.085571e+00
  5.258971e+00    3.085654e+00
  5.290722e+00    3.081569e+00
  5.322474e+00    3.121957e+00
  5.354225e+00    3.196119e+00
  5.385976e+00    3.126157e+00
  5.417727e+00    3.162045e+00
  5.449478e+00    3.100938e+00
  5.481229e+00    3.068115e+00
  5.512980e+00    3.127686e+00
  5.544732e+00    3.101579e+00
  5.576483e+00    3.051716e+00
  5.608234e+00    3.049924e+00
  5.639985e+00    3.049639e+00
  5.671736e+00    3.043391e+00
  5.703487e+00    3.085257e+00
  5.735238e+00    3.085690e+00
  5.766990e+00    3.058355e+00
  5.798741e+00    3.001778e+00
  5.830492e+00    3.156035e+00
  5.862243e+00    3.043062e+00
  5.893994e+00    3.112275e+00
  5.925745e+00    3.168418e+00
  5.957497e+00    3.135121e+00
  5.989248e+00    2.990155e+00
  6.020999e+00    3.025876e+00
  6.052750e+00    3.012673e+00
  6.084501e+00    3.074102e+00
  6.116252e+00    3.069979e+00
  6.148003e+00    3.036676e+00
  6.179755e+00    3.101467e+00
  6.211506e+00    3.036806e+00
  6.243257e+00    3.035786e+00
  6.275008e+00    3.063427e+00
  6.306759e+00    3.147635e+00
  6.338510e+00    3.030427e+00
  6.370261e+00    3.019276e+00
  6.402013e+00    2.973240e+00
  6.433764e+00    3.123452e+00
  6.465515e+00    3.059490e+00
  6.497266e+00    3.078227e+00
  6.529017e+00    3.033601e+00
  6.560768e+00    3.089922e+00
  6.592519e+00    3.043488e+00
  6.624271e+00    3.038726e+00
  6.656022e+00    3.031923e+00
  6.687773e+00    3.058484e+00
  6.719524e+00    3.051684e+00
  6.751275e+00    3.038499e+00
  6.783026e+00    3.072235e+00
  6.814777e+00    3.083954e+00
  6.846529e+00    3.038134e+00
  6.878280e+00    3.032311e+00
  6.910031e+00    3.028448e+00
  6.941782e+00    3.013651e+00
  6.973533e+00    2.970300e+00
  7.005284e+00    3.067548e+00
  7.037036e+00    3.030313e+00
  7.068787e+00    2.955447e+00
  7.100538e+00    3.057062e+00
  7.132289e+00    3.033780e+00
  7.164040e+00    3.045215e+00
  7.195791e+00    2.994055e+00
  7.227542e+00    3.025554e+00
  7.259294e+00    2.945993e+00
  7.291045e+00    2.965237e+00
  7.322796e+00    3.041770e+00
  7.354547e+00    2.906350e+00
  7.386298e+00    3.078909e+00
  7.418049e+00    2.998574e+00
  7.449800e+00    3.008492e+00
  7.481552e+00    3.006910e+00
  7.513303e+00    3.087407e+00
  7.545054e+00    3.086751e+00
  7.576805e+00    2.971788e+00
  7.608556e+00    3.036083e+00
  7.640307e+00    3.003028e+00
  7.672058e+00    2.974701e+00
  7.703810e+00    2.970442e+00
  7.735561e+00    2.988714e+00
  7.767312e+00    2.904760e+00
  7.799063e+00    2.968509e+00
  7.830814e+00    2.954150e+00
  7.862565e+00    2.949693e+00
  7.894317e+00    2.975302e+00
  7.926068e+00    2.986923e+00
  7.957819e+00    2.908494e+00
  7.989570e+00    2.944071e+00
  8.021321e+00    2.939115e+00
  8.053072e+00    2.964906e+00
  8.084823e+00    2.958179e+00
  8.116575e+00    2.952518e+00
  8.148326e+00    2.977606e+00
  8.180077e+00    2.981402e+00
  8.211828e+00    2.985564e+00
  8.243579e+00    2.939080e+00
  8.275330e+00    2.896966e+00
  8.307081e+00    2.959486e+00
  8.338833e+00    2.960950e+00
  8.370584e+00    2.911352e+00
  8.402335e+00    2.888893e+00
  8.434086e+00    2.882683e+00
  8.465837e+00    2.881767e+00
  8.497588e+00    2.939587e+00
  8.529339e+00    2.885622e+00
  8.561091e+00    2.946609e+00
  8.592842e+00    2.882629e+00
  8.624593e+00    2.896106e+00
  8.656344e+00    2.890746e+00
  8.688095e+00    2.896934e+00
  8.719846e+00    2.880798e+00
  8.751598e+00    2.904524e+00
  8.783349e+00    2.875730e+00
  8.815100e+00    2.877851e+00
  8.846851e+00    2.881766e+00
  8.878602e+00    2.851047e+00
  8.910353e+00    2.797914e+00
  8.942104e+00    2.913868e+00
  8.973856e+00    2.853710e+00
  9.005607e+00    2.886676e+00
  9.037358e+00    2.874182e+00
  9.069109e+00    2.767154e+00
  9.100860e+00    2.865673e+00
  9.132611e+00    2.821350e+00
  9.164362e+00    2.802076e+00
  9.196114e+00    2.858178e+00
  9.227865e+00    2.755376e+00
  9.259616e+00    2.820131e+00
  9.291367e+00    2.797392e+00
  9.323118e+00    2.736033e+00
  9.354869e+00    2.704137e+00
  9.386620e+00    2.806591e+00
  9.418372e+00    2.796845e+00
  9.450123e+00    2.835690e+00
  9.481874e+00    2.765038e+00
  9.513625e+00    2.759291e+00
  9.545376e+00    2.796699e+00
  9.577127e+00    2.785767e+00
  9.608878e+00    2.782459e+00
  9.640630e+00    2.757757e+00
  9.672381e+00    2.781438e+00
  9.704132e+00    2.775957e+00
  9.735883e+00    2.763208e+00
  9.767634e+00    2.649914e+00
  9.799385e+00    2.689029e+00
  9.831137e+00    2.750960e+00
  9.862888e+00    2.712329e+00
  9.894639e+00    2.698271e+00
  9.926390e+00    2.700781e+00
  9.958141e+00    2.691240e+00
  9.989892e+00    2.771915e+00
  1.002164e+01    2.771280e+00
  1.005339e+01    2.709889e+00
  1.008515e+01    2.656131e+00
  1.011690e+01    2.631100e+00
  1.014865e+01    2.571944e+00
  1.018040e+01    2.643872e+00
  1.021215e+01    2.628879e+00
  1.024390e+01    2.608208e+00
  1.027565e+01    2.681301e+00
  1.030740e+01    2.681063e+00
  1.033915e+01    2.670778e+00
  1.037091e+01    2.656580e+00
  1.040266e+01    2.632098e+00
  1.043441e+01    2.654959e+00
  1.046616e+01    2.575586e+00
  1.049791e+01    2.597311e+00
  1.052966e+01    2.578277e+00
  1.056141e+01    2.578844e+00
  1.059316e+01    2.534926e+00
  1.062492e+01    2.588420e+00
  1.065667e+01    2.600348e+00
  1.068842e+01    2.617778e+00
  1.072017e+01    2.560229e+00
  1.075192e+01    2.560707e+00
  1.078367e+01    2.544759e+00
  1.081542e+01    2.537660e+00
  1.084717e+01    2.533588e+00
  1.087892e+01    2.515412e+00
  1.091068e+01    2.516924e+00
  1.094243e+01    2.492286e+00
  1.097418e+01    2.514393e+00
  1.100593e+01    2.481810e+00
  1.103768e+01    2.466489e+00
  1.106943e+01    2.491824e+00
  1.110118e+01    2.497358e+00
  1.113293e+01    2.468990e+00
  1.116468e+01    2.462482e+00
  1.119644e+01    2.490012e+00
  1.122819e+01    2.453861e+00
  1.125994e+01    2.451990e+00
  1.129169e+01    2.412781e+00
  1.132344e+01    2.442658e+00
  1.135519e+01    2.448371e+00
  1.138694e+01    2.471217e+00
  1.141869e+01    2.435143e+00
  1.145045e+01    2.470193e+00
  1.148220e+01    2.426227e+00
  1.151395e+01    2.371933e+00
  1.154570e+01    2.398468e+00
  1.157745e+01    2.431365e+00
  1.160920e+01    2.405200e+00
  1.164095e+01    2.389320e+00
  1.167270e+01    2.380742e+00
  1.170445e+01    2.390424e+00
  1.173621e+01    2.362072e+00
  1.176796e+01    2.347152e+00
  1.179971e+01    2.374136e+00
  1.183146e+01    2.379805e+00
  1.186321e+01    2.377082e+00
  1.189496e+01    2.326268e+00
  1.192671e+01    2.345843e+00
  1.195846e+01    2.360088e+00
  1.199021e+01    2.338033e+00
  1.202197e+01    2.320345e+00
  1.205372e+01    2.387432e+00
  1.208547e+01    2.339662e+00
  1.211722e+01    2.341534e+00
  1.214897e+01    2.270334e+00
  1.218072e+01    2.330127e+00
  1.221247e+01    2.312578e+00
  1.224422e+01    2.362346e+00
  1.227597e+01    2.318301e+00
  1.230773e+01    2.352536e+00
  1.233948e+01    2.313032e+00
  1.237123e+01    2.333426e+00
  1.240298e+01    2.374018e+00
  1.243473e+01    2.342374e+00
  1.246648e+01    2.358595e+00
  1.249823e+01    2.350352e+00
  1.252998e+01    2.356911e+00
  1.256174e+01    2.376862e+00
  1.259349e+01    2.403150e+00
  1.262524e+01    2.384090e+00
  1.265699e+01    2.413896e+00
  1.268874e+01    2.427002e+00
  1.272049e+01    2.528740e+00
  1.275224e+01    2.506919e+00
  1.278399e+01    2.634153e+00
  1.281574e+01    2.705767e+00
  1.284750e+01    2.847217e+00
  1.287925e+01    3.022836e+00
  1.291100e+01    3.279773e+00
  1.294275e+01    3.746923e+00
  1.297450e+01    4.364585e+00
  1.300625e+01    5.470093e+00
  1.303800e+01    7.095965e+00
  1.306975e+01    9.430831e+00
  1.310150e+01    1.184525e+01
  1.313326e+01    1.415985e+01
  1.316501e+01    1.575866e+01
  1.319676e+01    1.540846e+01
  1.322851e+01    1.242431e+01
  1.326026e+01    8.964264e+00
  1.329201e+01    6.427566e+00
  1.332376e+01    5.023774e+00
  1.335551e+01    4.150142e+00
  1.338727e+01    3.546619e+00
  1.341902e+01    3.144626e+00
  1.345077e+01    2.871181e+00
  1.348252e+01    2.732023e+00
  1.351427e+01    2.601193e+00
  1.354602e+01    2.539525e+00
  1.357777e+01    2.401489e+00
  1.360952e+01    2.353451e+00
  1.364127e+01    2.289557e+00
  1.367303e+01    2.263298e+00
  1.370478e+01    2.222406e+00
  1.373653e+01    2.220701e+00
  1.376828e+01    2.187238e+00
  1.380003e+01    2.174945e+00
  1.383178e+01    2.160390e+00
  1.386353e+01    2.087143e+00
  1.389528e+01    2.125892e+00
  1.392703e+01    2.102420e+00
  1.395879e+01    2.082854e+00
  1.399054e+01    2.060369e+00
  1.402229e+01    2.066573e+00
  1.405404e+01    2.024374e+00
  1.408579e+01    2.036554e+00
  1.411754e+01    2.000991e+00
  1.414929e+01    2.055008e+00
  1.418104e+01    2.036775e+00
  1.421279e+01    1.970746e+00
  1.424455e+01    2.003288e+00
  1.427630e+01    1.957327e+00
  1.430805e+01    1.973219e+00
  1.433980e+01    1.943288e+00
  1.437155e+01    1.910812e+00
  1.440330e+01    1.930609e+00
  1.443505e+01    1.965409e+00
  1.446680e+01    1.918969e+00
  1.449856e+01    1.924279e+00
  1.453031e+01    1.917626e+00
  1.456206e+01    1.914362e+00
  1.459381e+01    1.918550e+00
  1.462556e+01    1.969275e+00
  1.465731e+01    1.920068e+00
  1.468906e+01    1.895512e+00
  1.472081e+01    1.929786e+00
  1.475256e+01    1.935755e+00
  1.478432e+01    1.886148e+00
  1.481607e+01    1.896115e+00
  1.484782e+01    1.960530e+00
  1.487957e+01    1.951607e+00
  1.491132e+01    1.945085e+00
  1.494307e+01    2.013925e+00
  1.497482e+01    2.059491e+00
  1.500657e+01    2.121379e+00
  1.503832e+01    2.306937e+00
  1.507008e+01    2.517353e+00
  1.510183e+01    2.842080e+00
  1.513358e+01    3.441352e+00
  1.516533e+01    4.149403e+00
  1.519708e+01    4.772270e+00
  1.522883e+01    5.282147e+00
  1.526058e+01    5.528289e+00
  1.529233e+01    5.209796e+00
  1.532409e+01    4.487772e+00
  1.535584e+01    3.600751e+00
  1.538759e+01    2.931922e+00
  1.541934e+01    2.477708e+00
  1.545109e+01    2.237141e+00
  1.548284e+01    2.068933e+00
  1.551459e+01    1.963164e+00
  1.554634e+01    1.926314e+00
  1.557809e+01    1.855547e+00
  1.560985e+01    1.790817e+00
  1.564160e+01    1.797498e+00
  1.567335e+01    1.773093e+00
  1.570510e+01    1.714863e+00
  1.573685e+01    1.751952e+00
  1.576860e+01    1.680880e+00
  1.580035e+01    1.671040e+00
  1.583210e+01    1.699892e+00
  1.586385e+01    1.650894e+00
  1.589561e+01    1.662727e+00
  1.592736e+01    1.648618e+00
  1.595911e+01    1.637704e+00
  1.599086e+01    1.650176e+00
  1.602261e+01    1.588363e+00
  1.605436e+01    1.636945e+00
  1.608611e+01    1.572891e+00
  1.611786e+01    1.605526e+00
  1.614961e+01    1.597289e+00
  1.618137e+01    1.572329e+00
  1.621312e+01    1.570350e+00
  1.624487e+01    1.576111e+00
  1.627662e+01    1.576395e+00
  1.630837e+01    1.521898e+00
  1.634012e+01    1.563431e+00
  1.637187e+01    1.525175e+00
  1.640362e+01    1.541908e+00
  1.643538e+01    1.522806e+00
  1.646713e+01    1.550611e+00
  1.649888e+01    1.520121e+00
  1.653063e+01    1.520889e+00
  1.656238e+01    1.493211e+00
  1.659413e+01    1.514647e+00
  1.662588e+01    1.512326e+00
  1.665763e+01    1.529669e+00
  1.668938e+01    1.470094e+00
  1.672114e+01    1.482427e+00
  1.675289e+01    1.476311e+00
  1.678464e+01    1.437200e+00
  1.681639e+01    1.459891e+00
  1.684814e+01    1.476102e+00
  1.687989e+01    1.445533e+00
  1.691164e+01    1.464359e+00
  1.694339e+01    1.445039e+00
  1.697514e+01    1.441856e+00
  1.700690e+01    1.455750e+00
  1.703865e+01    1.453544e+00
  1.707040e+01    1.429807e+00
  1.710215e+01    1.441396e+00
  1.713390e+01    1.430662e+00
  1.716565e+01    1.432486e+00
  1.719740e+01    1.429168e+00
  1.722915e+01    1.433868e+00
  1.726091e+01    1.418796e+00
  1.729266e+01    1.422809e+00
  1.732441e+01    1.383797e+00
  1.735616e+01    1.378198e+00
  1.738791e+01    1.369751e+00
  1.741966e+01    1.384499e+00
  1.745141e+01    1.381412e+00
  1.748316e+01    1.373793e+00
  1.751491e+01    1.401003e+00
  1.754667e+01    1.342031e+00
  1.757842e+01    1.371232e+00
  1.761017e+01    1.336707e+00
  1.764192e+01    1.345750e+00
  1.767367e+01    1.338405e+00
  1.770542e+01    1.345693e+00
  1.773717e+01    1.334267e+00
  1.776892e+01    1.385769e+00
  1.780067e+01    1.342728e+00
  1.783243e+01    1.320722e+00
  1.786418e+01    1.355551e+00
  1.789593e+01    1.327198e+00
  1.792768e+01    1.354644e+00
  1.795943e+01    1.301837e+00
  1.799118e+01    1.324605e+00
  1.802293e+01    1.298485e+00
  1.805468e+01    1.298203e+00
  1.808643e+01    1.283794e+00
  1.811819e+01    1.294117e+00
  1.814994e+01    1.291983e+00
  1.818169e+01    1.271834e+00
  1.821344e+01    1.282527e+00
  1.824519e+01    1.297873e+00
  1.827694e+01    1.263617e+00
  1.830869e+01    1.264046e+00
  1.834044e+01    1.263001e+00
  1.837220e+01    1.252463e+00
  1.840395e+01    1.272964e+00
  1.843570e+01    1.257494e+00
  1.846745e+01    1.270495e+00
  1.849920e+01    1.261287e+00
  1.853095e+01    1.249817e+00
  1.856270e+01    1.234392e+00
  1.859445e+01    1.250206e+00
  1.862620e+01    1.233594e+00
  1.865796e+01    1.222353e+00
  1.868971e+01    1.229414e+00
  1.872146e+01    1.258891e+00
  1.875321e+01    1.214018e+00
  1.878496e+01    1.238961e+00
  1.881671e+01    1.224702e+00
  1.884846e+01    1.212229e+00
  1.888021e+01    1.226520e+00
  1.891196e+01    1.197389e+00
  1.894372e+01    1.210092e+00
  1.897547e+01    1.207624e+00
  1.900722e+01    1.214121e+00
  1.903897e+01    1.147284e+00
  1.907072e+01    1.191736e+00
  1.910247e+01    1.184620e+00
  1.913422e+01    1.190333e+00
  1.916597e+01    1.175273e+00
  1.919773e+01    1.197362e+00
  1.922948e+01    1.207411e+00
  1.926123e+01    1.184994e+00
  1.929298e+01    1.210860e+00
  1.932473e+01    1.206756e+00
  1.935648e+01    1.176121e+00
  1.938823e+01    1.200374e+00
  1.941998e+01    1.168554e+00
  1.945173e+01    1.162185e+00
  1.948349e+01    1.140868e+00
  1.951524e+01    1.179995e+00
  1.954699e+01    1.179792e+00
  1.957874e+01    1.139804e+00
  1.961049e+01    1.144610e+00
  1.964224e+01    1.158222e+00
  1.967399e+01    1.159415e+00
  1.970574e+01    1.152694e+00
  1.973749e+01    1.135850e+00
  1.976925e+01    1.146262e+00
  1.980100e+01    1.139478e+00
  1.983275e+01    1.145512e+00
  1.986450e+01    1.097844e+00
  1.989625e+01    1.140726e+00
  1.992800e+01    1.114327e+00
  1.995975e+01    1.097981e+00
  1.999150e+01    1.144370e+00
  2.002325e+01    1.117213e+00
  2.005501e+01    1.117878e+00
  2.008676e+01    1.134814e+00
  2.011851e+01    1.092148e+00
  2.015026e+01    1.109710e+00
  2.018201e+01    1.094063e+00
  2.021376e+01    1.115238e+00
  2.024551e+01    1.131611e+00
  2.027726e+01    1.104202e+00
  2.030902e+01    1.101889e+00
  2.034077e+01    1.099746e+00
  2.037252e+01    1.099701e+00
  2.040427e+01    1.110126e+00
  2.043602e+01    1.100979e+00
  2.046777e+01    1.096787e+00
  2.049952e+01    1.065272e+00
  2.053127e+01    1.101747e+00
  2.056302e+01    1.095327e+00
  2.059478e+01    1.089336e+00
  2.062653e+01    1.109558e+00
  2.065828e+01    1.106640e+00
  2.069003e+01    1.115883e+00
  2.072178e+01    1.077263e+00
  2.075353e+01    1.077831e+00
  2.078528e+01    1.084898e+00
  2.081703e+01    1.080538e+00
  2.084878e+01    1.083872e+00
  2.088054e+01    1.077127e+00
  2.091229e+01    1.083465e+00
  2.094404e+01    1.061412e+00
  2.097579e+01    1.083577e+00
  2.100754e+01    1.071749e+00
  2.103929e+01    1.081905e+00
  2.107104e+01    1.088459e+00
  2.110279e+01    1.110231e+00
  2.113455e+01    1.087495e+00
  2.116630e+01    1.074399e+00
  2.119805e+01    1.097646e+00
  2.122980e+01    1.119085e+00
  2.126155e+01    1.112656e+00
  2.129330e+01    1.107469e+00
  2.132505e+01    1.155326e+00
  2.135680e+01    1.142897e+00
  2.138855e+01    1.138963e+00
  2.142031e+01    1.173829e+00
  2.145206e+01    1.207785e+00
  2.148381e+01    1.257867e+00
  2.151556e+01    1.311567e+00
  2.154731e+01    1.383342e+00
  2.157906e+01    1.481386e+00
  2.161081e+01    1.608948e+00
  2.164256e+01    1.818280e+00
  2.167431e+01    2.068053e+00
  2.170607e+01    2.600058e+00
  2.173782e+01    3.285217e+00
  2.176957e+01    4.294662e+00
  2.180132e+01    5.521684e+00
  2.183307e+01    6.881584e+00
  2.186482e+01    8.145724e+00
  2.189657e+01    8.815528e+00
  2.192832e+01    8.237533e+00
  2.196007e+01    6.521735e+00
  2.199183e+01    4.774507e+00
  2.202358e+01    3.470409e+00
  2.205533e+01    2.706505e+00
  2.208708e+01    2.166601e+00
  2.211883e+01    1.829152e+00
  2.215058e+01    1.618889e+00
  2.218233e+01    1.477382e+00
  2.221408e+01    1.368484e+00
  2.224584e+01    1.276270e+00
  2.227759e+01    1.195931e+00
  2.230934e+01    1.169137e+00
  2.234109e+01    1.107303e+00
  2.237284e+01    1.099564e+00
  2.240459e+01    1.089749e+00
  2.243634e+01    1.047582e+00
  2.246809e+01    1.024897e+00
  2.249984e+01    1.028593e+00
  2.253160e+01    9.895787e-01
  2.256335e+01    1.002609e+00
  2.259510e+01    9.935392e-01
  2.262685e+01    9.761037e-01
  2.265860e+01    9.813148e-01
  2.269035e+01    9.593660e-01
  2.272210e+01    9.435610e-01
  2.275385e+01    9.501013e-01
  2.278560e+01    9.549640e-01
  2.281736e+01    9.244812e-01
  2.284911e+01    9.613879e-01
  2.288086e+01    9.249184e-01
  2.291261e+01    9.065658e-01
  2.294436e+01    8.889255e-01
  2.297611e+01    8.980213e-01
  2.300786e+01    9.182545e-01
  2.303961e+01    8.922506e-01
  2.307137e+01    8.929577e-01
  2.310312e+01    8.857236e-01
  2.313487e+01    8.819245e-01
  2.316662e+01    8.691403e-01
  2.319837e+01    8.653116e-01
  2.323012e+01    8.755502e-01
  2.326187e+01    8.634608e-01
  2.329362e+01    8.662910e-01
  2.332537e+01    8.691658e-01
  2.335713e+01    8.511141e-01
  2.338888e+01    8.548757e-01
  2.342063e+01    8.641226e-01
  2.345238e+01    8.424397e-01
  2.348413e+01    8.353124e-01
  2.351588e+01    8.449370e-01
  2.354763e+01    8.338074e-01
  2.357938e+01    8.417884e-01
  2.361113e+01    8.573608e-01
  2.364289e+01    8.262520e-01
  2.367464e+01    8.429008e-01
  2.370639e+01    8.256818e-01
  2.373814e+01    8.203235e-01
  2.376989e+01    8.072813e-01
  2.380164e+01    8.062652e-01
  2.383339e+01    7.966049e-01
  2.386514e+01    8.106629e-01
  2.389689e+01    7.826340e-01
  2.392865e+01    7.955397e-01
  2.396040e+01    7.932155e-01
  2.399215e+01    7.937756e-01
  2.402390e+01    8.016703e-01
  2.405565e+01    7.842352e-01
  2.408740e+01    7.808192e-01
  2.411915e+01    8.043083e-01
  2.415090e+01    7.826961e-01
  2.418266e+01    7.717122e-01
  2.421441e+01    7.874769e-01
  2.424616e+01    7.719563e-01
  2.427791e+01    7.989572e-01
  2.430966e+01    7.740070e-01
  2.434141e+01    7.725437e-01
  2.437316e+01    8.204785e-01
  2.440491e+01    7.765962e-01
  2.443666e+01    8.061370e-01
  2.446842e+01    7.819214e-01
  2.450017e+01    7.875730e-01
  2.453192e+01    7.859974e-01
  2.456367e+01    7.885556e-01
  2.459542e+01    7.877591e-01
  2.462717e+01    8.101992e-01
  2.465892e+01    7.857286e-01
  2.469067e+01    8.056307e-01
  2.472242e+01    7.521138e-01
  2.475418e+01    8.008765e-01
  2.478593e+01    8.042818e-01
  2.481768e+01    7.722232e-01
  2.484943e+01    7.791032e-01
  2.488118e+01    7.841145e-01
  2.491293e+01    7.891288e-01
  2.494468e+01    7.917911e-01
  2.497643e+01    8.136846e-01
  2.500819e+01    7.926947e-01
  2.503994e+01    8.134713e-01
  2.507169e+01    7.995943e-01
  2.510344e+01    8.145730e-01
  2.513519e+01    8.180302e-01
  2.516694e+01    8.294398e-01
  2.519869e+01    8.593091e-01
  2.523044e+01    8.356053e-01
  2.526219e+01    8.456588e-01
  2.529395e+01    8.682958e-01
  2.532570e+01    8.698279e-01
  2.535745e+01    8.872121e-01
  2.538920e+01    8.799697e-01
  2.542095e+01    8.951657e-01
  2.545270e+01    9.311126e-01
  2.548445e+01    9.354764e-01
  2.551620e+01    9.700222e-01
  2.554795e+01    1.037238e+00
  2.557971e+01    1.069656e+00
  2.561146e+01    1.111294e+00
  2.564321e+01    1.217302e+00
  2.567496e+01    1.338192e+00
  2.570671e+01    1.509122e+00
  2.573846e+01    1.734778e+00
  2.577021e+01    2.085792e+00
  2.580196e+01    2.652430e+00
  2.583371e+01    3.461566e+00
  2.586547e+01    4.431411e+00
  2.589722e+01    5.622789e+00
  2.592897e+01    6.672927e+00
  2.596072e+01    7.143675e+00
  2.599247e+01    6.650573e+00
  2.602422e+01    5.300494e+00
  2.605597e+01    3.951826e+00
  2.608772e+01    2.939694e+00
  2.611948e+01    2.286861e+00
  2.615123e+01    1.891485e+00
  2.618298e+01    1.587468e+00
  2.621473e+01    1.399211e+00
  2.624648e+01    1.269742e+00
  2.627823e+01    1.166567e+00
  2.630998e+01    1.094996e+00
  2.634173e+01    1.072636e+00
  2.637348e+01    1.012123e+00
  2.640524e+01    9.619284e-01
  2.643699e+01    9.473998e-01
  2.646874e+01    9.584849e-01
  2.650049e+01    9.239572e-01
  2.653224e+01    8.979497e-01
  2.656399e+01    8.998721e-01
  2.659574e+01    8.972889e-01
  2.662749e+01    8.697354e-01
  2.665924e+01    8.791983e-01
  2.669100e+01    8.852921e-01
  2.672275e+01    8.883880e-01
  2.675450e+01    8.943559e-01
  2.678625e+01    8.900615e-01
  2.681800e+01    8.876760e-01
  2.684975e+01    9.015025e-01
  2.688150e+01    9.119539e-01
  2.691325e+01    9.091626e-01
  2.694501e+01    9.378797e-01
  2.697676e+01    9.748291e-01
  2.700851e+01    1.017772e+00
  2.704026e+01    1.127465e+00
  2.707201e+01    1.199506e+00
  2.710376e+01    1.399399e+00
  2.713551e+01    1.642509e+00
  2.716726e+01    1.907176e+00
  2.719901e+01    2.076445e+00
  2.723077e+01    2.128123e+00
  2.726252e+01    1.978234e+00
  2.729427e+01    1.675081e+00
  2.732602e+01    1.401427e+00
  2.735777e+01    1.208289e+00
  2.738952e+01    1.087358e+00
  2.742127e+01    1.000139e+00
  2.745302e+01    9.584705e-01
  2.748477e+01    8.847407e-01
  2.751653e+01    9.101111e-01
  2.754828e+01    8.710209e-01
  2.758003e+01    8.312069e-01
  2.761178e+01    8.524821e-01
  2.764353e+01    8.375168e-01
  2.767528e+01    8.234048e-01
  2.770703e+01    8.201738e-01
  2.773878e+01    7.922937e-01
  2.777054e+01    8.008547e-01
  2.780229e+01    8.085440e-01
  2.783404e+01    7.813184e-01
  2.786579e+01    7.754175e-01
  2.789754e+01    8.026091e-01
  2.792929e+01    7.798259e-01
  2.796104e+01    7.677380e-01
  2.799279e+01    7.792666e-01
  2.802454e+01    7.810411e-01
  2.805630e+01    7.714275e-01
  2.808805e+01    7.758799e-01
  2.811980e+01    7.549858e-01
  2.815155e+01    7.762126e-01
  2.818330e+01    7.655667e-01
  2.821505e+01    7.643832e-01
  2.824680e+01    7.695165e-01
  2.827855e+01    7.509590e-01
  2.831030e+01    7.609503e-01
  2.834206e+01    7.641132e-01
  2.837381e+01    7.707346e-01
  2.840556e+01    7.702040e-01
  2.843731e+01    7.664026e-01
  2.846906e+01    7.690167e-01
  2.850081e+01    7.491011e-01
  2.853256e+01    7.398462e-01
  2.856431e+01    7.373375e-01
  2.859606e+01    7.634928e-01
  2.862782e+01    7.385412e-01
  2.865957e+01    7.315066e-01
  2.869132e+01    7.281029e-01
  2.872307e+01    7.622132e-01
  2.875482e+01    7.360649e-01
  2.878657e+01    7.453129e-01
  2.881832e+01    7.415102e-01
  2.885007e+01    7.458060e-01
  2.888183e+01    7.465736e-01
  2.891358e+01    7.187819e-01
  2.894533e+01    7.191877e-01
  2.897708e+01    7.488143e-01
  2.900883e+01    7.476540e-01
  2.904058e+01    7.394617e-01
  2.907233e+01    7.432329e-01
  2.910408e+01    7.159274e-01
  2.913583e+01    7.057013e-01
  2.916759e+01    7.241123e-01
  2.919934e+01    7.266200e-01
  2.923109e+01    7.303308e-01
  2.926284e+01    7.271686e-01
  2.929459e+01    7.417194e-01
  2.932634e+01    7.274765e-01
  2.935809e+01    7.073570e-01
  2.938984e+01    7.254096e-01
  2.942159e+01    7.103363e-01
  2.945335e+01    7.097653e-01
  2.948510e+01    7.265763e-01
  2.951685e+01    7.196838e-01
  2.954860e+01    7.156988e-01
  2.958035e+01    7.391258e-01
  2.961210e+01    7.231099e-01
  2.964385e+01    6.941827e-01
  2.967560e+01    7.347612e-01
  2.970736e+01    7.240883e-01
  2.973911e+01    7.267682e-01
  2.977086e+01    7.067176e-01
  2.980261e+01    7.151048e-01
  2.983436e+01    7.185040e-01
  2.986611e+01    7.230003e-01
  2.989786e+01    7.184604e-01
  2.992961e+01    6.947903e-01
  2.996136e+01    7.248179e-01
  2.999312e+01    7.300211e-01
  3.002487e+01    7.346555e-01
  3.005662e+01    7.307027e-01
  3.008837e+01    7.348011e-01
  3.012012e+01    7.226213e-01
  3.015187e+01    7.173288e-01
  3.018362e+01    7.180355e-01
  3.021537e+01    7.124711e-01
  3.024712e+01    6.959632e-01
  3.027888e+01    7.121228e-01
  3.031063e+01    7.003275e-01
  3.034238e+01    7.063510e-01
  3.037413e+01    7.061322e-01
  3.040588e+01    7.209302e-01
  3.043763e+01    6.939943e-01
  3.046938e+01    6.912367e-01
  3.050113e+01    7.084813e-01
  3.053288e+01    7.084789e-01
  3.056464e+01    7.102895e-01
  3.059639e+01    6.991518e-01
  3.062814e+01    7.028095e-01
  3.065989e+01    6.998223e-01
  3.069164e+01    7.070559e-01
  3.072339e+01    7.194998e-01
  3.075514e+01    7.100975e-01
  3.078689e+01    7.234929e-01
  3.081865e+01    7.194424e-01
  3.085040e+01    7.027786e-01
  3.088215e+01    6.868342e-01
  3.091390e+01    7.133432e-01
  3.094565e+01    7.140275e-01
  3.097740e+01    7.125124e-01
  3.100915e+01    7.121884e-01
  3.104090e+01    7.032098e-01
  3.107265e+01    7.091774e-01
  3.110441e+01    7.243022e-01
  3.113616e+01    7.029873e-01
  3.116791e+01    7.200376e-01
  3.119966e+01    7.246455e-01
  3.123141e+01    7.249815e-01
  3.126316e+01    7.120154e-01
  3.129491e+01    7.164341e-01
  3.132666e+01    7.153475e-01
  3.135841e+01    7.276173e-01
  3.139017e+01    7.514774e-01
  3.142192e+01    7.414258e-01
  3.145367e+01    7.477323e-01
  3.148542e+01    7.541637e-01
  3.151717e+01    7.674847e-01
  3.154892e+01    7.796381e-01
  3.158067e+01    7.838548e-01
  3.161242e+01    8.170944e-01
  3.164418e+01    8.509258e-01
  3.167593e+01    8.729293e-01
  3.170768e+01    9.735348e-01
  3.173943e+01    1.079992e+00
  3.177118e+01    1.191537e+00
  3.180293e+01    1.395352e+00
  3.183468e+01    1.638794e+00
  3.186643e+01    1.892920e+00
  3.189818e+01    2.102375e+00
  3.192994e+01    2.071621e+00
  3.196169e+01    1.840899e+00
  3.199344e+01    1.552680e+00
  3.202519e+01    1.306248e+00
  3.205694e+01    1.134239e+00
  3.208869e+01    9.802803e-01
  3.212044e+01    9.097700e-01
  3.215219e+01    8.484121e-01
  3.218394e+01    8.051662e-01
  3.221570e+01    7.838835e-01
  3.224745e+01    7.929195e-01
  3.227920e+01    7.739229e-01
  3.231095e+01    7.418177e-01
  3.234270e+01    7.511289e-01
  3.237445e+01    7.530902e-01
  3.240620e+01    7.282698e-01
  3.243795e+01    6.902618e-01
  3.246970e+01    7.304068e-01
  3.250146e+01    7.030838e-01
  3.253321e+01    7.189379e-01
  3.254908e+01    7.210714e-01