File: XRD/2024-07-27_002_Ru-CGO-ex_Activtation_ramp_000002_data_000072.dat
# == pyFAI calibration ==
# Distance Sample to Detector: 0.4 m
# PONI: 9.750e-02, 1.135e-01 m
# Rotations: -0.000175 0.000000 -0.000000 rad
#
# == Fit2d calibration ==
# Distance Sample-beamCenter: 400.000 mm
# Center: x=1514.000, y=1300.000 pix
# Tilt: 0.010 deg  TiltPlanRot: 0.010 deg
#
# Detector Detector	 Spline= None	 PixelSize= 7.500e-05, 7.500e-05 m
#    Detector has a mask: False
#    Detector has a dark current: False
#    detector has a flat field: False
#
# Wavelength: 6.888e-11 m
# Mask applied: user provided
# Dark current applied: False
# Flat field applied: False
# Polarization factor: 0.99
# Normalization factor: 1.0
# --> /home/myspot/data/2024_07_Rosario/Ru-CGO-ex/2024-07-27_002_Ru-CGO-ex_Activtation_ramp_000002_data_000072.dat
#       q_nm^-1             I
  2.003187e-02    0.000000e+00
  5.178302e-02    0.000000e+00
  8.353417e-02    4.168740e-02
  1.152853e-01    7.165489e-02
  1.470365e-01    2.606170e-02
  1.787876e-01    1.897375e-02
  2.105388e-01    2.030139e-02
  2.422899e-01    4.022874e-02
  2.740411e-01    5.963735e-02
  3.057922e-01    1.363820e-02
  3.375433e-01    2.382212e-02
  3.692945e-01    9.084314e-03
  4.010456e-01    3.650812e-02
  4.327968e-01    2.798048e-03
  4.645479e-01    2.307790e-02
  4.962991e-01    6.876200e-02
  5.280502e-01    2.639376e-02
  5.598014e-01    2.244947e-02
  5.915525e-01    3.447222e-02
  6.233037e-01    2.479223e-02
  6.550548e-01    3.204266e-02
  6.868060e-01    2.237741e-02
  7.185571e-01    1.582437e-02
  7.503083e-01    6.051536e-02
  7.820594e-01    1.124930e-01
  8.138106e-01    1.817787e-01
  8.455617e-01    3.006049e-01
  8.773129e-01    3.915713e-01
  9.090640e-01    5.184903e-01
  9.408152e-01    5.389647e-01
  9.725663e-01    8.289018e-01
  1.004317e+00    9.950626e-01
  1.036069e+00    1.174801e+00
  1.067820e+00    1.345087e+00
  1.099571e+00    1.468459e+00
  1.131322e+00    1.470427e+00
  1.163073e+00    1.432133e+00
  1.194824e+00    1.626381e+00
  1.226575e+00    2.067139e+00
  1.258327e+00    2.424428e+00
  1.290078e+00    2.516273e+00
  1.321829e+00    2.455033e+00
  1.353580e+00    2.561386e+00
  1.385331e+00    2.666000e+00
  1.417082e+00    2.565390e+00
  1.448834e+00    2.584517e+00
  1.480585e+00    2.647471e+00
  1.512336e+00    2.849747e+00
  1.544087e+00    2.940705e+00
  1.575838e+00    3.068162e+00
  1.607589e+00    2.829841e+00
  1.639340e+00    2.998369e+00
  1.671092e+00    2.930480e+00
  1.702843e+00    2.808811e+00
  1.734594e+00    2.794475e+00
  1.766345e+00    2.824374e+00
  1.798096e+00    2.845804e+00
  1.829847e+00    2.800349e+00
  1.861598e+00    2.759737e+00
  1.893350e+00    2.729500e+00
  1.925101e+00    2.750472e+00
  1.956852e+00    2.903359e+00
  1.988603e+00    2.725002e+00
  2.020354e+00    2.737814e+00
  2.052105e+00    2.718714e+00
  2.083856e+00    2.714102e+00
  2.115608e+00    2.847822e+00
  2.147359e+00    2.816664e+00
  2.179110e+00    2.738984e+00
  2.210861e+00    2.715420e+00
  2.242612e+00    2.707249e+00
  2.274363e+00    2.978624e+00
  2.306115e+00    2.776944e+00
  2.337866e+00    2.690903e+00
  2.369617e+00    2.802780e+00
  2.401368e+00    2.759457e+00
  2.433119e+00    2.814939e+00
  2.464870e+00    2.859188e+00
  2.496621e+00    2.745877e+00
  2.528373e+00    2.759487e+00
  2.560124e+00    2.643984e+00
  2.591875e+00    2.775297e+00
  2.623626e+00    2.838392e+00
  2.655377e+00    2.631980e+00
  2.687128e+00    2.917495e+00
  2.718879e+00    2.785765e+00
  2.750631e+00    2.761931e+00
  2.782382e+00    2.836471e+00
  2.814133e+00    2.720912e+00
  2.845884e+00    2.910677e+00
  2.877635e+00    2.809542e+00
  2.909386e+00    2.909842e+00
  2.941137e+00    2.710925e+00
  2.972889e+00    2.698055e+00
  3.004640e+00    2.810357e+00
  3.036391e+00    2.901018e+00
  3.068142e+00    2.901262e+00
  3.099893e+00    2.777707e+00
  3.131644e+00    2.818591e+00
  3.163395e+00    2.779057e+00
  3.195147e+00    2.809992e+00
  3.226898e+00    2.848553e+00
  3.258649e+00    2.945513e+00
  3.290400e+00    2.856952e+00
  3.322151e+00    2.823071e+00
  3.353902e+00    2.845636e+00
  3.385654e+00    2.916667e+00
  3.417405e+00    2.888767e+00
  3.449156e+00    3.080212e+00
  3.480907e+00    2.972586e+00
  3.512658e+00    2.974699e+00
  3.544409e+00    2.976923e+00
  3.576160e+00    2.872673e+00
  3.607912e+00    2.928226e+00
  3.639663e+00    2.951240e+00
  3.671414e+00    2.992773e+00
  3.703165e+00    3.019332e+00
  3.734916e+00    2.953644e+00
  3.766667e+00    2.920469e+00
  3.798418e+00    3.065198e+00
  3.830170e+00    3.056745e+00
  3.861921e+00    2.931500e+00
  3.893672e+00    3.068617e+00
  3.925423e+00    3.029302e+00
  3.957174e+00    2.961493e+00
  3.988925e+00    3.008086e+00
  4.020676e+00    2.970485e+00
  4.052428e+00    2.989755e+00
  4.084179e+00    3.000961e+00
  4.115930e+00    3.030453e+00
  4.147681e+00    3.084888e+00
  4.179432e+00    2.968674e+00
  4.211183e+00    3.047615e+00
  4.242935e+00    3.053485e+00
  4.274686e+00    2.986117e+00
  4.306437e+00    3.051918e+00
  4.338188e+00    2.979416e+00
  4.369939e+00    3.145985e+00
  4.401690e+00    3.055112e+00
  4.433441e+00    3.044792e+00
  4.465193e+00    3.077879e+00
  4.496944e+00    2.987021e+00
  4.528695e+00    3.123828e+00
  4.560446e+00    3.151497e+00
  4.592197e+00    3.034716e+00
  4.623948e+00    3.049245e+00
  4.655699e+00    3.066794e+00
  4.687451e+00    3.062721e+00
  4.719202e+00    3.066232e+00
  4.750953e+00    3.074539e+00
  4.782704e+00    3.103484e+00
  4.814455e+00    3.054761e+00
  4.846206e+00    3.060225e+00
  4.877957e+00    3.034289e+00
  4.909709e+00    3.095390e+00
  4.941460e+00    3.053581e+00
  4.973211e+00    3.061156e+00
  5.004962e+00    3.123408e+00
  5.036713e+00    3.146698e+00
  5.068464e+00    3.121344e+00
  5.100216e+00    3.111944e+00
  5.131967e+00    3.030320e+00
  5.163718e+00    3.139829e+00
  5.195469e+00    3.049407e+00
  5.227220e+00    3.109859e+00
  5.258971e+00    3.062883e+00
  5.290722e+00    3.151831e+00
  5.322474e+00    3.178565e+00
  5.354225e+00    3.088005e+00
  5.385976e+00    3.129917e+00
  5.417727e+00    2.998405e+00
  5.449478e+00    3.065378e+00
  5.481229e+00    3.137457e+00
  5.512980e+00    3.115058e+00
  5.544732e+00    3.022550e+00
  5.576483e+00    3.097193e+00
  5.608234e+00    3.064343e+00
  5.639985e+00    3.063718e+00
  5.671736e+00    3.078570e+00
  5.703487e+00    2.998975e+00
  5.735238e+00    3.061976e+00
  5.766990e+00    3.003904e+00
  5.798741e+00    3.068854e+00
  5.830492e+00    3.080332e+00
  5.862243e+00    3.003128e+00
  5.893994e+00    3.051842e+00
  5.925745e+00    3.003979e+00
  5.957497e+00    2.946664e+00
  5.989248e+00    3.065572e+00
  6.020999e+00    3.009605e+00
  6.052750e+00    3.054032e+00
  6.084501e+00    2.901263e+00
  6.116252e+00    3.079429e+00
  6.148003e+00    3.018642e+00
  6.179755e+00    3.027802e+00
  6.211506e+00    3.010432e+00
  6.243257e+00    2.971109e+00
  6.275008e+00    3.050602e+00
  6.306759e+00    3.022350e+00
  6.338510e+00    3.021286e+00
  6.370261e+00    3.007817e+00
  6.402013e+00    3.029225e+00
  6.433764e+00    2.957162e+00
  6.465515e+00    3.053547e+00
  6.497266e+00    2.994983e+00
  6.529017e+00    3.093796e+00
  6.560768e+00    2.999846e+00
  6.592519e+00    3.036702e+00
  6.624271e+00    3.026165e+00
  6.656022e+00    3.046874e+00
  6.687773e+00    3.034255e+00
  6.719524e+00    2.990483e+00
  6.751275e+00    3.031211e+00
  6.783026e+00    3.022090e+00
  6.814777e+00    3.035053e+00
  6.846529e+00    3.061398e+00
  6.878280e+00    2.983212e+00
  6.910031e+00    3.041287e+00
  6.941782e+00    3.021047e+00
  6.973533e+00    2.950814e+00
  7.005284e+00    2.996752e+00
  7.037036e+00    3.025940e+00
  7.068787e+00    2.987817e+00
  7.100538e+00    3.023425e+00
  7.132289e+00    3.009442e+00
  7.164040e+00    3.082691e+00
  7.195791e+00    2.999404e+00
  7.227542e+00    2.980256e+00
  7.259294e+00    2.993098e+00
  7.291045e+00    3.033945e+00
  7.322796e+00    2.943712e+00
  7.354547e+00    3.002173e+00
  7.386298e+00    2.927834e+00
  7.418049e+00    2.906655e+00
  7.449800e+00    2.928726e+00
  7.481552e+00    2.912601e+00
  7.513303e+00    2.929951e+00
  7.545054e+00    2.910466e+00
  7.576805e+00    3.000097e+00
  7.608556e+00    2.999389e+00
  7.640307e+00    2.905493e+00
  7.672058e+00    2.897366e+00
  7.703810e+00    2.966485e+00
  7.735561e+00    2.945823e+00
  7.767312e+00    2.845861e+00
  7.799063e+00    2.931185e+00
  7.830814e+00    2.995645e+00
  7.862565e+00    2.904244e+00
  7.894317e+00    2.896932e+00
  7.926068e+00    2.950458e+00
  7.957819e+00    2.886593e+00
  7.989570e+00    2.917454e+00
  8.021321e+00    2.875718e+00
  8.053072e+00    2.881208e+00
  8.084823e+00    2.853943e+00
  8.116575e+00    2.874135e+00
  8.148326e+00    2.942996e+00
  8.180077e+00    2.947330e+00
  8.211828e+00    2.960711e+00
  8.243579e+00    2.961920e+00
  8.275330e+00    2.823444e+00
  8.307081e+00    2.912070e+00
  8.338833e+00    2.872882e+00
  8.370584e+00    2.883090e+00
  8.402335e+00    2.885034e+00
  8.434086e+00    2.860786e+00
  8.465837e+00    2.829344e+00
  8.497588e+00    2.833754e+00
  8.529339e+00    2.883846e+00
  8.561091e+00    2.849039e+00
  8.592842e+00    2.844258e+00
  8.624593e+00    2.850423e+00
  8.656344e+00    2.903188e+00
  8.688095e+00    2.796591e+00
  8.719846e+00    2.897008e+00
  8.751598e+00    2.855765e+00
  8.783349e+00    2.790244e+00
  8.815100e+00    2.797503e+00
  8.846851e+00    2.796544e+00
  8.878602e+00    2.788327e+00
  8.910353e+00    2.868989e+00
  8.942104e+00    2.856904e+00
  8.973856e+00    2.810582e+00
  9.005607e+00    2.858855e+00
  9.037358e+00    2.766415e+00
  9.069109e+00    2.828368e+00
  9.100860e+00    2.854549e+00
  9.132611e+00    2.812235e+00
  9.164362e+00    2.769004e+00
  9.196114e+00    2.753969e+00
  9.227865e+00    2.778708e+00
  9.259616e+00    2.715989e+00
  9.291367e+00    2.775222e+00
  9.323118e+00    2.754502e+00
  9.354869e+00    2.717445e+00
  9.386620e+00    2.782599e+00
  9.418372e+00    2.735475e+00
  9.450123e+00    2.745408e+00
  9.481874e+00    2.789032e+00
  9.513625e+00    2.717915e+00
  9.545376e+00    2.670966e+00
  9.577127e+00    2.723294e+00
  9.608878e+00    2.728359e+00
  9.640630e+00    2.753852e+00
  9.672381e+00    2.701899e+00
  9.704132e+00    2.807357e+00
  9.735883e+00    2.684461e+00
  9.767634e+00    2.687812e+00
  9.799385e+00    2.690223e+00
  9.831137e+00    2.682384e+00
  9.862888e+00    2.712421e+00
  9.894639e+00    2.712951e+00
  9.926390e+00    2.721137e+00
  9.958141e+00    2.661789e+00
  9.989892e+00    2.710855e+00
  1.002164e+01    2.636129e+00
  1.005339e+01    2.650677e+00
  1.008515e+01    2.645149e+00
  1.011690e+01    2.598562e+00
  1.014865e+01    2.649800e+00
  1.018040e+01    2.621318e+00
  1.021215e+01    2.632554e+00
  1.024390e+01    2.599596e+00
  1.027565e+01    2.652578e+00
  1.030740e+01    2.584787e+00
  1.033915e+01    2.590384e+00
  1.037091e+01    2.660885e+00
  1.040266e+01    2.621557e+00
  1.043441e+01    2.598928e+00
  1.046616e+01    2.574596e+00
  1.049791e+01    2.570317e+00
  1.052966e+01    2.572958e+00
  1.056141e+01    2.542424e+00
  1.059316e+01    2.581192e+00
  1.062492e+01    2.531226e+00
  1.065667e+01    2.553031e+00
  1.068842e+01    2.545391e+00
  1.072017e+01    2.555572e+00
  1.075192e+01    2.529850e+00
  1.078367e+01    2.481692e+00
  1.081542e+01    2.475538e+00
  1.084717e+01    2.503144e+00
  1.087892e+01    2.529291e+00
  1.091068e+01    2.455397e+00
  1.094243e+01    2.450754e+00
  1.097418e+01    2.501041e+00
  1.100593e+01    2.518655e+00
  1.103768e+01    2.476640e+00
  1.106943e+01    2.448223e+00
  1.110118e+01    2.487325e+00
  1.113293e+01    2.495914e+00
  1.116468e+01    2.452533e+00
  1.119644e+01    2.462315e+00
  1.122819e+01    2.482025e+00
  1.125994e+01    2.420656e+00
  1.129169e+01    2.444086e+00
  1.132344e+01    2.377394e+00
  1.135519e+01    2.410949e+00
  1.138694e+01    2.452513e+00
  1.141869e+01    2.425800e+00
  1.145045e+01    2.385480e+00
  1.148220e+01    2.409230e+00
  1.151395e+01    2.382576e+00
  1.154570e+01    2.356027e+00
  1.157745e+01    2.378785e+00
  1.160920e+01    2.373451e+00
  1.164095e+01    2.357611e+00
  1.167270e+01    2.397231e+00
  1.170445e+01    2.338011e+00
  1.173621e+01    2.340084e+00
  1.176796e+01    2.328499e+00
  1.179971e+01    2.392650e+00
  1.183146e+01    2.334978e+00
  1.186321e+01    2.324522e+00
  1.189496e+01    2.322352e+00
  1.192671e+01    2.345190e+00
  1.195846e+01    2.322986e+00
  1.199021e+01    2.299761e+00
  1.202197e+01    2.351297e+00
  1.205372e+01    2.293917e+00
  1.208547e+01    2.338276e+00
  1.211722e+01    2.311827e+00
  1.214897e+01    2.282259e+00
  1.218072e+01    2.314363e+00
  1.221247e+01    2.303739e+00
  1.224422e+01    2.317477e+00
  1.227597e+01    2.297559e+00
  1.230773e+01    2.333112e+00
  1.233948e+01    2.303247e+00
  1.237123e+01    2.304371e+00
  1.240298e+01    2.323544e+00
  1.243473e+01    2.320341e+00
  1.246648e+01    2.345616e+00
  1.249823e+01    2.349105e+00
  1.252998e+01    2.372248e+00
  1.256174e+01    2.370705e+00
  1.259349e+01    2.404144e+00
  1.262524e+01    2.423851e+00
  1.265699e+01    2.413632e+00
  1.268874e+01    2.423939e+00
  1.272049e+01    2.507375e+00
  1.275224e+01    2.554222e+00
  1.278399e+01    2.595361e+00
  1.281574e+01    2.709493e+00
  1.284750e+01    2.778987e+00
  1.287925e+01    3.002857e+00
  1.291100e+01    3.213063e+00
  1.294275e+01    3.637617e+00
  1.297450e+01    4.334381e+00
  1.300625e+01    5.253597e+00
  1.303800e+01    6.882951e+00
  1.306975e+01    9.147641e+00
  1.310150e+01    1.217595e+01
  1.313326e+01    1.483392e+01
  1.316501e+01    1.729265e+01
  1.319676e+01    1.853617e+01
  1.322851e+01    1.631919e+01
  1.326026e+01    1.195317e+01
  1.329201e+01    8.391995e+00
  1.332376e+01    6.324339e+00
  1.335551e+01    4.895126e+00
  1.338727e+01    4.012473e+00
  1.341902e+01    3.499895e+00
  1.345077e+01    3.135999e+00
  1.348252e+01    2.898534e+00
  1.351427e+01    2.738475e+00
  1.354602e+01    2.587736e+00
  1.357777e+01    2.483841e+00
  1.360952e+01    2.445751e+00
  1.364127e+01    2.352740e+00
  1.367303e+01    2.291160e+00
  1.370478e+01    2.267639e+00
  1.373653e+01    2.204227e+00
  1.376828e+01    2.214597e+00
  1.380003e+01    2.178495e+00
  1.383178e+01    2.148025e+00
  1.386353e+01    2.129106e+00
  1.389528e+01    2.125525e+00
  1.392703e+01    2.124115e+00
  1.395879e+01    2.112752e+00
  1.399054e+01    2.022027e+00
  1.402229e+01    2.061355e+00
  1.405404e+01    2.016851e+00
  1.408579e+01    2.003565e+00
  1.411754e+01    2.004072e+00
  1.414929e+01    2.011586e+00
  1.418104e+01    2.020097e+00
  1.421279e+01    1.981268e+00
  1.424455e+01    1.954554e+00
  1.427630e+01    1.979168e+00
  1.430805e+01    1.952452e+00
  1.433980e+01    1.900635e+00
  1.437155e+01    1.905804e+00
  1.440330e+01    1.927572e+00
  1.443505e+01    1.945973e+00
  1.446680e+01    1.939399e+00
  1.449856e+01    1.914527e+00
  1.453031e+01    1.870896e+00
  1.456206e+01    1.907645e+00
  1.459381e+01    1.920977e+00
  1.462556e+01    1.912871e+00
  1.465731e+01    1.888909e+00
  1.468906e+01    1.880748e+00
  1.472081e+01    1.918605e+00
  1.475256e+01    1.935088e+00
  1.478432e+01    1.901301e+00
  1.481607e+01    1.922328e+00
  1.484782e+01    1.935865e+00
  1.487957e+01    1.911549e+00
  1.491132e+01    2.019638e+00
  1.494307e+01    2.024014e+00
  1.497482e+01    2.057872e+00
  1.500657e+01    2.139277e+00
  1.503832e+01    2.278811e+00
  1.507008e+01    2.444824e+00
  1.510183e+01    2.760088e+00
  1.513358e+01    3.250024e+00
  1.516533e+01    4.059195e+00
  1.519708e+01    4.764101e+00
  1.522883e+01    5.547744e+00
  1.526058e+01    6.084141e+00
  1.529233e+01    6.167409e+00
  1.532409e+01    5.578428e+00
  1.535584e+01    4.440163e+00
  1.538759e+01    3.391776e+00
  1.541934e+01    2.884704e+00
  1.545109e+01    2.460109e+00
  1.548284e+01    2.240456e+00
  1.551459e+01    2.101102e+00
  1.554634e+01    1.919876e+00
  1.557809e+01    1.896067e+00
  1.560985e+01    1.813005e+00
  1.564160e+01    1.816179e+00
  1.567335e+01    1.754373e+00
  1.570510e+01    1.731676e+00
  1.573685e+01    1.724859e+00
  1.576860e+01    1.755173e+00
  1.580035e+01    1.666068e+00
  1.583210e+01    1.683412e+00
  1.586385e+01    1.621178e+00
  1.589561e+01    1.634915e+00
  1.592736e+01    1.642129e+00
  1.595911e+01    1.596663e+00
  1.599086e+01    1.613064e+00
  1.602261e+01    1.657787e+00
  1.605436e+01    1.614668e+00
  1.608611e+01    1.592839e+00
  1.611786e+01    1.589351e+00
  1.614961e+01    1.563909e+00
  1.618137e+01    1.603896e+00
  1.621312e+01    1.561166e+00
  1.624487e+01    1.540271e+00
  1.627662e+01    1.540167e+00
  1.630837e+01    1.525016e+00
  1.634012e+01    1.520430e+00
  1.637187e+01    1.546341e+00
  1.640362e+01    1.528762e+00
  1.643538e+01    1.520288e+00
  1.646713e+01    1.520734e+00
  1.649888e+01    1.488759e+00
  1.653063e+01    1.498812e+00
  1.656238e+01    1.522769e+00
  1.659413e+01    1.513244e+00
  1.662588e+01    1.477748e+00
  1.665763e+01    1.489537e+00
  1.668938e+01    1.477425e+00
  1.672114e+01    1.467226e+00
  1.675289e+01    1.481337e+00
  1.678464e+01    1.422161e+00
  1.681639e+01    1.410593e+00
  1.684814e+01    1.429097e+00
  1.687989e+01    1.440027e+00
  1.691164e+01    1.449094e+00
  1.694339e+01    1.429005e+00
  1.697514e+01    1.442911e+00
  1.700690e+01    1.450891e+00
  1.703865e+01    1.421213e+00
  1.707040e+01    1.414517e+00
  1.710215e+01    1.416624e+00
  1.713390e+01    1.408437e+00
  1.716565e+01    1.414478e+00
  1.719740e+01    1.394086e+00
  1.722915e+01    1.387834e+00
  1.726091e+01    1.387725e+00
  1.729266e+01    1.407509e+00
  1.732441e+01    1.393941e+00
  1.735616e+01    1.365886e+00
  1.738791e+01    1.386962e+00
  1.741966e+01    1.361317e+00
  1.745141e+01    1.388358e+00
  1.748316e+01    1.334540e+00
  1.751491e+01    1.346415e+00
  1.754667e+01    1.346351e+00
  1.757842e+01    1.359652e+00
  1.761017e+01    1.327368e+00
  1.764192e+01    1.332262e+00
  1.767367e+01    1.329263e+00
  1.770542e+01    1.362646e+00
  1.773717e+01    1.371025e+00
  1.776892e+01    1.361542e+00
  1.780067e+01    1.309040e+00
  1.783243e+01    1.330511e+00
  1.786418e+01    1.325693e+00
  1.789593e+01    1.311482e+00
  1.792768e+01    1.294671e+00
  1.795943e+01    1.290526e+00
  1.799118e+01    1.299273e+00
  1.802293e+01    1.286431e+00
  1.805468e+01    1.303007e+00
  1.808643e+01    1.258973e+00
  1.811819e+01    1.298530e+00
  1.814994e+01    1.258167e+00
  1.818169e+01    1.291119e+00
  1.821344e+01    1.274716e+00
  1.824519e+01    1.288823e+00
  1.827694e+01    1.279646e+00
  1.830869e+01    1.269978e+00
  1.834044e+01    1.277441e+00
  1.837220e+01    1.275243e+00
  1.840395e+01    1.269062e+00
  1.843570e+01    1.251966e+00
  1.846745e+01    1.238410e+00
  1.849920e+01    1.253675e+00
  1.853095e+01    1.254613e+00
  1.856270e+01    1.233629e+00
  1.859445e+01    1.234452e+00
  1.862620e+01    1.242031e+00
  1.865796e+01    1.236485e+00
  1.868971e+01    1.239296e+00
  1.872146e+01    1.226817e+00
  1.875321e+01    1.229942e+00
  1.878496e+01    1.216370e+00
  1.881671e+01    1.188121e+00
  1.884846e+01    1.195979e+00
  1.888021e+01    1.213243e+00
  1.891196e+01    1.226853e+00
  1.894372e+01    1.203767e+00
  1.897547e+01    1.209651e+00
  1.900722e+01    1.192602e+00
  1.903897e+01    1.190926e+00
  1.907072e+01    1.198208e+00
  1.910247e+01    1.196024e+00
  1.913422e+01    1.196802e+00
  1.916597e+01    1.177507e+00
  1.919773e+01    1.176894e+00
  1.922948e+01    1.181857e+00
  1.926123e+01    1.158985e+00
  1.929298e+01    1.172181e+00
  1.932473e+01    1.186999e+00
  1.935648e+01    1.184741e+00
  1.938823e+01    1.183127e+00
  1.941998e+01    1.152957e+00
  1.945173e+01    1.156554e+00
  1.948349e+01    1.162794e+00
  1.951524e+01    1.147413e+00
  1.954699e+01    1.155027e+00
  1.957874e+01    1.181127e+00
  1.961049e+01    1.137801e+00
  1.964224e+01    1.126139e+00
  1.967399e+01    1.148649e+00
  1.970574e+01    1.125873e+00
  1.973749e+01    1.131434e+00
  1.976925e+01    1.161531e+00
  1.980100e+01    1.132136e+00
  1.983275e+01    1.127278e+00
  1.986450e+01    1.144795e+00
  1.989625e+01    1.131165e+00
  1.992800e+01    1.137030e+00
  1.995975e+01    1.141421e+00
  1.999150e+01    1.148630e+00
  2.002325e+01    1.100534e+00
  2.005501e+01    1.116984e+00
  2.008676e+01    1.090829e+00
  2.011851e+01    1.115409e+00
  2.015026e+01    1.129436e+00
  2.018201e+01    1.110246e+00
  2.021376e+01    1.113295e+00
  2.024551e+01    1.099806e+00
  2.027726e+01    1.112388e+00
  2.030902e+01    1.086210e+00
  2.034077e+01    1.095584e+00
  2.037252e+01    1.061878e+00
  2.040427e+01    1.116770e+00
  2.043602e+01    1.098706e+00
  2.046777e+01    1.059286e+00
  2.049952e+01    1.096558e+00
  2.053127e+01    1.103425e+00
  2.056302e+01    1.102565e+00
  2.059478e+01    1.096992e+00
  2.062653e+01    1.081118e+00
  2.065828e+01    1.095122e+00
  2.069003e+01    1.098164e+00
  2.072178e+01    1.117678e+00
  2.075353e+01    1.082750e+00
  2.078528e+01    1.096868e+00
  2.081703e+01    1.089317e+00
  2.084878e+01    1.079317e+00
  2.088054e+01    1.088289e+00
  2.091229e+01    1.054249e+00
  2.094404e+01    1.072610e+00
  2.097579e+01    1.070962e+00
  2.100754e+01    1.084967e+00
  2.103929e+01    1.065557e+00
  2.107104e+01    1.061487e+00
  2.110279e+01    1.089254e+00
  2.113455e+01    1.047896e+00
  2.116630e+01    1.064543e+00
  2.119805e+01    1.097942e+00
  2.122980e+01    1.097706e+00
  2.126155e+01    1.106140e+00
  2.129330e+01    1.113060e+00
  2.132505e+01    1.121858e+00
  2.135680e+01    1.172786e+00
  2.138855e+01    1.178895e+00
  2.142031e+01    1.181138e+00
  2.145206e+01    1.228190e+00
  2.148381e+01    1.244261e+00
  2.151556e+01    1.301129e+00
  2.154731e+01    1.355720e+00
  2.157906e+01    1.454835e+00
  2.161081e+01    1.539127e+00
  2.164256e+01    1.790545e+00
  2.167431e+01    1.982610e+00
  2.170607e+01    2.379723e+00
  2.173782e+01    3.006841e+00
  2.176957e+01    3.896071e+00
  2.180132e+01    5.092311e+00
  2.183307e+01    6.556829e+00
  2.186482e+01    8.228531e+00
  2.189657e+01    9.747735e+00
  2.192832e+01    1.035250e+01
  2.196007e+01    9.098450e+00
  2.199183e+01    6.923269e+00
  2.202358e+01    4.993080e+00
  2.205533e+01    3.620795e+00
  2.208708e+01    2.769465e+00
  2.211883e+01    2.261027e+00
  2.215058e+01    1.919515e+00
  2.218233e+01    1.681595e+00
  2.221408e+01    1.511387e+00
  2.224584e+01    1.364370e+00
  2.227759e+01    1.320777e+00
  2.230934e+01    1.232578e+00
  2.234109e+01    1.176553e+00
  2.237284e+01    1.142011e+00
  2.240459e+01    1.118047e+00
  2.243634e+01    1.075916e+00
  2.246809e+01    1.055918e+00
  2.249984e+01    1.056713e+00
  2.253160e+01    1.019015e+00
  2.256335e+01    1.000957e+00
  2.259510e+01    9.998962e-01
  2.262685e+01    9.728917e-01
  2.265860e+01    9.612886e-01
  2.269035e+01    9.639411e-01
  2.272210e+01    9.377844e-01
  2.275385e+01    9.436643e-01
  2.278560e+01    9.475148e-01
  2.281736e+01    9.406973e-01
  2.284911e+01    9.060588e-01
  2.288086e+01    9.383984e-01
  2.291261e+01    9.158235e-01
  2.294436e+01    9.135197e-01
  2.297611e+01    8.921984e-01
  2.300786e+01    9.038969e-01
  2.303961e+01    9.041810e-01
  2.307137e+01    8.760447e-01
  2.310312e+01    8.904418e-01
  2.313487e+01    8.919040e-01
  2.316662e+01    8.758029e-01
  2.319837e+01    8.564427e-01
  2.323012e+01    8.814427e-01
  2.326187e+01    8.609378e-01
  2.329362e+01    8.678428e-01
  2.332537e+01    8.594859e-01
  2.335713e+01    8.809243e-01
  2.338888e+01    8.736286e-01
  2.342063e+01    8.813095e-01
  2.345238e+01    8.568125e-01
  2.348413e+01    8.329426e-01
  2.351588e+01    8.560329e-01
  2.354763e+01    8.398845e-01
  2.357938e+01    8.481707e-01
  2.361113e+01    8.644730e-01
  2.364289e+01    8.353983e-01
  2.367464e+01    8.319135e-01
  2.370639e+01    8.304031e-01
  2.373814e+01    8.042380e-01
  2.376989e+01    8.258246e-01
  2.380164e+01    8.066190e-01
  2.383339e+01    8.050412e-01
  2.386514e+01    7.988900e-01
  2.389689e+01    8.142051e-01
  2.392865e+01    7.935712e-01
  2.396040e+01    8.015296e-01
  2.399215e+01    7.836581e-01
  2.402390e+01    7.744281e-01
  2.405565e+01    8.013880e-01
  2.408740e+01    7.877114e-01
  2.411915e+01    7.926594e-01
  2.415090e+01    7.863072e-01
  2.418266e+01    7.606492e-01
  2.421441e+01    7.742006e-01
  2.424616e+01    7.830901e-01
  2.427791e+01    7.821681e-01
  2.430966e+01    7.941062e-01
  2.434141e+01    7.872629e-01
  2.437316e+01    8.060961e-01
  2.440491e+01    8.104749e-01
  2.443666e+01    7.782838e-01
  2.446842e+01    8.126854e-01
  2.450017e+01    7.737802e-01
  2.453192e+01    8.014566e-01
  2.456367e+01    8.048096e-01
  2.459542e+01    8.123288e-01
  2.462717e+01    7.746547e-01
  2.465892e+01    7.923687e-01
  2.469067e+01    7.909067e-01
  2.472242e+01    8.252542e-01
  2.475418e+01    7.919717e-01
  2.478593e+01    8.041487e-01
  2.481768e+01    7.914509e-01
  2.484943e+01    7.810282e-01
  2.488118e+01    7.892181e-01
  2.491293e+01    8.000818e-01
  2.494468e+01    7.846635e-01
  2.497643e+01    8.001378e-01
  2.500819e+01    8.056278e-01
  2.503994e+01    7.993177e-01
  2.507169e+01    8.033355e-01
  2.510344e+01    8.147896e-01
  2.513519e+01    8.196548e-01
  2.516694e+01    8.131818e-01
  2.519869e+01    8.287029e-01
  2.523044e+01    8.407013e-01
  2.526219e+01    8.249219e-01
  2.529395e+01    8.938925e-01
  2.532570e+01    8.688417e-01
  2.535745e+01    8.794105e-01
  2.538920e+01    8.952281e-01
  2.542095e+01    9.183096e-01
  2.545270e+01    9.258246e-01
  2.548445e+01    9.582189e-01
  2.551620e+01    9.937263e-01
  2.554795e+01    1.032151e+00
  2.557971e+01    1.066541e+00
  2.561146e+01    1.106588e+00
  2.564321e+01    1.192043e+00
  2.567496e+01    1.283499e+00
  2.570671e+01    1.417042e+00
  2.573846e+01    1.647553e+00
  2.577021e+01    1.901968e+00
  2.580196e+01    2.380789e+00
  2.583371e+01    2.970194e+00
  2.586547e+01    3.927299e+00
  2.589722e+01    5.143845e+00
  2.592897e+01    6.584369e+00
  2.596072e+01    7.988217e+00
  2.599247e+01    8.478265e+00
  2.602422e+01    7.767815e+00
  2.605597e+01    6.147626e+00
  2.608772e+01    4.536856e+00
  2.611948e+01    3.317834e+00
  2.615123e+01    2.551112e+00
  2.618298e+01    2.071394e+00
  2.621473e+01    1.702369e+00
  2.624648e+01    1.516430e+00
  2.627823e+01    1.338321e+00
  2.630998e+01    1.241592e+00
  2.634173e+01    1.141598e+00
  2.637348e+01    1.116353e+00
  2.640524e+01    1.018426e+00
  2.643699e+01    9.971441e-01
  2.646874e+01    9.938604e-01
  2.650049e+01    9.754421e-01
  2.653224e+01    9.500122e-01
  2.656399e+01    9.292123e-01
  2.659574e+01    9.271377e-01
  2.662749e+01    9.122109e-01
  2.665924e+01    9.291841e-01
  2.669100e+01    9.039230e-01
  2.672275e+01    9.103853e-01
  2.675450e+01    9.084371e-01
  2.678625e+01    8.986824e-01
  2.681800e+01    9.257367e-01
  2.684975e+01    9.024062e-01
  2.688150e+01    8.947769e-01
  2.691325e+01    9.337510e-01
  2.694501e+01    9.361165e-01
  2.697676e+01    9.725692e-01
  2.700851e+01    1.005060e+00
  2.704026e+01    1.064595e+00
  2.707201e+01    1.162085e+00
  2.710376e+01    1.303461e+00
  2.713551e+01    1.523230e+00
  2.716726e+01    1.779357e+00
  2.719901e+01    2.113793e+00
  2.723077e+01    2.359796e+00
  2.726252e+01    2.464123e+00
  2.729427e+01    2.227654e+00
  2.732602e+01    1.837481e+00
  2.735777e+01    1.523026e+00
  2.738952e+01    1.296364e+00
  2.742127e+01    1.164777e+00
  2.745302e+01    1.053241e+00
  2.748477e+01    1.025500e+00
  2.751653e+01    9.418425e-01
  2.754828e+01    9.300438e-01
  2.758003e+01    8.868439e-01
  2.761178e+01    8.844260e-01
  2.764353e+01    8.395671e-01
  2.767528e+01    8.550026e-01
  2.770703e+01    8.390668e-01
  2.773878e+01    8.076441e-01
  2.777054e+01    8.328865e-01
  2.780229e+01    8.291616e-01
  2.783404e+01    8.331082e-01
  2.786579e+01    7.863884e-01
  2.789754e+01    7.932870e-01
  2.792929e+01    7.943817e-01
  2.796104e+01    7.873488e-01
  2.799279e+01    7.993604e-01
  2.802454e+01    7.912508e-01
  2.805630e+01    7.878765e-01
  2.808805e+01    8.019653e-01
  2.811980e+01    7.707219e-01
  2.815155e+01    7.835008e-01
  2.818330e+01    7.889840e-01
  2.821505e+01    7.751420e-01
  2.824680e+01    7.778136e-01
  2.827855e+01    7.746483e-01
  2.831030e+01    7.776060e-01
  2.834206e+01    7.761436e-01
  2.837381e+01    7.779623e-01
  2.840556e+01    7.710181e-01
  2.843731e+01    7.638557e-01
  2.846906e+01    7.551216e-01
  2.850081e+01    7.401537e-01
  2.853256e+01    7.548743e-01
  2.856431e+01    7.500525e-01
  2.859606e+01    7.366079e-01
  2.862782e+01    7.545708e-01
  2.865957e+01    7.615048e-01
  2.869132e+01    7.632816e-01
  2.872307e+01    7.667422e-01
  2.875482e+01    7.471839e-01
  2.878657e+01    7.586122e-01
  2.881832e+01    7.547707e-01
  2.885007e+01    7.475601e-01
  2.888183e+01    7.529481e-01
  2.891358e+01    7.485961e-01
  2.894533e+01    7.480267e-01
  2.897708e+01    7.426625e-01
  2.900883e+01    7.327617e-01
  2.904058e+01    7.241014e-01
  2.907233e+01    7.391198e-01
  2.910408e+01    7.169166e-01
  2.913583e+01    7.463006e-01
  2.916759e+01    7.558632e-01
  2.919934e+01    7.369481e-01
  2.923109e+01    7.134516e-01
  2.926284e+01    7.449945e-01
  2.929459e+01    7.341086e-01
  2.932634e+01    7.469545e-01
  2.935809e+01    7.348091e-01
  2.938984e+01    7.347344e-01
  2.942159e+01    7.140328e-01
  2.945335e+01    7.226908e-01
  2.948510e+01    7.065103e-01
  2.951685e+01    7.266784e-01
  2.954860e+01    7.305390e-01
  2.958035e+01    7.318564e-01
  2.961210e+01    7.081998e-01
  2.964385e+01    7.155060e-01
  2.967560e+01    7.437902e-01
  2.970736e+01    7.119843e-01
  2.973911e+01    7.071145e-01
  2.977086e+01    7.214178e-01
  2.980261e+01    7.126867e-01
  2.983436e+01    7.240316e-01
  2.986611e+01    7.249403e-01
  2.989786e+01    7.323087e-01
  2.992961e+01    7.093844e-01
  2.996136e+01    7.232943e-01
  2.999312e+01    7.279012e-01
  3.002487e+01    7.372344e-01
  3.005662e+01    7.554899e-01
  3.008837e+01    7.512115e-01
  3.012012e+01    7.285815e-01
  3.015187e+01    7.143845e-01
  3.018362e+01    7.151762e-01
  3.021537e+01    7.239103e-01
  3.024712e+01    6.993124e-01
  3.027888e+01    7.031854e-01
  3.031063e+01    6.969768e-01
  3.034238e+01    7.365775e-01
  3.037413e+01    7.024769e-01
  3.040588e+01    7.406374e-01
  3.043763e+01    7.055203e-01
  3.046938e+01    7.245755e-01
  3.050113e+01    7.009554e-01
  3.053288e+01    7.138091e-01
  3.056464e+01    7.129905e-01
  3.059639e+01    7.130003e-01
  3.062814e+01    6.926904e-01
  3.065989e+01    7.330301e-01
  3.069164e+01    7.086217e-01
  3.072339e+01    7.121806e-01
  3.075514e+01    7.193349e-01
  3.078689e+01    7.085077e-01
  3.081865e+01    7.071384e-01
  3.085040e+01    6.987684e-01
  3.088215e+01    7.295210e-01
  3.091390e+01    7.026661e-01
  3.094565e+01    7.334749e-01
  3.097740e+01    7.165788e-01
  3.100915e+01    7.217491e-01
  3.104090e+01    7.140364e-01
  3.107265e+01    7.172218e-01
  3.110441e+01    7.215350e-01
  3.113616e+01    7.250128e-01
  3.116791e+01    7.214505e-01
  3.119966e+01    7.115223e-01
  3.123141e+01    7.269204e-01
  3.126316e+01    7.491964e-01
  3.129491e+01    7.338186e-01
  3.132666e+01    7.222856e-01
  3.135841e+01    7.558915e-01
  3.139017e+01    7.193464e-01
  3.142192e+01    7.449477e-01
  3.145367e+01    7.400729e-01
  3.148542e+01    7.381291e-01
  3.151717e+01    7.506269e-01
  3.154892e+01    7.933727e-01
  3.158067e+01    8.057024e-01
  3.161242e+01    8.298847e-01
  3.164418e+01    8.384365e-01
  3.167593e+01    8.728465e-01
  3.170768e+01    9.189318e-01
  3.173943e+01    1.010723e+00
  3.177118e+01    1.095640e+00
  3.180293e+01    1.269325e+00
  3.183468e+01    1.492048e+00
  3.186643e+01    1.828625e+00
  3.189818e+01    2.147501e+00
  3.192994e+01    2.381813e+00
  3.196169e+01    2.436442e+00
  3.199344e+01    2.180185e+00
  3.202519e+01    1.791637e+00
  3.205694e+01    1.439546e+00
  3.208869e+01    1.216789e+00
  3.212044e+01    1.073878e+00
  3.215219e+01    9.769481e-01
  3.218394e+01    9.128586e-01
  3.221570e+01    8.626928e-01
  3.224745e+01    7.941821e-01
  3.227920e+01    8.049651e-01
  3.231095e+01    7.781053e-01
  3.234270e+01    7.648665e-01
  3.237445e+01    7.499273e-01
  3.240620e+01    7.631539e-01
  3.243795e+01    7.373988e-01
  3.246970e+01    7.585286e-01
  3.250146e+01    7.285000e-01
  3.253321e+01    7.221958e-01
  3.254908e+01    7.417731e-01