File: XRD/2024-07-27_002_Ru-CGO-ex_Activtation_ramp_000002_data_000033.dat
# == pyFAI calibration ==
# Distance Sample to Detector: 0.4 m
# PONI: 9.750e-02, 1.135e-01 m
# Rotations: -0.000175 0.000000 -0.000000 rad
#
# == Fit2d calibration ==
# Distance Sample-beamCenter: 400.000 mm
# Center: x=1514.000, y=1300.000 pix
# Tilt: 0.010 deg  TiltPlanRot: 0.010 deg
#
# Detector Detector	 Spline= None	 PixelSize= 7.500e-05, 7.500e-05 m
#    Detector has a mask: False
#    Detector has a dark current: False
#    detector has a flat field: False
#
# Wavelength: 6.888e-11 m
# Mask applied: user provided
# Dark current applied: False
# Flat field applied: False
# Polarization factor: 0.99
# Normalization factor: 1.0
# --> /home/myspot/data/2024_07_Rosario/Ru-CGO-ex/2024-07-27_002_Ru-CGO-ex_Activtation_ramp_000002_data_000033.dat
#       q_nm^-1             I
  2.003187e-02    0.000000e+00
  5.178302e-02    4.781393e-02
  8.353417e-02    2.365263e-01
  1.152853e-01    1.884068e-03
  1.470365e-01    3.813720e-02
  1.787876e-01    2.469405e-04
  2.105388e-01    5.043752e-02
  2.422899e-01    1.449156e-03
  2.740411e-01    4.452338e-02
  3.057922e-01    7.234773e-03
  3.375433e-01    1.438082e-02
  3.692945e-01    4.043356e-02
  4.010456e-01    4.128734e-02
  4.327968e-01    2.888289e-02
  4.645479e-01    1.688405e-02
  4.962991e-01    2.389283e-02
  5.280502e-01    5.048503e-02
  5.598014e-01    3.171973e-02
  5.915525e-01    4.276734e-02
  6.233037e-01    5.606472e-02
  6.550548e-01    2.331078e-02
  6.868060e-01    2.828127e-02
  7.185571e-01    4.681010e-02
  7.503083e-01    3.332746e-02
  7.820594e-01    1.230221e-01
  8.138106e-01    2.036989e-01
  8.455617e-01    2.897884e-01
  8.773129e-01    4.226540e-01
  9.090640e-01    5.617477e-01
  9.408152e-01    6.893373e-01
  9.725663e-01    8.529688e-01
  1.004317e+00    1.013975e+00
  1.036069e+00    1.294751e+00
  1.067820e+00    1.282469e+00
  1.099571e+00    1.311846e+00
  1.131322e+00    1.423697e+00
  1.163073e+00    1.554870e+00
  1.194824e+00    1.751503e+00
  1.226575e+00    1.981574e+00
  1.258327e+00    2.308760e+00
  1.290078e+00    2.480354e+00
  1.321829e+00    2.627793e+00
  1.353580e+00    2.604771e+00
  1.385331e+00    2.714014e+00
  1.417082e+00    2.799295e+00
  1.448834e+00    2.752575e+00
  1.480585e+00    2.835948e+00
  1.512336e+00    2.744586e+00
  1.544087e+00    3.109144e+00
  1.575838e+00    3.060328e+00
  1.607589e+00    2.968392e+00
  1.639340e+00    2.975450e+00
  1.671092e+00    2.924959e+00
  1.702843e+00    2.972597e+00
  1.734594e+00    2.757181e+00
  1.766345e+00    2.956283e+00
  1.798096e+00    2.850807e+00
  1.829847e+00    2.807486e+00
  1.861598e+00    2.760882e+00
  1.893350e+00    2.737466e+00
  1.925101e+00    2.856801e+00
  1.956852e+00    2.866170e+00
  1.988603e+00    2.723949e+00
  2.020354e+00    2.681065e+00
  2.052105e+00    2.781216e+00
  2.083856e+00    2.742810e+00
  2.115608e+00    2.667331e+00
  2.147359e+00    2.789654e+00
  2.179110e+00    2.893879e+00
  2.210861e+00    2.731120e+00
  2.242612e+00    2.785294e+00
  2.274363e+00    2.821501e+00
  2.306115e+00    2.738434e+00
  2.337866e+00    2.842606e+00
  2.369617e+00    2.891609e+00
  2.401368e+00    2.799206e+00
  2.433119e+00    2.974823e+00
  2.464870e+00    2.879519e+00
  2.496621e+00    2.849602e+00
  2.528373e+00    2.826449e+00
  2.560124e+00    2.849953e+00
  2.591875e+00    2.758076e+00
  2.623626e+00    2.918944e+00
  2.655377e+00    2.766059e+00
  2.687128e+00    2.723343e+00
  2.718879e+00    2.902833e+00
  2.750631e+00    2.885123e+00
  2.782382e+00    2.732423e+00
  2.814133e+00    2.861065e+00
  2.845884e+00    2.917516e+00
  2.877635e+00    2.821660e+00
  2.909386e+00    2.886851e+00
  2.941137e+00    2.854986e+00
  2.972889e+00    2.803505e+00
  3.004640e+00    2.831690e+00
  3.036391e+00    2.852535e+00
  3.068142e+00    3.010506e+00
  3.099893e+00    2.857392e+00
  3.131644e+00    2.923778e+00
  3.163395e+00    2.918799e+00
  3.195147e+00    2.973017e+00
  3.226898e+00    2.846971e+00
  3.258649e+00    2.995860e+00
  3.290400e+00    2.870898e+00
  3.322151e+00    2.937242e+00
  3.353902e+00    2.968015e+00
  3.385654e+00    3.020983e+00
  3.417405e+00    2.957668e+00
  3.449156e+00    3.017553e+00
  3.480907e+00    2.950334e+00
  3.512658e+00    2.938302e+00
  3.544409e+00    2.924261e+00
  3.576160e+00    3.027130e+00
  3.607912e+00    2.985574e+00
  3.639663e+00    3.010116e+00
  3.671414e+00    3.040653e+00
  3.703165e+00    3.011238e+00
  3.734916e+00    2.997230e+00
  3.766667e+00    2.986899e+00
  3.798418e+00    2.984480e+00
  3.830170e+00    2.988863e+00
  3.861921e+00    2.952552e+00
  3.893672e+00    3.065805e+00
  3.925423e+00    2.990260e+00
  3.957174e+00    3.034263e+00
  3.988925e+00    3.063723e+00
  4.020676e+00    3.012994e+00
  4.052428e+00    3.003988e+00
  4.084179e+00    3.032678e+00
  4.115930e+00    3.057991e+00
  4.147681e+00    3.063819e+00
  4.179432e+00    3.063562e+00
  4.211183e+00    3.062573e+00
  4.242935e+00    3.072759e+00
  4.274686e+00    3.082295e+00
  4.306437e+00    3.050043e+00
  4.338188e+00    3.091053e+00
  4.369939e+00    3.107322e+00
  4.401690e+00    3.092776e+00
  4.433441e+00    3.074688e+00
  4.465193e+00    3.102786e+00
  4.496944e+00    3.033400e+00
  4.528695e+00    3.101503e+00
  4.560446e+00    3.076128e+00
  4.592197e+00    3.142119e+00
  4.623948e+00    3.149761e+00
  4.655699e+00    3.045010e+00
  4.687451e+00    3.112249e+00
  4.719202e+00    3.074810e+00
  4.750953e+00    3.064189e+00
  4.782704e+00    3.132424e+00
  4.814455e+00    3.050077e+00
  4.846206e+00    3.139254e+00
  4.877957e+00    3.169390e+00
  4.909709e+00    3.122997e+00
  4.941460e+00    3.097188e+00
  4.973211e+00    3.147692e+00
  5.004962e+00    3.144714e+00
  5.036713e+00    3.128995e+00
  5.068464e+00    3.139886e+00
  5.100216e+00    3.134313e+00
  5.131967e+00    3.186738e+00
  5.163718e+00    3.173488e+00
  5.195469e+00    3.080012e+00
  5.227220e+00    3.163672e+00
  5.258971e+00    3.148535e+00
  5.290722e+00    3.180838e+00
  5.322474e+00    3.107063e+00
  5.354225e+00    3.189766e+00
  5.385976e+00    3.153057e+00
  5.417727e+00    3.131246e+00
  5.449478e+00    3.165133e+00
  5.481229e+00    3.074361e+00
  5.512980e+00    3.116311e+00
  5.544732e+00    3.002440e+00
  5.576483e+00    3.150314e+00
  5.608234e+00    3.122290e+00
  5.639985e+00    3.073471e+00
  5.671736e+00    3.151496e+00
  5.703487e+00    3.067113e+00
  5.735238e+00    3.100318e+00
  5.766990e+00    3.112732e+00
  5.798741e+00    3.033909e+00
  5.830492e+00    3.035872e+00
  5.862243e+00    3.120768e+00
  5.893994e+00    3.019443e+00
  5.925745e+00    3.065589e+00
  5.957497e+00    3.125870e+00
  5.989248e+00    3.082082e+00
  6.020999e+00    3.031525e+00
  6.052750e+00    3.051693e+00
  6.084501e+00    3.018313e+00
  6.116252e+00    3.135129e+00
  6.148003e+00    3.119284e+00
  6.179755e+00    3.095528e+00
  6.211506e+00    3.042706e+00
  6.243257e+00    2.999878e+00
  6.275008e+00    3.064362e+00
  6.306759e+00    3.041128e+00
  6.338510e+00    3.065178e+00
  6.370261e+00    2.998300e+00
  6.402013e+00    3.047982e+00
  6.433764e+00    3.078122e+00
  6.465515e+00    2.952602e+00
  6.497266e+00    3.072142e+00
  6.529017e+00    3.101694e+00
  6.560768e+00    3.043488e+00
  6.592519e+00    3.061775e+00
  6.624271e+00    2.999938e+00
  6.656022e+00    3.056411e+00
  6.687773e+00    2.963151e+00
  6.719524e+00    3.038626e+00
  6.751275e+00    3.075398e+00
  6.783026e+00    3.053168e+00
  6.814777e+00    3.076892e+00
  6.846529e+00    2.960886e+00
  6.878280e+00    3.056826e+00
  6.910031e+00    2.950290e+00
  6.941782e+00    3.050689e+00
  6.973533e+00    2.927810e+00
  7.005284e+00    3.025094e+00
  7.037036e+00    3.082598e+00
  7.068787e+00    2.986080e+00
  7.100538e+00    3.003474e+00
  7.132289e+00    3.004677e+00
  7.164040e+00    3.037657e+00
  7.195791e+00    3.029875e+00
  7.227542e+00    2.998640e+00
  7.259294e+00    3.030052e+00
  7.291045e+00    3.057113e+00
  7.322796e+00    3.021387e+00
  7.354547e+00    2.985319e+00
  7.386298e+00    3.018899e+00
  7.418049e+00    3.036979e+00
  7.449800e+00    3.019217e+00
  7.481552e+00    3.012317e+00
  7.513303e+00    2.965254e+00
  7.545054e+00    2.955931e+00
  7.576805e+00    2.936741e+00
  7.608556e+00    2.981420e+00
  7.640307e+00    2.966453e+00
  7.672058e+00    2.978800e+00
  7.703810e+00    2.951875e+00
  7.735561e+00    2.935842e+00
  7.767312e+00    3.025870e+00
  7.799063e+00    2.954779e+00
  7.830814e+00    2.866807e+00
  7.862565e+00    2.984041e+00
  7.894317e+00    2.952903e+00
  7.926068e+00    2.880972e+00
  7.957819e+00    2.905732e+00
  7.989570e+00    2.911908e+00
  8.021321e+00    2.905158e+00
  8.053072e+00    2.914337e+00
  8.084823e+00    2.900866e+00
  8.116575e+00    2.973598e+00
  8.148326e+00    2.905091e+00
  8.180077e+00    3.018774e+00
  8.211828e+00    2.990174e+00
  8.243579e+00    2.955503e+00
  8.275330e+00    2.972320e+00
  8.307081e+00    2.953259e+00
  8.338833e+00    2.892784e+00
  8.370584e+00    2.925817e+00
  8.402335e+00    2.896808e+00
  8.434086e+00    2.880063e+00
  8.465837e+00    2.871489e+00
  8.497588e+00    2.954732e+00
  8.529339e+00    2.917457e+00
  8.561091e+00    2.888057e+00
  8.592842e+00    2.841206e+00
  8.624593e+00    2.830107e+00
  8.656344e+00    2.839320e+00
  8.688095e+00    2.936444e+00
  8.719846e+00    2.842866e+00
  8.751598e+00    2.900297e+00
  8.783349e+00    2.827639e+00
  8.815100e+00    2.880889e+00
  8.846851e+00    2.842224e+00
  8.878602e+00    2.892057e+00
  8.910353e+00    2.828736e+00
  8.942104e+00    2.826409e+00
  8.973856e+00    2.894238e+00
  9.005607e+00    2.800410e+00
  9.037358e+00    2.823235e+00
  9.069109e+00    2.861411e+00
  9.100860e+00    2.768406e+00
  9.132611e+00    2.789760e+00
  9.164362e+00    2.781410e+00
  9.196114e+00    2.802771e+00
  9.227865e+00    2.797281e+00
  9.259616e+00    2.785939e+00
  9.291367e+00    2.814990e+00
  9.323118e+00    2.842474e+00
  9.354869e+00    2.746933e+00
  9.386620e+00    2.777656e+00
  9.418372e+00    2.724791e+00
  9.450123e+00    2.760390e+00
  9.481874e+00    2.777527e+00
  9.513625e+00    2.758705e+00
  9.545376e+00    2.829818e+00
  9.577127e+00    2.790090e+00
  9.608878e+00    2.823299e+00
  9.640630e+00    2.790240e+00
  9.672381e+00    2.789735e+00
  9.704132e+00    2.750964e+00
  9.735883e+00    2.735287e+00
  9.767634e+00    2.731783e+00
  9.799385e+00    2.783286e+00
  9.831137e+00    2.765048e+00
  9.862888e+00    2.687567e+00
  9.894639e+00    2.669754e+00
  9.926390e+00    2.710984e+00
  9.958141e+00    2.707420e+00
  9.989892e+00    2.699131e+00
  1.002164e+01    2.684967e+00
  1.005339e+01    2.688451e+00
  1.008515e+01    2.703816e+00
  1.011690e+01    2.634653e+00
  1.014865e+01    2.694390e+00
  1.018040e+01    2.710241e+00
  1.021215e+01    2.655815e+00
  1.024390e+01    2.624160e+00
  1.027565e+01    2.653912e+00
  1.030740e+01    2.649068e+00
  1.033915e+01    2.695720e+00
  1.037091e+01    2.601490e+00
  1.040266e+01    2.620742e+00
  1.043441e+01    2.593569e+00
  1.046616e+01    2.602868e+00
  1.049791e+01    2.623768e+00
  1.052966e+01    2.596804e+00
  1.056141e+01    2.629964e+00
  1.059316e+01    2.643820e+00
  1.062492e+01    2.615465e+00
  1.065667e+01    2.567374e+00
  1.068842e+01    2.608775e+00
  1.072017e+01    2.549233e+00
  1.075192e+01    2.561083e+00
  1.078367e+01    2.533932e+00
  1.081542e+01    2.540219e+00
  1.084717e+01    2.531258e+00
  1.087892e+01    2.499027e+00
  1.091068e+01    2.480407e+00
  1.094243e+01    2.570513e+00
  1.097418e+01    2.573932e+00
  1.100593e+01    2.478476e+00
  1.103768e+01    2.512320e+00
  1.106943e+01    2.496852e+00
  1.110118e+01    2.514854e+00
  1.113293e+01    2.490993e+00
  1.116468e+01    2.440681e+00
  1.119644e+01    2.430890e+00
  1.122819e+01    2.532728e+00
  1.125994e+01    2.471389e+00
  1.129169e+01    2.449657e+00
  1.132344e+01    2.460999e+00
  1.135519e+01    2.467690e+00
  1.138694e+01    2.495497e+00
  1.141869e+01    2.446976e+00
  1.145045e+01    2.435916e+00
  1.148220e+01    2.405065e+00
  1.151395e+01    2.460635e+00
  1.154570e+01    2.378840e+00
  1.157745e+01    2.407232e+00
  1.160920e+01    2.389581e+00
  1.164095e+01    2.373568e+00
  1.167270e+01    2.379130e+00
  1.170445e+01    2.431496e+00
  1.173621e+01    2.328251e+00
  1.176796e+01    2.364826e+00
  1.179971e+01    2.383682e+00
  1.183146e+01    2.395919e+00
  1.186321e+01    2.385071e+00
  1.189496e+01    2.387407e+00
  1.192671e+01    2.347569e+00
  1.195846e+01    2.362449e+00
  1.199021e+01    2.305648e+00
  1.202197e+01    2.347923e+00
  1.205372e+01    2.375348e+00
  1.208547e+01    2.358906e+00
  1.211722e+01    2.374147e+00
  1.214897e+01    2.374637e+00
  1.218072e+01    2.286441e+00
  1.221247e+01    2.295915e+00
  1.224422e+01    2.293855e+00
  1.227597e+01    2.374401e+00
  1.230773e+01    2.349039e+00
  1.233948e+01    2.299892e+00
  1.237123e+01    2.428801e+00
  1.240298e+01    2.368504e+00
  1.243473e+01    2.373086e+00
  1.246648e+01    2.344549e+00
  1.249823e+01    2.366809e+00
  1.252998e+01    2.403247e+00
  1.256174e+01    2.375557e+00
  1.259349e+01    2.400373e+00
  1.262524e+01    2.420208e+00
  1.265699e+01    2.470726e+00
  1.268874e+01    2.494736e+00
  1.272049e+01    2.501534e+00
  1.275224e+01    2.503629e+00
  1.278399e+01    2.695462e+00
  1.281574e+01    2.719375e+00
  1.284750e+01    2.871540e+00
  1.287925e+01    3.014913e+00
  1.291100e+01    3.343280e+00
  1.294275e+01    3.618718e+00
  1.297450e+01    4.316837e+00
  1.300625e+01    5.289553e+00
  1.303800e+01    6.742238e+00
  1.306975e+01    9.125935e+00
  1.310150e+01    1.210420e+01
  1.313326e+01    1.512406e+01
  1.316501e+01    1.787662e+01
  1.319676e+01    1.967665e+01
  1.322851e+01    1.792006e+01
  1.326026e+01    1.342083e+01
  1.329201e+01    9.520061e+00
  1.332376e+01    6.855252e+00
  1.335551e+01    5.313182e+00
  1.338727e+01    4.348292e+00
  1.341902e+01    3.693960e+00
  1.345077e+01    3.309993e+00
  1.348252e+01    3.042746e+00
  1.351427e+01    2.825436e+00
  1.354602e+01    2.673378e+00
  1.357777e+01    2.561919e+00
  1.360952e+01    2.466198e+00
  1.364127e+01    2.394812e+00
  1.367303e+01    2.324857e+00
  1.370478e+01    2.308814e+00
  1.373653e+01    2.280071e+00
  1.376828e+01    2.273302e+00
  1.380003e+01    2.196271e+00
  1.383178e+01    2.129543e+00
  1.386353e+01    2.128558e+00
  1.389528e+01    2.155039e+00
  1.392703e+01    2.106646e+00
  1.395879e+01    2.123732e+00
  1.399054e+01    2.092169e+00
  1.402229e+01    2.078818e+00
  1.405404e+01    2.059631e+00
  1.408579e+01    2.080705e+00
  1.411754e+01    2.058430e+00
  1.414929e+01    2.063580e+00
  1.418104e+01    2.004360e+00
  1.421279e+01    2.009140e+00
  1.424455e+01    1.988506e+00
  1.427630e+01    2.000509e+00
  1.430805e+01    1.974454e+00
  1.433980e+01    1.988137e+00
  1.437155e+01    1.981140e+00
  1.440330e+01    1.954373e+00
  1.443505e+01    1.951280e+00
  1.446680e+01    1.937620e+00
  1.449856e+01    1.953288e+00
  1.453031e+01    1.954942e+00
  1.456206e+01    1.953318e+00
  1.459381e+01    1.931202e+00
  1.462556e+01    1.935570e+00
  1.465731e+01    1.944144e+00
  1.468906e+01    1.959805e+00
  1.472081e+01    1.947804e+00
  1.475256e+01    1.900579e+00
  1.478432e+01    1.906789e+00
  1.481607e+01    1.978241e+00
  1.484782e+01    1.943493e+00
  1.487957e+01    1.979739e+00
  1.491132e+01    1.981058e+00
  1.494307e+01    2.039472e+00
  1.497482e+01    2.084108e+00
  1.500657e+01    2.180975e+00
  1.503832e+01    2.252947e+00
  1.507008e+01    2.481211e+00
  1.510183e+01    2.808582e+00
  1.513358e+01    3.266398e+00
  1.516533e+01    4.054126e+00
  1.519708e+01    4.774764e+00
  1.522883e+01    5.717005e+00
  1.526058e+01    6.306870e+00
  1.529233e+01    6.486555e+00
  1.532409e+01    6.072536e+00
  1.535584e+01    4.926429e+00
  1.538759e+01    3.825150e+00
  1.541934e+01    3.067801e+00
  1.545109e+01    2.605935e+00
  1.548284e+01    2.316352e+00
  1.551459e+01    2.156626e+00
  1.554634e+01    2.028668e+00
  1.557809e+01    1.960312e+00
  1.560985e+01    1.935308e+00
  1.564160e+01    1.876467e+00
  1.567335e+01    1.839651e+00
  1.570510e+01    1.795461e+00
  1.573685e+01    1.732575e+00
  1.576860e+01    1.756389e+00
  1.580035e+01    1.688448e+00
  1.583210e+01    1.721995e+00
  1.586385e+01    1.655701e+00
  1.589561e+01    1.691131e+00
  1.592736e+01    1.637501e+00
  1.595911e+01    1.673513e+00
  1.599086e+01    1.594554e+00
  1.602261e+01    1.578215e+00
  1.605436e+01    1.622164e+00
  1.608611e+01    1.595843e+00
  1.611786e+01    1.646078e+00
  1.614961e+01    1.585725e+00
  1.618137e+01    1.590528e+00
  1.621312e+01    1.574271e+00
  1.624487e+01    1.547262e+00
  1.627662e+01    1.541576e+00
  1.630837e+01    1.559551e+00
  1.634012e+01    1.550823e+00
  1.637187e+01    1.583541e+00
  1.640362e+01    1.565410e+00
  1.643538e+01    1.544564e+00
  1.646713e+01    1.545298e+00
  1.649888e+01    1.530319e+00
  1.653063e+01    1.534301e+00
  1.656238e+01    1.510101e+00
  1.659413e+01    1.486835e+00
  1.662588e+01    1.504741e+00
  1.665763e+01    1.488094e+00
  1.668938e+01    1.485175e+00
  1.672114e+01    1.493461e+00
  1.675289e+01    1.488455e+00
  1.678464e+01    1.474932e+00
  1.681639e+01    1.468453e+00
  1.684814e+01    1.515167e+00
  1.687989e+01    1.461423e+00
  1.691164e+01    1.453023e+00
  1.694339e+01    1.449560e+00
  1.697514e+01    1.474119e+00
  1.700690e+01    1.477773e+00
  1.703865e+01    1.445697e+00
  1.707040e+01    1.429026e+00
  1.710215e+01    1.410862e+00
  1.713390e+01    1.441504e+00
  1.716565e+01    1.422683e+00
  1.719740e+01    1.407130e+00
  1.722915e+01    1.437699e+00
  1.726091e+01    1.424875e+00
  1.729266e+01    1.408018e+00
  1.732441e+01    1.415008e+00
  1.735616e+01    1.391369e+00
  1.738791e+01    1.374959e+00
  1.741966e+01    1.419275e+00
  1.745141e+01    1.398026e+00
  1.748316e+01    1.356002e+00
  1.751491e+01    1.386458e+00
  1.754667e+01    1.364066e+00
  1.757842e+01    1.391992e+00
  1.761017e+01    1.347026e+00
  1.764192e+01    1.382570e+00
  1.767367e+01    1.345342e+00
  1.770542e+01    1.348374e+00
  1.773717e+01    1.375127e+00
  1.776892e+01    1.343416e+00
  1.780067e+01    1.321944e+00
  1.783243e+01    1.342945e+00
  1.786418e+01    1.317529e+00
  1.789593e+01    1.320746e+00
  1.792768e+01    1.289493e+00
  1.795943e+01    1.349026e+00
  1.799118e+01    1.338171e+00
  1.802293e+01    1.328846e+00
  1.805468e+01    1.300923e+00
  1.808643e+01    1.307243e+00
  1.811819e+01    1.289800e+00
  1.814994e+01    1.296028e+00
  1.818169e+01    1.294431e+00
  1.821344e+01    1.299796e+00
  1.824519e+01    1.269520e+00
  1.827694e+01    1.277097e+00
  1.830869e+01    1.280102e+00
  1.834044e+01    1.294172e+00
  1.837220e+01    1.284634e+00
  1.840395e+01    1.247881e+00
  1.843570e+01    1.254071e+00
  1.846745e+01    1.263587e+00
  1.849920e+01    1.246565e+00
  1.853095e+01    1.284665e+00
  1.856270e+01    1.238688e+00
  1.859445e+01    1.247120e+00
  1.862620e+01    1.258290e+00
  1.865796e+01    1.242823e+00
  1.868971e+01    1.263914e+00
  1.872146e+01    1.237622e+00
  1.875321e+01    1.251468e+00
  1.878496e+01    1.199687e+00
  1.881671e+01    1.219978e+00
  1.884846e+01    1.240957e+00
  1.888021e+01    1.238642e+00
  1.891196e+01    1.236583e+00
  1.894372e+01    1.208234e+00
  1.897547e+01    1.218425e+00
  1.900722e+01    1.231867e+00
  1.903897e+01    1.197961e+00
  1.907072e+01    1.224930e+00
  1.910247e+01    1.217375e+00
  1.913422e+01    1.218176e+00
  1.916597e+01    1.213016e+00
  1.919773e+01    1.210187e+00
  1.922948e+01    1.182713e+00
  1.926123e+01    1.187282e+00
  1.929298e+01    1.207487e+00
  1.932473e+01    1.202447e+00
  1.935648e+01    1.195377e+00
  1.938823e+01    1.193058e+00
  1.941998e+01    1.165392e+00
  1.945173e+01    1.191379e+00
  1.948349e+01    1.155908e+00
  1.951524e+01    1.161232e+00
  1.954699e+01    1.192300e+00
  1.957874e+01    1.194971e+00
  1.961049e+01    1.180377e+00
  1.964224e+01    1.159022e+00
  1.967399e+01    1.147115e+00
  1.970574e+01    1.155870e+00
  1.973749e+01    1.145112e+00
  1.976925e+01    1.174539e+00
  1.980100e+01    1.171038e+00
  1.983275e+01    1.123265e+00
  1.986450e+01    1.130547e+00
  1.989625e+01    1.117715e+00
  1.992800e+01    1.122915e+00
  1.995975e+01    1.143529e+00
  1.999150e+01    1.132982e+00
  2.002325e+01    1.108266e+00
  2.005501e+01    1.135415e+00
  2.008676e+01    1.140213e+00
  2.011851e+01    1.101410e+00
  2.015026e+01    1.127784e+00
  2.018201e+01    1.096379e+00
  2.021376e+01    1.139024e+00
  2.024551e+01    1.107340e+00
  2.027726e+01    1.114837e+00
  2.030902e+01    1.072706e+00
  2.034077e+01    1.125850e+00
  2.037252e+01    1.091117e+00
  2.040427e+01    1.102283e+00
  2.043602e+01    1.093593e+00
  2.046777e+01    1.099719e+00
  2.049952e+01    1.107913e+00
  2.053127e+01    1.095633e+00
  2.056302e+01    1.127059e+00
  2.059478e+01    1.082139e+00
  2.062653e+01    1.112689e+00
  2.065828e+01    1.102668e+00
  2.069003e+01    1.097233e+00
  2.072178e+01    1.075995e+00
  2.075353e+01    1.110727e+00
  2.078528e+01    1.070010e+00
  2.081703e+01    1.123350e+00
  2.084878e+01    1.117253e+00
  2.088054e+01    1.087026e+00
  2.091229e+01    1.090321e+00
  2.094404e+01    1.099543e+00
  2.097579e+01    1.092351e+00
  2.100754e+01    1.082354e+00
  2.103929e+01    1.101026e+00
  2.107104e+01    1.122019e+00
  2.110279e+01    1.083834e+00
  2.113455e+01    1.113605e+00
  2.116630e+01    1.124892e+00
  2.119805e+01    1.116332e+00
  2.122980e+01    1.114349e+00
  2.126155e+01    1.111675e+00
  2.129330e+01    1.130530e+00
  2.132505e+01    1.142219e+00
  2.135680e+01    1.189250e+00
  2.138855e+01    1.186570e+00
  2.142031e+01    1.197069e+00
  2.145206e+01    1.228536e+00
  2.148381e+01    1.264312e+00
  2.151556e+01    1.308324e+00
  2.154731e+01    1.359794e+00
  2.157906e+01    1.444656e+00
  2.161081e+01    1.549022e+00
  2.164256e+01    1.715016e+00
  2.167431e+01    1.986080e+00
  2.170607e+01    2.334443e+00
  2.173782e+01    2.911609e+00
  2.176957e+01    3.705782e+00
  2.180132e+01    4.942800e+00
  2.183307e+01    6.431893e+00
  2.186482e+01    8.189386e+00
  2.189657e+01    9.842536e+00
  2.192832e+01    1.084134e+01
  2.196007e+01    1.023680e+01
  2.199183e+01    8.118226e+00
  2.202358e+01    5.849442e+00
  2.205533e+01    4.220726e+00
  2.208708e+01    3.148398e+00
  2.211883e+01    2.506925e+00
  2.215058e+01    2.121397e+00
  2.218233e+01    1.811108e+00
  2.221408e+01    1.580118e+00
  2.224584e+01    1.497110e+00
  2.227759e+01    1.362581e+00
  2.230934e+01    1.311105e+00
  2.234109e+01    1.241945e+00
  2.237284e+01    1.175621e+00
  2.240459e+01    1.154886e+00
  2.243634e+01    1.126371e+00
  2.246809e+01    1.068290e+00
  2.249984e+01    1.075832e+00
  2.253160e+01    1.053403e+00
  2.256335e+01    1.035128e+00
  2.259510e+01    1.009880e+00
  2.262685e+01    1.009666e+00
  2.265860e+01    9.816052e-01
  2.269035e+01    1.005211e+00
  2.272210e+01    9.581603e-01
  2.275385e+01    9.730480e-01
  2.278560e+01    9.559816e-01
  2.281736e+01    9.611655e-01
  2.284911e+01    9.416361e-01
  2.288086e+01    9.513792e-01
  2.291261e+01    9.144828e-01
  2.294436e+01    9.229202e-01
  2.297611e+01    9.030300e-01
  2.300786e+01    9.107552e-01
  2.303961e+01    9.500080e-01
  2.307137e+01    8.960512e-01
  2.310312e+01    9.032432e-01
  2.313487e+01    9.148690e-01
  2.316662e+01    9.097348e-01
  2.319837e+01    8.578949e-01
  2.323012e+01    8.592901e-01
  2.326187e+01    8.692297e-01
  2.329362e+01    9.087617e-01
  2.332537e+01    8.871061e-01
  2.335713e+01    8.688350e-01
  2.338888e+01    8.838493e-01
  2.342063e+01    8.771614e-01
  2.345238e+01    8.704415e-01
  2.348413e+01    8.807778e-01
  2.351588e+01    8.549511e-01
  2.354763e+01    8.417608e-01
  2.357938e+01    8.577858e-01
  2.361113e+01    8.532518e-01
  2.364289e+01    8.463746e-01
  2.367464e+01    8.334498e-01
  2.370639e+01    8.351191e-01
  2.373814e+01    8.246520e-01
  2.376989e+01    8.378335e-01
  2.380164e+01    8.282611e-01
  2.383339e+01    8.141488e-01
  2.386514e+01    8.220013e-01
  2.389689e+01    8.177208e-01
  2.392865e+01    8.238503e-01
  2.396040e+01    8.021691e-01
  2.399215e+01    8.267761e-01
  2.402390e+01    7.900850e-01
  2.405565e+01    7.864832e-01
  2.408740e+01    8.083685e-01
  2.411915e+01    8.101483e-01
  2.415090e+01    7.972525e-01
  2.418266e+01    7.985262e-01
  2.421441e+01    7.994953e-01
  2.424616e+01    8.049587e-01
  2.427791e+01    8.088934e-01
  2.430966e+01    8.151975e-01
  2.434141e+01    8.092760e-01
  2.437316e+01    7.923207e-01
  2.440491e+01    8.049154e-01
  2.443666e+01    7.959245e-01
  2.446842e+01    7.995279e-01
  2.450017e+01    8.147734e-01
  2.453192e+01    8.149613e-01
  2.456367e+01    7.935077e-01
  2.459542e+01    8.119691e-01
  2.462717e+01    8.247598e-01
  2.465892e+01    8.032004e-01
  2.469067e+01    7.957630e-01
  2.472242e+01    8.212777e-01
  2.475418e+01    8.169182e-01
  2.478593e+01    8.033403e-01
  2.481768e+01    8.036906e-01
  2.484943e+01    8.006766e-01
  2.488118e+01    8.192315e-01
  2.491293e+01    8.233274e-01
  2.494468e+01    8.098255e-01
  2.497643e+01    8.006105e-01
  2.500819e+01    7.979773e-01
  2.503994e+01    8.281509e-01
  2.507169e+01    8.270146e-01
  2.510344e+01    8.018212e-01
  2.513519e+01    8.204559e-01
  2.516694e+01    8.292583e-01
  2.519869e+01    8.220435e-01
  2.523044e+01    8.574309e-01
  2.526219e+01    8.506599e-01
  2.529395e+01    8.885933e-01
  2.532570e+01    8.844179e-01
  2.535745e+01    8.880221e-01
  2.538920e+01    9.182844e-01
  2.542095e+01    9.293071e-01
  2.545270e+01    9.509453e-01
  2.548445e+01    9.538348e-01
  2.551620e+01    9.792023e-01
  2.554795e+01    1.000255e+00
  2.557971e+01    1.053455e+00
  2.561146e+01    1.118347e+00
  2.564321e+01    1.176853e+00
  2.567496e+01    1.275294e+00
  2.570671e+01    1.429089e+00
  2.573846e+01    1.575898e+00
  2.577021e+01    1.852891e+00
  2.580196e+01    2.285004e+00
  2.583371e+01    2.877705e+00
  2.586547e+01    3.737514e+00
  2.589722e+01    4.943805e+00
  2.592897e+01    6.380245e+00
  2.596072e+01    7.922614e+00
  2.599247e+01    8.982897e+00
  2.602422e+01    8.757363e+00
  2.605597e+01    7.275047e+00
  2.608772e+01    5.402369e+00
  2.611948e+01    3.920645e+00
  2.615123e+01    2.968023e+00
  2.618298e+01    2.336145e+00
  2.621473e+01    1.930642e+00
  2.624648e+01    1.650373e+00
  2.627823e+01    1.436637e+00
  2.630998e+01    1.296692e+00
  2.634173e+01    1.195418e+00
  2.637348e+01    1.152285e+00
  2.640524e+01    1.063272e+00
  2.643699e+01    1.042843e+00
  2.646874e+01    9.980009e-01
  2.650049e+01    9.973139e-01
  2.653224e+01    9.921884e-01
  2.656399e+01    9.539170e-01
  2.659574e+01    9.532992e-01
  2.662749e+01    9.207006e-01
  2.665924e+01    9.550359e-01
  2.669100e+01    9.381942e-01
  2.672275e+01    9.199430e-01
  2.675450e+01    9.407377e-01
  2.678625e+01    9.385378e-01
  2.681800e+01    9.290789e-01
  2.684975e+01    9.199027e-01
  2.688150e+01    9.255365e-01
  2.691325e+01    9.472450e-01
  2.694501e+01    9.502943e-01
  2.697676e+01    9.791366e-01
  2.700851e+01    1.036365e+00
  2.704026e+01    1.066448e+00
  2.707201e+01    1.139112e+00
  2.710376e+01    1.303843e+00
  2.713551e+01    1.507474e+00
  2.716726e+01    1.724951e+00
  2.719901e+01    2.063756e+00
  2.723077e+01    2.422486e+00
  2.726252e+01    2.567119e+00
  2.729427e+01    2.448002e+00
  2.732602e+01    2.103789e+00
  2.735777e+01    1.776820e+00
  2.738952e+01    1.438845e+00
  2.742127e+01    1.275962e+00
  2.745302e+01    1.166736e+00
  2.748477e+01    1.076583e+00
  2.751653e+01    9.772320e-01
  2.754828e+01    9.251195e-01
  2.758003e+01    9.232977e-01
  2.761178e+01    8.870750e-01
  2.764353e+01    8.905255e-01
  2.767528e+01    8.695701e-01
  2.770703e+01    8.630308e-01
  2.773878e+01    8.526808e-01
  2.777054e+01    8.435866e-01
  2.780229e+01    8.405471e-01
  2.783404e+01    8.358691e-01
  2.786579e+01    8.236997e-01
  2.789754e+01    8.312655e-01
  2.792929e+01    8.275930e-01
  2.796104e+01    8.366989e-01
  2.799279e+01    8.315495e-01
  2.802454e+01    7.906869e-01
  2.805630e+01    8.193844e-01
  2.808805e+01    8.096687e-01
  2.811980e+01    8.023813e-01
  2.815155e+01    8.018731e-01
  2.818330e+01    7.826180e-01
  2.821505e+01    7.849566e-01
  2.824680e+01    7.990191e-01
  2.827855e+01    7.958243e-01
  2.831030e+01    7.939177e-01
  2.834206e+01    7.853011e-01
  2.837381e+01    7.868416e-01
  2.840556e+01    8.000504e-01
  2.843731e+01    7.732656e-01
  2.846906e+01    7.787324e-01
  2.850081e+01    7.620876e-01
  2.853256e+01    7.676672e-01
  2.856431e+01    7.631438e-01
  2.859606e+01    7.550327e-01
  2.862782e+01    7.633902e-01
  2.865957e+01    7.669865e-01
  2.869132e+01    7.801788e-01
  2.872307e+01    7.645927e-01
  2.875482e+01    7.485496e-01
  2.878657e+01    7.484729e-01
  2.881832e+01    7.704546e-01
  2.885007e+01    7.810273e-01
  2.888183e+01    7.805688e-01
  2.891358e+01    7.429374e-01
  2.894533e+01    7.765493e-01
  2.897708e+01    7.675971e-01
  2.900883e+01    7.844850e-01
  2.904058e+01    7.559781e-01
  2.907233e+01    7.446740e-01
  2.910408e+01    7.444900e-01
  2.913583e+01    7.475865e-01
  2.916759e+01    7.533438e-01
  2.919934e+01    7.670557e-01
  2.923109e+01    7.441213e-01
  2.926284e+01    7.541077e-01
  2.929459e+01    7.491696e-01
  2.932634e+01    7.308332e-01
  2.935809e+01    7.568747e-01
  2.938984e+01    7.540144e-01
  2.942159e+01    7.345051e-01
  2.945335e+01    7.213804e-01
  2.948510e+01    7.387173e-01
  2.951685e+01    7.161836e-01
  2.954860e+01    7.222369e-01
  2.958035e+01    7.194973e-01
  2.961210e+01    7.457066e-01
  2.964385e+01    7.299091e-01
  2.967560e+01    7.458462e-01
  2.970736e+01    7.345505e-01
  2.973911e+01    7.205755e-01
  2.977086e+01    7.243985e-01
  2.980261e+01    7.351211e-01
  2.983436e+01    7.503572e-01
  2.986611e+01    7.474546e-01
  2.989786e+01    7.222881e-01
  2.992961e+01    7.399564e-01
  2.996136e+01    7.456720e-01
  2.999312e+01    7.644425e-01
  3.002487e+01    7.369950e-01
  3.005662e+01    7.434108e-01
  3.008837e+01    7.317601e-01
  3.012012e+01    7.313303e-01
  3.015187e+01    7.366922e-01
  3.018362e+01    7.290646e-01
  3.021537e+01    7.442294e-01
  3.024712e+01    7.160700e-01
  3.027888e+01    7.358686e-01
  3.031063e+01    7.212992e-01
  3.034238e+01    7.231060e-01
  3.037413e+01    7.309526e-01
  3.040588e+01    7.323228e-01
  3.043763e+01    7.294244e-01
  3.046938e+01    7.277496e-01
  3.050113e+01    7.341582e-01
  3.053288e+01    7.182849e-01
  3.056464e+01    7.255149e-01
  3.059639e+01    6.879892e-01
  3.062814e+01    7.261865e-01
  3.065989e+01    7.313253e-01
  3.069164e+01    7.299160e-01
  3.072339e+01    7.226341e-01
  3.075514e+01    7.352474e-01
  3.078689e+01    7.226593e-01
  3.081865e+01    7.421097e-01
  3.085040e+01    7.271936e-01
  3.088215e+01    7.394143e-01
  3.091390e+01    7.258907e-01
  3.094565e+01    7.288980e-01
  3.097740e+01    7.209791e-01
  3.100915e+01    7.384544e-01
  3.104090e+01    7.126520e-01
  3.107265e+01    7.260693e-01
  3.110441e+01    7.463868e-01
  3.113616e+01    7.150969e-01
  3.116791e+01    7.421179e-01
  3.119966e+01    7.272877e-01
  3.123141e+01    7.385743e-01
  3.126316e+01    7.498910e-01
  3.129491e+01    7.563789e-01
  3.132666e+01    7.302602e-01
  3.135841e+01    7.411536e-01
  3.139017e+01    7.673346e-01
  3.142192e+01    7.638916e-01
  3.145367e+01    7.694691e-01
  3.148542e+01    7.652819e-01
  3.151717e+01    7.915090e-01
  3.154892e+01    8.113360e-01
  3.158067e+01    8.236470e-01
  3.161242e+01    8.321368e-01
  3.164418e+01    8.505168e-01
  3.167593e+01    8.587433e-01
  3.170768e+01    9.368910e-01
  3.173943e+01    9.772020e-01
  3.177118e+01    1.103042e+00
  3.180293e+01    1.216946e+00
  3.183468e+01    1.419025e+00
  3.186643e+01    1.716522e+00
  3.189818e+01    2.097025e+00
  3.192994e+01    2.425608e+00
  3.196169e+01    2.554870e+00
  3.199344e+01    2.402310e+00
  3.202519e+01    2.071834e+00
  3.205694e+01    1.680546e+00
  3.208869e+01    1.376750e+00
  3.212044e+01    1.167216e+00
  3.215219e+01    1.031201e+00
  3.218394e+01    9.558297e-01
  3.221570e+01    8.725991e-01
  3.224745e+01    8.676669e-01
  3.227920e+01    8.450662e-01
  3.231095e+01    8.279740e-01
  3.234270e+01    7.601056e-01
  3.237445e+01    7.937300e-01
  3.240620e+01    7.719817e-01
  3.243795e+01    7.852125e-01
  3.246970e+01    7.471142e-01
  3.250146e+01    7.248571e-01
  3.253321e+01    7.548678e-01
  3.254908e+01    7.445855e-01