File: XRD/2024-07-27_002_Ru-CGO-ex_Activtation_ramp_000002_data_000014.dat
# == pyFAI calibration ==
# Distance Sample to Detector: 0.4 m
# PONI: 9.750e-02, 1.135e-01 m
# Rotations: -0.000175 0.000000 -0.000000 rad
#
# == Fit2d calibration ==
# Distance Sample-beamCenter: 400.000 mm
# Center: x=1514.000, y=1300.000 pix
# Tilt: 0.010 deg  TiltPlanRot: 0.010 deg
#
# Detector Detector	 Spline= None	 PixelSize= 7.500e-05, 7.500e-05 m
#    Detector has a mask: False
#    Detector has a dark current: False
#    detector has a flat field: False
#
# Wavelength: 6.888e-11 m
# Mask applied: user provided
# Dark current applied: False
# Flat field applied: False
# Polarization factor: 0.99
# Normalization factor: 1.0
# --> /home/myspot/data/2024_07_Rosario/Ru-CGO-ex/2024-07-27_002_Ru-CGO-ex_Activtation_ramp_000002_data_000014.dat
#       q_nm^-1             I
  2.003187e-02    0.000000e+00
  5.178302e-02    1.184101e-01
  8.353417e-02    4.263481e-02
  1.152853e-01    3.835142e-02
  1.470365e-01    6.354293e-02
  1.787876e-01    1.910309e-02
  2.105388e-01    3.639538e-02
  2.422899e-01    8.851736e-02
  2.740411e-01    2.283094e-02
  3.057922e-01    2.296979e-02
  3.375433e-01    1.749167e-02
  3.692945e-01    4.112331e-02
  4.010456e-01    6.513425e-03
  4.327968e-01    4.879710e-02
  4.645479e-01    4.676521e-02
  4.962991e-01    3.077572e-02
  5.280502e-01    4.366536e-02
  5.598014e-01    3.101524e-02
  5.915525e-01    4.178813e-02
  6.233037e-01    2.752135e-02
  6.550548e-01    2.706250e-02
  6.868060e-01    4.416072e-02
  7.185571e-01    3.986700e-02
  7.503083e-01    3.788049e-02
  7.820594e-01    1.066034e-01
  8.138106e-01    2.031459e-01
  8.455617e-01    3.286537e-01
  8.773129e-01    4.242477e-01
  9.090640e-01    4.938737e-01
  9.408152e-01    7.805936e-01
  9.725663e-01    8.945782e-01
  1.004317e+00    1.166414e+00
  1.036069e+00    1.157799e+00
  1.067820e+00    1.331342e+00
  1.099571e+00    1.366813e+00
  1.131322e+00    1.442703e+00
  1.163073e+00    1.497445e+00
  1.194824e+00    1.606946e+00
  1.226575e+00    2.268286e+00
  1.258327e+00    2.470243e+00
  1.290078e+00    2.537766e+00
  1.321829e+00    2.558766e+00
  1.353580e+00    2.706853e+00
  1.385331e+00    2.706565e+00
  1.417082e+00    2.785540e+00
  1.448834e+00    3.051746e+00
  1.480585e+00    3.010350e+00
  1.512336e+00    2.862696e+00
  1.544087e+00    2.945408e+00
  1.575838e+00    3.063323e+00
  1.607589e+00    3.063692e+00
  1.639340e+00    2.838612e+00
  1.671092e+00    2.909873e+00
  1.702843e+00    2.901349e+00
  1.734594e+00    2.948067e+00
  1.766345e+00    2.901530e+00
  1.798096e+00    2.921530e+00
  1.829847e+00    2.856465e+00
  1.861598e+00    2.771369e+00
  1.893350e+00    2.870690e+00
  1.925101e+00    2.802710e+00
  1.956852e+00    2.793044e+00
  1.988603e+00    2.836473e+00
  2.020354e+00    2.743144e+00
  2.052105e+00    2.724507e+00
  2.083856e+00    2.800954e+00
  2.115608e+00    2.828774e+00
  2.147359e+00    2.923936e+00
  2.179110e+00    2.819071e+00
  2.210861e+00    2.818544e+00
  2.242612e+00    2.776512e+00
  2.274363e+00    2.767552e+00
  2.306115e+00    2.934631e+00
  2.337866e+00    2.835151e+00
  2.369617e+00    2.733803e+00
  2.401368e+00    2.818547e+00
  2.433119e+00    2.792455e+00
  2.464870e+00    2.778399e+00
  2.496621e+00    2.849463e+00
  2.528373e+00    2.898756e+00
  2.560124e+00    2.882727e+00
  2.591875e+00    2.896267e+00
  2.623626e+00    2.813904e+00
  2.655377e+00    2.834485e+00
  2.687128e+00    2.869643e+00
  2.718879e+00    2.902698e+00
  2.750631e+00    2.845124e+00
  2.782382e+00    2.832591e+00
  2.814133e+00    2.851895e+00
  2.845884e+00    3.009845e+00
  2.877635e+00    2.884953e+00
  2.909386e+00    2.956416e+00
  2.941137e+00    2.923997e+00
  2.972889e+00    2.847782e+00
  3.004640e+00    2.887552e+00
  3.036391e+00    2.939220e+00
  3.068142e+00    3.009637e+00
  3.099893e+00    2.941366e+00
  3.131644e+00    2.890636e+00
  3.163395e+00    2.916795e+00
  3.195147e+00    2.969244e+00
  3.226898e+00    3.015785e+00
  3.258649e+00    2.972506e+00
  3.290400e+00    2.925988e+00
  3.322151e+00    2.900547e+00
  3.353902e+00    3.019732e+00
  3.385654e+00    3.011597e+00
  3.417405e+00    2.921801e+00
  3.449156e+00    2.889297e+00
  3.480907e+00    2.877031e+00
  3.512658e+00    3.019196e+00
  3.544409e+00    2.964486e+00
  3.576160e+00    2.929821e+00
  3.607912e+00    2.901024e+00
  3.639663e+00    3.151124e+00
  3.671414e+00    2.949573e+00
  3.703165e+00    2.946994e+00
  3.734916e+00    2.973338e+00
  3.766667e+00    3.045289e+00
  3.798418e+00    3.018924e+00
  3.830170e+00    2.981094e+00
  3.861921e+00    2.968585e+00
  3.893672e+00    3.119149e+00
  3.925423e+00    3.037762e+00
  3.957174e+00    3.119449e+00
  3.988925e+00    2.995007e+00
  4.020676e+00    3.008158e+00
  4.052428e+00    3.001261e+00
  4.084179e+00    2.977728e+00
  4.115930e+00    3.090997e+00
  4.147681e+00    3.067149e+00
  4.179432e+00    3.013150e+00
  4.211183e+00    3.073549e+00
  4.242935e+00    3.140925e+00
  4.274686e+00    3.162375e+00
  4.306437e+00    3.088497e+00
  4.338188e+00    3.060840e+00
  4.369939e+00    2.927638e+00
  4.401690e+00    3.123921e+00
  4.433441e+00    3.014593e+00
  4.465193e+00    3.040106e+00
  4.496944e+00    3.070295e+00
  4.528695e+00    3.013702e+00
  4.560446e+00    3.122515e+00
  4.592197e+00    3.180918e+00
  4.623948e+00    3.063840e+00
  4.655699e+00    3.006237e+00
  4.687451e+00    3.086298e+00
  4.719202e+00    3.058516e+00
  4.750953e+00    3.108744e+00
  4.782704e+00    3.148037e+00
  4.814455e+00    3.148143e+00
  4.846206e+00    3.182290e+00
  4.877957e+00    3.106839e+00
  4.909709e+00    3.188803e+00
  4.941460e+00    3.072179e+00
  4.973211e+00    3.151683e+00
  5.004962e+00    3.151507e+00
  5.036713e+00    3.132578e+00
  5.068464e+00    3.159529e+00
  5.100216e+00    3.091028e+00
  5.131967e+00    3.163661e+00
  5.163718e+00    3.127885e+00
  5.195469e+00    3.130772e+00
  5.227220e+00    3.094160e+00
  5.258971e+00    3.121134e+00
  5.290722e+00    3.176522e+00
  5.322474e+00    3.186311e+00
  5.354225e+00    3.177900e+00
  5.385976e+00    3.067802e+00
  5.417727e+00    3.232146e+00
  5.449478e+00    3.071750e+00
  5.481229e+00    3.127674e+00
  5.512980e+00    3.035435e+00
  5.544732e+00    3.087512e+00
  5.576483e+00    3.091413e+00
  5.608234e+00    3.037746e+00
  5.639985e+00    2.986721e+00
  5.671736e+00    3.060602e+00
  5.703487e+00    3.033214e+00
  5.735238e+00    3.139912e+00
  5.766990e+00    3.084700e+00
  5.798741e+00    3.142919e+00
  5.830492e+00    3.125404e+00
  5.862243e+00    3.052001e+00
  5.893994e+00    2.968931e+00
  5.925745e+00    2.959714e+00
  5.957497e+00    3.067697e+00
  5.989248e+00    3.048306e+00
  6.020999e+00    3.014516e+00
  6.052750e+00    3.018044e+00
  6.084501e+00    3.066352e+00
  6.116252e+00    3.071108e+00
  6.148003e+00    3.114144e+00
  6.179755e+00    3.082361e+00
  6.211506e+00    3.073595e+00
  6.243257e+00    3.062998e+00
  6.275008e+00    3.029976e+00
  6.306759e+00    3.116598e+00
  6.338510e+00    3.151204e+00
  6.370261e+00    3.042174e+00
  6.402013e+00    3.053281e+00
  6.433764e+00    3.048779e+00
  6.465515e+00    2.992642e+00
  6.497266e+00    3.004992e+00
  6.529017e+00    3.028160e+00
  6.560768e+00    3.057403e+00
  6.592519e+00    3.070222e+00
  6.624271e+00    3.070606e+00
  6.656022e+00    3.074006e+00
  6.687773e+00    3.081248e+00
  6.719524e+00    3.046410e+00
  6.751275e+00    3.122705e+00
  6.783026e+00    3.030670e+00
  6.814777e+00    3.078981e+00
  6.846529e+00    3.065288e+00
  6.878280e+00    3.033611e+00
  6.910031e+00    3.003898e+00
  6.941782e+00    3.036095e+00
  6.973533e+00    3.017461e+00
  7.005284e+00    3.028871e+00
  7.037036e+00    2.969917e+00
  7.068787e+00    3.096071e+00
  7.100538e+00    3.029680e+00
  7.132289e+00    3.019837e+00
  7.164040e+00    3.020249e+00
  7.195791e+00    3.044905e+00
  7.227542e+00    3.009014e+00
  7.259294e+00    3.023762e+00
  7.291045e+00    3.013000e+00
  7.322796e+00    3.020619e+00
  7.354547e+00    3.050495e+00
  7.386298e+00    3.091024e+00
  7.418049e+00    3.064511e+00
  7.449800e+00    3.005570e+00
  7.481552e+00    3.028536e+00
  7.513303e+00    2.974693e+00
  7.545054e+00    2.974264e+00
  7.576805e+00    3.005084e+00
  7.608556e+00    2.965744e+00
  7.640307e+00    2.948766e+00
  7.672058e+00    2.936712e+00
  7.703810e+00    2.919887e+00
  7.735561e+00    2.971880e+00
  7.767312e+00    2.988212e+00
  7.799063e+00    2.943448e+00
  7.830814e+00    2.931757e+00
  7.862565e+00    2.904446e+00
  7.894317e+00    2.935507e+00
  7.926068e+00    2.949011e+00
  7.957819e+00    2.929684e+00
  7.989570e+00    2.950301e+00
  8.021321e+00    2.945768e+00
  8.053072e+00    2.938215e+00
  8.084823e+00    2.936909e+00
  8.116575e+00    2.940476e+00
  8.148326e+00    2.982740e+00
  8.180077e+00    2.913014e+00
  8.211828e+00    3.030226e+00
  8.243579e+00    2.949067e+00
  8.275330e+00    2.879105e+00
  8.307081e+00    2.982150e+00
  8.338833e+00    2.940847e+00
  8.370584e+00    2.958348e+00
  8.402335e+00    2.925894e+00
  8.434086e+00    2.973825e+00
  8.465837e+00    2.939788e+00
  8.497588e+00    2.902033e+00
  8.529339e+00    2.919428e+00
  8.561091e+00    2.916450e+00
  8.592842e+00    2.889959e+00
  8.624593e+00    2.895924e+00
  8.656344e+00    2.887576e+00
  8.688095e+00    2.889829e+00
  8.719846e+00    2.883865e+00
  8.751598e+00    2.890501e+00
  8.783349e+00    2.844422e+00
  8.815100e+00    2.878129e+00
  8.846851e+00    2.890987e+00
  8.878602e+00    2.866165e+00
  8.910353e+00    2.880605e+00
  8.942104e+00    2.804490e+00
  8.973856e+00    2.835995e+00
  9.005607e+00    2.802102e+00
  9.037358e+00    2.835089e+00
  9.069109e+00    2.855015e+00
  9.100860e+00    2.803407e+00
  9.132611e+00    2.781024e+00
  9.164362e+00    2.842874e+00
  9.196114e+00    2.785477e+00
  9.227865e+00    2.851369e+00
  9.259616e+00    2.832879e+00
  9.291367e+00    2.744391e+00
  9.323118e+00    2.811043e+00
  9.354869e+00    2.774717e+00
  9.386620e+00    2.779371e+00
  9.418372e+00    2.759670e+00
  9.450123e+00    2.789954e+00
  9.481874e+00    2.771315e+00
  9.513625e+00    2.811248e+00
  9.545376e+00    2.761773e+00
  9.577127e+00    2.812906e+00
  9.608878e+00    2.729017e+00
  9.640630e+00    2.781566e+00
  9.672381e+00    2.781772e+00
  9.704132e+00    2.806900e+00
  9.735883e+00    2.701566e+00
  9.767634e+00    2.753014e+00
  9.799385e+00    2.760559e+00
  9.831137e+00    2.711466e+00
  9.862888e+00    2.722906e+00
  9.894639e+00    2.711214e+00
  9.926390e+00    2.725892e+00
  9.958141e+00    2.717480e+00
  9.989892e+00    2.697052e+00
  1.002164e+01    2.735209e+00
  1.005339e+01    2.654577e+00
  1.008515e+01    2.697459e+00
  1.011690e+01    2.723588e+00
  1.014865e+01    2.694584e+00
  1.018040e+01    2.693877e+00
  1.021215e+01    2.650827e+00
  1.024390e+01    2.696899e+00
  1.027565e+01    2.637631e+00
  1.030740e+01    2.710687e+00
  1.033915e+01    2.655799e+00
  1.037091e+01    2.646311e+00
  1.040266e+01    2.691148e+00
  1.043441e+01    2.593363e+00
  1.046616e+01    2.672932e+00
  1.049791e+01    2.625367e+00
  1.052966e+01    2.613966e+00
  1.056141e+01    2.580194e+00
  1.059316e+01    2.632932e+00
  1.062492e+01    2.572817e+00
  1.065667e+01    2.584054e+00
  1.068842e+01    2.562374e+00
  1.072017e+01    2.563283e+00
  1.075192e+01    2.579298e+00
  1.078367e+01    2.570844e+00
  1.081542e+01    2.525360e+00
  1.084717e+01    2.505204e+00
  1.087892e+01    2.550891e+00
  1.091068e+01    2.570879e+00
  1.094243e+01    2.496192e+00
  1.097418e+01    2.551302e+00
  1.100593e+01    2.483959e+00
  1.103768e+01    2.499962e+00
  1.106943e+01    2.495591e+00
  1.110118e+01    2.533069e+00
  1.113293e+01    2.464027e+00
  1.116468e+01    2.449251e+00
  1.119644e+01    2.519094e+00
  1.122819e+01    2.487365e+00
  1.125994e+01    2.465950e+00
  1.129169e+01    2.393265e+00
  1.132344e+01    2.444205e+00
  1.135519e+01    2.435987e+00
  1.138694e+01    2.440933e+00
  1.141869e+01    2.441211e+00
  1.145045e+01    2.457663e+00
  1.148220e+01    2.430306e+00
  1.151395e+01    2.391039e+00
  1.154570e+01    2.368121e+00
  1.157745e+01    2.411739e+00
  1.160920e+01    2.441463e+00
  1.164095e+01    2.346137e+00
  1.167270e+01    2.415919e+00
  1.170445e+01    2.423792e+00
  1.173621e+01    2.394569e+00
  1.176796e+01    2.400669e+00
  1.179971e+01    2.425723e+00
  1.183146e+01    2.385087e+00
  1.186321e+01    2.420200e+00
  1.189496e+01    2.308785e+00
  1.192671e+01    2.346628e+00
  1.195846e+01    2.335091e+00
  1.199021e+01    2.351118e+00
  1.202197e+01    2.331819e+00
  1.205372e+01    2.359562e+00
  1.208547e+01    2.323084e+00
  1.211722e+01    2.340274e+00
  1.214897e+01    2.288099e+00
  1.218072e+01    2.323150e+00
  1.221247e+01    2.362814e+00
  1.224422e+01    2.364332e+00
  1.227597e+01    2.325541e+00
  1.230773e+01    2.380759e+00
  1.233948e+01    2.348965e+00
  1.237123e+01    2.318564e+00
  1.240298e+01    2.347643e+00
  1.243473e+01    2.365779e+00
  1.246648e+01    2.362922e+00
  1.249823e+01    2.376787e+00
  1.252998e+01    2.432315e+00
  1.256174e+01    2.408609e+00
  1.259349e+01    2.432221e+00
  1.262524e+01    2.439261e+00
  1.265699e+01    2.463439e+00
  1.268874e+01    2.485175e+00
  1.272049e+01    2.533020e+00
  1.275224e+01    2.616669e+00
  1.278399e+01    2.719234e+00
  1.281574e+01    2.734257e+00
  1.284750e+01    2.817930e+00
  1.287925e+01    2.984939e+00
  1.291100e+01    3.272761e+00
  1.294275e+01    3.664183e+00
  1.297450e+01    4.216345e+00
  1.300625e+01    5.108986e+00
  1.303800e+01    6.587889e+00
  1.306975e+01    8.929497e+00
  1.310150e+01    1.187319e+01
  1.313326e+01    1.495846e+01
  1.316501e+01    1.779150e+01
  1.319676e+01    1.985841e+01
  1.322851e+01    1.860227e+01
  1.326026e+01    1.441176e+01
  1.329201e+01    9.990078e+00
  1.332376e+01    7.390631e+00
  1.335551e+01    5.580228e+00
  1.338727e+01    4.516457e+00
  1.341902e+01    3.857181e+00
  1.345077e+01    3.396841e+00
  1.348252e+01    3.082916e+00
  1.351427e+01    2.853317e+00
  1.354602e+01    2.714566e+00
  1.357777e+01    2.587153e+00
  1.360952e+01    2.451548e+00
  1.364127e+01    2.417618e+00
  1.367303e+01    2.396332e+00
  1.370478e+01    2.306527e+00
  1.373653e+01    2.270766e+00
  1.376828e+01    2.232104e+00
  1.380003e+01    2.272315e+00
  1.383178e+01    2.216745e+00
  1.386353e+01    2.196332e+00
  1.389528e+01    2.162235e+00
  1.392703e+01    2.092055e+00
  1.395879e+01    2.107660e+00
  1.399054e+01    2.104558e+00
  1.402229e+01    2.087715e+00
  1.405404e+01    2.083275e+00
  1.408579e+01    2.034871e+00
  1.411754e+01    2.009785e+00
  1.414929e+01    2.029054e+00
  1.418104e+01    2.021934e+00
  1.421279e+01    2.028676e+00
  1.424455e+01    1.997368e+00
  1.427630e+01    1.976585e+00
  1.430805e+01    2.021114e+00
  1.433980e+01    1.958836e+00
  1.437155e+01    1.982025e+00
  1.440330e+01    1.993136e+00
  1.443505e+01    1.938925e+00
  1.446680e+01    1.963559e+00
  1.449856e+01    1.940860e+00
  1.453031e+01    1.923498e+00
  1.456206e+01    1.950509e+00
  1.459381e+01    1.886322e+00
  1.462556e+01    1.904258e+00
  1.465731e+01    1.945639e+00
  1.468906e+01    1.936512e+00
  1.472081e+01    1.983574e+00
  1.475256e+01    1.919879e+00
  1.478432e+01    1.921916e+00
  1.481607e+01    1.905552e+00
  1.484782e+01    1.933571e+00
  1.487957e+01    2.010958e+00
  1.491132e+01    2.006960e+00
  1.494307e+01    2.021154e+00
  1.497482e+01    2.063199e+00
  1.500657e+01    2.115783e+00
  1.503832e+01    2.246209e+00
  1.507008e+01    2.425045e+00
  1.510183e+01    2.685251e+00
  1.513358e+01    3.225562e+00
  1.516533e+01    3.888763e+00
  1.519708e+01    4.816198e+00
  1.522883e+01    5.677898e+00
  1.526058e+01    6.341373e+00
  1.529233e+01    6.658923e+00
  1.532409e+01    6.327534e+00
  1.535584e+01    5.170979e+00
  1.538759e+01    3.933615e+00
  1.541934e+01    3.167918e+00
  1.545109e+01    2.682919e+00
  1.548284e+01    2.440254e+00
  1.551459e+01    2.173728e+00
  1.554634e+01    2.046258e+00
  1.557809e+01    1.988752e+00
  1.560985e+01    1.907168e+00
  1.564160e+01    1.855232e+00
  1.567335e+01    1.796190e+00
  1.570510e+01    1.775484e+00
  1.573685e+01    1.745622e+00
  1.576860e+01    1.749350e+00
  1.580035e+01    1.732148e+00
  1.583210e+01    1.747249e+00
  1.586385e+01    1.689590e+00
  1.589561e+01    1.658108e+00
  1.592736e+01    1.677735e+00
  1.595911e+01    1.689561e+00
  1.599086e+01    1.635988e+00
  1.602261e+01    1.653758e+00
  1.605436e+01    1.666019e+00
  1.608611e+01    1.614123e+00
  1.611786e+01    1.559528e+00
  1.614961e+01    1.644809e+00
  1.618137e+01    1.586028e+00
  1.621312e+01    1.568513e+00
  1.624487e+01    1.532286e+00
  1.627662e+01    1.557598e+00
  1.630837e+01    1.573810e+00
  1.634012e+01    1.584601e+00
  1.637187e+01    1.540316e+00
  1.640362e+01    1.597490e+00
  1.643538e+01    1.573563e+00
  1.646713e+01    1.536275e+00
  1.649888e+01    1.515163e+00
  1.653063e+01    1.551441e+00
  1.656238e+01    1.530098e+00
  1.659413e+01    1.523973e+00
  1.662588e+01    1.516299e+00
  1.665763e+01    1.535438e+00
  1.668938e+01    1.497114e+00
  1.672114e+01    1.527136e+00
  1.675289e+01    1.519846e+00
  1.678464e+01    1.468238e+00
  1.681639e+01    1.474255e+00
  1.684814e+01    1.450970e+00
  1.687989e+01    1.476457e+00
  1.691164e+01    1.453287e+00
  1.694339e+01    1.484088e+00
  1.697514e+01    1.453541e+00
  1.700690e+01    1.448848e+00
  1.703865e+01    1.462859e+00
  1.707040e+01    1.448053e+00
  1.710215e+01    1.467547e+00
  1.713390e+01    1.443282e+00
  1.716565e+01    1.452058e+00
  1.719740e+01    1.436372e+00
  1.722915e+01    1.384870e+00
  1.726091e+01    1.401468e+00
  1.729266e+01    1.421465e+00
  1.732441e+01    1.427089e+00
  1.735616e+01    1.382567e+00
  1.738791e+01    1.397840e+00
  1.741966e+01    1.378854e+00
  1.745141e+01    1.402276e+00
  1.748316e+01    1.397054e+00
  1.751491e+01    1.390454e+00
  1.754667e+01    1.395818e+00
  1.757842e+01    1.376007e+00
  1.761017e+01    1.375345e+00
  1.764192e+01    1.400109e+00
  1.767367e+01    1.360530e+00
  1.770542e+01    1.361166e+00
  1.773717e+01    1.358477e+00
  1.776892e+01    1.355853e+00
  1.780067e+01    1.345275e+00
  1.783243e+01    1.336022e+00
  1.786418e+01    1.341485e+00
  1.789593e+01    1.327133e+00
  1.792768e+01    1.331728e+00
  1.795943e+01    1.339520e+00
  1.799118e+01    1.326826e+00
  1.802293e+01    1.349389e+00
  1.805468e+01    1.313212e+00
  1.808643e+01    1.276324e+00
  1.811819e+01    1.322904e+00
  1.814994e+01    1.289827e+00
  1.818169e+01    1.298990e+00
  1.821344e+01    1.308685e+00
  1.824519e+01    1.269542e+00
  1.827694e+01    1.290530e+00
  1.830869e+01    1.312243e+00
  1.834044e+01    1.285473e+00
  1.837220e+01    1.265266e+00
  1.840395e+01    1.275192e+00
  1.843570e+01    1.252078e+00
  1.846745e+01    1.260331e+00
  1.849920e+01    1.270568e+00
  1.853095e+01    1.266253e+00
  1.856270e+01    1.248126e+00
  1.859445e+01    1.271052e+00
  1.862620e+01    1.248784e+00
  1.865796e+01    1.270412e+00
  1.868971e+01    1.240864e+00
  1.872146e+01    1.262783e+00
  1.875321e+01    1.245224e+00
  1.878496e+01    1.221025e+00
  1.881671e+01    1.225496e+00
  1.884846e+01    1.243465e+00
  1.888021e+01    1.247105e+00
  1.891196e+01    1.245866e+00
  1.894372e+01    1.235005e+00
  1.897547e+01    1.204722e+00
  1.900722e+01    1.221193e+00
  1.903897e+01    1.209540e+00
  1.907072e+01    1.238438e+00
  1.910247e+01    1.202687e+00
  1.913422e+01    1.223136e+00
  1.916597e+01    1.196874e+00
  1.919773e+01    1.214844e+00
  1.922948e+01    1.222430e+00
  1.926123e+01    1.191510e+00
  1.929298e+01    1.201843e+00
  1.932473e+01    1.178495e+00
  1.935648e+01    1.189050e+00
  1.938823e+01    1.159879e+00
  1.941998e+01    1.175738e+00
  1.945173e+01    1.217581e+00
  1.948349e+01    1.169376e+00
  1.951524e+01    1.165979e+00
  1.954699e+01    1.190916e+00
  1.957874e+01    1.171097e+00
  1.961049e+01    1.163814e+00
  1.964224e+01    1.161206e+00
  1.967399e+01    1.177892e+00
  1.970574e+01    1.167047e+00
  1.973749e+01    1.160206e+00
  1.976925e+01    1.157028e+00
  1.980100e+01    1.165324e+00
  1.983275e+01    1.146803e+00
  1.986450e+01    1.146952e+00
  1.989625e+01    1.141430e+00
  1.992800e+01    1.145674e+00
  1.995975e+01    1.156168e+00
  1.999150e+01    1.110491e+00
  2.002325e+01    1.145234e+00
  2.005501e+01    1.111370e+00
  2.008676e+01    1.123804e+00
  2.011851e+01    1.120491e+00
  2.015026e+01    1.141063e+00
  2.018201e+01    1.122210e+00
  2.021376e+01    1.155311e+00
  2.024551e+01    1.111921e+00
  2.027726e+01    1.118899e+00
  2.030902e+01    1.068542e+00
  2.034077e+01    1.118340e+00
  2.037252e+01    1.121240e+00
  2.040427e+01    1.117147e+00
  2.043602e+01    1.096429e+00
  2.046777e+01    1.128019e+00
  2.049952e+01    1.092272e+00
  2.053127e+01    1.115645e+00
  2.056302e+01    1.096344e+00
  2.059478e+01    1.095833e+00
  2.062653e+01    1.118028e+00
  2.065828e+01    1.124105e+00
  2.069003e+01    1.075518e+00
  2.072178e+01    1.087374e+00
  2.075353e+01    1.110328e+00
  2.078528e+01    1.110806e+00
  2.081703e+01    1.106440e+00
  2.084878e+01    1.089605e+00
  2.088054e+01    1.108544e+00
  2.091229e+01    1.090755e+00
  2.094404e+01    1.102198e+00
  2.097579e+01    1.102144e+00
  2.100754e+01    1.118221e+00
  2.103929e+01    1.082932e+00
  2.107104e+01    1.094462e+00
  2.110279e+01    1.104163e+00
  2.113455e+01    1.139847e+00
  2.116630e+01    1.108442e+00
  2.119805e+01    1.120841e+00
  2.122980e+01    1.139250e+00
  2.126155e+01    1.130664e+00
  2.129330e+01    1.106256e+00
  2.132505e+01    1.174542e+00
  2.135680e+01    1.145349e+00
  2.138855e+01    1.192780e+00
  2.142031e+01    1.184759e+00
  2.145206e+01    1.209509e+00
  2.148381e+01    1.250346e+00
  2.151556e+01    1.299152e+00
  2.154731e+01    1.350060e+00
  2.157906e+01    1.438094e+00
  2.161081e+01    1.541219e+00
  2.164256e+01    1.712505e+00
  2.167431e+01    1.902641e+00
  2.170607e+01    2.315835e+00
  2.173782e+01    2.792792e+00
  2.176957e+01    3.595081e+00
  2.180132e+01    4.746583e+00
  2.183307e+01    6.227937e+00
  2.186482e+01    8.026031e+00
  2.189657e+01    9.746680e+00
  2.192832e+01    1.101992e+01
  2.196007e+01    1.069904e+01
  2.199183e+01    8.682981e+00
  2.202358e+01    6.326856e+00
  2.205533e+01    4.526968e+00
  2.208708e+01    3.367652e+00
  2.211883e+01    2.671633e+00
  2.215058e+01    2.174500e+00
  2.218233e+01    1.842886e+00
  2.221408e+01    1.639110e+00
  2.224584e+01    1.496773e+00
  2.227759e+01    1.385895e+00
  2.230934e+01    1.321450e+00
  2.234109e+01    1.238275e+00
  2.237284e+01    1.194985e+00
  2.240459e+01    1.150667e+00
  2.243634e+01    1.124990e+00
  2.246809e+01    1.096513e+00
  2.249984e+01    1.067465e+00
  2.253160e+01    1.048258e+00
  2.256335e+01    1.022767e+00
  2.259510e+01    1.026952e+00
  2.262685e+01    9.836355e-01
  2.265860e+01    1.020425e+00
  2.269035e+01    1.003835e+00
  2.272210e+01    9.836763e-01
  2.275385e+01    9.610845e-01
  2.278560e+01    9.754509e-01
  2.281736e+01    9.398435e-01
  2.284911e+01    9.476966e-01
  2.288086e+01    9.279418e-01
  2.291261e+01    9.158076e-01
  2.294436e+01    9.449105e-01
  2.297611e+01    9.191996e-01
  2.300786e+01    9.084019e-01
  2.303961e+01    9.194615e-01
  2.307137e+01    8.929699e-01
  2.310312e+01    8.998263e-01
  2.313487e+01    9.167793e-01
  2.316662e+01    9.028448e-01
  2.319837e+01    8.817784e-01
  2.323012e+01    9.008322e-01
  2.326187e+01    9.042405e-01
  2.329362e+01    8.883432e-01
  2.332537e+01    8.644229e-01
  2.335713e+01    8.897922e-01
  2.338888e+01    8.742027e-01
  2.342063e+01    8.707484e-01
  2.345238e+01    8.738335e-01
  2.348413e+01    8.603997e-01
  2.351588e+01    8.424724e-01
  2.354763e+01    8.478860e-01
  2.357938e+01    8.524380e-01
  2.361113e+01    8.620352e-01
  2.364289e+01    8.571982e-01
  2.367464e+01    8.409297e-01
  2.370639e+01    8.344018e-01
  2.373814e+01    8.446867e-01
  2.376989e+01    8.345907e-01
  2.380164e+01    8.247955e-01
  2.383339e+01    8.257272e-01
  2.386514e+01    8.449672e-01
  2.389689e+01    8.083482e-01
  2.392865e+01    8.317065e-01
  2.396040e+01    8.038724e-01
  2.399215e+01    8.150734e-01
  2.402390e+01    8.147566e-01
  2.405565e+01    7.963276e-01
  2.408740e+01    7.949107e-01
  2.411915e+01    7.964165e-01
  2.415090e+01    8.084642e-01
  2.418266e+01    7.869480e-01
  2.421441e+01    7.918462e-01
  2.424616e+01    7.832066e-01
  2.427791e+01    7.968856e-01
  2.430966e+01    7.919605e-01
  2.434141e+01    7.968729e-01
  2.437316e+01    8.090297e-01
  2.440491e+01    7.830973e-01
  2.443666e+01    8.010226e-01
  2.446842e+01    7.984716e-01
  2.450017e+01    7.798933e-01
  2.453192e+01    8.048621e-01
  2.456367e+01    7.869537e-01
  2.459542e+01    8.260432e-01
  2.462717e+01    8.005870e-01
  2.465892e+01    7.958161e-01
  2.469067e+01    8.030573e-01
  2.472242e+01    8.053666e-01
  2.475418e+01    7.956634e-01
  2.478593e+01    7.905997e-01
  2.481768e+01    7.991946e-01
  2.484943e+01    8.041931e-01
  2.488118e+01    8.231146e-01
  2.491293e+01    8.179203e-01
  2.494468e+01    7.798759e-01
  2.497643e+01    8.120036e-01
  2.500819e+01    8.082246e-01
  2.503994e+01    8.265249e-01
  2.507169e+01    8.019410e-01
  2.510344e+01    8.236963e-01
  2.513519e+01    8.056368e-01
  2.516694e+01    8.500724e-01
  2.519869e+01    8.244731e-01
  2.523044e+01    8.647587e-01
  2.526219e+01    8.749443e-01
  2.529395e+01    8.633255e-01
  2.532570e+01    8.796737e-01
  2.535745e+01    8.839242e-01
  2.538920e+01    8.958847e-01
  2.542095e+01    9.312399e-01
  2.545270e+01    9.512196e-01
  2.548445e+01    9.532269e-01
  2.551620e+01    9.984521e-01
  2.554795e+01    1.034586e+00
  2.557971e+01    1.056428e+00
  2.561146e+01    1.123444e+00
  2.564321e+01    1.149752e+00
  2.567496e+01    1.250742e+00
  2.570671e+01    1.371111e+00
  2.573846e+01    1.547530e+00
  2.577021e+01    1.781418e+00
  2.580196e+01    2.148427e+00
  2.583371e+01    2.668539e+00
  2.586547e+01    3.539344e+00
  2.589722e+01    4.719752e+00
  2.592897e+01    6.177566e+00
  2.596072e+01    7.702064e+00
  2.599247e+01    9.024735e+00
  2.602422e+01    9.082482e+00
  2.605597e+01    7.804814e+00
  2.608772e+01    6.015436e+00
  2.611948e+01    4.342072e+00
  2.615123e+01    3.227487e+00
  2.618298e+01    2.524391e+00
  2.621473e+01    2.046072e+00
  2.624648e+01    1.716310e+00
  2.627823e+01    1.493446e+00
  2.630998e+01    1.314064e+00
  2.634173e+01    1.257807e+00
  2.637348e+01    1.158454e+00
  2.640524e+01    1.104643e+00
  2.643699e+01    1.068545e+00
  2.646874e+01    1.054526e+00
  2.650049e+01    1.017129e+00
  2.653224e+01    9.913431e-01
  2.656399e+01    9.692090e-01
  2.659574e+01    9.470774e-01
  2.662749e+01    9.477857e-01
  2.665924e+01    9.759341e-01
  2.669100e+01    9.449503e-01
  2.672275e+01    9.464872e-01
  2.675450e+01    9.313899e-01
  2.678625e+01    9.271116e-01
  2.681800e+01    9.398083e-01
  2.684975e+01    9.240604e-01
  2.688150e+01    9.378442e-01
  2.691325e+01    9.352545e-01
  2.694501e+01    9.565290e-01
  2.697676e+01    9.717871e-01
  2.700851e+01    1.004683e+00
  2.704026e+01    1.060691e+00
  2.707201e+01    1.151286e+00
  2.710376e+01    1.242120e+00
  2.713551e+01    1.434685e+00
  2.716726e+01    1.674262e+00
  2.719901e+01    2.033530e+00
  2.723077e+01    2.392524e+00
  2.726252e+01    2.605902e+00
  2.729427e+01    2.537951e+00
  2.732602e+01    2.269782e+00
  2.735777e+01    1.834625e+00
  2.738952e+01    1.544634e+00
  2.742127e+01    1.312427e+00
  2.745302e+01    1.180726e+00
  2.748477e+01    1.106164e+00
  2.751653e+01    9.926738e-01
  2.754828e+01    9.789826e-01
  2.758003e+01    9.052246e-01
  2.761178e+01    8.968233e-01
  2.764353e+01    9.089640e-01
  2.767528e+01    8.788001e-01
  2.770703e+01    8.583868e-01
  2.773878e+01    8.596890e-01
  2.777054e+01    8.543568e-01
  2.780229e+01    8.321882e-01
  2.783404e+01    8.199891e-01
  2.786579e+01    8.301033e-01
  2.789754e+01    8.003069e-01
  2.792929e+01    8.277053e-01
  2.796104e+01    8.053674e-01
  2.799279e+01    8.405905e-01
  2.802454e+01    8.105490e-01
  2.805630e+01    8.022627e-01
  2.808805e+01    7.876170e-01
  2.811980e+01    7.847494e-01
  2.815155e+01    7.957577e-01
  2.818330e+01    8.026791e-01
  2.821505e+01    7.857111e-01
  2.824680e+01    7.999753e-01
  2.827855e+01    7.611321e-01
  2.831030e+01    7.904611e-01
  2.834206e+01    7.883850e-01
  2.837381e+01    7.812516e-01
  2.840556e+01    8.008237e-01
  2.843731e+01    7.867358e-01
  2.846906e+01    7.704271e-01
  2.850081e+01    7.538815e-01
  2.853256e+01    7.866912e-01
  2.856431e+01    7.771177e-01
  2.859606e+01    7.636670e-01
  2.862782e+01    7.780974e-01
  2.865957e+01    7.692435e-01
  2.869132e+01    7.670707e-01
  2.872307e+01    7.694821e-01
  2.875482e+01    7.552045e-01
  2.878657e+01    7.680296e-01
  2.881832e+01    7.626969e-01
  2.885007e+01    7.732800e-01
  2.888183e+01    7.451991e-01
  2.891358e+01    7.617587e-01
  2.894533e+01    7.353566e-01
  2.897708e+01    7.647036e-01
  2.900883e+01    7.550799e-01
  2.904058e+01    7.432162e-01
  2.907233e+01    7.561136e-01
  2.910408e+01    7.501454e-01
  2.913583e+01    7.228531e-01
  2.916759e+01    7.476963e-01
  2.919934e+01    7.440741e-01
  2.923109e+01    7.485204e-01
  2.926284e+01    7.352693e-01
  2.929459e+01    7.172465e-01
  2.932634e+01    7.436272e-01
  2.935809e+01    7.297501e-01
  2.938984e+01    7.376002e-01
  2.942159e+01    7.417335e-01
  2.945335e+01    7.511401e-01
  2.948510e+01    7.501064e-01
  2.951685e+01    7.569532e-01
  2.954860e+01    7.619722e-01
  2.958035e+01    7.427688e-01
  2.961210e+01    7.286381e-01
  2.964385e+01    7.401854e-01
  2.967560e+01    7.358726e-01
  2.970736e+01    7.347583e-01
  2.973911e+01    7.417024e-01
  2.977086e+01    7.233210e-01
  2.980261e+01    7.428764e-01
  2.983436e+01    7.326483e-01
  2.986611e+01    7.352551e-01
  2.989786e+01    7.244735e-01
  2.992961e+01    7.432784e-01
  2.996136e+01    7.649554e-01
  2.999312e+01    7.419797e-01
  3.002487e+01    7.548251e-01
  3.005662e+01    7.442195e-01
  3.008837e+01    7.442723e-01
  3.012012e+01    7.464437e-01
  3.015187e+01    7.197508e-01
  3.018362e+01    7.310849e-01
  3.021537e+01    7.280475e-01
  3.024712e+01    7.092043e-01
  3.027888e+01    7.161648e-01
  3.031063e+01    7.429118e-01
  3.034238e+01    7.406299e-01
  3.037413e+01    7.402920e-01
  3.040588e+01    7.463013e-01
  3.043763e+01    7.227668e-01
  3.046938e+01    7.086435e-01
  3.050113e+01    7.326729e-01
  3.053288e+01    7.334689e-01
  3.056464e+01    6.932198e-01
  3.059639e+01    7.413402e-01
  3.062814e+01    7.340933e-01
  3.065989e+01    7.126690e-01
  3.069164e+01    7.215472e-01
  3.072339e+01    7.343242e-01
  3.075514e+01    7.218633e-01
  3.078689e+01    7.343097e-01
  3.081865e+01    7.320720e-01
  3.085040e+01    7.216551e-01
  3.088215e+01    7.124529e-01
  3.091390e+01    7.188273e-01
  3.094565e+01    7.196957e-01
  3.097740e+01    7.286677e-01
  3.100915e+01    7.286660e-01
  3.104090e+01    7.111722e-01
  3.107265e+01    7.323068e-01
  3.110441e+01    7.366375e-01
  3.113616e+01    7.216329e-01
  3.116791e+01    7.356646e-01
  3.119966e+01    7.313031e-01
  3.123141e+01    7.359214e-01
  3.126316e+01    7.443675e-01
  3.129491e+01    7.641474e-01
  3.132666e+01    7.381064e-01
  3.135841e+01    7.507815e-01
  3.139017e+01    7.609590e-01
  3.142192e+01    7.747584e-01
  3.145367e+01    7.619082e-01
  3.148542e+01    7.507498e-01
  3.151717e+01    7.751638e-01
  3.154892e+01    7.923298e-01
  3.158067e+01    8.030100e-01
  3.161242e+01    8.104821e-01
  3.164418e+01    8.607008e-01
  3.167593e+01    8.910668e-01
  3.170768e+01    9.101333e-01
  3.173943e+01    9.626625e-01
  3.177118e+01    1.042815e+00
  3.180293e+01    1.174392e+00
  3.183468e+01    1.360488e+00
  3.186643e+01    1.625993e+00
  3.189818e+01    1.995406e+00
  3.192994e+01    2.391990e+00
  3.196169e+01    2.635004e+00
  3.199344e+01    2.559058e+00
  3.202519e+01    2.212147e+00
  3.205694e+01    1.809287e+00
  3.208869e+01    1.444255e+00
  3.212044e+01    1.221164e+00
  3.215219e+01    1.072207e+00
  3.218394e+01    9.861664e-01
  3.221570e+01    9.235843e-01
  3.224745e+01    8.871442e-01
  3.227920e+01    8.435164e-01
  3.231095e+01    8.008524e-01
  3.234270e+01    8.091522e-01
  3.237445e+01    8.064399e-01
  3.240620e+01    7.786537e-01
  3.243795e+01    7.619883e-01
  3.246970e+01    7.761727e-01
  3.250146e+01    7.331927e-01
  3.253321e+01    7.516612e-01
  3.254908e+01    7.383937e-01