File: XRD/2024-07-27_002_Ru-CGO-ex_Activtation_ramp_000002_data_000105.dat
# == pyFAI calibration ==
# Distance Sample to Detector: 0.4 m
# PONI: 9.750e-02, 1.135e-01 m
# Rotations: -0.000175 0.000000 -0.000000 rad
#
# == Fit2d calibration ==
# Distance Sample-beamCenter: 400.000 mm
# Center: x=1514.000, y=1300.000 pix
# Tilt: 0.010 deg  TiltPlanRot: 0.010 deg
#
# Detector Detector	 Spline= None	 PixelSize= 7.500e-05, 7.500e-05 m
#    Detector has a mask: False
#    Detector has a dark current: False
#    detector has a flat field: False
#
# Wavelength: 6.888e-11 m
# Mask applied: user provided
# Dark current applied: False
# Flat field applied: False
# Polarization factor: 0.99
# Normalization factor: 1.0
# --> /home/myspot/data/2024_07_Rosario/Ru-CGO-ex/2024-07-27_002_Ru-CGO-ex_Activtation_ramp_000002_data_000105.dat
#       q_nm^-1             I
  2.003187e-02    0.000000e+00
  5.178302e-02    7.387542e-02
  8.353417e-02    1.911511e-01
  1.152853e-01    2.237610e-02
  1.470365e-01    7.862704e-02
  1.787876e-01    2.383918e-02
  2.105388e-01    3.826759e-02
  2.422899e-01    8.033954e-02
  2.740411e-01    1.837773e-02
  3.057922e-01    6.796220e-03
  3.375433e-01    2.436331e-02
  3.692945e-01    1.327368e-02
  4.010456e-01    2.998180e-02
  4.327968e-01    2.484651e-02
  4.645479e-01    4.594734e-02
  4.962991e-01    1.492307e-02
  5.280502e-01    1.932062e-02
  5.598014e-01    2.497710e-02
  5.915525e-01    4.531937e-02
  6.233037e-01    4.138675e-02
  6.550548e-01    3.425248e-02
  6.868060e-01    1.335574e-02
  7.185571e-01    4.673115e-02
  7.503083e-01    3.291286e-02
  7.820594e-01    1.093585e-01
  8.138106e-01    2.243432e-01
  8.455617e-01    3.029869e-01
  8.773129e-01    4.181701e-01
  9.090640e-01    5.879537e-01
  9.408152e-01    7.065154e-01
  9.725663e-01    7.936742e-01
  1.004317e+00    9.957138e-01
  1.036069e+00    1.237592e+00
  1.067820e+00    1.307493e+00
  1.099571e+00    1.401860e+00
  1.131322e+00    1.343772e+00
  1.163073e+00    1.387059e+00
  1.194824e+00    1.513726e+00
  1.226575e+00    1.964532e+00
  1.258327e+00    2.237433e+00
  1.290078e+00    2.414610e+00
  1.321829e+00    2.620585e+00
  1.353580e+00    2.669930e+00
  1.385331e+00    2.725615e+00
  1.417082e+00    2.587029e+00
  1.448834e+00    2.749622e+00
  1.480585e+00    2.785019e+00
  1.512336e+00    2.749181e+00
  1.544087e+00    3.046585e+00
  1.575838e+00    2.962499e+00
  1.607589e+00    2.878837e+00
  1.639340e+00    2.824829e+00
  1.671092e+00    2.647218e+00
  1.702843e+00    2.742154e+00
  1.734594e+00    2.792990e+00
  1.766345e+00    2.853797e+00
  1.798096e+00    2.732199e+00
  1.829847e+00    2.724973e+00
  1.861598e+00    2.727056e+00
  1.893350e+00    2.720140e+00
  1.925101e+00    2.765463e+00
  1.956852e+00    2.933118e+00
  1.988603e+00    2.673183e+00
  2.020354e+00    2.719647e+00
  2.052105e+00    2.717037e+00
  2.083856e+00    2.625468e+00
  2.115608e+00    2.739760e+00
  2.147359e+00    2.656448e+00
  2.179110e+00    2.834788e+00
  2.210861e+00    2.675101e+00
  2.242612e+00    2.735623e+00
  2.274363e+00    2.670918e+00
  2.306115e+00    2.717458e+00
  2.337866e+00    2.735798e+00
  2.369617e+00    2.766014e+00
  2.401368e+00    2.727602e+00
  2.433119e+00    2.683323e+00
  2.464870e+00    2.665987e+00
  2.496621e+00    2.740021e+00
  2.528373e+00    2.646081e+00
  2.560124e+00    2.724386e+00
  2.591875e+00    2.723064e+00
  2.623626e+00    2.803847e+00
  2.655377e+00    2.767162e+00
  2.687128e+00    2.835565e+00
  2.718879e+00    2.692511e+00
  2.750631e+00    2.825208e+00
  2.782382e+00    2.787008e+00
  2.814133e+00    2.827693e+00
  2.845884e+00    2.777591e+00
  2.877635e+00    2.853464e+00
  2.909386e+00    2.885347e+00
  2.941137e+00    2.802229e+00
  2.972889e+00    2.800931e+00
  3.004640e+00    2.865747e+00
  3.036391e+00    2.816509e+00
  3.068142e+00    2.858196e+00
  3.099893e+00    2.783969e+00
  3.131644e+00    2.818574e+00
  3.163395e+00    2.893298e+00
  3.195147e+00    2.888148e+00
  3.226898e+00    2.841766e+00
  3.258649e+00    2.889875e+00
  3.290400e+00    2.936536e+00
  3.322151e+00    2.863440e+00
  3.353902e+00    2.844951e+00
  3.385654e+00    2.910901e+00
  3.417405e+00    2.903196e+00
  3.449156e+00    2.892564e+00
  3.480907e+00    2.986450e+00
  3.512658e+00    2.876374e+00
  3.544409e+00    2.897678e+00
  3.576160e+00    3.002110e+00
  3.607912e+00    2.973904e+00
  3.639663e+00    2.894454e+00
  3.671414e+00    2.884502e+00
  3.703165e+00    2.821608e+00
  3.734916e+00    2.904506e+00
  3.766667e+00    2.978267e+00
  3.798418e+00    2.875773e+00
  3.830170e+00    2.924311e+00
  3.861921e+00    2.957119e+00
  3.893672e+00    3.009445e+00
  3.925423e+00    2.939186e+00
  3.957174e+00    3.009883e+00
  3.988925e+00    2.956686e+00
  4.020676e+00    2.989906e+00
  4.052428e+00    2.913998e+00
  4.084179e+00    3.062700e+00
  4.115930e+00    2.974496e+00
  4.147681e+00    2.913311e+00
  4.179432e+00    2.859331e+00
  4.211183e+00    3.015469e+00
  4.242935e+00    2.980025e+00
  4.274686e+00    2.956621e+00
  4.306437e+00    2.980704e+00
  4.338188e+00    3.017919e+00
  4.369939e+00    3.041031e+00
  4.401690e+00    3.008006e+00
  4.433441e+00    2.980169e+00
  4.465193e+00    3.012902e+00
  4.496944e+00    3.033681e+00
  4.528695e+00    3.005352e+00
  4.560446e+00    3.021871e+00
  4.592197e+00    3.078388e+00
  4.623948e+00    3.058822e+00
  4.655699e+00    3.085653e+00
  4.687451e+00    2.991299e+00
  4.719202e+00    3.103278e+00
  4.750953e+00    3.212930e+00
  4.782704e+00    3.133895e+00
  4.814455e+00    3.075510e+00
  4.846206e+00    3.039852e+00
  4.877957e+00    3.130982e+00
  4.909709e+00    3.116111e+00
  4.941460e+00    3.080994e+00
  4.973211e+00    3.124705e+00
  5.004962e+00    3.111073e+00
  5.036713e+00    3.076861e+00
  5.068464e+00    3.074300e+00
  5.100216e+00    3.119864e+00
  5.131967e+00    3.019242e+00
  5.163718e+00    3.303479e+00
  5.195469e+00    3.092191e+00
  5.227220e+00    3.080818e+00
  5.258971e+00    3.059991e+00
  5.290722e+00    3.153604e+00
  5.322474e+00    3.109341e+00
  5.354225e+00    3.033197e+00
  5.385976e+00    3.000903e+00
  5.417727e+00    3.052599e+00
  5.449478e+00    3.001052e+00
  5.481229e+00    3.008685e+00
  5.512980e+00    3.114410e+00
  5.544732e+00    2.980411e+00
  5.576483e+00    3.027642e+00
  5.608234e+00    2.991882e+00
  5.639985e+00    3.067704e+00
  5.671736e+00    3.057481e+00
  5.703487e+00    2.963551e+00
  5.735238e+00    3.009228e+00
  5.766990e+00    3.132873e+00
  5.798741e+00    2.984577e+00
  5.830492e+00    2.986124e+00
  5.862243e+00    2.941113e+00
  5.893994e+00    2.966129e+00
  5.925745e+00    2.971668e+00
  5.957497e+00    2.971927e+00
  5.989248e+00    2.918916e+00
  6.020999e+00    2.950774e+00
  6.052750e+00    2.997402e+00
  6.084501e+00    2.986549e+00
  6.116252e+00    3.010204e+00
  6.148003e+00    3.050082e+00
  6.179755e+00    2.955858e+00
  6.211506e+00    3.027529e+00
  6.243257e+00    3.056711e+00
  6.275008e+00    3.044638e+00
  6.306759e+00    2.924715e+00
  6.338510e+00    2.981843e+00
  6.370261e+00    2.934379e+00
  6.402013e+00    2.956172e+00
  6.433764e+00    2.919725e+00
  6.465515e+00    3.019349e+00
  6.497266e+00    2.967019e+00
  6.529017e+00    2.987920e+00
  6.560768e+00    2.989022e+00
  6.592519e+00    3.098166e+00
  6.624271e+00    2.981645e+00
  6.656022e+00    2.944604e+00
  6.687773e+00    2.954859e+00
  6.719524e+00    3.075512e+00
  6.751275e+00    3.052583e+00
  6.783026e+00    2.951935e+00
  6.814777e+00    2.938623e+00
  6.846529e+00    2.944620e+00
  6.878280e+00    2.999545e+00
  6.910031e+00    2.920420e+00
  6.941782e+00    2.964541e+00
  6.973533e+00    2.963611e+00
  7.005284e+00    3.001761e+00
  7.037036e+00    2.975629e+00
  7.068787e+00    2.977654e+00
  7.100538e+00    2.951348e+00
  7.132289e+00    2.949998e+00
  7.164040e+00    2.936513e+00
  7.195791e+00    2.892854e+00
  7.227542e+00    2.898000e+00
  7.259294e+00    2.992294e+00
  7.291045e+00    2.981852e+00
  7.322796e+00    2.890961e+00
  7.354547e+00    2.871136e+00
  7.386298e+00    2.994875e+00
  7.418049e+00    2.934223e+00
  7.449800e+00    2.941891e+00
  7.481552e+00    2.901514e+00
  7.513303e+00    2.985060e+00
  7.545054e+00    2.938411e+00
  7.576805e+00    2.907200e+00
  7.608556e+00    2.927149e+00
  7.640307e+00    2.915074e+00
  7.672058e+00    2.884774e+00
  7.703810e+00    2.862090e+00
  7.735561e+00    2.975387e+00
  7.767312e+00    2.911288e+00
  7.799063e+00    2.893754e+00
  7.830814e+00    2.897899e+00
  7.862565e+00    2.905499e+00
  7.894317e+00    2.842140e+00
  7.926068e+00    2.862252e+00
  7.957819e+00    2.904812e+00
  7.989570e+00    2.869464e+00
  8.021321e+00    2.832836e+00
  8.053072e+00    2.844439e+00
  8.084823e+00    2.903985e+00
  8.116575e+00    2.873161e+00
  8.148326e+00    2.873425e+00
  8.180077e+00    2.897931e+00
  8.211828e+00    2.931756e+00
  8.243579e+00    2.957972e+00
  8.275330e+00    2.944745e+00
  8.307081e+00    2.834406e+00
  8.338833e+00    2.808314e+00
  8.370584e+00    2.853153e+00
  8.402335e+00    2.868261e+00
  8.434086e+00    2.881472e+00
  8.465837e+00    2.819013e+00
  8.497588e+00    2.826652e+00
  8.529339e+00    2.829360e+00
  8.561091e+00    2.878917e+00
  8.592842e+00    2.817763e+00
  8.624593e+00    2.869416e+00
  8.656344e+00    2.740603e+00
  8.688095e+00    2.806724e+00
  8.719846e+00    2.869000e+00
  8.751598e+00    2.862725e+00
  8.783349e+00    2.772657e+00
  8.815100e+00    2.797315e+00
  8.846851e+00    2.795046e+00
  8.878602e+00    2.769769e+00
  8.910353e+00    2.770858e+00
  8.942104e+00    2.759474e+00
  8.973856e+00    2.761879e+00
  9.005607e+00    2.755210e+00
  9.037358e+00    2.747694e+00
  9.069109e+00    2.782848e+00
  9.100860e+00    2.799883e+00
  9.132611e+00    2.718735e+00
  9.164362e+00    2.741205e+00
  9.196114e+00    2.761696e+00
  9.227865e+00    2.757622e+00
  9.259616e+00    2.735753e+00
  9.291367e+00    2.699370e+00
  9.323118e+00    2.756559e+00
  9.354869e+00    2.727214e+00
  9.386620e+00    2.751994e+00
  9.418372e+00    2.698961e+00
  9.450123e+00    2.636116e+00
  9.481874e+00    2.713944e+00
  9.513625e+00    2.680029e+00
  9.545376e+00    2.705421e+00
  9.577127e+00    2.745941e+00
  9.608878e+00    2.749227e+00
  9.640630e+00    2.726309e+00
  9.672381e+00    2.600321e+00
  9.704132e+00    2.726750e+00
  9.735883e+00    2.701880e+00
  9.767634e+00    2.739402e+00
  9.799385e+00    2.701338e+00
  9.831137e+00    2.637032e+00
  9.862888e+00    2.685086e+00
  9.894639e+00    2.660238e+00
  9.926390e+00    2.635513e+00
  9.958141e+00    2.643384e+00
  9.989892e+00    2.612429e+00
  1.002164e+01    2.559125e+00
  1.005339e+01    2.622695e+00
  1.008515e+01    2.647265e+00
  1.011690e+01    2.605361e+00
  1.014865e+01    2.604206e+00
  1.018040e+01    2.577354e+00
  1.021215e+01    2.542165e+00
  1.024390e+01    2.559431e+00
  1.027565e+01    2.600773e+00
  1.030740e+01    2.611632e+00
  1.033915e+01    2.626894e+00
  1.037091e+01    2.590830e+00
  1.040266e+01    2.567033e+00
  1.043441e+01    2.579059e+00
  1.046616e+01    2.528275e+00
  1.049791e+01    2.607062e+00
  1.052966e+01    2.601971e+00
  1.056141e+01    2.523388e+00
  1.059316e+01    2.593290e+00
  1.062492e+01    2.479411e+00
  1.065667e+01    2.472481e+00
  1.068842e+01    2.513329e+00
  1.072017e+01    2.521335e+00
  1.075192e+01    2.527606e+00
  1.078367e+01    2.495292e+00
  1.081542e+01    2.496024e+00
  1.084717e+01    2.527145e+00
  1.087892e+01    2.491081e+00
  1.091068e+01    2.482811e+00
  1.094243e+01    2.482973e+00
  1.097418e+01    2.475395e+00
  1.100593e+01    2.426476e+00
  1.103768e+01    2.455728e+00
  1.106943e+01    2.450215e+00
  1.110118e+01    2.423110e+00
  1.113293e+01    2.426908e+00
  1.116468e+01    2.401245e+00
  1.119644e+01    2.451725e+00
  1.122819e+01    2.407816e+00
  1.125994e+01    2.449117e+00
  1.129169e+01    2.426432e+00
  1.132344e+01    2.409327e+00
  1.135519e+01    2.412867e+00
  1.138694e+01    2.398994e+00
  1.141869e+01    2.392906e+00
  1.145045e+01    2.417800e+00
  1.148220e+01    2.408611e+00
  1.151395e+01    2.394964e+00
  1.154570e+01    2.356870e+00
  1.157745e+01    2.364911e+00
  1.160920e+01    2.339998e+00
  1.164095e+01    2.394933e+00
  1.167270e+01    2.302407e+00
  1.170445e+01    2.345599e+00
  1.173621e+01    2.288726e+00
  1.176796e+01    2.355981e+00
  1.179971e+01    2.358040e+00
  1.183146e+01    2.310272e+00
  1.186321e+01    2.287491e+00
  1.189496e+01    2.324724e+00
  1.192671e+01    2.330569e+00
  1.195846e+01    2.318808e+00
  1.199021e+01    2.268311e+00
  1.202197e+01    2.290957e+00
  1.205372e+01    2.313534e+00
  1.208547e+01    2.302049e+00
  1.211722e+01    2.315577e+00
  1.214897e+01    2.296601e+00
  1.218072e+01    2.291178e+00
  1.221247e+01    2.269695e+00
  1.224422e+01    2.262512e+00
  1.227597e+01    2.278384e+00
  1.230773e+01    2.283686e+00
  1.233948e+01    2.321469e+00
  1.237123e+01    2.321980e+00
  1.240298e+01    2.304081e+00
  1.243473e+01    2.320527e+00
  1.246648e+01    2.296957e+00
  1.249823e+01    2.337114e+00
  1.252998e+01    2.336095e+00
  1.256174e+01    2.338624e+00
  1.259349e+01    2.361703e+00
  1.262524e+01    2.391116e+00
  1.265699e+01    2.345753e+00
  1.268874e+01    2.434687e+00
  1.272049e+01    2.458735e+00
  1.275224e+01    2.526571e+00
  1.278399e+01    2.607982e+00
  1.281574e+01    2.692273e+00
  1.284750e+01    2.728240e+00
  1.287925e+01    3.033909e+00
  1.291100e+01    3.298444e+00
  1.294275e+01    3.622935e+00
  1.297450e+01    4.341809e+00
  1.300625e+01    5.353780e+00
  1.303800e+01    7.041000e+00
  1.306975e+01    9.370426e+00
  1.310150e+01    1.214010e+01
  1.313326e+01    1.470852e+01
  1.316501e+01    1.694697e+01
  1.319676e+01    1.749960e+01
  1.322851e+01    1.467130e+01
  1.326026e+01    1.059820e+01
  1.329201e+01    7.503339e+00
  1.332376e+01    5.659688e+00
  1.335551e+01    4.555418e+00
  1.338727e+01    3.750129e+00
  1.341902e+01    3.397029e+00
  1.345077e+01    2.990493e+00
  1.348252e+01    2.833301e+00
  1.351427e+01    2.645081e+00
  1.354602e+01    2.540352e+00
  1.357777e+01    2.417257e+00
  1.360952e+01    2.407821e+00
  1.364127e+01    2.256005e+00
  1.367303e+01    2.250743e+00
  1.370478e+01    2.253110e+00
  1.373653e+01    2.142927e+00
  1.376828e+01    2.163576e+00
  1.380003e+01    2.090829e+00
  1.383178e+01    2.157387e+00
  1.386353e+01    2.136078e+00
  1.389528e+01    2.064859e+00
  1.392703e+01    2.076824e+00
  1.395879e+01    2.016999e+00
  1.399054e+01    2.009471e+00
  1.402229e+01    2.014655e+00
  1.405404e+01    2.006092e+00
  1.408579e+01    2.049367e+00
  1.411754e+01    1.990302e+00
  1.414929e+01    1.949613e+00
  1.418104e+01    1.975297e+00
  1.421279e+01    2.017934e+00
  1.424455e+01    1.977288e+00
  1.427630e+01    1.964305e+00
  1.430805e+01    1.925462e+00
  1.433980e+01    1.904395e+00
  1.437155e+01    1.908627e+00
  1.440330e+01    1.933273e+00
  1.443505e+01    1.927309e+00
  1.446680e+01    1.885137e+00
  1.449856e+01    1.883904e+00
  1.453031e+01    1.917623e+00
  1.456206e+01    1.856396e+00
  1.459381e+01    1.916223e+00
  1.462556e+01    1.916674e+00
  1.465731e+01    1.881398e+00
  1.468906e+01    1.879045e+00
  1.472081e+01    1.899588e+00
  1.475256e+01    1.877684e+00
  1.478432e+01    1.846468e+00
  1.481607e+01    1.867129e+00
  1.484782e+01    1.894769e+00
  1.487957e+01    1.878890e+00
  1.491132e+01    1.979508e+00
  1.494307e+01    2.032432e+00
  1.497482e+01    2.053868e+00
  1.500657e+01    2.125529e+00
  1.503832e+01    2.292262e+00
  1.507008e+01    2.450522e+00
  1.510183e+01    2.826335e+00
  1.513358e+01    3.309773e+00
  1.516533e+01    4.139048e+00
  1.519708e+01    4.868543e+00
  1.522883e+01    5.495067e+00
  1.526058e+01    5.926905e+00
  1.529233e+01    5.817903e+00
  1.532409e+01    5.119244e+00
  1.535584e+01    4.026034e+00
  1.538759e+01    3.215500e+00
  1.541934e+01    2.671639e+00
  1.545109e+01    2.340934e+00
  1.548284e+01    2.154393e+00
  1.551459e+01    1.983097e+00
  1.554634e+01    1.942801e+00
  1.557809e+01    1.859342e+00
  1.560985e+01    1.808244e+00
  1.564160e+01    1.754808e+00
  1.567335e+01    1.714611e+00
  1.570510e+01    1.731317e+00
  1.573685e+01    1.710615e+00
  1.576860e+01    1.706017e+00
  1.580035e+01    1.670950e+00
  1.583210e+01    1.628495e+00
  1.586385e+01    1.616289e+00
  1.589561e+01    1.619303e+00
  1.592736e+01    1.599292e+00
  1.595911e+01    1.606134e+00
  1.599086e+01    1.618284e+00
  1.602261e+01    1.593382e+00
  1.605436e+01    1.574654e+00
  1.608611e+01    1.532483e+00
  1.611786e+01    1.537393e+00
  1.614961e+01    1.592271e+00
  1.618137e+01    1.527077e+00
  1.621312e+01    1.560711e+00
  1.624487e+01    1.573097e+00
  1.627662e+01    1.524978e+00
  1.630837e+01    1.497011e+00
  1.634012e+01    1.520114e+00
  1.637187e+01    1.537253e+00
  1.640362e+01    1.510319e+00
  1.643538e+01    1.503371e+00
  1.646713e+01    1.498278e+00
  1.649888e+01    1.479620e+00
  1.653063e+01    1.526872e+00
  1.656238e+01    1.490384e+00
  1.659413e+01    1.491481e+00
  1.662588e+01    1.466833e+00
  1.665763e+01    1.454320e+00
  1.668938e+01    1.498992e+00
  1.672114e+01    1.453813e+00
  1.675289e+01    1.448072e+00
  1.678464e+01    1.435781e+00
  1.681639e+01    1.445541e+00
  1.684814e+01    1.466043e+00
  1.687989e+01    1.439766e+00
  1.691164e+01    1.447053e+00
  1.694339e+01    1.404430e+00
  1.697514e+01    1.416671e+00
  1.700690e+01    1.421881e+00
  1.703865e+01    1.420690e+00
  1.707040e+01    1.439775e+00
  1.710215e+01    1.377743e+00
  1.713390e+01    1.407157e+00
  1.716565e+01    1.425570e+00
  1.719740e+01    1.406018e+00
  1.722915e+01    1.366945e+00
  1.726091e+01    1.383904e+00
  1.729266e+01    1.367897e+00
  1.732441e+01    1.393710e+00
  1.735616e+01    1.390075e+00
  1.738791e+01    1.358046e+00
  1.741966e+01    1.341880e+00
  1.745141e+01    1.352269e+00
  1.748316e+01    1.354510e+00
  1.751491e+01    1.343426e+00
  1.754667e+01    1.335097e+00
  1.757842e+01    1.329581e+00
  1.761017e+01    1.346457e+00
  1.764192e+01    1.292906e+00
  1.767367e+01    1.341350e+00
  1.770542e+01    1.326101e+00
  1.773717e+01    1.282728e+00
  1.776892e+01    1.307269e+00
  1.780067e+01    1.316339e+00
  1.783243e+01    1.277531e+00
  1.786418e+01    1.298875e+00
  1.789593e+01    1.322551e+00
  1.792768e+01    1.317489e+00
  1.795943e+01    1.283090e+00
  1.799118e+01    1.297834e+00
  1.802293e+01    1.258175e+00
  1.805468e+01    1.280898e+00
  1.808643e+01    1.282478e+00
  1.811819e+01    1.276680e+00
  1.814994e+01    1.292833e+00
  1.818169e+01    1.284243e+00
  1.821344e+01    1.274086e+00
  1.824519e+01    1.287649e+00
  1.827694e+01    1.229480e+00
  1.830869e+01    1.236344e+00
  1.834044e+01    1.239949e+00
  1.837220e+01    1.230739e+00
  1.840395e+01    1.247872e+00
  1.843570e+01    1.247981e+00
  1.846745e+01    1.250957e+00
  1.849920e+01    1.238812e+00
  1.853095e+01    1.234982e+00
  1.856270e+01    1.229576e+00
  1.859445e+01    1.241435e+00
  1.862620e+01    1.215766e+00
  1.865796e+01    1.218859e+00
  1.868971e+01    1.229810e+00
  1.872146e+01    1.221962e+00
  1.875321e+01    1.207439e+00
  1.878496e+01    1.192391e+00
  1.881671e+01    1.183418e+00
  1.884846e+01    1.196469e+00
  1.888021e+01    1.195135e+00
  1.891196e+01    1.199320e+00
  1.894372e+01    1.186387e+00
  1.897547e+01    1.159421e+00
  1.900722e+01    1.184675e+00
  1.903897e+01    1.178854e+00
  1.907072e+01    1.173909e+00
  1.910247e+01    1.169166e+00
  1.913422e+01    1.180551e+00
  1.916597e+01    1.207977e+00
  1.919773e+01    1.180741e+00
  1.922948e+01    1.148222e+00
  1.926123e+01    1.171988e+00
  1.929298e+01    1.170055e+00
  1.932473e+01    1.182820e+00
  1.935648e+01    1.145573e+00
  1.938823e+01    1.162733e+00
  1.941998e+01    1.148863e+00
  1.945173e+01    1.165329e+00
  1.948349e+01    1.137223e+00
  1.951524e+01    1.154258e+00
  1.954699e+01    1.130779e+00
  1.957874e+01    1.113591e+00
  1.961049e+01    1.125393e+00
  1.964224e+01    1.126503e+00
  1.967399e+01    1.145062e+00
  1.970574e+01    1.138920e+00
  1.973749e+01    1.119660e+00
  1.976925e+01    1.119553e+00
  1.980100e+01    1.146221e+00
  1.983275e+01    1.110811e+00
  1.986450e+01    1.096169e+00
  1.989625e+01    1.123694e+00
  1.992800e+01    1.125987e+00
  1.995975e+01    1.110432e+00
  1.999150e+01    1.099118e+00
  2.002325e+01    1.118809e+00
  2.005501e+01    1.111235e+00
  2.008676e+01    1.094336e+00
  2.011851e+01    1.106799e+00
  2.015026e+01    1.070707e+00
  2.018201e+01    1.110188e+00
  2.021376e+01    1.099816e+00
  2.024551e+01    1.095045e+00
  2.027726e+01    1.096239e+00
  2.030902e+01    1.091336e+00
  2.034077e+01    1.101076e+00
  2.037252e+01    1.083556e+00
  2.040427e+01    1.109336e+00
  2.043602e+01    1.072592e+00
  2.046777e+01    1.038924e+00
  2.049952e+01    1.071228e+00
  2.053127e+01    1.074309e+00
  2.056302e+01    1.075480e+00
  2.059478e+01    1.069313e+00
  2.062653e+01    1.083882e+00
  2.065828e+01    1.075806e+00
  2.069003e+01    1.058980e+00
  2.072178e+01    1.062002e+00
  2.075353e+01    1.059236e+00
  2.078528e+01    1.065930e+00
  2.081703e+01    1.075017e+00
  2.084878e+01    1.073186e+00
  2.088054e+01    1.057164e+00
  2.091229e+01    1.086395e+00
  2.094404e+01    1.079731e+00
  2.097579e+01    1.079432e+00
  2.100754e+01    1.063347e+00
  2.103929e+01    1.090387e+00
  2.107104e+01    1.066783e+00
  2.110279e+01    1.068475e+00
  2.113455e+01    1.066741e+00
  2.116630e+01    1.088803e+00
  2.119805e+01    1.099013e+00
  2.122980e+01    1.101969e+00
  2.126155e+01    1.109262e+00
  2.129330e+01    1.106670e+00
  2.132505e+01    1.118930e+00
  2.135680e+01    1.129955e+00
  2.138855e+01    1.139187e+00
  2.142031e+01    1.167096e+00
  2.145206e+01    1.205054e+00
  2.148381e+01    1.214007e+00
  2.151556e+01    1.286388e+00
  2.154731e+01    1.341468e+00
  2.157906e+01    1.443352e+00
  2.161081e+01    1.553889e+00
  2.164256e+01    1.742674e+00
  2.167431e+01    2.062041e+00
  2.170607e+01    2.486184e+00
  2.173782e+01    3.133997e+00
  2.176957e+01    4.160755e+00
  2.180132e+01    5.378615e+00
  2.183307e+01    6.788864e+00
  2.186482e+01    8.326713e+00
  2.189657e+01    9.546153e+00
  2.192832e+01    9.559940e+00
  2.196007e+01    7.918910e+00
  2.199183e+01    5.927470e+00
  2.202358e+01    4.205008e+00
  2.205533e+01    3.156443e+00
  2.208708e+01    2.457279e+00
  2.211883e+01    2.075305e+00
  2.215058e+01    1.783924e+00
  2.218233e+01    1.582971e+00
  2.221408e+01    1.454785e+00
  2.224584e+01    1.339721e+00
  2.227759e+01    1.266222e+00
  2.230934e+01    1.176833e+00
  2.234109e+01    1.158137e+00
  2.237284e+01    1.122041e+00
  2.240459e+01    1.066107e+00
  2.243634e+01    1.058484e+00
  2.246809e+01    1.054691e+00
  2.249984e+01    1.009238e+00
  2.253160e+01    9.916525e-01
  2.256335e+01    9.874375e-01
  2.259510e+01    9.880705e-01
  2.262685e+01    9.775549e-01
  2.265860e+01    9.542631e-01
  2.269035e+01    9.637939e-01
  2.272210e+01    9.323539e-01
  2.275385e+01    9.587466e-01
  2.278560e+01    9.275744e-01
  2.281736e+01    9.222549e-01
  2.284911e+01    9.266743e-01
  2.288086e+01    9.147506e-01
  2.291261e+01    9.031637e-01
  2.294436e+01    9.105513e-01
  2.297611e+01    8.781514e-01
  2.300786e+01    8.826377e-01
  2.303961e+01    8.894588e-01
  2.307137e+01    8.886071e-01
  2.310312e+01    8.733335e-01
  2.313487e+01    8.895650e-01
  2.316662e+01    8.878129e-01
  2.319837e+01    8.718576e-01
  2.323012e+01    8.521103e-01
  2.326187e+01    8.676098e-01
  2.329362e+01    8.482060e-01
  2.332537e+01    8.626506e-01
  2.335713e+01    8.397210e-01
  2.338888e+01    8.415740e-01
  2.342063e+01    8.328750e-01
  2.345238e+01    8.325107e-01
  2.348413e+01    8.426777e-01
  2.351588e+01    8.445619e-01
  2.354763e+01    8.542597e-01
  2.357938e+01    8.290028e-01
  2.361113e+01    8.525570e-01
  2.364289e+01    8.301373e-01
  2.367464e+01    8.223957e-01
  2.370639e+01    8.211160e-01
  2.373814e+01    8.254277e-01
  2.376989e+01    8.235161e-01
  2.380164e+01    7.831089e-01
  2.383339e+01    7.892647e-01
  2.386514e+01    8.001848e-01
  2.389689e+01    8.032519e-01
  2.392865e+01    7.969173e-01
  2.396040e+01    7.754441e-01
  2.399215e+01    7.706404e-01
  2.402390e+01    7.825465e-01
  2.405565e+01    7.851228e-01
  2.408740e+01    7.840135e-01
  2.411915e+01    7.950230e-01
  2.415090e+01    7.657691e-01
  2.418266e+01    7.558257e-01
  2.421441e+01    7.683785e-01
  2.424616e+01    7.641973e-01
  2.427791e+01    7.663406e-01
  2.430966e+01    7.662137e-01
  2.434141e+01    8.004451e-01
  2.437316e+01    7.685312e-01
  2.440491e+01    7.847745e-01
  2.443666e+01    7.893109e-01
  2.446842e+01    7.749855e-01
  2.450017e+01    7.666215e-01
  2.453192e+01    7.901646e-01
  2.456367e+01    7.827569e-01
  2.459542e+01    7.856612e-01
  2.462717e+01    7.863517e-01
  2.465892e+01    7.943587e-01
  2.469067e+01    7.794142e-01
  2.472242e+01    7.790299e-01
  2.475418e+01    7.951714e-01
  2.478593e+01    8.028836e-01
  2.481768e+01    7.994486e-01
  2.484943e+01    7.837080e-01
  2.488118e+01    7.853311e-01
  2.491293e+01    7.918296e-01
  2.494468e+01    7.863412e-01
  2.497643e+01    7.789717e-01
  2.500819e+01    8.103555e-01
  2.503994e+01    8.019983e-01
  2.507169e+01    8.163058e-01
  2.510344e+01    8.178917e-01
  2.513519e+01    7.950751e-01
  2.516694e+01    8.330035e-01
  2.519869e+01    8.493999e-01
  2.523044e+01    8.475319e-01
  2.526219e+01    8.631439e-01
  2.529395e+01    8.519123e-01
  2.532570e+01    8.581495e-01
  2.535745e+01    8.802898e-01
  2.538920e+01    8.855671e-01
  2.542095e+01    8.934246e-01
  2.545270e+01    9.361831e-01
  2.548445e+01    9.628233e-01
  2.551620e+01    9.690772e-01
  2.554795e+01    1.010757e+00
  2.557971e+01    1.054912e+00
  2.561146e+01    1.121071e+00
  2.564321e+01    1.175120e+00
  2.567496e+01    1.291363e+00
  2.570671e+01    1.445409e+00
  2.573846e+01    1.692125e+00
  2.577021e+01    2.003445e+00
  2.580196e+01    2.486978e+00
  2.583371e+01    3.198967e+00
  2.586547e+01    4.219857e+00
  2.589722e+01    5.496055e+00
  2.592897e+01    6.862463e+00
  2.596072e+01    7.748816e+00
  2.599247e+01    7.855414e+00
  2.602422e+01    6.815433e+00
  2.605597e+01    5.161532e+00
  2.608772e+01    3.725444e+00
  2.611948e+01    2.811852e+00
  2.615123e+01    2.240005e+00
  2.618298e+01    1.852416e+00
  2.621473e+01    1.565436e+00
  2.624648e+01    1.375417e+00
  2.627823e+01    1.243082e+00
  2.630998e+01    1.143621e+00
  2.634173e+01    1.093666e+00
  2.637348e+01    1.044489e+00
  2.640524e+01    1.009981e+00
  2.643699e+01    9.477556e-01
  2.646874e+01    9.400729e-01
  2.650049e+01    9.282675e-01
  2.653224e+01    9.395283e-01
  2.656399e+01    9.035044e-01
  2.659574e+01    9.047933e-01
  2.662749e+01    8.938373e-01
  2.665924e+01    8.923965e-01
  2.669100e+01    8.960111e-01
  2.672275e+01    8.859859e-01
  2.675450e+01    8.828995e-01
  2.678625e+01    9.079477e-01
  2.681800e+01    9.021223e-01
  2.684975e+01    8.915255e-01
  2.688150e+01    8.784441e-01
  2.691325e+01    9.222021e-01
  2.694501e+01    9.525887e-01
  2.697676e+01    9.672865e-01
  2.700851e+01    1.010835e+00
  2.704026e+01    1.070085e+00
  2.707201e+01    1.188053e+00
  2.710376e+01    1.356404e+00
  2.713551e+01    1.577494e+00
  2.716726e+01    1.851925e+00
  2.719901e+01    2.160216e+00
  2.723077e+01    2.343274e+00
  2.726252e+01    2.192148e+00
  2.729427e+01    1.978406e+00
  2.732602e+01    1.627261e+00
  2.735777e+01    1.386189e+00
  2.738952e+01    1.192017e+00
  2.742127e+01    1.080537e+00
  2.745302e+01    1.014484e+00
  2.748477e+01    9.495351e-01
  2.751653e+01    9.150516e-01
  2.754828e+01    8.888128e-01
  2.758003e+01    8.455526e-01
  2.761178e+01    8.604845e-01
  2.764353e+01    8.299830e-01
  2.767528e+01    8.174627e-01
  2.770703e+01    8.264809e-01
  2.773878e+01    8.213127e-01
  2.777054e+01    8.142115e-01
  2.780229e+01    8.071212e-01
  2.783404e+01    8.061534e-01
  2.786579e+01    8.119066e-01
  2.789754e+01    7.981327e-01
  2.792929e+01    7.889721e-01
  2.796104e+01    7.779582e-01
  2.799279e+01    8.046364e-01
  2.802454e+01    7.883180e-01
  2.805630e+01    7.632958e-01
  2.808805e+01    7.668548e-01
  2.811980e+01    7.744523e-01
  2.815155e+01    7.774615e-01
  2.818330e+01    7.779946e-01
  2.821505e+01    7.612708e-01
  2.824680e+01    7.607203e-01
  2.827855e+01    7.651962e-01
  2.831030e+01    7.426972e-01
  2.834206e+01    7.645836e-01
  2.837381e+01    7.366509e-01
  2.840556e+01    7.687429e-01
  2.843731e+01    7.605122e-01
  2.846906e+01    7.444564e-01
  2.850081e+01    7.529387e-01
  2.853256e+01    7.537089e-01
  2.856431e+01    7.489719e-01
  2.859606e+01    7.517613e-01
  2.862782e+01    7.529537e-01
  2.865957e+01    7.572805e-01
  2.869132e+01    7.443922e-01
  2.872307e+01    7.343762e-01
  2.875482e+01    7.504700e-01
  2.878657e+01    7.482446e-01
  2.881832e+01    7.272652e-01
  2.885007e+01    7.566782e-01
  2.888183e+01    7.241820e-01
  2.891358e+01    7.212269e-01
  2.894533e+01    7.377160e-01
  2.897708e+01    7.572454e-01
  2.900883e+01    7.368962e-01
  2.904058e+01    7.261102e-01
  2.907233e+01    7.043507e-01
  2.910408e+01    7.335379e-01
  2.913583e+01    7.306001e-01
  2.916759e+01    7.129862e-01
  2.919934e+01    7.173390e-01
  2.923109e+01    7.346310e-01
  2.926284e+01    7.092562e-01
  2.929459e+01    7.340994e-01
  2.932634e+01    7.193152e-01
  2.935809e+01    7.381349e-01
  2.938984e+01    7.429512e-01
  2.942159e+01    7.211484e-01
  2.945335e+01    7.313654e-01
  2.948510e+01    7.129878e-01
  2.951685e+01    7.258105e-01
  2.954860e+01    7.313136e-01
  2.958035e+01    7.202427e-01
  2.961210e+01    7.312317e-01
  2.964385e+01    7.264000e-01
  2.967560e+01    7.262295e-01
  2.970736e+01    7.070140e-01
  2.973911e+01    7.061895e-01
  2.977086e+01    7.133517e-01
  2.980261e+01    7.189184e-01
  2.983436e+01    6.962221e-01
  2.986611e+01    7.179576e-01
  2.989786e+01    7.137182e-01
  2.992961e+01    7.131222e-01
  2.996136e+01    7.081268e-01
  2.999312e+01    7.118769e-01
  3.002487e+01    7.205772e-01
  3.005662e+01    7.353730e-01
  3.008837e+01    7.315662e-01
  3.012012e+01    7.064493e-01
  3.015187e+01    7.090902e-01
  3.018362e+01    7.148091e-01
  3.021537e+01    7.165332e-01
  3.024712e+01    6.920604e-01
  3.027888e+01    6.880995e-01
  3.031063e+01    7.094335e-01
  3.034238e+01    7.025102e-01
  3.037413e+01    7.114574e-01
  3.040588e+01    7.185709e-01
  3.043763e+01    6.904114e-01
  3.046938e+01    7.232594e-01
  3.050113e+01    7.028001e-01
  3.053288e+01    7.170988e-01
  3.056464e+01    6.957856e-01
  3.059639e+01    7.213019e-01
  3.062814e+01    7.123792e-01
  3.065989e+01    7.202712e-01
  3.069164e+01    6.924067e-01
  3.072339e+01    7.075854e-01
  3.075514e+01    7.167050e-01
  3.078689e+01    7.107043e-01
  3.081865e+01    6.827781e-01
  3.085040e+01    6.922395e-01
  3.088215e+01    7.245339e-01
  3.091390e+01    6.896626e-01
  3.094565e+01    6.970967e-01
  3.097740e+01    7.189114e-01
  3.100915e+01    7.111301e-01
  3.104090e+01    7.003906e-01
  3.107265e+01    7.019593e-01
  3.110441e+01    7.081240e-01
  3.113616e+01    7.470217e-01
  3.116791e+01    7.230067e-01
  3.119966e+01    7.154812e-01
  3.123141e+01    7.244163e-01
  3.126316e+01    7.436065e-01
  3.129491e+01    7.225606e-01
  3.132666e+01    7.243578e-01
  3.135841e+01    7.490289e-01
  3.139017e+01    7.533028e-01
  3.142192e+01    7.441984e-01
  3.145367e+01    7.507213e-01
  3.148542e+01    7.521356e-01
  3.151717e+01    7.819463e-01
  3.154892e+01    7.488137e-01
  3.158067e+01    7.853565e-01
  3.161242e+01    8.134095e-01
  3.164418e+01    8.397231e-01
  3.167593e+01    8.709552e-01
  3.170768e+01    9.485914e-01
  3.173943e+01    1.023361e+00
  3.177118e+01    1.131164e+00
  3.180293e+01    1.301818e+00
  3.183468e+01    1.574094e+00
  3.186643e+01    1.906277e+00
  3.189818e+01    2.207079e+00
  3.192994e+01    2.321440e+00
  3.196169e+01    2.193122e+00
  3.199344e+01    1.870784e+00
  3.202519e+01    1.539447e+00
  3.205694e+01    1.249640e+00
  3.208869e+01    1.107493e+00
  3.212044e+01    9.720379e-01
  3.215219e+01    8.998267e-01
  3.218394e+01    8.638467e-01
  3.221570e+01    7.986595e-01
  3.224745e+01    7.964494e-01
  3.227920e+01    7.766877e-01
  3.231095e+01    7.526579e-01
  3.234270e+01    7.210343e-01
  3.237445e+01    7.441032e-01
  3.240620e+01    7.573704e-01
  3.243795e+01    7.231338e-01
  3.246970e+01    7.344308e-01
  3.250146e+01    7.318658e-01
  3.253321e+01    7.132387e-01
  3.254908e+01    7.278911e-01