File: XRD/2024-07-27_002_Ru-CGO-ex_Activtation_ramp_000002_data_000097.dat
# == pyFAI calibration ==
# Distance Sample to Detector: 0.4 m
# PONI: 9.750e-02, 1.135e-01 m
# Rotations: -0.000175 0.000000 -0.000000 rad
#
# == Fit2d calibration ==
# Distance Sample-beamCenter: 400.000 mm
# Center: x=1514.000, y=1300.000 pix
# Tilt: 0.010 deg  TiltPlanRot: 0.010 deg
#
# Detector Detector	 Spline= None	 PixelSize= 7.500e-05, 7.500e-05 m
#    Detector has a mask: False
#    Detector has a dark current: False
#    detector has a flat field: False
#
# Wavelength: 6.888e-11 m
# Mask applied: user provided
# Dark current applied: False
# Flat field applied: False
# Polarization factor: 0.99
# Normalization factor: 1.0
# --> /home/myspot/data/2024_07_Rosario/Ru-CGO-ex/2024-07-27_002_Ru-CGO-ex_Activtation_ramp_000002_data_000097.dat
#       q_nm^-1             I
  2.003187e-02    1.542450e-01
  5.178302e-02    8.012769e-02
  8.353417e-02    1.908065e-01
  1.152853e-01    1.883849e-03
  1.470365e-01    1.543290e-02
  1.787876e-01    0.000000e+00
  2.105388e-01    3.203745e-02
  2.422899e-01    7.735296e-02
  2.740411e-01    2.517503e-02
  3.057922e-01    2.181759e-02
  3.375433e-01    4.999303e-02
  3.692945e-01    2.103501e-02
  4.010456e-01    9.314859e-03
  4.327968e-01    4.204744e-02
  4.645479e-01    6.384125e-02
  4.962991e-01    5.576066e-02
  5.280502e-01    4.729300e-02
  5.598014e-01    3.365066e-02
  5.915525e-01    4.265363e-02
  6.233037e-01    4.470254e-02
  6.550548e-01    3.467230e-02
  6.868060e-01    4.925935e-02
  7.185571e-01    4.795190e-02
  7.503083e-01    2.082705e-02
  7.820594e-01    1.132318e-01
  8.138106e-01    1.831902e-01
  8.455617e-01    2.413022e-01
  8.773129e-01    3.750207e-01
  9.090640e-01    5.332735e-01
  9.408152e-01    7.410733e-01
  9.725663e-01    7.779880e-01
  1.004317e+00    1.050582e+00
  1.036069e+00    1.179793e+00
  1.067820e+00    1.226137e+00
  1.099571e+00    1.198061e+00
  1.131322e+00    1.421277e+00
  1.163073e+00    1.486126e+00
  1.194824e+00    1.701390e+00
  1.226575e+00    2.104928e+00
  1.258327e+00    2.241979e+00
  1.290078e+00    2.372154e+00
  1.321829e+00    2.607388e+00
  1.353580e+00    2.426309e+00
  1.385331e+00    2.506461e+00
  1.417082e+00    2.515875e+00
  1.448834e+00    2.715243e+00
  1.480585e+00    2.964339e+00
  1.512336e+00    2.963632e+00
  1.544087e+00    2.891429e+00
  1.575838e+00    2.902718e+00
  1.607589e+00    2.900946e+00
  1.639340e+00    2.944854e+00
  1.671092e+00    2.973232e+00
  1.702843e+00    2.834321e+00
  1.734594e+00    2.700808e+00
  1.766345e+00    2.845808e+00
  1.798096e+00    2.791155e+00
  1.829847e+00    2.693458e+00
  1.861598e+00    2.724488e+00
  1.893350e+00    2.766025e+00
  1.925101e+00    2.768788e+00
  1.956852e+00    2.772148e+00
  1.988603e+00    2.713080e+00
  2.020354e+00    2.774884e+00
  2.052105e+00    2.734330e+00
  2.083856e+00    2.699919e+00
  2.115608e+00    2.672392e+00
  2.147359e+00    2.677698e+00
  2.179110e+00    2.802707e+00
  2.210861e+00    2.706913e+00
  2.242612e+00    2.727616e+00
  2.274363e+00    2.718765e+00
  2.306115e+00    2.546706e+00
  2.337866e+00    2.698721e+00
  2.369617e+00    2.760411e+00
  2.401368e+00    2.798287e+00
  2.433119e+00    2.735892e+00
  2.464870e+00    2.724680e+00
  2.496621e+00    2.713866e+00
  2.528373e+00    2.693934e+00
  2.560124e+00    2.809253e+00
  2.591875e+00    2.803592e+00
  2.623626e+00    2.801351e+00
  2.655377e+00    2.698023e+00
  2.687128e+00    2.700258e+00
  2.718879e+00    2.823790e+00
  2.750631e+00    2.829074e+00
  2.782382e+00    2.739222e+00
  2.814133e+00    2.886546e+00
  2.845884e+00    2.819373e+00
  2.877635e+00    2.923972e+00
  2.909386e+00    2.804617e+00
  2.941137e+00    2.993214e+00
  2.972889e+00    2.872077e+00
  3.004640e+00    2.882397e+00
  3.036391e+00    2.815296e+00
  3.068142e+00    2.901530e+00
  3.099893e+00    2.913128e+00
  3.131644e+00    2.905577e+00
  3.163395e+00    2.867611e+00
  3.195147e+00    2.802967e+00
  3.226898e+00    2.973763e+00
  3.258649e+00    2.910018e+00
  3.290400e+00    2.882069e+00
  3.322151e+00    2.929219e+00
  3.353902e+00    2.897176e+00
  3.385654e+00    2.833771e+00
  3.417405e+00    2.874391e+00
  3.449156e+00    2.954556e+00
  3.480907e+00    2.932752e+00
  3.512658e+00    2.875984e+00
  3.544409e+00    2.888481e+00
  3.576160e+00    2.927363e+00
  3.607912e+00    2.897665e+00
  3.639663e+00    2.853590e+00
  3.671414e+00    2.980207e+00
  3.703165e+00    2.890146e+00
  3.734916e+00    2.953561e+00
  3.766667e+00    2.935193e+00
  3.798418e+00    2.976222e+00
  3.830170e+00    2.959513e+00
  3.861921e+00    3.015924e+00
  3.893672e+00    3.007626e+00
  3.925423e+00    2.997159e+00
  3.957174e+00    2.923553e+00
  3.988925e+00    3.097526e+00
  4.020676e+00    3.035192e+00
  4.052428e+00    3.021383e+00
  4.084179e+00    2.960019e+00
  4.115930e+00    2.978788e+00
  4.147681e+00    2.964050e+00
  4.179432e+00    3.109622e+00
  4.211183e+00    2.940669e+00
  4.242935e+00    2.979617e+00
  4.274686e+00    3.029896e+00
  4.306437e+00    3.055083e+00
  4.338188e+00    3.007703e+00
  4.369939e+00    2.980572e+00
  4.401690e+00    3.016158e+00
  4.433441e+00    2.998213e+00
  4.465193e+00    3.033099e+00
  4.496944e+00    2.960524e+00
  4.528695e+00    3.067491e+00
  4.560446e+00    3.021014e+00
  4.592197e+00    2.981362e+00
  4.623948e+00    3.085019e+00
  4.655699e+00    3.079204e+00
  4.687451e+00    3.153157e+00
  4.719202e+00    3.085186e+00
  4.750953e+00    3.188114e+00
  4.782704e+00    3.054885e+00
  4.814455e+00    3.121665e+00
  4.846206e+00    3.053198e+00
  4.877957e+00    3.062304e+00
  4.909709e+00    3.122712e+00
  4.941460e+00    3.007440e+00
  4.973211e+00    3.105684e+00
  5.004962e+00    3.107622e+00
  5.036713e+00    3.060655e+00
  5.068464e+00    2.989238e+00
  5.100216e+00    3.081171e+00
  5.131967e+00    3.121884e+00
  5.163718e+00    3.129383e+00
  5.195469e+00    3.030573e+00
  5.227220e+00    3.131747e+00
  5.258971e+00    3.093652e+00
  5.290722e+00    3.096068e+00
  5.322474e+00    3.129140e+00
  5.354225e+00    3.076196e+00
  5.385976e+00    3.059936e+00
  5.417727e+00    3.032357e+00
  5.449478e+00    3.082917e+00
  5.481229e+00    2.945657e+00
  5.512980e+00    3.049706e+00
  5.544732e+00    2.965432e+00
  5.576483e+00    3.070095e+00
  5.608234e+00    2.976545e+00
  5.639985e+00    2.996635e+00
  5.671736e+00    3.111083e+00
  5.703487e+00    2.933161e+00
  5.735238e+00    3.142587e+00
  5.766990e+00    3.138775e+00
  5.798741e+00    3.011614e+00
  5.830492e+00    2.970682e+00
  5.862243e+00    3.039850e+00
  5.893994e+00    2.996140e+00
  5.925745e+00    2.947656e+00
  5.957497e+00    3.017720e+00
  5.989248e+00    3.020806e+00
  6.020999e+00    2.947338e+00
  6.052750e+00    2.991950e+00
  6.084501e+00    3.014180e+00
  6.116252e+00    3.058123e+00
  6.148003e+00    3.032512e+00
  6.179755e+00    3.048088e+00
  6.211506e+00    2.982135e+00
  6.243257e+00    3.016982e+00
  6.275008e+00    2.996333e+00
  6.306759e+00    3.029901e+00
  6.338510e+00    2.872337e+00
  6.370261e+00    2.979801e+00
  6.402013e+00    2.989719e+00
  6.433764e+00    3.051921e+00
  6.465515e+00    2.954741e+00
  6.497266e+00    2.928676e+00
  6.529017e+00    3.017546e+00
  6.560768e+00    2.968791e+00
  6.592519e+00    2.950070e+00
  6.624271e+00    3.001980e+00
  6.656022e+00    2.965932e+00
  6.687773e+00    2.957581e+00
  6.719524e+00    2.977973e+00
  6.751275e+00    3.033959e+00
  6.783026e+00    2.915907e+00
  6.814777e+00    2.983553e+00
  6.846529e+00    3.009457e+00
  6.878280e+00    3.023961e+00
  6.910031e+00    2.936283e+00
  6.941782e+00    3.003186e+00
  6.973533e+00    2.991790e+00
  7.005284e+00    2.977413e+00
  7.037036e+00    3.037338e+00
  7.068787e+00    2.962789e+00
  7.100538e+00    2.937833e+00
  7.132289e+00    3.009917e+00
  7.164040e+00    2.914990e+00
  7.195791e+00    2.928244e+00
  7.227542e+00    2.890732e+00
  7.259294e+00    2.983680e+00
  7.291045e+00    2.942427e+00
  7.322796e+00    2.937931e+00
  7.354547e+00    2.985469e+00
  7.386298e+00    2.989807e+00
  7.418049e+00    2.924345e+00
  7.449800e+00    2.928833e+00
  7.481552e+00    2.924417e+00
  7.513303e+00    2.959247e+00
  7.545054e+00    2.939660e+00
  7.576805e+00    2.979387e+00
  7.608556e+00    2.973563e+00
  7.640307e+00    2.998073e+00
  7.672058e+00    2.933692e+00
  7.703810e+00    2.945777e+00
  7.735561e+00    2.871302e+00
  7.767312e+00    2.952694e+00
  7.799063e+00    2.870486e+00
  7.830814e+00    2.879150e+00
  7.862565e+00    2.918001e+00
  7.894317e+00    2.898978e+00
  7.926068e+00    2.914537e+00
  7.957819e+00    2.861895e+00
  7.989570e+00    2.947435e+00
  8.021321e+00    2.895016e+00
  8.053072e+00    2.910393e+00
  8.084823e+00    2.796127e+00
  8.116575e+00    2.983277e+00
  8.148326e+00    2.932423e+00
  8.180077e+00    2.958795e+00
  8.211828e+00    2.947078e+00
  8.243579e+00    2.903424e+00
  8.275330e+00    2.839633e+00
  8.307081e+00    2.881767e+00
  8.338833e+00    2.917400e+00
  8.370584e+00    2.800869e+00
  8.402335e+00    2.901168e+00
  8.434086e+00    2.855597e+00
  8.465837e+00    2.881466e+00
  8.497588e+00    2.907513e+00
  8.529339e+00    2.841545e+00
  8.561091e+00    2.806589e+00
  8.592842e+00    2.845134e+00
  8.624593e+00    2.764884e+00
  8.656344e+00    2.791052e+00
  8.688095e+00    2.833091e+00
  8.719846e+00    2.816896e+00
  8.751598e+00    2.838726e+00
  8.783349e+00    2.773826e+00
  8.815100e+00    2.862757e+00
  8.846851e+00    2.807110e+00
  8.878602e+00    2.855233e+00
  8.910353e+00    2.809765e+00
  8.942104e+00    2.762731e+00
  8.973856e+00    2.768784e+00
  9.005607e+00    2.783996e+00
  9.037358e+00    2.773077e+00
  9.069109e+00    2.720003e+00
  9.100860e+00    2.763315e+00
  9.132611e+00    2.850882e+00
  9.164362e+00    2.842224e+00
  9.196114e+00    2.788460e+00
  9.227865e+00    2.707807e+00
  9.259616e+00    2.785675e+00
  9.291367e+00    2.719292e+00
  9.323118e+00    2.765889e+00
  9.354869e+00    2.762141e+00
  9.386620e+00    2.686471e+00
  9.418372e+00    2.744272e+00
  9.450123e+00    2.751352e+00
  9.481874e+00    2.778821e+00
  9.513625e+00    2.750784e+00
  9.545376e+00    2.710603e+00
  9.577127e+00    2.765198e+00
  9.608878e+00    2.767098e+00
  9.640630e+00    2.764666e+00
  9.672381e+00    2.700955e+00
  9.704132e+00    2.693553e+00
  9.735883e+00    2.734195e+00
  9.767634e+00    2.646261e+00
  9.799385e+00    2.632377e+00
  9.831137e+00    2.696846e+00
  9.862888e+00    2.661891e+00
  9.894639e+00    2.716644e+00
  9.926390e+00    2.662011e+00
  9.958141e+00    2.680949e+00
  9.989892e+00    2.661712e+00
  1.002164e+01    2.642717e+00
  1.005339e+01    2.656890e+00
  1.008515e+01    2.613327e+00
  1.011690e+01    2.613653e+00
  1.014865e+01    2.624969e+00
  1.018040e+01    2.615164e+00
  1.021215e+01    2.545537e+00
  1.024390e+01    2.641579e+00
  1.027565e+01    2.549925e+00
  1.030740e+01    2.586495e+00
  1.033915e+01    2.567615e+00
  1.037091e+01    2.588083e+00
  1.040266e+01    2.601459e+00
  1.043441e+01    2.541916e+00
  1.046616e+01    2.585634e+00
  1.049791e+01    2.520223e+00
  1.052966e+01    2.518257e+00
  1.056141e+01    2.552133e+00
  1.059316e+01    2.610644e+00
  1.062492e+01    2.519592e+00
  1.065667e+01    2.529662e+00
  1.068842e+01    2.546996e+00
  1.072017e+01    2.518086e+00
  1.075192e+01    2.500118e+00
  1.078367e+01    2.533493e+00
  1.081542e+01    2.500950e+00
  1.084717e+01    2.520892e+00
  1.087892e+01    2.462359e+00
  1.091068e+01    2.520237e+00
  1.094243e+01    2.528445e+00
  1.097418e+01    2.499691e+00
  1.100593e+01    2.458419e+00
  1.103768e+01    2.466960e+00
  1.106943e+01    2.471779e+00
  1.110118e+01    2.480586e+00
  1.113293e+01    2.472272e+00
  1.116468e+01    2.451173e+00
  1.119644e+01    2.410182e+00
  1.122819e+01    2.437082e+00
  1.125994e+01    2.444128e+00
  1.129169e+01    2.423015e+00
  1.132344e+01    2.399982e+00
  1.135519e+01    2.398622e+00
  1.138694e+01    2.359212e+00
  1.141869e+01    2.380295e+00
  1.145045e+01    2.392915e+00
  1.148220e+01    2.345371e+00
  1.151395e+01    2.432266e+00
  1.154570e+01    2.330542e+00
  1.157745e+01    2.349881e+00
  1.160920e+01    2.363757e+00
  1.164095e+01    2.362657e+00
  1.167270e+01    2.377907e+00
  1.170445e+01    2.277136e+00
  1.173621e+01    2.317520e+00
  1.176796e+01    2.294811e+00
  1.179971e+01    2.355544e+00
  1.183146e+01    2.358823e+00
  1.186321e+01    2.344022e+00
  1.189496e+01    2.312641e+00
  1.192671e+01    2.305865e+00
  1.195846e+01    2.311997e+00
  1.199021e+01    2.275419e+00
  1.202197e+01    2.319091e+00
  1.205372e+01    2.319295e+00
  1.208547e+01    2.301334e+00
  1.211722e+01    2.298193e+00
  1.214897e+01    2.280563e+00
  1.218072e+01    2.291277e+00
  1.221247e+01    2.299389e+00
  1.224422e+01    2.322971e+00
  1.227597e+01    2.318127e+00
  1.230773e+01    2.293600e+00
  1.233948e+01    2.312236e+00
  1.237123e+01    2.294389e+00
  1.240298e+01    2.334707e+00
  1.243473e+01    2.356289e+00
  1.246648e+01    2.312528e+00
  1.249823e+01    2.333786e+00
  1.252998e+01    2.372324e+00
  1.256174e+01    2.324533e+00
  1.259349e+01    2.365601e+00
  1.262524e+01    2.366714e+00
  1.265699e+01    2.372482e+00
  1.268874e+01    2.495878e+00
  1.272049e+01    2.494772e+00
  1.275224e+01    2.512697e+00
  1.278399e+01    2.572593e+00
  1.281574e+01    2.703673e+00
  1.284750e+01    2.780071e+00
  1.287925e+01    2.954211e+00
  1.291100e+01    3.269784e+00
  1.294275e+01    3.697196e+00
  1.297450e+01    4.294496e+00
  1.300625e+01    5.319371e+00
  1.303800e+01    6.938729e+00
  1.306975e+01    9.438054e+00
  1.310150e+01    1.227343e+01
  1.313326e+01    1.479622e+01
  1.316501e+01    1.704178e+01
  1.319676e+01    1.779300e+01
  1.322851e+01    1.510308e+01
  1.326026e+01    1.090727e+01
  1.329201e+01    7.713342e+00
  1.332376e+01    5.806073e+00
  1.335551e+01    4.672276e+00
  1.338727e+01    3.877423e+00
  1.341902e+01    3.409239e+00
  1.345077e+01    3.091561e+00
  1.348252e+01    2.813056e+00
  1.351427e+01    2.691825e+00
  1.354602e+01    2.582747e+00
  1.357777e+01    2.454786e+00
  1.360952e+01    2.389604e+00
  1.364127e+01    2.315044e+00
  1.367303e+01    2.314958e+00
  1.370478e+01    2.259678e+00
  1.373653e+01    2.194690e+00
  1.376828e+01    2.250339e+00
  1.380003e+01    2.183157e+00
  1.383178e+01    2.143870e+00
  1.386353e+01    2.069919e+00
  1.389528e+01    2.064872e+00
  1.392703e+01    2.062712e+00
  1.395879e+01    2.072376e+00
  1.399054e+01    2.031136e+00
  1.402229e+01    2.008940e+00
  1.405404e+01    1.995665e+00
  1.408579e+01    2.015970e+00
  1.411754e+01    1.989882e+00
  1.414929e+01    1.951589e+00
  1.418104e+01    1.975971e+00
  1.421279e+01    1.976131e+00
  1.424455e+01    1.962076e+00
  1.427630e+01    1.972580e+00
  1.430805e+01    1.952830e+00
  1.433980e+01    1.932016e+00
  1.437155e+01    1.929932e+00
  1.440330e+01    1.940791e+00
  1.443505e+01    1.939412e+00
  1.446680e+01    1.941137e+00
  1.449856e+01    1.926838e+00
  1.453031e+01    1.906620e+00
  1.456206e+01    1.898661e+00
  1.459381e+01    1.872629e+00
  1.462556e+01    1.968440e+00
  1.465731e+01    1.892401e+00
  1.468906e+01    1.873376e+00
  1.472081e+01    1.897653e+00
  1.475256e+01    1.897743e+00
  1.478432e+01    1.935901e+00
  1.481607e+01    1.903735e+00
  1.484782e+01    1.883011e+00
  1.487957e+01    1.900569e+00
  1.491132e+01    2.004156e+00
  1.494307e+01    1.988763e+00
  1.497482e+01    2.020550e+00
  1.500657e+01    2.162127e+00
  1.503832e+01    2.237949e+00
  1.507008e+01    2.444245e+00
  1.510183e+01    2.813518e+00
  1.513358e+01    3.404828e+00
  1.516533e+01    4.125902e+00
  1.519708e+01    4.877745e+00
  1.522883e+01    5.585004e+00
  1.526058e+01    6.008225e+00
  1.529233e+01    5.929034e+00
  1.532409e+01    5.272478e+00
  1.535584e+01    4.097858e+00
  1.538759e+01    3.209395e+00
  1.541934e+01    2.711093e+00
  1.545109e+01    2.374631e+00
  1.548284e+01    2.185985e+00
  1.551459e+01    1.988452e+00
  1.554634e+01    1.995503e+00
  1.557809e+01    1.869452e+00
  1.560985e+01    1.830745e+00
  1.564160e+01    1.787859e+00
  1.567335e+01    1.760999e+00
  1.570510e+01    1.738988e+00
  1.573685e+01    1.704093e+00
  1.576860e+01    1.655351e+00
  1.580035e+01    1.698309e+00
  1.583210e+01    1.682861e+00
  1.586385e+01    1.638951e+00
  1.589561e+01    1.649154e+00
  1.592736e+01    1.593761e+00
  1.595911e+01    1.601000e+00
  1.599086e+01    1.597743e+00
  1.602261e+01    1.604384e+00
  1.605436e+01    1.595739e+00
  1.608611e+01    1.574810e+00
  1.611786e+01    1.582026e+00
  1.614961e+01    1.550615e+00
  1.618137e+01    1.562890e+00
  1.621312e+01    1.548086e+00
  1.624487e+01    1.562261e+00
  1.627662e+01    1.569552e+00
  1.630837e+01    1.550825e+00
  1.634012e+01    1.540239e+00
  1.637187e+01    1.487045e+00
  1.640362e+01    1.512735e+00
  1.643538e+01    1.527328e+00
  1.646713e+01    1.510278e+00
  1.649888e+01    1.508734e+00
  1.653063e+01    1.483733e+00
  1.656238e+01    1.496763e+00
  1.659413e+01    1.492211e+00
  1.662588e+01    1.448894e+00
  1.665763e+01    1.469095e+00
  1.668938e+01    1.475464e+00
  1.672114e+01    1.476046e+00
  1.675289e+01    1.488734e+00
  1.678464e+01    1.442433e+00
  1.681639e+01    1.449226e+00
  1.684814e+01    1.449381e+00
  1.687989e+01    1.436886e+00
  1.691164e+01    1.420093e+00
  1.694339e+01    1.427296e+00
  1.697514e+01    1.424731e+00
  1.700690e+01    1.433647e+00
  1.703865e+01    1.433877e+00
  1.707040e+01    1.431646e+00
  1.710215e+01    1.405749e+00
  1.713390e+01    1.393697e+00
  1.716565e+01    1.414813e+00
  1.719740e+01    1.378923e+00
  1.722915e+01    1.362861e+00
  1.726091e+01    1.410376e+00
  1.729266e+01    1.353769e+00
  1.732441e+01    1.378341e+00
  1.735616e+01    1.336655e+00
  1.738791e+01    1.343288e+00
  1.741966e+01    1.331838e+00
  1.745141e+01    1.367422e+00
  1.748316e+01    1.345516e+00
  1.751491e+01    1.338125e+00
  1.754667e+01    1.342402e+00
  1.757842e+01    1.336085e+00
  1.761017e+01    1.371322e+00
  1.764192e+01    1.389849e+00
  1.767367e+01    1.316485e+00
  1.770542e+01    1.341198e+00
  1.773717e+01    1.363697e+00
  1.776892e+01    1.308744e+00
  1.780067e+01    1.305055e+00
  1.783243e+01    1.311942e+00
  1.786418e+01    1.314202e+00
  1.789593e+01    1.306733e+00
  1.792768e+01    1.326352e+00
  1.795943e+01    1.281640e+00
  1.799118e+01    1.290773e+00
  1.802293e+01    1.284950e+00
  1.805468e+01    1.289995e+00
  1.808643e+01    1.280117e+00
  1.811819e+01    1.265423e+00
  1.814994e+01    1.269273e+00
  1.818169e+01    1.277354e+00
  1.821344e+01    1.279780e+00
  1.824519e+01    1.269941e+00
  1.827694e+01    1.259785e+00
  1.830869e+01    1.278012e+00
  1.834044e+01    1.286144e+00
  1.837220e+01    1.268955e+00
  1.840395e+01    1.207769e+00
  1.843570e+01    1.254925e+00
  1.846745e+01    1.231399e+00
  1.849920e+01    1.219290e+00
  1.853095e+01    1.229150e+00
  1.856270e+01    1.240149e+00
  1.859445e+01    1.240373e+00
  1.862620e+01    1.234874e+00
  1.865796e+01    1.211101e+00
  1.868971e+01    1.209461e+00
  1.872146e+01    1.215214e+00
  1.875321e+01    1.214048e+00
  1.878496e+01    1.196585e+00
  1.881671e+01    1.187349e+00
  1.884846e+01    1.203502e+00
  1.888021e+01    1.194939e+00
  1.891196e+01    1.182221e+00
  1.894372e+01    1.195053e+00
  1.897547e+01    1.221041e+00
  1.900722e+01    1.160760e+00
  1.903897e+01    1.204143e+00
  1.907072e+01    1.200683e+00
  1.910247e+01    1.178324e+00
  1.913422e+01    1.209133e+00
  1.916597e+01    1.164023e+00
  1.919773e+01    1.195234e+00
  1.922948e+01    1.174657e+00
  1.926123e+01    1.190015e+00
  1.929298e+01    1.152620e+00
  1.932473e+01    1.189265e+00
  1.935648e+01    1.149481e+00
  1.938823e+01    1.176510e+00
  1.941998e+01    1.165842e+00
  1.945173e+01    1.160887e+00
  1.948349e+01    1.131407e+00
  1.951524e+01    1.168315e+00
  1.954699e+01    1.154156e+00
  1.957874e+01    1.145481e+00
  1.961049e+01    1.132747e+00
  1.964224e+01    1.133694e+00
  1.967399e+01    1.164979e+00
  1.970574e+01    1.142144e+00
  1.973749e+01    1.150533e+00
  1.976925e+01    1.118151e+00
  1.980100e+01    1.147649e+00
  1.983275e+01    1.103883e+00
  1.986450e+01    1.127807e+00
  1.989625e+01    1.104439e+00
  1.992800e+01    1.099578e+00
  1.995975e+01    1.128265e+00
  1.999150e+01    1.092262e+00
  2.002325e+01    1.126954e+00
  2.005501e+01    1.118539e+00
  2.008676e+01    1.106560e+00
  2.011851e+01    1.115851e+00
  2.015026e+01    1.081890e+00
  2.018201e+01    1.140480e+00
  2.021376e+01    1.081182e+00
  2.024551e+01    1.094801e+00
  2.027726e+01    1.070495e+00
  2.030902e+01    1.087850e+00
  2.034077e+01    1.075164e+00
  2.037252e+01    1.091188e+00
  2.040427e+01    1.078918e+00
  2.043602e+01    1.102589e+00
  2.046777e+01    1.054840e+00
  2.049952e+01    1.079746e+00
  2.053127e+01    1.060091e+00
  2.056302e+01    1.084996e+00
  2.059478e+01    1.089415e+00
  2.062653e+01    1.059132e+00
  2.065828e+01    1.089685e+00
  2.069003e+01    1.063630e+00
  2.072178e+01    1.086293e+00
  2.075353e+01    1.059762e+00
  2.078528e+01    1.064638e+00
  2.081703e+01    1.062986e+00
  2.084878e+01    1.082687e+00
  2.088054e+01    1.067299e+00
  2.091229e+01    1.074304e+00
  2.094404e+01    1.071921e+00
  2.097579e+01    1.068766e+00
  2.100754e+01    1.071612e+00
  2.103929e+01    1.078418e+00
  2.107104e+01    1.068712e+00
  2.110279e+01    1.061537e+00
  2.113455e+01    1.088413e+00
  2.116630e+01    1.096693e+00
  2.119805e+01    1.074095e+00
  2.122980e+01    1.099821e+00
  2.126155e+01    1.109575e+00
  2.129330e+01    1.116373e+00
  2.132505e+01    1.124335e+00
  2.135680e+01    1.154265e+00
  2.138855e+01    1.131962e+00
  2.142031e+01    1.160323e+00
  2.145206e+01    1.193475e+00
  2.148381e+01    1.234642e+00
  2.151556e+01    1.312481e+00
  2.154731e+01    1.381221e+00
  2.157906e+01    1.417101e+00
  2.161081e+01    1.588002e+00
  2.164256e+01    1.781105e+00
  2.167431e+01    2.056087e+00
  2.170607e+01    2.460108e+00
  2.173782e+01    3.088383e+00
  2.176957e+01    4.109906e+00
  2.180132e+01    5.344785e+00
  2.183307e+01    6.793501e+00
  2.186482e+01    8.356971e+00
  2.189657e+01    9.571968e+00
  2.192832e+01    9.739350e+00
  2.196007e+01    8.232951e+00
  2.199183e+01    6.139968e+00
  2.202358e+01    4.354169e+00
  2.205533e+01    3.275910e+00
  2.208708e+01    2.555789e+00
  2.211883e+01    2.116593e+00
  2.215058e+01    1.815214e+00
  2.218233e+01    1.583672e+00
  2.221408e+01    1.467737e+00
  2.224584e+01    1.344447e+00
  2.227759e+01    1.276178e+00
  2.230934e+01    1.206444e+00
  2.234109e+01    1.167643e+00
  2.237284e+01    1.136404e+00
  2.240459e+01    1.106639e+00
  2.243634e+01    1.071677e+00
  2.246809e+01    1.041216e+00
  2.249984e+01    1.036038e+00
  2.253160e+01    1.004336e+00
  2.256335e+01    9.805246e-01
  2.259510e+01    9.939654e-01
  2.262685e+01    9.792492e-01
  2.265860e+01    9.854776e-01
  2.269035e+01    9.327662e-01
  2.272210e+01    9.524184e-01
  2.275385e+01    9.310476e-01
  2.278560e+01    9.468699e-01
  2.281736e+01    9.289546e-01
  2.284911e+01    9.467865e-01
  2.288086e+01    9.140812e-01
  2.291261e+01    9.239728e-01
  2.294436e+01    9.133693e-01
  2.297611e+01    9.281431e-01
  2.300786e+01    9.178635e-01
  2.303961e+01    8.873029e-01
  2.307137e+01    8.697169e-01
  2.310312e+01    8.874269e-01
  2.313487e+01    8.750445e-01
  2.316662e+01    8.857604e-01
  2.319837e+01    8.677351e-01
  2.323012e+01    8.696942e-01
  2.326187e+01    8.664290e-01
  2.329362e+01    8.565572e-01
  2.332537e+01    8.401763e-01
  2.335713e+01    8.678752e-01
  2.338888e+01    8.637175e-01
  2.342063e+01    8.376074e-01
  2.345238e+01    8.560910e-01
  2.348413e+01    8.338278e-01
  2.351588e+01    8.567947e-01
  2.354763e+01    8.301215e-01
  2.357938e+01    8.190573e-01
  2.361113e+01    8.623853e-01
  2.364289e+01    8.456200e-01
  2.367464e+01    8.147238e-01
  2.370639e+01    8.068920e-01
  2.373814e+01    8.098425e-01
  2.376989e+01    8.166906e-01
  2.380164e+01    8.291557e-01
  2.383339e+01    8.118718e-01
  2.386514e+01    7.885540e-01
  2.389689e+01    8.234993e-01
  2.392865e+01    7.868119e-01
  2.396040e+01    8.072037e-01
  2.399215e+01    7.941286e-01
  2.402390e+01    7.904508e-01
  2.405565e+01    7.645216e-01
  2.408740e+01    7.829154e-01
  2.411915e+01    7.913283e-01
  2.415090e+01    7.953048e-01
  2.418266e+01    7.797421e-01
  2.421441e+01    7.816563e-01
  2.424616e+01    7.848641e-01
  2.427791e+01    7.725630e-01
  2.430966e+01    7.765650e-01
  2.434141e+01    7.829831e-01
  2.437316e+01    7.895814e-01
  2.440491e+01    7.698577e-01
  2.443666e+01    8.003638e-01
  2.446842e+01    7.797921e-01
  2.450017e+01    8.029391e-01
  2.453192e+01    7.850155e-01
  2.456367e+01    7.824156e-01
  2.459542e+01    7.779238e-01
  2.462717e+01    7.972117e-01
  2.465892e+01    7.659497e-01
  2.469067e+01    7.905479e-01
  2.472242e+01    7.965099e-01
  2.475418e+01    7.712895e-01
  2.478593e+01    7.922531e-01
  2.481768e+01    7.889207e-01
  2.484943e+01    7.738821e-01
  2.488118e+01    7.841719e-01
  2.491293e+01    7.766017e-01
  2.494468e+01    7.941680e-01
  2.497643e+01    8.167701e-01
  2.500819e+01    8.095159e-01
  2.503994e+01    8.027191e-01
  2.507169e+01    7.903572e-01
  2.510344e+01    8.151605e-01
  2.513519e+01    8.176951e-01
  2.516694e+01    8.397175e-01
  2.519869e+01    8.356273e-01
  2.523044e+01    8.396166e-01
  2.526219e+01    8.433283e-01
  2.529395e+01    8.567632e-01
  2.532570e+01    8.855654e-01
  2.535745e+01    8.595433e-01
  2.538920e+01    8.820882e-01
  2.542095e+01    9.150532e-01
  2.545270e+01    9.333107e-01
  2.548445e+01    9.458442e-01
  2.551620e+01    9.979146e-01
  2.554795e+01    1.012341e+00
  2.557971e+01    1.070526e+00
  2.561146e+01    1.112943e+00
  2.564321e+01    1.192833e+00
  2.567496e+01    1.281418e+00
  2.570671e+01    1.451514e+00
  2.573846e+01    1.670242e+00
  2.577021e+01    1.969675e+00
  2.580196e+01    2.441417e+00
  2.583371e+01    3.217387e+00
  2.586547e+01    4.179018e+00
  2.589722e+01    5.439697e+00
  2.592897e+01    6.818434e+00
  2.596072e+01    7.882062e+00
  2.599247e+01    8.059881e+00
  2.602422e+01    7.041481e+00
  2.605597e+01    5.382145e+00
  2.608772e+01    3.901046e+00
  2.611948e+01    2.886268e+00
  2.615123e+01    2.297265e+00
  2.618298e+01    1.905057e+00
  2.621473e+01    1.602134e+00
  2.624648e+01    1.407258e+00
  2.627823e+01    1.270937e+00
  2.630998e+01    1.189666e+00
  2.634173e+01    1.123213e+00
  2.637348e+01    1.052478e+00
  2.640524e+01    1.004650e+00
  2.643699e+01    9.974658e-01
  2.646874e+01    9.632697e-01
  2.650049e+01    9.612775e-01
  2.653224e+01    9.237162e-01
  2.656399e+01    9.272818e-01
  2.659574e+01    8.951012e-01
  2.662749e+01    8.882373e-01
  2.665924e+01    8.986622e-01
  2.669100e+01    8.972389e-01
  2.672275e+01    9.223785e-01
  2.675450e+01    8.975428e-01
  2.678625e+01    8.822736e-01
  2.681800e+01    9.166173e-01
  2.684975e+01    8.854347e-01
  2.688150e+01    8.933254e-01
  2.691325e+01    9.207154e-01
  2.694501e+01    9.753202e-01
  2.697676e+01    9.828704e-01
  2.700851e+01    1.006586e+00
  2.704026e+01    1.105662e+00
  2.707201e+01    1.177886e+00
  2.710376e+01    1.351060e+00
  2.713551e+01    1.558720e+00
  2.716726e+01    1.870859e+00
  2.719901e+01    2.152991e+00
  2.723077e+01    2.348206e+00
  2.726252e+01    2.307407e+00
  2.729427e+01    2.057435e+00
  2.732602e+01    1.682316e+00
  2.735777e+01    1.418680e+00
  2.738952e+01    1.223846e+00
  2.742127e+01    1.104607e+00
  2.745302e+01    1.031354e+00
  2.748477e+01    9.777605e-01
  2.751653e+01    9.014092e-01
  2.754828e+01    8.884066e-01
  2.758003e+01    8.755288e-01
  2.761178e+01    8.687550e-01
  2.764353e+01    8.198419e-01
  2.767528e+01    8.406307e-01
  2.770703e+01    8.355146e-01
  2.773878e+01    8.245562e-01
  2.777054e+01    8.361660e-01
  2.780229e+01    7.934959e-01
  2.783404e+01    8.091439e-01
  2.786579e+01    7.862380e-01
  2.789754e+01    7.949924e-01
  2.792929e+01    8.135015e-01
  2.796104e+01    7.863677e-01
  2.799279e+01    7.938650e-01
  2.802454e+01    7.849018e-01
  2.805630e+01    7.724378e-01
  2.808805e+01    7.741318e-01
  2.811980e+01    8.004954e-01
  2.815155e+01    7.747975e-01
  2.818330e+01    7.668875e-01
  2.821505e+01    7.812580e-01
  2.824680e+01    7.706383e-01
  2.827855e+01    7.670150e-01
  2.831030e+01    7.683154e-01
  2.834206e+01    7.751730e-01
  2.837381e+01    7.565888e-01
  2.840556e+01    7.649820e-01
  2.843731e+01    7.851077e-01
  2.846906e+01    7.649809e-01
  2.850081e+01    7.497694e-01
  2.853256e+01    7.435184e-01
  2.856431e+01    7.431953e-01
  2.859606e+01    7.436559e-01
  2.862782e+01    7.791741e-01
  2.865957e+01    7.517496e-01
  2.869132e+01    7.521130e-01
  2.872307e+01    7.477757e-01
  2.875482e+01    7.739562e-01
  2.878657e+01    7.326475e-01
  2.881832e+01    7.608353e-01
  2.885007e+01    7.327066e-01
  2.888183e+01    7.311751e-01
  2.891358e+01    7.369032e-01
  2.894533e+01    7.358031e-01
  2.897708e+01    7.199405e-01
  2.900883e+01    7.381974e-01
  2.904058e+01    7.468898e-01
  2.907233e+01    7.477964e-01
  2.910408e+01    7.290975e-01
  2.913583e+01    7.330780e-01
  2.916759e+01    7.539355e-01
  2.919934e+01    7.262294e-01
  2.923109e+01    7.393904e-01
  2.926284e+01    7.265744e-01
  2.929459e+01    7.323765e-01
  2.932634e+01    7.258634e-01
  2.935809e+01    7.413979e-01
  2.938984e+01    7.318938e-01
  2.942159e+01    7.350529e-01
  2.945335e+01    7.175005e-01
  2.948510e+01    7.165298e-01
  2.951685e+01    7.058047e-01
  2.954860e+01    7.071636e-01
  2.958035e+01    7.298145e-01
  2.961210e+01    7.034050e-01
  2.964385e+01    7.357067e-01
  2.967560e+01    7.381296e-01
  2.970736e+01    7.083080e-01
  2.973911e+01    7.338240e-01
  2.977086e+01    7.196250e-01
  2.980261e+01    7.187339e-01
  2.983436e+01    7.214555e-01
  2.986611e+01    7.220477e-01
  2.989786e+01    7.118135e-01
  2.992961e+01    7.104191e-01
  2.996136e+01    7.079102e-01
  2.999312e+01    7.340567e-01
  3.002487e+01    7.327884e-01
  3.005662e+01    7.231362e-01
  3.008837e+01    7.437537e-01
  3.012012e+01    7.231371e-01
  3.015187e+01    6.943615e-01
  3.018362e+01    7.132742e-01
  3.021537e+01    7.030854e-01
  3.024712e+01    7.224463e-01
  3.027888e+01    7.088474e-01
  3.031063e+01    7.365312e-01
  3.034238e+01    6.960980e-01
  3.037413e+01    7.064167e-01
  3.040588e+01    7.032700e-01
  3.043763e+01    7.097493e-01
  3.046938e+01    7.008886e-01
  3.050113e+01    7.058729e-01
  3.053288e+01    7.131350e-01
  3.056464e+01    7.142885e-01
  3.059639e+01    7.129480e-01
  3.062814e+01    7.164468e-01
  3.065989e+01    7.023260e-01
  3.069164e+01    6.996538e-01
  3.072339e+01    7.075636e-01
  3.075514e+01    7.200983e-01
  3.078689e+01    7.199591e-01
  3.081865e+01    7.041123e-01
  3.085040e+01    7.278064e-01
  3.088215e+01    7.132708e-01
  3.091390e+01    6.985804e-01
  3.094565e+01    7.291604e-01
  3.097740e+01    7.151629e-01
  3.100915e+01    7.166293e-01
  3.104090e+01    7.288031e-01
  3.107265e+01    7.216188e-01
  3.110441e+01    7.238448e-01
  3.113616e+01    7.140880e-01
  3.116791e+01    7.095850e-01
  3.119966e+01    7.431365e-01
  3.123141e+01    7.170389e-01
  3.126316e+01    7.219250e-01
  3.129491e+01    7.256893e-01
  3.132666e+01    7.218382e-01
  3.135841e+01    7.170117e-01
  3.139017e+01    7.350723e-01
  3.142192e+01    7.277446e-01
  3.145367e+01    7.555798e-01
  3.148542e+01    7.580894e-01
  3.151717e+01    7.648973e-01
  3.154892e+01    7.738776e-01
  3.158067e+01    7.997193e-01
  3.161242e+01    8.212264e-01
  3.164418e+01    8.315705e-01
  3.167593e+01    9.006462e-01
  3.170768e+01    9.358604e-01
  3.173943e+01    1.019889e+00
  3.177118e+01    1.138208e+00
  3.180293e+01    1.335258e+00
  3.183468e+01    1.562376e+00
  3.186643e+01    1.879934e+00
  3.189818e+01    2.195538e+00
  3.192994e+01    2.356449e+00
  3.196169e+01    2.250386e+00
  3.199344e+01    1.924176e+00
  3.202519e+01    1.619292e+00
  3.205694e+01    1.358693e+00
  3.208869e+01    1.127992e+00
  3.212044e+01    1.021413e+00
  3.215219e+01    9.188441e-01
  3.218394e+01    8.481194e-01
  3.221570e+01    8.309186e-01
  3.224745e+01    7.851410e-01
  3.227920e+01    7.798421e-01
  3.231095e+01    7.663862e-01
  3.234270e+01    7.620443e-01
  3.237445e+01    7.430831e-01
  3.240620e+01    7.299819e-01
  3.243795e+01    7.243034e-01
  3.246970e+01    7.036296e-01
  3.250146e+01    6.927667e-01
  3.253321e+01    7.189458e-01
  3.254908e+01    7.233160e-01