File: XRD/2024-07-27_002_Ru-CGO-ex_Activtation_ramp_000002_data_000136.dat
# == pyFAI calibration ==
# Distance Sample to Detector: 0.4 m
# PONI: 9.750e-02, 1.135e-01 m
# Rotations: -0.000175 0.000000 -0.000000 rad
#
# == Fit2d calibration ==
# Distance Sample-beamCenter: 400.000 mm
# Center: x=1514.000, y=1300.000 pix
# Tilt: 0.010 deg  TiltPlanRot: 0.010 deg
#
# Detector Detector	 Spline= None	 PixelSize= 7.500e-05, 7.500e-05 m
#    Detector has a mask: False
#    Detector has a dark current: False
#    detector has a flat field: False
#
# Wavelength: 6.888e-11 m
# Mask applied: user provided
# Dark current applied: False
# Flat field applied: False
# Polarization factor: 0.99
# Normalization factor: 1.0
# --> /home/myspot/data/2024_07_Rosario/Ru-CGO-ex/2024-07-27_002_Ru-CGO-ex_Activtation_ramp_000002_data_000136.dat
#       q_nm^-1             I
  2.003187e-02    2.195846e-01
  5.178302e-02    4.717196e-02
  8.353417e-02    1.574232e-01
  1.152853e-01    4.149989e-02
  1.470365e-01    3.446272e-03
  1.787876e-01    4.133462e-02
  2.105388e-01    5.368251e-02
  2.422899e-01    6.287101e-02
  2.740411e-01    1.852328e-03
  3.057922e-01    8.325549e-03
  3.375433e-01    5.541258e-02
  3.692945e-01    2.666610e-02
  4.010456e-01    2.169423e-02
  4.327968e-01    9.948229e-02
  4.645479e-01    3.182539e-02
  4.962991e-01    4.566992e-02
  5.280502e-01    4.408529e-02
  5.598014e-01    2.803087e-02
  5.915525e-01    3.241521e-02
  6.233037e-01    9.703713e-03
  6.550548e-01    2.992273e-02
  6.868060e-01    2.212165e-02
  7.185571e-01    1.659253e-02
  7.503083e-01    4.854459e-02
  7.820594e-01    1.103561e-01
  8.138106e-01    1.830620e-01
  8.455617e-01    3.446457e-01
  8.773129e-01    3.743793e-01
  9.090640e-01    5.508190e-01
  9.408152e-01    6.839224e-01
  9.725663e-01    9.359722e-01
  1.004317e+00    9.558936e-01
  1.036069e+00    1.127440e+00
  1.067820e+00    1.268159e+00
  1.099571e+00    1.314606e+00
  1.131322e+00    1.384179e+00
  1.163073e+00    1.492311e+00
  1.194824e+00    1.520969e+00
  1.226575e+00    2.129162e+00
  1.258327e+00    2.296342e+00
  1.290078e+00    2.318797e+00
  1.321829e+00    2.422216e+00
  1.353580e+00    2.391286e+00
  1.385331e+00    2.492606e+00
  1.417082e+00    2.763155e+00
  1.448834e+00    2.696868e+00
  1.480585e+00    2.798007e+00
  1.512336e+00    2.874946e+00
  1.544087e+00    2.788569e+00
  1.575838e+00    2.978356e+00
  1.607589e+00    2.826845e+00
  1.639340e+00    2.775024e+00
  1.671092e+00    2.773633e+00
  1.702843e+00    2.813042e+00
  1.734594e+00    2.880795e+00
  1.766345e+00    2.735829e+00
  1.798096e+00    2.824762e+00
  1.829847e+00    2.679324e+00
  1.861598e+00    2.844759e+00
  1.893350e+00    2.733610e+00
  1.925101e+00    2.830081e+00
  1.956852e+00    2.810701e+00
  1.988603e+00    2.645573e+00
  2.020354e+00    2.894193e+00
  2.052105e+00    2.642429e+00
  2.083856e+00    2.628442e+00
  2.115608e+00    2.707564e+00
  2.147359e+00    2.732353e+00
  2.179110e+00    2.605763e+00
  2.210861e+00    2.627060e+00
  2.242612e+00    2.782124e+00
  2.274363e+00    2.783036e+00
  2.306115e+00    2.738580e+00
  2.337866e+00    2.633191e+00
  2.369617e+00    2.762542e+00
  2.401368e+00    2.818066e+00
  2.433119e+00    2.866272e+00
  2.464870e+00    2.675733e+00
  2.496621e+00    2.640959e+00
  2.528373e+00    2.677458e+00
  2.560124e+00    2.764421e+00
  2.591875e+00    2.736371e+00
  2.623626e+00    2.762563e+00
  2.655377e+00    2.741692e+00
  2.687128e+00    2.716197e+00
  2.718879e+00    2.728045e+00
  2.750631e+00    2.668393e+00
  2.782382e+00    2.775471e+00
  2.814133e+00    2.795005e+00
  2.845884e+00    2.814101e+00
  2.877635e+00    2.851618e+00
  2.909386e+00    2.801187e+00
  2.941137e+00    2.827864e+00
  2.972889e+00    2.882832e+00
  3.004640e+00    2.813986e+00
  3.036391e+00    2.798094e+00
  3.068142e+00    2.888928e+00
  3.099893e+00    2.895352e+00
  3.131644e+00    2.876206e+00
  3.163395e+00    2.865422e+00
  3.195147e+00    2.908039e+00
  3.226898e+00    2.863674e+00
  3.258649e+00    2.835780e+00
  3.290400e+00    2.918860e+00
  3.322151e+00    2.876374e+00
  3.353902e+00    2.985313e+00
  3.385654e+00    2.878143e+00
  3.417405e+00    2.900856e+00
  3.449156e+00    2.834765e+00
  3.480907e+00    2.934219e+00
  3.512658e+00    2.879263e+00
  3.544409e+00    2.894948e+00
  3.576160e+00    2.921972e+00
  3.607912e+00    3.005278e+00
  3.639663e+00    2.988605e+00
  3.671414e+00    2.966769e+00
  3.703165e+00    2.981161e+00
  3.734916e+00    2.945036e+00
  3.766667e+00    2.960912e+00
  3.798418e+00    2.951526e+00
  3.830170e+00    3.007579e+00
  3.861921e+00    2.914989e+00
  3.893672e+00    3.071526e+00
  3.925423e+00    3.007195e+00
  3.957174e+00    3.002874e+00
  3.988925e+00    2.985401e+00
  4.020676e+00    2.953224e+00
  4.052428e+00    3.029903e+00
  4.084179e+00    3.012315e+00
  4.115930e+00    2.978888e+00
  4.147681e+00    3.009352e+00
  4.179432e+00    3.014773e+00
  4.211183e+00    3.069864e+00
  4.242935e+00    3.035195e+00
  4.274686e+00    3.002040e+00
  4.306437e+00    3.022927e+00
  4.338188e+00    2.992457e+00
  4.369939e+00    3.084871e+00
  4.401690e+00    3.005375e+00
  4.433441e+00    2.991577e+00
  4.465193e+00    2.953496e+00
  4.496944e+00    3.087243e+00
  4.528695e+00    2.998856e+00
  4.560446e+00    3.026054e+00
  4.592197e+00    3.044408e+00
  4.623948e+00    3.029557e+00
  4.655699e+00    3.030220e+00
  4.687451e+00    3.099101e+00
  4.719202e+00    3.112836e+00
  4.750953e+00    3.019747e+00
  4.782704e+00    3.030803e+00
  4.814455e+00    3.127818e+00
  4.846206e+00    3.031080e+00
  4.877957e+00    3.115051e+00
  4.909709e+00    3.063241e+00
  4.941460e+00    3.115196e+00
  4.973211e+00    3.035147e+00
  5.004962e+00    3.213003e+00
  5.036713e+00    3.113718e+00
  5.068464e+00    3.068883e+00
  5.100216e+00    3.123984e+00
  5.131967e+00    3.087913e+00
  5.163718e+00    3.114228e+00
  5.195469e+00    3.067859e+00
  5.227220e+00    3.072693e+00
  5.258971e+00    3.041342e+00
  5.290722e+00    3.238491e+00
  5.322474e+00    3.155137e+00
  5.354225e+00    3.158530e+00
  5.385976e+00    3.034133e+00
  5.417727e+00    3.122255e+00
  5.449478e+00    3.057003e+00
  5.481229e+00    3.085859e+00
  5.512980e+00    3.048853e+00
  5.544732e+00    3.110989e+00
  5.576483e+00    3.076784e+00
  5.608234e+00    3.078017e+00
  5.639985e+00    3.035439e+00
  5.671736e+00    3.068380e+00
  5.703487e+00    3.039295e+00
  5.735238e+00    3.016331e+00
  5.766990e+00    3.061449e+00
  5.798741e+00    3.125219e+00
  5.830492e+00    2.969614e+00
  5.862243e+00    3.039621e+00
  5.893994e+00    3.032682e+00
  5.925745e+00    3.114440e+00
  5.957497e+00    3.064363e+00
  5.989248e+00    2.973477e+00
  6.020999e+00    3.031747e+00
  6.052750e+00    2.931917e+00
  6.084501e+00    3.031503e+00
  6.116252e+00    2.966472e+00
  6.148003e+00    2.946956e+00
  6.179755e+00    3.068219e+00
  6.211506e+00    3.050589e+00
  6.243257e+00    3.108502e+00
  6.275008e+00    3.065728e+00
  6.306759e+00    3.072019e+00
  6.338510e+00    2.955498e+00
  6.370261e+00    3.112278e+00
  6.402013e+00    3.021229e+00
  6.433764e+00    2.990865e+00
  6.465515e+00    3.016900e+00
  6.497266e+00    2.996664e+00
  6.529017e+00    2.961646e+00
  6.560768e+00    2.991995e+00
  6.592519e+00    2.996075e+00
  6.624271e+00    2.999770e+00
  6.656022e+00    2.935816e+00
  6.687773e+00    2.925601e+00
  6.719524e+00    3.002893e+00
  6.751275e+00    3.099004e+00
  6.783026e+00    2.960693e+00
  6.814777e+00    3.056530e+00
  6.846529e+00    3.046655e+00
  6.878280e+00    3.087579e+00
  6.910031e+00    3.015309e+00
  6.941782e+00    3.064049e+00
  6.973533e+00    2.993907e+00
  7.005284e+00    3.013815e+00
  7.037036e+00    2.922123e+00
  7.068787e+00    2.980646e+00
  7.100538e+00    2.969164e+00
  7.132289e+00    2.969739e+00
  7.164040e+00    2.936593e+00
  7.195791e+00    2.950411e+00
  7.227542e+00    2.963598e+00
  7.259294e+00    2.973198e+00
  7.291045e+00    2.927165e+00
  7.322796e+00    2.961173e+00
  7.354547e+00    2.990333e+00
  7.386298e+00    2.926567e+00
  7.418049e+00    2.997300e+00
  7.449800e+00    2.969748e+00
  7.481552e+00    2.914784e+00
  7.513303e+00    2.966859e+00
  7.545054e+00    2.986107e+00
  7.576805e+00    2.944973e+00
  7.608556e+00    2.928694e+00
  7.640307e+00    2.993755e+00
  7.672058e+00    2.967572e+00
  7.703810e+00    2.953266e+00
  7.735561e+00    2.929852e+00
  7.767312e+00    2.927853e+00
  7.799063e+00    2.889037e+00
  7.830814e+00    2.932496e+00
  7.862565e+00    2.840344e+00
  7.894317e+00    2.939172e+00
  7.926068e+00    2.851185e+00
  7.957819e+00    2.919426e+00
  7.989570e+00    2.928025e+00
  8.021321e+00    2.917421e+00
  8.053072e+00    2.870885e+00
  8.084823e+00    2.927521e+00
  8.116575e+00    2.967202e+00
  8.148326e+00    2.971909e+00
  8.180077e+00    3.023941e+00
  8.211828e+00    2.961439e+00
  8.243579e+00    2.947081e+00
  8.275330e+00    2.922296e+00
  8.307081e+00    2.900780e+00
  8.338833e+00    2.917385e+00
  8.370584e+00    2.935676e+00
  8.402335e+00    2.827983e+00
  8.434086e+00    2.876769e+00
  8.465837e+00    2.823381e+00
  8.497588e+00    2.851664e+00
  8.529339e+00    2.851484e+00
  8.561091e+00    2.860576e+00
  8.592842e+00    2.873127e+00
  8.624593e+00    2.903774e+00
  8.656344e+00    2.883823e+00
  8.688095e+00    2.860480e+00
  8.719846e+00    2.853961e+00
  8.751598e+00    2.847908e+00
  8.783349e+00    2.798814e+00
  8.815100e+00    2.814683e+00
  8.846851e+00    2.790030e+00
  8.878602e+00    2.785610e+00
  8.910353e+00    2.834616e+00
  8.942104e+00    2.867986e+00
  8.973856e+00    2.819389e+00
  9.005607e+00    2.758472e+00
  9.037358e+00    2.769770e+00
  9.069109e+00    2.821108e+00
  9.100860e+00    2.802751e+00
  9.132611e+00    2.788802e+00
  9.164362e+00    2.820665e+00
  9.196114e+00    2.771801e+00
  9.227865e+00    2.808190e+00
  9.259616e+00    2.771520e+00
  9.291367e+00    2.745161e+00
  9.323118e+00    2.796829e+00
  9.354869e+00    2.655223e+00
  9.386620e+00    2.687512e+00
  9.418372e+00    2.788280e+00
  9.450123e+00    2.724984e+00
  9.481874e+00    2.776018e+00
  9.513625e+00    2.766915e+00
  9.545376e+00    2.731589e+00
  9.577127e+00    2.761287e+00
  9.608878e+00    2.671835e+00
  9.640630e+00    2.746364e+00
  9.672381e+00    2.776169e+00
  9.704132e+00    2.810330e+00
  9.735883e+00    2.664631e+00
  9.767634e+00    2.715272e+00
  9.799385e+00    2.742191e+00
  9.831137e+00    2.684167e+00
  9.862888e+00    2.693505e+00
  9.894639e+00    2.693717e+00
  9.926390e+00    2.620456e+00
  9.958141e+00    2.622946e+00
  9.989892e+00    2.675038e+00
  1.002164e+01    2.619744e+00
  1.005339e+01    2.623118e+00
  1.008515e+01    2.565674e+00
  1.011690e+01    2.631390e+00
  1.014865e+01    2.661262e+00
  1.018040e+01    2.607830e+00
  1.021215e+01    2.633986e+00
  1.024390e+01    2.599742e+00
  1.027565e+01    2.648553e+00
  1.030740e+01    2.629454e+00
  1.033915e+01    2.593213e+00
  1.037091e+01    2.590661e+00
  1.040266e+01    2.527277e+00
  1.043441e+01    2.551060e+00
  1.046616e+01    2.550148e+00
  1.049791e+01    2.601565e+00
  1.052966e+01    2.550544e+00
  1.056141e+01    2.542876e+00
  1.059316e+01    2.538757e+00
  1.062492e+01    2.552291e+00
  1.065667e+01    2.530812e+00
  1.068842e+01    2.542070e+00
  1.072017e+01    2.533751e+00
  1.075192e+01    2.541574e+00
  1.078367e+01    2.482378e+00
  1.081542e+01    2.471631e+00
  1.084717e+01    2.451270e+00
  1.087892e+01    2.453151e+00
  1.091068e+01    2.494118e+00
  1.094243e+01    2.441256e+00
  1.097418e+01    2.462720e+00
  1.100593e+01    2.484225e+00
  1.103768e+01    2.484949e+00
  1.106943e+01    2.472016e+00
  1.110118e+01    2.489731e+00
  1.113293e+01    2.427244e+00
  1.116468e+01    2.476052e+00
  1.119644e+01    2.462724e+00
  1.122819e+01    2.417066e+00
  1.125994e+01    2.444667e+00
  1.129169e+01    2.403283e+00
  1.132344e+01    2.407348e+00
  1.135519e+01    2.395630e+00
  1.138694e+01    2.379531e+00
  1.141869e+01    2.387072e+00
  1.145045e+01    2.424250e+00
  1.148220e+01    2.387319e+00
  1.151395e+01    2.384333e+00
  1.154570e+01    2.423109e+00
  1.157745e+01    2.439108e+00
  1.160920e+01    2.381458e+00
  1.164095e+01    2.340646e+00
  1.167270e+01    2.333725e+00
  1.170445e+01    2.354166e+00
  1.173621e+01    2.337275e+00
  1.176796e+01    2.317147e+00
  1.179971e+01    2.345686e+00
  1.183146e+01    2.314536e+00
  1.186321e+01    2.334914e+00
  1.189496e+01    2.305446e+00
  1.192671e+01    2.326067e+00
  1.195846e+01    2.272808e+00
  1.199021e+01    2.346039e+00
  1.202197e+01    2.281142e+00
  1.205372e+01    2.313098e+00
  1.208547e+01    2.316789e+00
  1.211722e+01    2.354439e+00
  1.214897e+01    2.282152e+00
  1.218072e+01    2.308445e+00
  1.221247e+01    2.310658e+00
  1.224422e+01    2.337470e+00
  1.227597e+01    2.320307e+00
  1.230773e+01    2.317199e+00
  1.233948e+01    2.296329e+00
  1.237123e+01    2.335082e+00
  1.240298e+01    2.289209e+00
  1.243473e+01    2.302422e+00
  1.246648e+01    2.336270e+00
  1.249823e+01    2.320746e+00
  1.252998e+01    2.367674e+00
  1.256174e+01    2.337831e+00
  1.259349e+01    2.388783e+00
  1.262524e+01    2.376089e+00
  1.265699e+01    2.378850e+00
  1.268874e+01    2.460200e+00
  1.272049e+01    2.436415e+00
  1.275224e+01    2.507484e+00
  1.278399e+01    2.615333e+00
  1.281574e+01    2.685214e+00
  1.284750e+01    2.833071e+00
  1.287925e+01    3.020660e+00
  1.291100e+01    3.328292e+00
  1.294275e+01    3.714566e+00
  1.297450e+01    4.388017e+00
  1.300625e+01    5.412116e+00
  1.303800e+01    7.130914e+00
  1.306975e+01    9.581317e+00
  1.310150e+01    1.205687e+01
  1.313326e+01    1.460876e+01
  1.316501e+01    1.666200e+01
  1.319676e+01    1.667609e+01
  1.322851e+01    1.355724e+01
  1.326026e+01    9.870647e+00
  1.329201e+01    7.101588e+00
  1.332376e+01    5.367878e+00
  1.335551e+01    4.340842e+00
  1.338727e+01    3.718837e+00
  1.341902e+01    3.191238e+00
  1.345077e+01    2.960017e+00
  1.348252e+01    2.821473e+00
  1.351427e+01    2.581213e+00
  1.354602e+01    2.483225e+00
  1.357777e+01    2.429661e+00
  1.360952e+01    2.374502e+00
  1.364127e+01    2.301081e+00
  1.367303e+01    2.277994e+00
  1.370478e+01    2.269555e+00
  1.373653e+01    2.188421e+00
  1.376828e+01    2.171749e+00
  1.380003e+01    2.147548e+00
  1.383178e+01    2.117301e+00
  1.386353e+01    2.103419e+00
  1.389528e+01    2.076076e+00
  1.392703e+01    2.048451e+00
  1.395879e+01    2.008102e+00
  1.399054e+01    2.012743e+00
  1.402229e+01    2.067042e+00
  1.405404e+01    2.011822e+00
  1.408579e+01    2.023371e+00
  1.411754e+01    2.000252e+00
  1.414929e+01    1.980009e+00
  1.418104e+01    1.986639e+00
  1.421279e+01    1.982075e+00
  1.424455e+01    1.910698e+00
  1.427630e+01    1.974937e+00
  1.430805e+01    1.971735e+00
  1.433980e+01    1.922633e+00
  1.437155e+01    1.961964e+00
  1.440330e+01    1.960667e+00
  1.443505e+01    1.931752e+00
  1.446680e+01    1.908682e+00
  1.449856e+01    1.943565e+00
  1.453031e+01    1.915452e+00
  1.456206e+01    1.913238e+00
  1.459381e+01    1.906637e+00
  1.462556e+01    1.896268e+00
  1.465731e+01    1.906946e+00
  1.468906e+01    1.921722e+00
  1.472081e+01    1.915184e+00
  1.475256e+01    1.875367e+00
  1.478432e+01    1.904747e+00
  1.481607e+01    1.961653e+00
  1.484782e+01    1.913968e+00
  1.487957e+01    1.961264e+00
  1.491132e+01    1.956211e+00
  1.494307e+01    2.002889e+00
  1.497482e+01    2.035465e+00
  1.500657e+01    2.122057e+00
  1.503832e+01    2.281756e+00
  1.507008e+01    2.516715e+00
  1.510183e+01    2.890746e+00
  1.513358e+01    3.403250e+00
  1.516533e+01    4.182456e+00
  1.519708e+01    4.905665e+00
  1.522883e+01    5.485355e+00
  1.526058e+01    5.776300e+00
  1.529233e+01    5.706093e+00
  1.532409e+01    4.856510e+00
  1.535584e+01    3.850776e+00
  1.538759e+01    3.014184e+00
  1.541934e+01    2.564599e+00
  1.545109e+01    2.311589e+00
  1.548284e+01    2.108434e+00
  1.551459e+01    1.985893e+00
  1.554634e+01    1.907665e+00
  1.557809e+01    1.857708e+00
  1.560985e+01    1.798431e+00
  1.564160e+01    1.817702e+00
  1.567335e+01    1.764089e+00
  1.570510e+01    1.778975e+00
  1.573685e+01    1.668357e+00
  1.576860e+01    1.719436e+00
  1.580035e+01    1.673526e+00
  1.583210e+01    1.674232e+00
  1.586385e+01    1.642096e+00
  1.589561e+01    1.622173e+00
  1.592736e+01    1.641676e+00
  1.595911e+01    1.610327e+00
  1.599086e+01    1.647809e+00
  1.602261e+01    1.584819e+00
  1.605436e+01    1.612702e+00
  1.608611e+01    1.571812e+00
  1.611786e+01    1.580109e+00
  1.614961e+01    1.568885e+00
  1.618137e+01    1.554203e+00
  1.621312e+01    1.547118e+00
  1.624487e+01    1.573344e+00
  1.627662e+01    1.577061e+00
  1.630837e+01    1.552040e+00
  1.634012e+01    1.551214e+00
  1.637187e+01    1.542817e+00
  1.640362e+01    1.517801e+00
  1.643538e+01    1.528930e+00
  1.646713e+01    1.545284e+00
  1.649888e+01    1.488963e+00
  1.653063e+01    1.468819e+00
  1.656238e+01    1.492677e+00
  1.659413e+01    1.489240e+00
  1.662588e+01    1.470461e+00
  1.665763e+01    1.479141e+00
  1.668938e+01    1.520723e+00
  1.672114e+01    1.432359e+00
  1.675289e+01    1.441677e+00
  1.678464e+01    1.479161e+00
  1.681639e+01    1.449187e+00
  1.684814e+01    1.420324e+00
  1.687989e+01    1.431455e+00
  1.691164e+01    1.453498e+00
  1.694339e+01    1.426129e+00
  1.697514e+01    1.416166e+00
  1.700690e+01    1.448376e+00
  1.703865e+01    1.435207e+00
  1.707040e+01    1.428734e+00
  1.710215e+01    1.404961e+00
  1.713390e+01    1.407115e+00
  1.716565e+01    1.411358e+00
  1.719740e+01    1.364313e+00
  1.722915e+01    1.393406e+00
  1.726091e+01    1.389735e+00
  1.729266e+01    1.404281e+00
  1.732441e+01    1.381070e+00
  1.735616e+01    1.378322e+00
  1.738791e+01    1.400479e+00
  1.741966e+01    1.359943e+00
  1.745141e+01    1.382240e+00
  1.748316e+01    1.367892e+00
  1.751491e+01    1.336768e+00
  1.754667e+01    1.337869e+00
  1.757842e+01    1.371600e+00
  1.761017e+01    1.324363e+00
  1.764192e+01    1.330108e+00
  1.767367e+01    1.318727e+00
  1.770542e+01    1.346578e+00
  1.773717e+01    1.302402e+00
  1.776892e+01    1.333504e+00
  1.780067e+01    1.349780e+00
  1.783243e+01    1.315672e+00
  1.786418e+01    1.330651e+00
  1.789593e+01    1.302361e+00
  1.792768e+01    1.323786e+00
  1.795943e+01    1.308497e+00
  1.799118e+01    1.285702e+00
  1.802293e+01    1.290936e+00
  1.805468e+01    1.292719e+00
  1.808643e+01    1.292505e+00
  1.811819e+01    1.280418e+00
  1.814994e+01    1.272997e+00
  1.818169e+01    1.301838e+00
  1.821344e+01    1.295230e+00
  1.824519e+01    1.267163e+00
  1.827694e+01    1.293373e+00
  1.830869e+01    1.291547e+00
  1.834044e+01    1.260673e+00
  1.837220e+01    1.257246e+00
  1.840395e+01    1.232446e+00
  1.843570e+01    1.234306e+00
  1.846745e+01    1.247326e+00
  1.849920e+01    1.245598e+00
  1.853095e+01    1.228069e+00
  1.856270e+01    1.275436e+00
  1.859445e+01    1.230711e+00
  1.862620e+01    1.249665e+00
  1.865796e+01    1.188315e+00
  1.868971e+01    1.216718e+00
  1.872146e+01    1.228716e+00
  1.875321e+01    1.206734e+00
  1.878496e+01    1.254898e+00
  1.881671e+01    1.219767e+00
  1.884846e+01    1.198772e+00
  1.888021e+01    1.200419e+00
  1.891196e+01    1.191460e+00
  1.894372e+01    1.174738e+00
  1.897547e+01    1.198915e+00
  1.900722e+01    1.157145e+00
  1.903897e+01    1.188068e+00
  1.907072e+01    1.195830e+00
  1.910247e+01    1.184929e+00
  1.913422e+01    1.189540e+00
  1.916597e+01    1.162294e+00
  1.919773e+01    1.174856e+00
  1.922948e+01    1.150314e+00
  1.926123e+01    1.182982e+00
  1.929298e+01    1.166854e+00
  1.932473e+01    1.167928e+00
  1.935648e+01    1.171898e+00
  1.938823e+01    1.165898e+00
  1.941998e+01    1.166209e+00
  1.945173e+01    1.169314e+00
  1.948349e+01    1.149019e+00
  1.951524e+01    1.166936e+00
  1.954699e+01    1.145074e+00
  1.957874e+01    1.155005e+00
  1.961049e+01    1.136164e+00
  1.964224e+01    1.139441e+00
  1.967399e+01    1.116913e+00
  1.970574e+01    1.158188e+00
  1.973749e+01    1.145716e+00
  1.976925e+01    1.133681e+00
  1.980100e+01    1.102838e+00
  1.983275e+01    1.112383e+00
  1.986450e+01    1.151697e+00
  1.989625e+01    1.136024e+00
  1.992800e+01    1.113510e+00
  1.995975e+01    1.096760e+00
  1.999150e+01    1.103205e+00
  2.002325e+01    1.117317e+00
  2.005501e+01    1.118880e+00
  2.008676e+01    1.089866e+00
  2.011851e+01    1.107559e+00
  2.015026e+01    1.103233e+00
  2.018201e+01    1.087492e+00
  2.021376e+01    1.085040e+00
  2.024551e+01    1.093487e+00
  2.027726e+01    1.091119e+00
  2.030902e+01    1.106403e+00
  2.034077e+01    1.105417e+00
  2.037252e+01    1.114471e+00
  2.040427e+01    1.099017e+00
  2.043602e+01    1.079162e+00
  2.046777e+01    1.091152e+00
  2.049952e+01    1.082157e+00
  2.053127e+01    1.058107e+00
  2.056302e+01    1.073765e+00
  2.059478e+01    1.073313e+00
  2.062653e+01    1.073721e+00
  2.065828e+01    1.044757e+00
  2.069003e+01    1.072977e+00
  2.072178e+01    1.095665e+00
  2.075353e+01    1.096641e+00
  2.078528e+01    1.071489e+00
  2.081703e+01    1.080844e+00
  2.084878e+01    1.079983e+00
  2.088054e+01    1.075611e+00
  2.091229e+01    1.049501e+00
  2.094404e+01    1.045719e+00
  2.097579e+01    1.081258e+00
  2.100754e+01    1.083803e+00
  2.103929e+01    1.097871e+00
  2.107104e+01    1.077593e+00
  2.110279e+01    1.092865e+00
  2.113455e+01    1.073354e+00
  2.116630e+01    1.092507e+00
  2.119805e+01    1.087384e+00
  2.122980e+01    1.092744e+00
  2.126155e+01    1.086023e+00
  2.129330e+01    1.133177e+00
  2.132505e+01    1.124493e+00
  2.135680e+01    1.151933e+00
  2.138855e+01    1.135596e+00
  2.142031e+01    1.160936e+00
  2.145206e+01    1.220704e+00
  2.148381e+01    1.281327e+00
  2.151556e+01    1.300555e+00
  2.154731e+01    1.391837e+00
  2.157906e+01    1.449501e+00
  2.161081e+01    1.617830e+00
  2.164256e+01    1.798263e+00
  2.167431e+01    2.109099e+00
  2.170607e+01    2.569693e+00
  2.173782e+01    3.243071e+00
  2.176957e+01    4.196141e+00
  2.180132e+01    5.507281e+00
  2.183307e+01    6.943444e+00
  2.186482e+01    8.331041e+00
  2.189657e+01    9.334523e+00
  2.192832e+01    8.933491e+00
  2.196007e+01    7.202501e+00
  2.199183e+01    5.239827e+00
  2.202358e+01    3.793965e+00
  2.205533e+01    2.904681e+00
  2.208708e+01    2.310212e+00
  2.211883e+01    1.940804e+00
  2.215058e+01    1.704904e+00
  2.218233e+01    1.517861e+00
  2.221408e+01    1.379123e+00
  2.224584e+01    1.282140e+00
  2.227759e+01    1.225132e+00
  2.230934e+01    1.197217e+00
  2.234109e+01    1.152170e+00
  2.237284e+01    1.117222e+00
  2.240459e+01    1.087145e+00
  2.243634e+01    1.058923e+00
  2.246809e+01    1.031885e+00
  2.249984e+01    1.017255e+00
  2.253160e+01    1.022776e+00
  2.256335e+01    9.875743e-01
  2.259510e+01    9.630967e-01
  2.262685e+01    9.545836e-01
  2.265860e+01    9.782045e-01
  2.269035e+01    9.608880e-01
  2.272210e+01    9.225981e-01
  2.275385e+01    9.343898e-01
  2.278560e+01    9.371040e-01
  2.281736e+01    9.167543e-01
  2.284911e+01    9.248633e-01
  2.288086e+01    9.313964e-01
  2.291261e+01    9.139261e-01
  2.294436e+01    8.985682e-01
  2.297611e+01    8.940371e-01
  2.300786e+01    9.084248e-01
  2.303961e+01    8.733251e-01
  2.307137e+01    8.961087e-01
  2.310312e+01    8.727385e-01
  2.313487e+01    8.642891e-01
  2.316662e+01    8.535358e-01
  2.319837e+01    8.624769e-01
  2.323012e+01    8.700826e-01
  2.326187e+01    8.624325e-01
  2.329362e+01    8.561807e-01
  2.332537e+01    8.415588e-01
  2.335713e+01    8.370601e-01
  2.338888e+01    8.642585e-01
  2.342063e+01    8.559759e-01
  2.345238e+01    8.408423e-01
  2.348413e+01    8.386045e-01
  2.351588e+01    8.332946e-01
  2.354763e+01    8.462303e-01
  2.357938e+01    8.319312e-01
  2.361113e+01    8.628573e-01
  2.364289e+01    8.347551e-01
  2.367464e+01    8.305819e-01
  2.370639e+01    8.122160e-01
  2.373814e+01    8.239274e-01
  2.376989e+01    8.232825e-01
  2.380164e+01    8.091915e-01
  2.383339e+01    8.049515e-01
  2.386514e+01    8.035693e-01
  2.389689e+01    8.052700e-01
  2.392865e+01    8.007070e-01
  2.396040e+01    8.086289e-01
  2.399215e+01    7.946350e-01
  2.402390e+01    7.719536e-01
  2.405565e+01    8.027956e-01
  2.408740e+01    7.929007e-01
  2.411915e+01    7.889386e-01
  2.415090e+01    7.691868e-01
  2.418266e+01    7.745925e-01
  2.421441e+01    7.674309e-01
  2.424616e+01    7.623539e-01
  2.427791e+01    7.782775e-01
  2.430966e+01    7.759630e-01
  2.434141e+01    7.923865e-01
  2.437316e+01    7.859032e-01
  2.440491e+01    7.782633e-01
  2.443666e+01    8.048900e-01
  2.446842e+01    7.812001e-01
  2.450017e+01    7.797135e-01
  2.453192e+01    7.852478e-01
  2.456367e+01    8.017845e-01
  2.459542e+01    7.885544e-01
  2.462717e+01    7.758353e-01
  2.465892e+01    7.829747e-01
  2.469067e+01    7.983558e-01
  2.472242e+01    7.883090e-01
  2.475418e+01    7.912480e-01
  2.478593e+01    8.068131e-01
  2.481768e+01    7.669948e-01
  2.484943e+01    7.779556e-01
  2.488118e+01    8.065766e-01
  2.491293e+01    7.921462e-01
  2.494468e+01    7.880673e-01
  2.497643e+01    8.113034e-01
  2.500819e+01    8.084026e-01
  2.503994e+01    8.166265e-01
  2.507169e+01    8.028355e-01
  2.510344e+01    8.343487e-01
  2.513519e+01    8.076057e-01
  2.516694e+01    8.150587e-01
  2.519869e+01    8.382587e-01
  2.523044e+01    8.318871e-01
  2.526219e+01    8.424494e-01
  2.529395e+01    8.498253e-01
  2.532570e+01    8.616459e-01
  2.535745e+01    8.617787e-01
  2.538920e+01    9.116557e-01
  2.542095e+01    9.018928e-01
  2.545270e+01    9.312237e-01
  2.548445e+01    9.641098e-01
  2.551620e+01    9.856194e-01
  2.554795e+01    1.019116e+00
  2.557971e+01    1.064403e+00
  2.561146e+01    1.143157e+00
  2.564321e+01    1.236254e+00
  2.567496e+01    1.333666e+00
  2.570671e+01    1.497508e+00
  2.573846e+01    1.714307e+00
  2.577021e+01    2.087427e+00
  2.580196e+01    2.622779e+00
  2.583371e+01    3.357175e+00
  2.586547e+01    4.426893e+00
  2.589722e+01    5.681191e+00
  2.592897e+01    6.856186e+00
  2.596072e+01    7.624882e+00
  2.599247e+01    7.345919e+00
  2.602422e+01    6.029510e+00
  2.605597e+01    4.530649e+00
  2.608772e+01    3.352591e+00
  2.611948e+01    2.559176e+00
  2.615123e+01    2.030927e+00
  2.618298e+01    1.714975e+00
  2.621473e+01    1.471571e+00
  2.624648e+01    1.321252e+00
  2.627823e+01    1.207201e+00
  2.630998e+01    1.117277e+00
  2.634173e+01    1.074180e+00
  2.637348e+01    1.031245e+00
  2.640524e+01    1.002280e+00
  2.643699e+01    9.785796e-01
  2.646874e+01    9.358571e-01
  2.650049e+01    9.368464e-01
  2.653224e+01    9.234850e-01
  2.656399e+01    9.064545e-01
  2.659574e+01    9.248055e-01
  2.662749e+01    8.788990e-01
  2.665924e+01    8.877112e-01
  2.669100e+01    8.903065e-01
  2.672275e+01    8.862929e-01
  2.675450e+01    8.940349e-01
  2.678625e+01    9.014284e-01
  2.681800e+01    9.030364e-01
  2.684975e+01    8.999750e-01
  2.688150e+01    9.055523e-01
  2.691325e+01    9.135698e-01
  2.694501e+01    9.622751e-01
  2.697676e+01    9.664911e-01
  2.700851e+01    1.021706e+00
  2.704026e+01    1.098680e+00
  2.707201e+01    1.200104e+00
  2.710376e+01    1.367343e+00
  2.713551e+01    1.649704e+00
  2.716726e+01    1.917902e+00
  2.719901e+01    2.123816e+00
  2.723077e+01    2.257552e+00
  2.726252e+01    2.109845e+00
  2.729427e+01    1.784570e+00
  2.732602e+01    1.506312e+00
  2.735777e+01    1.291966e+00
  2.738952e+01    1.136193e+00
  2.742127e+01    1.040272e+00
  2.745302e+01    9.882627e-01
  2.748477e+01    9.222239e-01
  2.751653e+01    8.844621e-01
  2.754828e+01    8.726330e-01
  2.758003e+01    8.416226e-01
  2.761178e+01    8.453804e-01
  2.764353e+01    8.220503e-01
  2.767528e+01    8.124705e-01
  2.770703e+01    8.449360e-01
  2.773878e+01    8.143459e-01
  2.777054e+01    7.982939e-01
  2.780229e+01    7.972221e-01
  2.783404e+01    7.972611e-01
  2.786579e+01    7.975044e-01
  2.789754e+01    8.095108e-01
  2.792929e+01    7.738245e-01
  2.796104e+01    8.115547e-01
  2.799279e+01    7.898802e-01
  2.802454e+01    7.685733e-01
  2.805630e+01    7.761263e-01
  2.808805e+01    7.637207e-01
  2.811980e+01    7.790176e-01
  2.815155e+01    7.579114e-01
  2.818330e+01    7.807668e-01
  2.821505e+01    7.629036e-01
  2.824680e+01    7.825155e-01
  2.827855e+01    7.516971e-01
  2.831030e+01    7.835680e-01
  2.834206e+01    7.563285e-01
  2.837381e+01    7.837319e-01
  2.840556e+01    7.635257e-01
  2.843731e+01    7.569268e-01
  2.846906e+01    7.478427e-01
  2.850081e+01    7.458377e-01
  2.853256e+01    7.469224e-01
  2.856431e+01    7.458826e-01
  2.859606e+01    7.400706e-01
  2.862782e+01    7.336463e-01
  2.865957e+01    7.486772e-01
  2.869132e+01    7.383134e-01
  2.872307e+01    7.522799e-01
  2.875482e+01    7.410397e-01
  2.878657e+01    7.660722e-01
  2.881832e+01    7.765850e-01
  2.885007e+01    7.667424e-01
  2.888183e+01    7.329971e-01
  2.891358e+01    7.494604e-01
  2.894533e+01    7.264093e-01
  2.897708e+01    7.376521e-01
  2.900883e+01    7.357421e-01
  2.904058e+01    7.294023e-01
  2.907233e+01    7.365464e-01
  2.910408e+01    7.428054e-01
  2.913583e+01    7.307457e-01
  2.916759e+01    7.303021e-01
  2.919934e+01    7.379715e-01
  2.923109e+01    7.153485e-01
  2.926284e+01    7.026312e-01
  2.929459e+01    7.241346e-01
  2.932634e+01    7.294258e-01
  2.935809e+01    7.182999e-01
  2.938984e+01    7.346433e-01
  2.942159e+01    7.197241e-01
  2.945335e+01    7.057314e-01
  2.948510e+01    7.231131e-01
  2.951685e+01    7.088143e-01
  2.954860e+01    7.143225e-01
  2.958035e+01    7.002543e-01
  2.961210e+01    7.213601e-01
  2.964385e+01    7.384931e-01
  2.967560e+01    6.906458e-01
  2.970736e+01    7.089237e-01
  2.973911e+01    7.271065e-01
  2.977086e+01    6.974111e-01
  2.980261e+01    7.293401e-01
  2.983436e+01    7.024671e-01
  2.986611e+01    7.207183e-01
  2.989786e+01    7.120243e-01
  2.992961e+01    7.014194e-01
  2.996136e+01    7.208387e-01
  2.999312e+01    7.229930e-01
  3.002487e+01    7.395455e-01
  3.005662e+01    7.384082e-01
  3.008837e+01    7.322322e-01
  3.012012e+01    7.216830e-01
  3.015187e+01    7.148750e-01
  3.018362e+01    6.935710e-01
  3.021537e+01    6.953090e-01
  3.024712e+01    7.065453e-01
  3.027888e+01    6.902521e-01
  3.031063e+01    6.940834e-01
  3.034238e+01    7.003902e-01
  3.037413e+01    7.105944e-01
  3.040588e+01    7.347190e-01
  3.043763e+01    7.026474e-01
  3.046938e+01    7.281430e-01
  3.050113e+01    7.155941e-01
  3.053288e+01    6.822619e-01
  3.056464e+01    7.136116e-01
  3.059639e+01    6.939124e-01
  3.062814e+01    7.068058e-01
  3.065989e+01    7.176869e-01
  3.069164e+01    7.231011e-01
  3.072339e+01    7.074324e-01
  3.075514e+01    7.089306e-01
  3.078689e+01    7.239338e-01
  3.081865e+01    7.294640e-01
  3.085040e+01    6.954061e-01
  3.088215e+01    7.265148e-01
  3.091390e+01    7.119983e-01
  3.094565e+01    7.185429e-01
  3.097740e+01    7.191958e-01
  3.100915e+01    7.316456e-01
  3.104090e+01    7.182753e-01
  3.107265e+01    6.996293e-01
  3.110441e+01    7.200703e-01
  3.113616e+01    7.342562e-01
  3.116791e+01    7.349418e-01
  3.119966e+01    7.154230e-01
  3.123141e+01    7.161055e-01
  3.126316e+01    7.159907e-01
  3.129491e+01    7.215938e-01
  3.132666e+01    7.404020e-01
  3.135841e+01    7.152550e-01
  3.139017e+01    7.364668e-01
  3.142192e+01    7.554126e-01
  3.145367e+01    7.424069e-01
  3.148542e+01    7.591425e-01
  3.151717e+01    7.647806e-01
  3.154892e+01    7.627329e-01
  3.158067e+01    7.985258e-01
  3.161242e+01    8.156179e-01
  3.164418e+01    8.404424e-01
  3.167593e+01    8.719414e-01
  3.170768e+01    9.623085e-01
  3.173943e+01    1.053021e+00
  3.177118e+01    1.187905e+00
  3.180293e+01    1.356310e+00
  3.183468e+01    1.640856e+00
  3.186643e+01    1.953508e+00
  3.189818e+01    2.196285e+00
  3.192994e+01    2.182115e+00
  3.196169e+01    2.020611e+00
  3.199344e+01    1.695481e+00
  3.202519e+01    1.401307e+00
  3.205694e+01    1.181796e+00
  3.208869e+01    1.020346e+00
  3.212044e+01    9.358976e-01
  3.215219e+01    8.659508e-01
  3.218394e+01    8.313703e-01
  3.221570e+01    8.236822e-01
  3.224745e+01    7.845349e-01
  3.227920e+01    7.585000e-01
  3.231095e+01    7.806875e-01
  3.234270e+01    7.668715e-01
  3.237445e+01    7.156357e-01
  3.240620e+01    7.414734e-01
  3.243795e+01    7.149103e-01
  3.246970e+01    7.276503e-01
  3.250146e+01    7.027943e-01
  3.253321e+01    7.142502e-01
  3.254908e+01    7.223493e-01