File: XRD/2024-07-27_002_Ru-CGO-ex_Activtation_ramp_000002_data_000029.dat
# == pyFAI calibration ==
# Distance Sample to Detector: 0.4 m
# PONI: 9.750e-02, 1.135e-01 m
# Rotations: -0.000175 0.000000 -0.000000 rad
#
# == Fit2d calibration ==
# Distance Sample-beamCenter: 400.000 mm
# Center: x=1514.000, y=1300.000 pix
# Tilt: 0.010 deg  TiltPlanRot: 0.010 deg
#
# Detector Detector	 Spline= None	 PixelSize= 7.500e-05, 7.500e-05 m
#    Detector has a mask: False
#    Detector has a dark current: False
#    detector has a flat field: False
#
# Wavelength: 6.888e-11 m
# Mask applied: user provided
# Dark current applied: False
# Flat field applied: False
# Polarization factor: 0.99
# Normalization factor: 1.0
# --> /home/myspot/data/2024_07_Rosario/Ru-CGO-ex/2024-07-27_002_Ru-CGO-ex_Activtation_ramp_000002_data_000029.dat
#       q_nm^-1             I
  2.003187e-02    0.000000e+00
  5.178302e-02    5.342412e-02
  8.353417e-02    5.184949e-03
  1.152853e-01    4.133350e-02
  1.470365e-01    4.005346e-02
  1.787876e-01    1.363830e-02
  2.105388e-01    1.557169e-02
  2.422899e-01    1.553494e-02
  2.740411e-01    5.008176e-02
  3.057922e-01    1.301254e-02
  3.375433e-01    4.601736e-02
  3.692945e-01    4.723510e-02
  4.010456e-01    4.601572e-02
  4.327968e-01    1.396324e-02
  4.645479e-01    2.425284e-02
  4.962991e-01    6.214881e-02
  5.280502e-01    2.526958e-02
  5.598014e-01    5.480928e-02
  5.915525e-01    2.446014e-02
  6.233037e-01    2.603805e-02
  6.550548e-01    3.855443e-02
  6.868060e-01    2.126398e-02
  7.185571e-01    3.531175e-02
  7.503083e-01    3.905381e-02
  7.820594e-01    6.874426e-02
  8.138106e-01    1.510097e-01
  8.455617e-01    3.290072e-01
  8.773129e-01    4.233407e-01
  9.090640e-01    5.789273e-01
  9.408152e-01    7.386754e-01
  9.725663e-01    8.895600e-01
  1.004317e+00    9.935875e-01
  1.036069e+00    1.249168e+00
  1.067820e+00    1.375572e+00
  1.099571e+00    1.375923e+00
  1.131322e+00    1.420641e+00
  1.163073e+00    1.449968e+00
  1.194824e+00    1.503036e+00
  1.226575e+00    2.082805e+00
  1.258327e+00    2.402966e+00
  1.290078e+00    2.604300e+00
  1.321829e+00    2.631573e+00
  1.353580e+00    2.775308e+00
  1.385331e+00    2.722341e+00
  1.417082e+00    2.639441e+00
  1.448834e+00    2.623277e+00
  1.480585e+00    2.902906e+00
  1.512336e+00    2.941991e+00
  1.544087e+00    3.093434e+00
  1.575838e+00    2.988635e+00
  1.607589e+00    2.805509e+00
  1.639340e+00    2.955505e+00
  1.671092e+00    2.959492e+00
  1.702843e+00    3.069349e+00
  1.734594e+00    2.879336e+00
  1.766345e+00    2.775259e+00
  1.798096e+00    2.797899e+00
  1.829847e+00    2.956460e+00
  1.861598e+00    2.929564e+00
  1.893350e+00    2.774206e+00
  1.925101e+00    2.741506e+00
  1.956852e+00    2.747169e+00
  1.988603e+00    2.808001e+00
  2.020354e+00    2.874722e+00
  2.052105e+00    2.847026e+00
  2.083856e+00    2.717172e+00
  2.115608e+00    2.899823e+00
  2.147359e+00    2.739410e+00
  2.179110e+00    2.738642e+00
  2.210861e+00    2.760541e+00
  2.242612e+00    2.752500e+00
  2.274363e+00    2.878128e+00
  2.306115e+00    2.796120e+00
  2.337866e+00    2.754968e+00
  2.369617e+00    2.823794e+00
  2.401368e+00    2.779956e+00
  2.433119e+00    2.778346e+00
  2.464870e+00    2.842546e+00
  2.496621e+00    2.899629e+00
  2.528373e+00    2.790919e+00
  2.560124e+00    2.873499e+00
  2.591875e+00    2.855243e+00
  2.623626e+00    2.805816e+00
  2.655377e+00    2.917398e+00
  2.687128e+00    2.831221e+00
  2.718879e+00    2.913167e+00
  2.750631e+00    2.820747e+00
  2.782382e+00    2.830508e+00
  2.814133e+00    2.776123e+00
  2.845884e+00    2.751825e+00
  2.877635e+00    2.944833e+00
  2.909386e+00    2.873180e+00
  2.941137e+00    2.811891e+00
  2.972889e+00    2.888507e+00
  3.004640e+00    3.035606e+00
  3.036391e+00    2.900792e+00
  3.068142e+00    2.967330e+00
  3.099893e+00    2.934972e+00
  3.131644e+00    2.931620e+00
  3.163395e+00    2.882040e+00
  3.195147e+00    2.944353e+00
  3.226898e+00    3.038815e+00
  3.258649e+00    3.008951e+00
  3.290400e+00    2.874403e+00
  3.322151e+00    2.889287e+00
  3.353902e+00    2.972939e+00
  3.385654e+00    2.972214e+00
  3.417405e+00    2.942539e+00
  3.449156e+00    3.001211e+00
  3.480907e+00    2.919974e+00
  3.512658e+00    3.006866e+00
  3.544409e+00    2.964425e+00
  3.576160e+00    2.963293e+00
  3.607912e+00    2.982564e+00
  3.639663e+00    3.048635e+00
  3.671414e+00    3.054930e+00
  3.703165e+00    2.961560e+00
  3.734916e+00    3.027206e+00
  3.766667e+00    2.971145e+00
  3.798418e+00    3.009022e+00
  3.830170e+00    3.015296e+00
  3.861921e+00    2.910418e+00
  3.893672e+00    3.076306e+00
  3.925423e+00    3.025723e+00
  3.957174e+00    2.948062e+00
  3.988925e+00    2.896909e+00
  4.020676e+00    2.974329e+00
  4.052428e+00    3.027307e+00
  4.084179e+00    3.036810e+00
  4.115930e+00    3.069252e+00
  4.147681e+00    2.905077e+00
  4.179432e+00    3.073397e+00
  4.211183e+00    3.112812e+00
  4.242935e+00    3.090974e+00
  4.274686e+00    3.078104e+00
  4.306437e+00    3.103890e+00
  4.338188e+00    3.049945e+00
  4.369939e+00    3.130198e+00
  4.401690e+00    3.004431e+00
  4.433441e+00    3.136011e+00
  4.465193e+00    3.130073e+00
  4.496944e+00    3.115478e+00
  4.528695e+00    3.084912e+00
  4.560446e+00    3.073259e+00
  4.592197e+00    3.177500e+00
  4.623948e+00    3.064757e+00
  4.655699e+00    3.066887e+00
  4.687451e+00    3.157304e+00
  4.719202e+00    3.161847e+00
  4.750953e+00    3.111720e+00
  4.782704e+00    3.090712e+00
  4.814455e+00    3.136357e+00
  4.846206e+00    3.018054e+00
  4.877957e+00    3.061283e+00
  4.909709e+00    3.087536e+00
  4.941460e+00    3.173880e+00
  4.973211e+00    3.180861e+00
  5.004962e+00    3.186033e+00
  5.036713e+00    3.174600e+00
  5.068464e+00    3.034643e+00
  5.100216e+00    3.119993e+00
  5.131967e+00    3.144013e+00
  5.163718e+00    3.116879e+00
  5.195469e+00    3.168586e+00
  5.227220e+00    3.061084e+00
  5.258971e+00    3.088668e+00
  5.290722e+00    3.128379e+00
  5.322474e+00    3.155188e+00
  5.354225e+00    3.197581e+00
  5.385976e+00    3.146160e+00
  5.417727e+00    3.086329e+00
  5.449478e+00    3.073196e+00
  5.481229e+00    3.155236e+00
  5.512980e+00    3.039965e+00
  5.544732e+00    3.083622e+00
  5.576483e+00    3.153675e+00
  5.608234e+00    3.153287e+00
  5.639985e+00    3.082175e+00
  5.671736e+00    3.129529e+00
  5.703487e+00    3.147269e+00
  5.735238e+00    3.090478e+00
  5.766990e+00    3.099561e+00
  5.798741e+00    3.135547e+00
  5.830492e+00    3.051149e+00
  5.862243e+00    2.991452e+00
  5.893994e+00    3.028313e+00
  5.925745e+00    3.101210e+00
  5.957497e+00    3.099412e+00
  5.989248e+00    2.987979e+00
  6.020999e+00    2.946345e+00
  6.052750e+00    3.049973e+00
  6.084501e+00    3.083017e+00
  6.116252e+00    3.125388e+00
  6.148003e+00    3.062736e+00
  6.179755e+00    3.037084e+00
  6.211506e+00    3.095858e+00
  6.243257e+00    3.073383e+00
  6.275008e+00    3.085109e+00
  6.306759e+00    3.033610e+00
  6.338510e+00    3.138861e+00
  6.370261e+00    3.020664e+00
  6.402013e+00    3.044061e+00
  6.433764e+00    3.084475e+00
  6.465515e+00    3.043942e+00
  6.497266e+00    3.043557e+00
  6.529017e+00    3.137284e+00
  6.560768e+00    3.061265e+00
  6.592519e+00    3.048330e+00
  6.624271e+00    3.055830e+00
  6.656022e+00    3.065740e+00
  6.687773e+00    3.103159e+00
  6.719524e+00    3.034378e+00
  6.751275e+00    3.102665e+00
  6.783026e+00    2.996583e+00
  6.814777e+00    3.005613e+00
  6.846529e+00    3.002847e+00
  6.878280e+00    3.040854e+00
  6.910031e+00    3.023459e+00
  6.941782e+00    2.962342e+00
  6.973533e+00    3.087766e+00
  7.005284e+00    3.103294e+00
  7.037036e+00    2.971279e+00
  7.068787e+00    3.018291e+00
  7.100538e+00    2.981110e+00
  7.132289e+00    2.990717e+00
  7.164040e+00    3.028761e+00
  7.195791e+00    3.039858e+00
  7.227542e+00    3.055320e+00
  7.259294e+00    3.082607e+00
  7.291045e+00    3.075423e+00
  7.322796e+00    2.993040e+00
  7.354547e+00    3.014912e+00
  7.386298e+00    3.004723e+00
  7.418049e+00    2.972466e+00
  7.449800e+00    2.969864e+00
  7.481552e+00    3.057183e+00
  7.513303e+00    2.967932e+00
  7.545054e+00    2.949877e+00
  7.576805e+00    2.938643e+00
  7.608556e+00    2.987252e+00
  7.640307e+00    2.980816e+00
  7.672058e+00    2.906617e+00
  7.703810e+00    2.969223e+00
  7.735561e+00    2.943611e+00
  7.767312e+00    2.906008e+00
  7.799063e+00    2.957223e+00
  7.830814e+00    2.958717e+00
  7.862565e+00    2.940620e+00
  7.894317e+00    2.913429e+00
  7.926068e+00    2.935658e+00
  7.957819e+00    2.893420e+00
  7.989570e+00    2.981955e+00
  8.021321e+00    2.870423e+00
  8.053072e+00    2.920188e+00
  8.084823e+00    2.993837e+00
  8.116575e+00    2.911607e+00
  8.148326e+00    2.971435e+00
  8.180077e+00    2.999539e+00
  8.211828e+00    2.980204e+00
  8.243579e+00    2.969851e+00
  8.275330e+00    2.885530e+00
  8.307081e+00    2.892208e+00
  8.338833e+00    2.926459e+00
  8.370584e+00    2.877694e+00
  8.402335e+00    2.920563e+00
  8.434086e+00    2.864267e+00
  8.465837e+00    2.904195e+00
  8.497588e+00    2.885230e+00
  8.529339e+00    2.862834e+00
  8.561091e+00    2.896367e+00
  8.592842e+00    2.921883e+00
  8.624593e+00    2.881983e+00
  8.656344e+00    2.838307e+00
  8.688095e+00    2.865153e+00
  8.719846e+00    2.844087e+00
  8.751598e+00    2.877898e+00
  8.783349e+00    2.809790e+00
  8.815100e+00    2.910721e+00
  8.846851e+00    2.931610e+00
  8.878602e+00    2.839149e+00
  8.910353e+00    2.892376e+00
  8.942104e+00    2.872735e+00
  8.973856e+00    2.867516e+00
  9.005607e+00    2.908584e+00
  9.037358e+00    2.910299e+00
  9.069109e+00    2.810801e+00
  9.100860e+00    2.827790e+00
  9.132611e+00    2.923200e+00
  9.164362e+00    2.803592e+00
  9.196114e+00    2.824643e+00
  9.227865e+00    2.826497e+00
  9.259616e+00    2.860003e+00
  9.291367e+00    2.799138e+00
  9.323118e+00    2.783836e+00
  9.354869e+00    2.752905e+00
  9.386620e+00    2.820619e+00
  9.418372e+00    2.835036e+00
  9.450123e+00    2.727993e+00
  9.481874e+00    2.724732e+00
  9.513625e+00    2.757059e+00
  9.545376e+00    2.778698e+00
  9.577127e+00    2.779350e+00
  9.608878e+00    2.847590e+00
  9.640630e+00    2.836766e+00
  9.672381e+00    2.751170e+00
  9.704132e+00    2.751374e+00
  9.735883e+00    2.734180e+00
  9.767634e+00    2.744076e+00
  9.799385e+00    2.709585e+00
  9.831137e+00    2.665656e+00
  9.862888e+00    2.718637e+00
  9.894639e+00    2.723856e+00
  9.926390e+00    2.745100e+00
  9.958141e+00    2.746583e+00
  9.989892e+00    2.700254e+00
  1.002164e+01    2.713438e+00
  1.005339e+01    2.721080e+00
  1.008515e+01    2.718669e+00
  1.011690e+01    2.640923e+00
  1.014865e+01    2.670351e+00
  1.018040e+01    2.664155e+00
  1.021215e+01    2.636904e+00
  1.024390e+01    2.653267e+00
  1.027565e+01    2.667154e+00
  1.030740e+01    2.597119e+00
  1.033915e+01    2.643382e+00
  1.037091e+01    2.627367e+00
  1.040266e+01    2.563159e+00
  1.043441e+01    2.566637e+00
  1.046616e+01    2.647870e+00
  1.049791e+01    2.582604e+00
  1.052966e+01    2.584283e+00
  1.056141e+01    2.659449e+00
  1.059316e+01    2.586194e+00
  1.062492e+01    2.568537e+00
  1.065667e+01    2.541278e+00
  1.068842e+01    2.585848e+00
  1.072017e+01    2.570608e+00
  1.075192e+01    2.545334e+00
  1.078367e+01    2.526059e+00
  1.081542e+01    2.569916e+00
  1.084717e+01    2.564118e+00
  1.087892e+01    2.544207e+00
  1.091068e+01    2.524229e+00
  1.094243e+01    2.480960e+00
  1.097418e+01    2.541130e+00
  1.100593e+01    2.496890e+00
  1.103768e+01    2.430119e+00
  1.106943e+01    2.511118e+00
  1.110118e+01    2.545027e+00
  1.113293e+01    2.548609e+00
  1.116468e+01    2.463611e+00
  1.119644e+01    2.460272e+00
  1.122819e+01    2.470012e+00
  1.125994e+01    2.492461e+00
  1.129169e+01    2.408979e+00
  1.132344e+01    2.429779e+00
  1.135519e+01    2.463679e+00
  1.138694e+01    2.466921e+00
  1.141869e+01    2.461824e+00
  1.145045e+01    2.456173e+00
  1.148220e+01    2.427007e+00
  1.151395e+01    2.396066e+00
  1.154570e+01    2.418716e+00
  1.157745e+01    2.440384e+00
  1.160920e+01    2.428663e+00
  1.164095e+01    2.390991e+00
  1.167270e+01    2.387779e+00
  1.170445e+01    2.416794e+00
  1.173621e+01    2.354241e+00
  1.176796e+01    2.362625e+00
  1.179971e+01    2.349358e+00
  1.183146e+01    2.338810e+00
  1.186321e+01    2.345211e+00
  1.189496e+01    2.405684e+00
  1.192671e+01    2.355935e+00
  1.195846e+01    2.366337e+00
  1.199021e+01    2.313803e+00
  1.202197e+01    2.360885e+00
  1.205372e+01    2.345440e+00
  1.208547e+01    2.295920e+00
  1.211722e+01    2.348322e+00
  1.214897e+01    2.342451e+00
  1.218072e+01    2.322335e+00
  1.221247e+01    2.352277e+00
  1.224422e+01    2.290137e+00
  1.227597e+01    2.381908e+00
  1.230773e+01    2.343991e+00
  1.233948e+01    2.310097e+00
  1.237123e+01    2.376896e+00
  1.240298e+01    2.328945e+00
  1.243473e+01    2.371586e+00
  1.246648e+01    2.354833e+00
  1.249823e+01    2.334395e+00
  1.252998e+01    2.378965e+00
  1.256174e+01    2.437793e+00
  1.259349e+01    2.389486e+00
  1.262524e+01    2.410112e+00
  1.265699e+01    2.429392e+00
  1.268874e+01    2.482433e+00
  1.272049e+01    2.572694e+00
  1.275224e+01    2.578079e+00
  1.278399e+01    2.608403e+00
  1.281574e+01    2.751581e+00
  1.284750e+01    2.887045e+00
  1.287925e+01    3.069808e+00
  1.291100e+01    3.351039e+00
  1.294275e+01    3.650887e+00
  1.297450e+01    4.298695e+00
  1.300625e+01    5.196043e+00
  1.303800e+01    6.757532e+00
  1.306975e+01    9.121969e+00
  1.310150e+01    1.211529e+01
  1.313326e+01    1.506184e+01
  1.316501e+01    1.797773e+01
  1.319676e+01    1.979874e+01
  1.322851e+01    1.806746e+01
  1.326026e+01    1.369513e+01
  1.329201e+01    9.666727e+00
  1.332376e+01    6.870842e+00
  1.335551e+01    5.384789e+00
  1.338727e+01    4.361744e+00
  1.341902e+01    3.778723e+00
  1.345077e+01    3.383528e+00
  1.348252e+01    3.023018e+00
  1.351427e+01    2.836764e+00
  1.354602e+01    2.703264e+00
  1.357777e+01    2.627386e+00
  1.360952e+01    2.447747e+00
  1.364127e+01    2.367606e+00
  1.367303e+01    2.325913e+00
  1.370478e+01    2.331785e+00
  1.373653e+01    2.288906e+00
  1.376828e+01    2.244897e+00
  1.380003e+01    2.222585e+00
  1.383178e+01    2.176603e+00
  1.386353e+01    2.169806e+00
  1.389528e+01    2.129156e+00
  1.392703e+01    2.129873e+00
  1.395879e+01    2.174101e+00
  1.399054e+01    2.096394e+00
  1.402229e+01    2.087955e+00
  1.405404e+01    2.056600e+00
  1.408579e+01    2.053227e+00
  1.411754e+01    2.033078e+00
  1.414929e+01    2.068981e+00
  1.418104e+01    1.986047e+00
  1.421279e+01    2.012009e+00
  1.424455e+01    2.048979e+00
  1.427630e+01    1.984365e+00
  1.430805e+01    1.962686e+00
  1.433980e+01    1.997375e+00
  1.437155e+01    1.966362e+00
  1.440330e+01    1.976950e+00
  1.443505e+01    1.930498e+00
  1.446680e+01    1.952168e+00
  1.449856e+01    1.946592e+00
  1.453031e+01    1.962513e+00
  1.456206e+01    1.944132e+00
  1.459381e+01    1.919991e+00
  1.462556e+01    1.931840e+00
  1.465731e+01    1.956796e+00
  1.468906e+01    1.930470e+00
  1.472081e+01    1.940564e+00
  1.475256e+01    1.939980e+00
  1.478432e+01    1.951896e+00
  1.481607e+01    1.920530e+00
  1.484782e+01    1.896690e+00
  1.487957e+01    1.959266e+00
  1.491132e+01    1.977865e+00
  1.494307e+01    2.004283e+00
  1.497482e+01    2.058724e+00
  1.500657e+01    2.180337e+00
  1.503832e+01    2.284556e+00
  1.507008e+01    2.491605e+00
  1.510183e+01    2.782476e+00
  1.513358e+01    3.287020e+00
  1.516533e+01    3.945329e+00
  1.519708e+01    4.888683e+00
  1.522883e+01    5.612084e+00
  1.526058e+01    6.316885e+00
  1.529233e+01    6.511637e+00
  1.532409e+01    6.127739e+00
  1.535584e+01    4.911299e+00
  1.538759e+01    3.865534e+00
  1.541934e+01    3.115777e+00
  1.545109e+01    2.649766e+00
  1.548284e+01    2.343795e+00
  1.551459e+01    2.139445e+00
  1.554634e+01    2.058877e+00
  1.557809e+01    1.939727e+00
  1.560985e+01    1.920163e+00
  1.564160e+01    1.822291e+00
  1.567335e+01    1.794586e+00
  1.570510e+01    1.792748e+00
  1.573685e+01    1.775757e+00
  1.576860e+01    1.723649e+00
  1.580035e+01    1.711408e+00
  1.583210e+01    1.699623e+00
  1.586385e+01    1.658083e+00
  1.589561e+01    1.640966e+00
  1.592736e+01    1.629380e+00
  1.595911e+01    1.650271e+00
  1.599086e+01    1.647185e+00
  1.602261e+01    1.625508e+00
  1.605436e+01    1.632432e+00
  1.608611e+01    1.622604e+00
  1.611786e+01    1.614072e+00
  1.614961e+01    1.595716e+00
  1.618137e+01    1.603616e+00
  1.621312e+01    1.564278e+00
  1.624487e+01    1.576134e+00
  1.627662e+01    1.568254e+00
  1.630837e+01    1.564287e+00
  1.634012e+01    1.562840e+00
  1.637187e+01    1.575984e+00
  1.640362e+01    1.560458e+00
  1.643538e+01    1.555945e+00
  1.646713e+01    1.554367e+00
  1.649888e+01    1.505878e+00
  1.653063e+01    1.531832e+00
  1.656238e+01    1.524391e+00
  1.659413e+01    1.518796e+00
  1.662588e+01    1.493597e+00
  1.665763e+01    1.527654e+00
  1.668938e+01    1.491872e+00
  1.672114e+01    1.513350e+00
  1.675289e+01    1.506239e+00
  1.678464e+01    1.459725e+00
  1.681639e+01    1.455470e+00
  1.684814e+01    1.472798e+00
  1.687989e+01    1.503464e+00
  1.691164e+01    1.497008e+00
  1.694339e+01    1.471135e+00
  1.697514e+01    1.415490e+00
  1.700690e+01    1.454001e+00
  1.703865e+01    1.449542e+00
  1.707040e+01    1.446562e+00
  1.710215e+01    1.412594e+00
  1.713390e+01    1.419588e+00
  1.716565e+01    1.432504e+00
  1.719740e+01    1.415898e+00
  1.722915e+01    1.405300e+00
  1.726091e+01    1.438968e+00
  1.729266e+01    1.419265e+00
  1.732441e+01    1.431167e+00
  1.735616e+01    1.369468e+00
  1.738791e+01    1.408899e+00
  1.741966e+01    1.390964e+00
  1.745141e+01    1.385026e+00
  1.748316e+01    1.361320e+00
  1.751491e+01    1.354275e+00
  1.754667e+01    1.361186e+00
  1.757842e+01    1.348405e+00
  1.761017e+01    1.368967e+00
  1.764192e+01    1.356761e+00
  1.767367e+01    1.342115e+00
  1.770542e+01    1.372885e+00
  1.773717e+01    1.368674e+00
  1.776892e+01    1.335226e+00
  1.780067e+01    1.324978e+00
  1.783243e+01    1.362548e+00
  1.786418e+01    1.354866e+00
  1.789593e+01    1.347296e+00
  1.792768e+01    1.300638e+00
  1.795943e+01    1.336123e+00
  1.799118e+01    1.326225e+00
  1.802293e+01    1.321199e+00
  1.805468e+01    1.308172e+00
  1.808643e+01    1.302747e+00
  1.811819e+01    1.304500e+00
  1.814994e+01    1.291278e+00
  1.818169e+01    1.316273e+00
  1.821344e+01    1.301930e+00
  1.824519e+01    1.293631e+00
  1.827694e+01    1.298245e+00
  1.830869e+01    1.271539e+00
  1.834044e+01    1.266547e+00
  1.837220e+01    1.260750e+00
  1.840395e+01    1.297888e+00
  1.843570e+01    1.249944e+00
  1.846745e+01    1.255708e+00
  1.849920e+01    1.266173e+00
  1.853095e+01    1.287242e+00
  1.856270e+01    1.250166e+00
  1.859445e+01    1.255565e+00
  1.862620e+01    1.270918e+00
  1.865796e+01    1.269736e+00
  1.868971e+01    1.254669e+00
  1.872146e+01    1.258670e+00
  1.875321e+01    1.284055e+00
  1.878496e+01    1.219071e+00
  1.881671e+01    1.209281e+00
  1.884846e+01    1.237033e+00
  1.888021e+01    1.241719e+00
  1.891196e+01    1.216511e+00
  1.894372e+01    1.219968e+00
  1.897547e+01    1.244968e+00
  1.900722e+01    1.227031e+00
  1.903897e+01    1.233925e+00
  1.907072e+01    1.221645e+00
  1.910247e+01    1.216249e+00
  1.913422e+01    1.193533e+00
  1.916597e+01    1.204072e+00
  1.919773e+01    1.212271e+00
  1.922948e+01    1.214087e+00
  1.926123e+01    1.197945e+00
  1.929298e+01    1.196611e+00
  1.932473e+01    1.201860e+00
  1.935648e+01    1.179649e+00
  1.938823e+01    1.199038e+00
  1.941998e+01    1.186043e+00
  1.945173e+01    1.164321e+00
  1.948349e+01    1.192689e+00
  1.951524e+01    1.160304e+00
  1.954699e+01    1.152983e+00
  1.957874e+01    1.154001e+00
  1.961049e+01    1.152019e+00
  1.964224e+01    1.162884e+00
  1.967399e+01    1.175472e+00
  1.970574e+01    1.180407e+00
  1.973749e+01    1.155255e+00
  1.976925e+01    1.147736e+00
  1.980100e+01    1.140275e+00
  1.983275e+01    1.166197e+00
  1.986450e+01    1.171453e+00
  1.989625e+01    1.157179e+00
  1.992800e+01    1.157531e+00
  1.995975e+01    1.146197e+00
  1.999150e+01    1.128490e+00
  2.002325e+01    1.142640e+00
  2.005501e+01    1.145450e+00
  2.008676e+01    1.136156e+00
  2.011851e+01    1.140000e+00
  2.015026e+01    1.103583e+00
  2.018201e+01    1.117588e+00
  2.021376e+01    1.108664e+00
  2.024551e+01    1.126805e+00
  2.027726e+01    1.107847e+00
  2.030902e+01    1.094995e+00
  2.034077e+01    1.110726e+00
  2.037252e+01    1.104464e+00
  2.040427e+01    1.126037e+00
  2.043602e+01    1.106423e+00
  2.046777e+01    1.115855e+00
  2.049952e+01    1.110496e+00
  2.053127e+01    1.089810e+00
  2.056302e+01    1.072846e+00
  2.059478e+01    1.118457e+00
  2.062653e+01    1.093286e+00
  2.065828e+01    1.080479e+00
  2.069003e+01    1.077242e+00
  2.072178e+01    1.110269e+00
  2.075353e+01    1.093824e+00
  2.078528e+01    1.084171e+00
  2.081703e+01    1.092873e+00
  2.084878e+01    1.101904e+00
  2.088054e+01    1.108068e+00
  2.091229e+01    1.117767e+00
  2.094404e+01    1.078311e+00
  2.097579e+01    1.099602e+00
  2.100754e+01    1.105417e+00
  2.103929e+01    1.099474e+00
  2.107104e+01    1.100775e+00
  2.110279e+01    1.105104e+00
  2.113455e+01    1.114935e+00
  2.116630e+01    1.113517e+00
  2.119805e+01    1.097264e+00
  2.122980e+01    1.114615e+00
  2.126155e+01    1.120582e+00
  2.129330e+01    1.127562e+00
  2.132505e+01    1.141000e+00
  2.135680e+01    1.141865e+00
  2.138855e+01    1.155716e+00
  2.142031e+01    1.178800e+00
  2.145206e+01    1.212674e+00
  2.148381e+01    1.266948e+00
  2.151556e+01    1.310447e+00
  2.154731e+01    1.388404e+00
  2.157906e+01    1.456189e+00
  2.161081e+01    1.569839e+00
  2.164256e+01    1.742267e+00
  2.167431e+01    1.954242e+00
  2.170607e+01    2.300868e+00
  2.173782e+01    2.814238e+00
  2.176957e+01    3.743572e+00
  2.180132e+01    4.865937e+00
  2.183307e+01    6.442390e+00
  2.186482e+01    8.089347e+00
  2.189657e+01    9.862123e+00
  2.192832e+01    1.093939e+01
  2.196007e+01    1.029375e+01
  2.199183e+01    8.285135e+00
  2.202358e+01    5.945842e+00
  2.205533e+01    4.267949e+00
  2.208708e+01    3.224401e+00
  2.211883e+01    2.556845e+00
  2.215058e+01    2.133204e+00
  2.218233e+01    1.828326e+00
  2.221408e+01    1.598472e+00
  2.224584e+01    1.467105e+00
  2.227759e+01    1.389553e+00
  2.230934e+01    1.293926e+00
  2.234109e+01    1.234105e+00
  2.237284e+01    1.203677e+00
  2.240459e+01    1.130825e+00
  2.243634e+01    1.132984e+00
  2.246809e+01    1.093888e+00
  2.249984e+01    1.052724e+00
  2.253160e+01    1.042377e+00
  2.256335e+01    1.051336e+00
  2.259510e+01    1.006103e+00
  2.262685e+01    1.009945e+00
  2.265860e+01    9.935119e-01
  2.269035e+01    9.906732e-01
  2.272210e+01    9.699569e-01
  2.275385e+01    9.736251e-01
  2.278560e+01    9.633763e-01
  2.281736e+01    9.374350e-01
  2.284911e+01    9.443122e-01
  2.288086e+01    9.518993e-01
  2.291261e+01    9.337808e-01
  2.294436e+01    9.297996e-01
  2.297611e+01    9.232483e-01
  2.300786e+01    9.038385e-01
  2.303961e+01    9.142469e-01
  2.307137e+01    9.275119e-01
  2.310312e+01    8.910130e-01
  2.313487e+01    8.806214e-01
  2.316662e+01    8.944666e-01
  2.319837e+01    8.750652e-01
  2.323012e+01    8.760161e-01
  2.326187e+01    8.806911e-01
  2.329362e+01    8.903683e-01
  2.332537e+01    8.885025e-01
  2.335713e+01    8.730845e-01
  2.338888e+01    8.478057e-01
  2.342063e+01    8.684354e-01
  2.345238e+01    8.705211e-01
  2.348413e+01    8.846025e-01
  2.351588e+01    8.433043e-01
  2.354763e+01    8.625931e-01
  2.357938e+01    8.579763e-01
  2.361113e+01    8.610907e-01
  2.364289e+01    8.588716e-01
  2.367464e+01    8.276860e-01
  2.370639e+01    8.499102e-01
  2.373814e+01    8.120087e-01
  2.376989e+01    7.999051e-01
  2.380164e+01    8.152541e-01
  2.383339e+01    8.053110e-01
  2.386514e+01    8.153517e-01
  2.389689e+01    8.298929e-01
  2.392865e+01    7.995526e-01
  2.396040e+01    7.889583e-01
  2.399215e+01    8.153996e-01
  2.402390e+01    7.959073e-01
  2.405565e+01    7.972896e-01
  2.408740e+01    7.891840e-01
  2.411915e+01    7.848322e-01
  2.415090e+01    7.873489e-01
  2.418266e+01    8.209269e-01
  2.421441e+01    7.980061e-01
  2.424616e+01    7.887307e-01
  2.427791e+01    8.142323e-01
  2.430966e+01    8.108435e-01
  2.434141e+01    8.098854e-01
  2.437316e+01    7.944566e-01
  2.440491e+01    8.134359e-01
  2.443666e+01    8.098752e-01
  2.446842e+01    8.104768e-01
  2.450017e+01    8.195708e-01
  2.453192e+01    8.077644e-01
  2.456367e+01    7.870928e-01
  2.459542e+01    7.897184e-01
  2.462717e+01    8.119162e-01
  2.465892e+01    7.959297e-01
  2.469067e+01    8.092951e-01
  2.472242e+01    7.937524e-01
  2.475418e+01    8.007273e-01
  2.478593e+01    8.124167e-01
  2.481768e+01    8.033333e-01
  2.484943e+01    8.186020e-01
  2.488118e+01    8.129605e-01
  2.491293e+01    8.165244e-01
  2.494468e+01    8.015589e-01
  2.497643e+01    8.223208e-01
  2.500819e+01    8.112325e-01
  2.503994e+01    8.153159e-01
  2.507169e+01    8.291938e-01
  2.510344e+01    8.253027e-01
  2.513519e+01    8.444999e-01
  2.516694e+01    8.430108e-01
  2.519869e+01    8.299792e-01
  2.523044e+01    8.559966e-01
  2.526219e+01    8.548615e-01
  2.529395e+01    8.622518e-01
  2.532570e+01    8.763446e-01
  2.535745e+01    9.248720e-01
  2.538920e+01    8.872966e-01
  2.542095e+01    9.334161e-01
  2.545270e+01    9.393390e-01
  2.548445e+01    9.695007e-01
  2.551620e+01    9.896592e-01
  2.554795e+01    1.016468e+00
  2.557971e+01    1.068012e+00
  2.561146e+01    1.103418e+00
  2.564321e+01    1.177702e+00
  2.567496e+01    1.267441e+00
  2.570671e+01    1.409010e+00
  2.573846e+01    1.585686e+00
  2.577021e+01    1.833502e+00
  2.580196e+01    2.218303e+00
  2.583371e+01    2.768286e+00
  2.586547e+01    3.704937e+00
  2.589722e+01    4.889248e+00
  2.592897e+01    6.340580e+00
  2.596072e+01    7.929962e+00
  2.599247e+01    8.980354e+00
  2.602422e+01    8.830313e+00
  2.605597e+01    7.458147e+00
  2.608772e+01    5.542194e+00
  2.611948e+01    4.054254e+00
  2.615123e+01    3.008841e+00
  2.618298e+01    2.382202e+00
  2.621473e+01    1.950931e+00
  2.624648e+01    1.659338e+00
  2.627823e+01    1.470817e+00
  2.630998e+01    1.350778e+00
  2.634173e+01    1.210379e+00
  2.637348e+01    1.139511e+00
  2.640524e+01    1.085427e+00
  2.643699e+01    1.050897e+00
  2.646874e+01    1.006107e+00
  2.650049e+01    9.919056e-01
  2.653224e+01    9.807730e-01
  2.656399e+01    9.684934e-01
  2.659574e+01    9.691829e-01
  2.662749e+01    9.446812e-01
  2.665924e+01    9.395671e-01
  2.669100e+01    9.372425e-01
  2.672275e+01    9.336100e-01
  2.675450e+01    9.352426e-01
  2.678625e+01    9.321967e-01
  2.681800e+01    9.259570e-01
  2.684975e+01    9.140393e-01
  2.688150e+01    9.403734e-01
  2.691325e+01    9.231637e-01
  2.694501e+01    9.690580e-01
  2.697676e+01    9.738353e-01
  2.700851e+01    9.858933e-01
  2.704026e+01    1.064087e+00
  2.707201e+01    1.139566e+00
  2.710376e+01    1.236863e+00
  2.713551e+01    1.459878e+00
  2.716726e+01    1.719571e+00
  2.719901e+01    2.075771e+00
  2.723077e+01    2.426490e+00
  2.726252e+01    2.569497e+00
  2.729427e+01    2.425982e+00
  2.732602e+01    2.187050e+00
  2.735777e+01    1.733688e+00
  2.738952e+01    1.485348e+00
  2.742127e+01    1.245616e+00
  2.745302e+01    1.148617e+00
  2.748477e+01    1.061347e+00
  2.751653e+01    1.011241e+00
  2.754828e+01    9.848290e-01
  2.758003e+01    9.325533e-01
  2.761178e+01    8.918493e-01
  2.764353e+01    8.556225e-01
  2.767528e+01    8.821802e-01
  2.770703e+01    8.508621e-01
  2.773878e+01    8.655254e-01
  2.777054e+01    8.366188e-01
  2.780229e+01    8.436629e-01
  2.783404e+01    8.210073e-01
  2.786579e+01    8.185174e-01
  2.789754e+01    8.226327e-01
  2.792929e+01    8.138250e-01
  2.796104e+01    8.297052e-01
  2.799279e+01    8.191509e-01
  2.802454e+01    8.232760e-01
  2.805630e+01    7.822868e-01
  2.808805e+01    8.006299e-01
  2.811980e+01    8.043237e-01
  2.815155e+01    8.025771e-01
  2.818330e+01    7.824821e-01
  2.821505e+01    7.952753e-01
  2.824680e+01    8.189062e-01
  2.827855e+01    7.998400e-01
  2.831030e+01    7.767336e-01
  2.834206e+01    7.860121e-01
  2.837381e+01    7.993795e-01
  2.840556e+01    7.890897e-01
  2.843731e+01    7.822073e-01
  2.846906e+01    7.697308e-01
  2.850081e+01    7.457082e-01
  2.853256e+01    7.775875e-01
  2.856431e+01    7.741773e-01
  2.859606e+01    7.631123e-01
  2.862782e+01    7.896457e-01
  2.865957e+01    7.752882e-01
  2.869132e+01    7.848913e-01
  2.872307e+01    7.441098e-01
  2.875482e+01    7.585656e-01
  2.878657e+01    7.520694e-01
  2.881832e+01    7.622303e-01
  2.885007e+01    7.505999e-01
  2.888183e+01    7.490550e-01
  2.891358e+01    7.810622e-01
  2.894533e+01    7.501189e-01
  2.897708e+01    7.593787e-01
  2.900883e+01    7.561117e-01
  2.904058e+01    7.344078e-01
  2.907233e+01    7.580666e-01
  2.910408e+01    7.501015e-01
  2.913583e+01    7.474477e-01
  2.916759e+01    7.553399e-01
  2.919934e+01    7.353173e-01
  2.923109e+01    7.286761e-01
  2.926284e+01    7.486929e-01
  2.929459e+01    7.507069e-01
  2.932634e+01    7.504092e-01
  2.935809e+01    7.423490e-01
  2.938984e+01    7.461973e-01
  2.942159e+01    7.653905e-01
  2.945335e+01    7.504367e-01
  2.948510e+01    7.309874e-01
  2.951685e+01    7.375939e-01
  2.954860e+01    7.450958e-01
  2.958035e+01    7.443779e-01
  2.961210e+01    7.251455e-01
  2.964385e+01    7.337925e-01
  2.967560e+01    7.439522e-01
  2.970736e+01    7.390437e-01
  2.973911e+01    7.309296e-01
  2.977086e+01    7.367418e-01
  2.980261e+01    7.343774e-01
  2.983436e+01    7.135434e-01
  2.986611e+01    7.349510e-01
  2.989786e+01    7.092885e-01
  2.992961e+01    7.388176e-01
  2.996136e+01    7.265013e-01
  2.999312e+01    7.242184e-01
  3.002487e+01    7.623505e-01
  3.005662e+01    7.378393e-01
  3.008837e+01    7.483084e-01
  3.012012e+01    7.337832e-01
  3.015187e+01    7.275542e-01
  3.018362e+01    7.127231e-01
  3.021537e+01    7.139356e-01
  3.024712e+01    7.079243e-01
  3.027888e+01    7.063615e-01
  3.031063e+01    7.189121e-01
  3.034238e+01    7.163281e-01
  3.037413e+01    7.211418e-01
  3.040588e+01    7.459710e-01
  3.043763e+01    7.248866e-01
  3.046938e+01    7.386692e-01
  3.050113e+01    7.424569e-01
  3.053288e+01    7.282236e-01
  3.056464e+01    7.181140e-01
  3.059639e+01    7.200680e-01
  3.062814e+01    7.259066e-01
  3.065989e+01    7.243085e-01
  3.069164e+01    7.272692e-01
  3.072339e+01    7.263927e-01
  3.075514e+01    7.241673e-01
  3.078689e+01    7.129184e-01
  3.081865e+01    7.136514e-01
  3.085040e+01    7.254128e-01
  3.088215e+01    7.194703e-01
  3.091390e+01    7.374033e-01
  3.094565e+01    7.311488e-01
  3.097740e+01    7.153824e-01
  3.100915e+01    7.118366e-01
  3.104090e+01    7.349144e-01
  3.107265e+01    7.404631e-01
  3.110441e+01    7.459588e-01
  3.113616e+01    7.243525e-01
  3.116791e+01    7.483444e-01
  3.119966e+01    7.283546e-01
  3.123141e+01    7.462795e-01
  3.126316e+01    7.541814e-01
  3.129491e+01    7.162981e-01
  3.132666e+01    7.333251e-01
  3.135841e+01    7.566766e-01
  3.139017e+01    7.638956e-01
  3.142192e+01    7.708213e-01
  3.145367e+01    7.785587e-01
  3.148542e+01    7.911174e-01
  3.151717e+01    7.880778e-01
  3.154892e+01    8.079182e-01
  3.158067e+01    7.978557e-01
  3.161242e+01    8.318177e-01
  3.164418e+01    8.566268e-01
  3.167593e+01    8.896959e-01
  3.170768e+01    9.185159e-01
  3.173943e+01    9.873136e-01
  3.177118e+01    1.053933e+00
  3.180293e+01    1.227670e+00
  3.183468e+01    1.435775e+00
  3.186643e+01    1.692695e+00
  3.189818e+01    2.098639e+00
  3.192994e+01    2.456809e+00
  3.196169e+01    2.553474e+00
  3.199344e+01    2.445040e+00
  3.202519e+01    2.118082e+00
  3.205694e+01    1.729762e+00
  3.208869e+01    1.384964e+00
  3.212044e+01    1.193701e+00
  3.215219e+01    1.055158e+00
  3.218394e+01    9.615663e-01
  3.221570e+01    9.078183e-01
  3.224745e+01    8.830804e-01
  3.227920e+01    8.068439e-01
  3.231095e+01    7.950618e-01
  3.234270e+01    7.904763e-01
  3.237445e+01    7.893941e-01
  3.240620e+01    7.812521e-01
  3.243795e+01    7.414342e-01
  3.246970e+01    7.452507e-01
  3.250146e+01    7.560461e-01
  3.253321e+01    7.442889e-01
  3.254908e+01    7.395216e-01