File: XRD/2024-07-27_002_Ru-CGO-ex_Activtation_ramp_000002_data_000088.dat
# == pyFAI calibration ==
# Distance Sample to Detector: 0.4 m
# PONI: 9.750e-02, 1.135e-01 m
# Rotations: -0.000175 0.000000 -0.000000 rad
#
# == Fit2d calibration ==
# Distance Sample-beamCenter: 400.000 mm
# Center: x=1514.000, y=1300.000 pix
# Tilt: 0.010 deg  TiltPlanRot: 0.010 deg
#
# Detector Detector	 Spline= None	 PixelSize= 7.500e-05, 7.500e-05 m
#    Detector has a mask: False
#    Detector has a dark current: False
#    detector has a flat field: False
#
# Wavelength: 6.888e-11 m
# Mask applied: user provided
# Dark current applied: False
# Flat field applied: False
# Polarization factor: 0.99
# Normalization factor: 1.0
# --> /home/myspot/data/2024_07_Rosario/Ru-CGO-ex/2024-07-27_002_Ru-CGO-ex_Activtation_ramp_000002_data_000088.dat
#       q_nm^-1             I
  2.003187e-02    1.424646e-01
  5.178302e-02    9.527555e-02
  8.353417e-02    4.522756e-02
  1.152853e-01    5.913961e-02
  1.470365e-01    4.458820e-02
  1.787876e-01    1.442671e-02
  2.105388e-01    4.819084e-02
  2.422899e-01    4.042612e-02
  2.740411e-01    2.945728e-02
  3.057922e-01    1.535798e-02
  3.375433e-01    6.745403e-02
  3.692945e-01    1.930678e-02
  4.010456e-01    3.004495e-02
  4.327968e-01    4.341915e-02
  4.645479e-01    3.306135e-02
  4.962991e-01    4.401043e-02
  5.280502e-01    5.852482e-02
  5.598014e-01    1.997714e-02
  5.915525e-01    6.796432e-02
  6.233037e-01    3.059586e-02
  6.550548e-01    3.508662e-02
  6.868060e-01    4.140513e-02
  7.185571e-01    2.498157e-02
  7.503083e-01    3.305285e-02
  7.820594e-01    1.250271e-01
  8.138106e-01    2.086136e-01
  8.455617e-01    3.009349e-01
  8.773129e-01    3.659348e-01
  9.090640e-01    6.081271e-01
  9.408152e-01    7.514914e-01
  9.725663e-01    9.159330e-01
  1.004317e+00    9.803171e-01
  1.036069e+00    1.045678e+00
  1.067820e+00    1.227921e+00
  1.099571e+00    1.440511e+00
  1.131322e+00    1.304287e+00
  1.163073e+00    1.466275e+00
  1.194824e+00    1.518296e+00
  1.226575e+00    2.222763e+00
  1.258327e+00    2.256616e+00
  1.290078e+00    2.476020e+00
  1.321829e+00    2.431293e+00
  1.353580e+00    2.579785e+00
  1.385331e+00    2.578501e+00
  1.417082e+00    2.687428e+00
  1.448834e+00    2.800489e+00
  1.480585e+00    2.827673e+00
  1.512336e+00    2.924352e+00
  1.544087e+00    2.932596e+00
  1.575838e+00    2.969998e+00
  1.607589e+00    2.937434e+00
  1.639340e+00    2.859414e+00
  1.671092e+00    2.850348e+00
  1.702843e+00    2.819205e+00
  1.734594e+00    2.831508e+00
  1.766345e+00    2.869519e+00
  1.798096e+00    2.668310e+00
  1.829847e+00    2.742062e+00
  1.861598e+00    2.796175e+00
  1.893350e+00    2.712510e+00
  1.925101e+00    2.758302e+00
  1.956852e+00    2.776377e+00
  1.988603e+00    2.720341e+00
  2.020354e+00    2.673032e+00
  2.052105e+00    2.706625e+00
  2.083856e+00    2.752362e+00
  2.115608e+00    2.779041e+00
  2.147359e+00    2.677253e+00
  2.179110e+00    2.671546e+00
  2.210861e+00    2.791205e+00
  2.242612e+00    2.630083e+00
  2.274363e+00    2.690427e+00
  2.306115e+00    2.710400e+00
  2.337866e+00    2.749947e+00
  2.369617e+00    2.799861e+00
  2.401368e+00    2.738859e+00
  2.433119e+00    2.772473e+00
  2.464870e+00    2.754886e+00
  2.496621e+00    2.737700e+00
  2.528373e+00    2.801719e+00
  2.560124e+00    2.822945e+00
  2.591875e+00    2.825169e+00
  2.623626e+00    2.853931e+00
  2.655377e+00    2.787536e+00
  2.687128e+00    2.764310e+00
  2.718879e+00    2.802664e+00
  2.750631e+00    2.886468e+00
  2.782382e+00    2.819613e+00
  2.814133e+00    2.838952e+00
  2.845884e+00    2.859437e+00
  2.877635e+00    2.743588e+00
  2.909386e+00    2.756007e+00
  2.941137e+00    2.800506e+00
  2.972889e+00    2.825584e+00
  3.004640e+00    2.851397e+00
  3.036391e+00    2.890451e+00
  3.068142e+00    2.863573e+00
  3.099893e+00    2.869024e+00
  3.131644e+00    2.868029e+00
  3.163395e+00    2.817849e+00
  3.195147e+00    2.898273e+00
  3.226898e+00    2.797026e+00
  3.258649e+00    2.880503e+00
  3.290400e+00    2.895248e+00
  3.322151e+00    2.987257e+00
  3.353902e+00    3.002349e+00
  3.385654e+00    2.931723e+00
  3.417405e+00    2.885410e+00
  3.449156e+00    2.896980e+00
  3.480907e+00    2.910870e+00
  3.512658e+00    2.883631e+00
  3.544409e+00    2.926335e+00
  3.576160e+00    2.938552e+00
  3.607912e+00    2.940059e+00
  3.639663e+00    3.005372e+00
  3.671414e+00    2.950198e+00
  3.703165e+00    3.027437e+00
  3.734916e+00    3.020009e+00
  3.766667e+00    2.856027e+00
  3.798418e+00    2.923554e+00
  3.830170e+00    2.923119e+00
  3.861921e+00    2.896373e+00
  3.893672e+00    2.951772e+00
  3.925423e+00    2.979165e+00
  3.957174e+00    2.948902e+00
  3.988925e+00    2.997083e+00
  4.020676e+00    2.927670e+00
  4.052428e+00    3.024006e+00
  4.084179e+00    2.987103e+00
  4.115930e+00    2.975759e+00
  4.147681e+00    2.976295e+00
  4.179432e+00    2.940775e+00
  4.211183e+00    2.958529e+00
  4.242935e+00    3.028163e+00
  4.274686e+00    2.952780e+00
  4.306437e+00    2.934888e+00
  4.338188e+00    3.025013e+00
  4.369939e+00    3.031713e+00
  4.401690e+00    3.053727e+00
  4.433441e+00    3.117087e+00
  4.465193e+00    3.097387e+00
  4.496944e+00    3.057590e+00
  4.528695e+00    3.003435e+00
  4.560446e+00    2.937362e+00
  4.592197e+00    2.957828e+00
  4.623948e+00    3.078908e+00
  4.655699e+00    3.111740e+00
  4.687451e+00    3.078366e+00
  4.719202e+00    3.003563e+00
  4.750953e+00    3.019454e+00
  4.782704e+00    3.034757e+00
  4.814455e+00    3.108711e+00
  4.846206e+00    3.064689e+00
  4.877957e+00    3.148334e+00
  4.909709e+00    2.970254e+00
  4.941460e+00    2.990148e+00
  4.973211e+00    3.036337e+00
  5.004962e+00    3.091468e+00
  5.036713e+00    3.060251e+00
  5.068464e+00    3.143504e+00
  5.100216e+00    3.040150e+00
  5.131967e+00    3.034090e+00
  5.163718e+00    3.057821e+00
  5.195469e+00    3.050976e+00
  5.227220e+00    3.035371e+00
  5.258971e+00    3.083590e+00
  5.290722e+00    3.046662e+00
  5.322474e+00    3.076893e+00
  5.354225e+00    3.106622e+00
  5.385976e+00    3.103647e+00
  5.417727e+00    3.137106e+00
  5.449478e+00    2.958167e+00
  5.481229e+00    3.020300e+00
  5.512980e+00    3.041925e+00
  5.544732e+00    3.129203e+00
  5.576483e+00    3.051604e+00
  5.608234e+00    3.038865e+00
  5.639985e+00    3.052688e+00
  5.671736e+00    2.942045e+00
  5.703487e+00    2.986665e+00
  5.735238e+00    3.061466e+00
  5.766990e+00    3.000548e+00
  5.798741e+00    2.992135e+00
  5.830492e+00    3.022940e+00
  5.862243e+00    2.981644e+00
  5.893994e+00    2.986889e+00
  5.925745e+00    3.000687e+00
  5.957497e+00    2.928520e+00
  5.989248e+00    2.984172e+00
  6.020999e+00    2.950460e+00
  6.052750e+00    3.004236e+00
  6.084501e+00    3.030479e+00
  6.116252e+00    2.970450e+00
  6.148003e+00    2.870582e+00
  6.179755e+00    2.966957e+00
  6.211506e+00    3.093498e+00
  6.243257e+00    2.977085e+00
  6.275008e+00    2.986591e+00
  6.306759e+00    3.016654e+00
  6.338510e+00    3.017825e+00
  6.370261e+00    3.003122e+00
  6.402013e+00    2.941876e+00
  6.433764e+00    2.953939e+00
  6.465515e+00    3.013612e+00
  6.497266e+00    2.945629e+00
  6.529017e+00    3.020855e+00
  6.560768e+00    3.018969e+00
  6.592519e+00    2.993546e+00
  6.624271e+00    3.076820e+00
  6.656022e+00    2.996006e+00
  6.687773e+00    3.015684e+00
  6.719524e+00    2.956822e+00
  6.751275e+00    2.968142e+00
  6.783026e+00    2.949978e+00
  6.814777e+00    2.916407e+00
  6.846529e+00    2.959980e+00
  6.878280e+00    3.013870e+00
  6.910031e+00    2.912990e+00
  6.941782e+00    3.009231e+00
  6.973533e+00    2.896945e+00
  7.005284e+00    2.971934e+00
  7.037036e+00    2.962188e+00
  7.068787e+00    3.008305e+00
  7.100538e+00    3.021849e+00
  7.132289e+00    2.944265e+00
  7.164040e+00    2.974488e+00
  7.195791e+00    2.997968e+00
  7.227542e+00    2.918125e+00
  7.259294e+00    2.956080e+00
  7.291045e+00    2.982616e+00
  7.322796e+00    2.919265e+00
  7.354547e+00    2.940073e+00
  7.386298e+00    2.863145e+00
  7.418049e+00    2.907786e+00
  7.449800e+00    2.966927e+00
  7.481552e+00    2.926991e+00
  7.513303e+00    2.982819e+00
  7.545054e+00    2.950573e+00
  7.576805e+00    2.869132e+00
  7.608556e+00    2.852190e+00
  7.640307e+00    2.930653e+00
  7.672058e+00    2.914970e+00
  7.703810e+00    2.876719e+00
  7.735561e+00    2.867481e+00
  7.767312e+00    2.925508e+00
  7.799063e+00    2.830739e+00
  7.830814e+00    2.938748e+00
  7.862565e+00    2.902078e+00
  7.894317e+00    2.895191e+00
  7.926068e+00    2.929730e+00
  7.957819e+00    2.893374e+00
  7.989570e+00    2.851190e+00
  8.021321e+00    2.846673e+00
  8.053072e+00    2.896167e+00
  8.084823e+00    2.851727e+00
  8.116575e+00    2.938391e+00
  8.148326e+00    2.908043e+00
  8.180077e+00    2.940681e+00
  8.211828e+00    2.967139e+00
  8.243579e+00    2.906436e+00
  8.275330e+00    2.942630e+00
  8.307081e+00    2.868702e+00
  8.338833e+00    2.842841e+00
  8.370584e+00    2.947557e+00
  8.402335e+00    2.851425e+00
  8.434086e+00    2.876672e+00
  8.465837e+00    2.794117e+00
  8.497588e+00    2.850073e+00
  8.529339e+00    2.819198e+00
  8.561091e+00    2.778821e+00
  8.592842e+00    2.880594e+00
  8.624593e+00    2.805568e+00
  8.656344e+00    2.798411e+00
  8.688095e+00    2.797417e+00
  8.719846e+00    2.829738e+00
  8.751598e+00    2.780044e+00
  8.783349e+00    2.817331e+00
  8.815100e+00    2.804680e+00
  8.846851e+00    2.766109e+00
  8.878602e+00    2.805295e+00
  8.910353e+00    2.764530e+00
  8.942104e+00    2.835068e+00
  8.973856e+00    2.768891e+00
  9.005607e+00    2.737126e+00
  9.037358e+00    2.779299e+00
  9.069109e+00    2.730442e+00
  9.100860e+00    2.723704e+00
  9.132611e+00    2.743562e+00
  9.164362e+00    2.758409e+00
  9.196114e+00    2.765208e+00
  9.227865e+00    2.746662e+00
  9.259616e+00    2.754593e+00
  9.291367e+00    2.741593e+00
  9.323118e+00    2.718506e+00
  9.354869e+00    2.675577e+00
  9.386620e+00    2.719025e+00
  9.418372e+00    2.730986e+00
  9.450123e+00    2.725459e+00
  9.481874e+00    2.726017e+00
  9.513625e+00    2.703763e+00
  9.545376e+00    2.746762e+00
  9.577127e+00    2.721983e+00
  9.608878e+00    2.727765e+00
  9.640630e+00    2.675782e+00
  9.672381e+00    2.783457e+00
  9.704132e+00    2.698659e+00
  9.735883e+00    2.728941e+00
  9.767634e+00    2.672946e+00
  9.799385e+00    2.657192e+00
  9.831137e+00    2.674207e+00
  9.862888e+00    2.707967e+00
  9.894639e+00    2.650411e+00
  9.926390e+00    2.610608e+00
  9.958141e+00    2.697691e+00
  9.989892e+00    2.636690e+00
  1.002164e+01    2.596426e+00
  1.005339e+01    2.642774e+00
  1.008515e+01    2.617751e+00
  1.011690e+01    2.648007e+00
  1.014865e+01    2.637447e+00
  1.018040e+01    2.578500e+00
  1.021215e+01    2.603327e+00
  1.024390e+01    2.580495e+00
  1.027565e+01    2.625744e+00
  1.030740e+01    2.576070e+00
  1.033915e+01    2.607441e+00
  1.037091e+01    2.584379e+00
  1.040266e+01    2.599331e+00
  1.043441e+01    2.583782e+00
  1.046616e+01    2.560154e+00
  1.049791e+01    2.548865e+00
  1.052966e+01    2.563066e+00
  1.056141e+01    2.573371e+00
  1.059316e+01    2.560722e+00
  1.062492e+01    2.584491e+00
  1.065667e+01    2.538052e+00
  1.068842e+01    2.548071e+00
  1.072017e+01    2.531466e+00
  1.075192e+01    2.509243e+00
  1.078367e+01    2.553272e+00
  1.081542e+01    2.527373e+00
  1.084717e+01    2.516799e+00
  1.087892e+01    2.487438e+00
  1.091068e+01    2.544904e+00
  1.094243e+01    2.515491e+00
  1.097418e+01    2.500844e+00
  1.100593e+01    2.459931e+00
  1.103768e+01    2.427395e+00
  1.106943e+01    2.472924e+00
  1.110118e+01    2.444936e+00
  1.113293e+01    2.447368e+00
  1.116468e+01    2.419509e+00
  1.119644e+01    2.409271e+00
  1.122819e+01    2.378937e+00
  1.125994e+01    2.414183e+00
  1.129169e+01    2.407983e+00
  1.132344e+01    2.410467e+00
  1.135519e+01    2.383705e+00
  1.138694e+01    2.397179e+00
  1.141869e+01    2.394983e+00
  1.145045e+01    2.380837e+00
  1.148220e+01    2.406722e+00
  1.151395e+01    2.368209e+00
  1.154570e+01    2.371661e+00
  1.157745e+01    2.346243e+00
  1.160920e+01    2.354016e+00
  1.164095e+01    2.344353e+00
  1.167270e+01    2.321006e+00
  1.170445e+01    2.323388e+00
  1.173621e+01    2.369237e+00
  1.176796e+01    2.307748e+00
  1.179971e+01    2.336628e+00
  1.183146e+01    2.327463e+00
  1.186321e+01    2.240089e+00
  1.189496e+01    2.352199e+00
  1.192671e+01    2.317146e+00
  1.195846e+01    2.362434e+00
  1.199021e+01    2.272865e+00
  1.202197e+01    2.266549e+00
  1.205372e+01    2.325147e+00
  1.208547e+01    2.310239e+00
  1.211722e+01    2.336959e+00
  1.214897e+01    2.266513e+00
  1.218072e+01    2.326407e+00
  1.221247e+01    2.300309e+00
  1.224422e+01    2.313542e+00
  1.227597e+01    2.283012e+00
  1.230773e+01    2.287019e+00
  1.233948e+01    2.320702e+00
  1.237123e+01    2.312202e+00
  1.240298e+01    2.371556e+00
  1.243473e+01    2.290742e+00
  1.246648e+01    2.305760e+00
  1.249823e+01    2.300307e+00
  1.252998e+01    2.304230e+00
  1.256174e+01    2.306976e+00
  1.259349e+01    2.346767e+00
  1.262524e+01    2.367071e+00
  1.265699e+01    2.401769e+00
  1.268874e+01    2.404899e+00
  1.272049e+01    2.553107e+00
  1.275224e+01    2.530340e+00
  1.278399e+01    2.590240e+00
  1.281574e+01    2.675144e+00
  1.284750e+01    2.808585e+00
  1.287925e+01    3.012321e+00
  1.291100e+01    3.242153e+00
  1.294275e+01    3.684925e+00
  1.297450e+01    4.307139e+00
  1.300625e+01    5.234971e+00
  1.303800e+01    6.939485e+00
  1.306975e+01    9.269556e+00
  1.310150e+01    1.208118e+01
  1.313326e+01    1.479350e+01
  1.316501e+01    1.723641e+01
  1.319676e+01    1.806225e+01
  1.322851e+01    1.553079e+01
  1.326026e+01    1.129436e+01
  1.329201e+01    8.044113e+00
  1.332376e+01    6.034119e+00
  1.335551e+01    4.623883e+00
  1.338727e+01    3.896330e+00
  1.341902e+01    3.375098e+00
  1.345077e+01    3.100398e+00
  1.348252e+01    2.841001e+00
  1.351427e+01    2.705571e+00
  1.354602e+01    2.561608e+00
  1.357777e+01    2.468203e+00
  1.360952e+01    2.362903e+00
  1.364127e+01    2.338338e+00
  1.367303e+01    2.267612e+00
  1.370478e+01    2.203966e+00
  1.373653e+01    2.214004e+00
  1.376828e+01    2.201933e+00
  1.380003e+01    2.155711e+00
  1.383178e+01    2.164336e+00
  1.386353e+01    2.069833e+00
  1.389528e+01    2.110842e+00
  1.392703e+01    2.099285e+00
  1.395879e+01    2.135633e+00
  1.399054e+01    2.032991e+00
  1.402229e+01    2.035916e+00
  1.405404e+01    2.007878e+00
  1.408579e+01    2.007711e+00
  1.411754e+01    2.012363e+00
  1.414929e+01    1.972798e+00
  1.418104e+01    2.044078e+00
  1.421279e+01    1.965253e+00
  1.424455e+01    1.956387e+00
  1.427630e+01    1.938684e+00
  1.430805e+01    1.956943e+00
  1.433980e+01    1.914216e+00
  1.437155e+01    1.888772e+00
  1.440330e+01    1.909107e+00
  1.443505e+01    1.907444e+00
  1.446680e+01    1.914278e+00
  1.449856e+01    1.922808e+00
  1.453031e+01    1.893353e+00
  1.456206e+01    1.874131e+00
  1.459381e+01    1.890498e+00
  1.462556e+01    1.884361e+00
  1.465731e+01    1.928157e+00
  1.468906e+01    1.873254e+00
  1.472081e+01    1.916814e+00
  1.475256e+01    1.894075e+00
  1.478432e+01    1.894262e+00
  1.481607e+01    1.878863e+00
  1.484782e+01    1.891556e+00
  1.487957e+01    1.917077e+00
  1.491132e+01    1.948975e+00
  1.494307e+01    1.943818e+00
  1.497482e+01    2.067786e+00
  1.500657e+01    2.163110e+00
  1.503832e+01    2.279516e+00
  1.507008e+01    2.460071e+00
  1.510183e+01    2.799039e+00
  1.513358e+01    3.379358e+00
  1.516533e+01    4.099248e+00
  1.519708e+01    4.801882e+00
  1.522883e+01    5.559939e+00
  1.526058e+01    5.952878e+00
  1.529233e+01    5.988816e+00
  1.532409e+01    5.394970e+00
  1.535584e+01    4.202573e+00
  1.538759e+01    3.296134e+00
  1.541934e+01    2.788195e+00
  1.545109e+01    2.408890e+00
  1.548284e+01    2.203443e+00
  1.551459e+01    2.048859e+00
  1.554634e+01    1.967434e+00
  1.557809e+01    1.900493e+00
  1.560985e+01    1.849928e+00
  1.564160e+01    1.776612e+00
  1.567335e+01    1.724131e+00
  1.570510e+01    1.704064e+00
  1.573685e+01    1.722435e+00
  1.576860e+01    1.666442e+00
  1.580035e+01    1.678136e+00
  1.583210e+01    1.639168e+00
  1.586385e+01    1.618973e+00
  1.589561e+01    1.621769e+00
  1.592736e+01    1.616201e+00
  1.595911e+01    1.591185e+00
  1.599086e+01    1.598504e+00
  1.602261e+01    1.616918e+00
  1.605436e+01    1.612033e+00
  1.608611e+01    1.555836e+00
  1.611786e+01    1.593502e+00
  1.614961e+01    1.553397e+00
  1.618137e+01    1.543163e+00
  1.621312e+01    1.588762e+00
  1.624487e+01    1.545067e+00
  1.627662e+01    1.509547e+00
  1.630837e+01    1.532421e+00
  1.634012e+01    1.518869e+00
  1.637187e+01    1.503441e+00
  1.640362e+01    1.527555e+00
  1.643538e+01    1.492215e+00
  1.646713e+01    1.478935e+00
  1.649888e+01    1.535223e+00
  1.653063e+01    1.480319e+00
  1.656238e+01    1.496003e+00
  1.659413e+01    1.458996e+00
  1.662588e+01    1.435822e+00
  1.665763e+01    1.462199e+00
  1.668938e+01    1.444784e+00
  1.672114e+01    1.466787e+00
  1.675289e+01    1.461530e+00
  1.678464e+01    1.475326e+00
  1.681639e+01    1.415715e+00
  1.684814e+01    1.466344e+00
  1.687989e+01    1.447673e+00
  1.691164e+01    1.436091e+00
  1.694339e+01    1.447713e+00
  1.697514e+01    1.433730e+00
  1.700690e+01    1.422701e+00
  1.703865e+01    1.451799e+00
  1.707040e+01    1.414919e+00
  1.710215e+01    1.432936e+00
  1.713390e+01    1.381637e+00
  1.716565e+01    1.398092e+00
  1.719740e+01    1.412932e+00
  1.722915e+01    1.386448e+00
  1.726091e+01    1.387761e+00
  1.729266e+01    1.362804e+00
  1.732441e+01    1.359202e+00
  1.735616e+01    1.353869e+00
  1.738791e+01    1.360401e+00
  1.741966e+01    1.401887e+00
  1.745141e+01    1.360108e+00
  1.748316e+01    1.342822e+00
  1.751491e+01    1.333330e+00
  1.754667e+01    1.341467e+00
  1.757842e+01    1.330894e+00
  1.761017e+01    1.320387e+00
  1.764192e+01    1.344653e+00
  1.767367e+01    1.340160e+00
  1.770542e+01    1.305443e+00
  1.773717e+01    1.299143e+00
  1.776892e+01    1.312524e+00
  1.780067e+01    1.300585e+00
  1.783243e+01    1.322668e+00
  1.786418e+01    1.314449e+00
  1.789593e+01    1.322524e+00
  1.792768e+01    1.314498e+00
  1.795943e+01    1.322588e+00
  1.799118e+01    1.279749e+00
  1.802293e+01    1.290464e+00
  1.805468e+01    1.296224e+00
  1.808643e+01    1.288137e+00
  1.811819e+01    1.286602e+00
  1.814994e+01    1.299831e+00
  1.818169e+01    1.259795e+00
  1.821344e+01    1.262149e+00
  1.824519e+01    1.267737e+00
  1.827694e+01    1.247661e+00
  1.830869e+01    1.263391e+00
  1.834044e+01    1.258306e+00
  1.837220e+01    1.262704e+00
  1.840395e+01    1.238832e+00
  1.843570e+01    1.234089e+00
  1.846745e+01    1.255385e+00
  1.849920e+01    1.268363e+00
  1.853095e+01    1.234531e+00
  1.856270e+01    1.225138e+00
  1.859445e+01    1.251717e+00
  1.862620e+01    1.231765e+00
  1.865796e+01    1.224130e+00
  1.868971e+01    1.224393e+00
  1.872146e+01    1.204502e+00
  1.875321e+01    1.223779e+00
  1.878496e+01    1.199340e+00
  1.881671e+01    1.192683e+00
  1.884846e+01    1.203761e+00
  1.888021e+01    1.190373e+00
  1.891196e+01    1.185483e+00
  1.894372e+01    1.188716e+00
  1.897547e+01    1.163253e+00
  1.900722e+01    1.186048e+00
  1.903897e+01    1.197130e+00
  1.907072e+01    1.177019e+00
  1.910247e+01    1.180995e+00
  1.913422e+01    1.170347e+00
  1.916597e+01    1.172353e+00
  1.919773e+01    1.163660e+00
  1.922948e+01    1.167904e+00
  1.926123e+01    1.171560e+00
  1.929298e+01    1.166222e+00
  1.932473e+01    1.164809e+00
  1.935648e+01    1.173898e+00
  1.938823e+01    1.158053e+00
  1.941998e+01    1.161676e+00
  1.945173e+01    1.158857e+00
  1.948349e+01    1.165248e+00
  1.951524e+01    1.143863e+00
  1.954699e+01    1.164889e+00
  1.957874e+01    1.125578e+00
  1.961049e+01    1.128010e+00
  1.964224e+01    1.138535e+00
  1.967399e+01    1.114877e+00
  1.970574e+01    1.126474e+00
  1.973749e+01    1.126416e+00
  1.976925e+01    1.101656e+00
  1.980100e+01    1.133521e+00
  1.983275e+01    1.123678e+00
  1.986450e+01    1.118894e+00
  1.989625e+01    1.104955e+00
  1.992800e+01    1.117132e+00
  1.995975e+01    1.128101e+00
  1.999150e+01    1.127384e+00
  2.002325e+01    1.086521e+00
  2.005501e+01    1.110352e+00
  2.008676e+01    1.114814e+00
  2.011851e+01    1.107445e+00
  2.015026e+01    1.103019e+00
  2.018201e+01    1.113333e+00
  2.021376e+01    1.096679e+00
  2.024551e+01    1.085575e+00
  2.027726e+01    1.082283e+00
  2.030902e+01    1.116311e+00
  2.034077e+01    1.110823e+00
  2.037252e+01    1.095036e+00
  2.040427e+01    1.089861e+00
  2.043602e+01    1.074370e+00
  2.046777e+01    1.070316e+00
  2.049952e+01    1.086377e+00
  2.053127e+01    1.061736e+00
  2.056302e+01    1.071883e+00
  2.059478e+01    1.077912e+00
  2.062653e+01    1.067452e+00
  2.065828e+01    1.061088e+00
  2.069003e+01    1.074573e+00
  2.072178e+01    1.070694e+00
  2.075353e+01    1.060512e+00
  2.078528e+01    1.077954e+00
  2.081703e+01    1.056765e+00
  2.084878e+01    1.073881e+00
  2.088054e+01    1.080315e+00
  2.091229e+01    1.056552e+00
  2.094404e+01    1.078669e+00
  2.097579e+01    1.080890e+00
  2.100754e+01    1.057352e+00
  2.103929e+01    1.077575e+00
  2.107104e+01    1.064758e+00
  2.110279e+01    1.084295e+00
  2.113455e+01    1.083931e+00
  2.116630e+01    1.061568e+00
  2.119805e+01    1.091879e+00
  2.122980e+01    1.109576e+00
  2.126155e+01    1.116508e+00
  2.129330e+01    1.117205e+00
  2.132505e+01    1.139371e+00
  2.135680e+01    1.152355e+00
  2.138855e+01    1.167180e+00
  2.142031e+01    1.170672e+00
  2.145206e+01    1.197252e+00
  2.148381e+01    1.240341e+00
  2.151556e+01    1.290365e+00
  2.154731e+01    1.344138e+00
  2.157906e+01    1.446562e+00
  2.161081e+01    1.588121e+00
  2.164256e+01    1.756822e+00
  2.167431e+01    2.082397e+00
  2.170607e+01    2.410860e+00
  2.173782e+01    3.049064e+00
  2.176957e+01    3.947086e+00
  2.180132e+01    5.247615e+00
  2.183307e+01    6.724227e+00
  2.186482e+01    8.255997e+00
  2.189657e+01    9.629877e+00
  2.192832e+01    9.849579e+00
  2.196007e+01    8.502821e+00
  2.199183e+01    6.402843e+00
  2.202358e+01    4.533561e+00
  2.205533e+01    3.262870e+00
  2.208708e+01    2.638008e+00
  2.211883e+01    2.153759e+00
  2.215058e+01    1.871451e+00
  2.218233e+01    1.625074e+00
  2.221408e+01    1.462819e+00
  2.224584e+01    1.348439e+00
  2.227759e+01    1.279381e+00
  2.230934e+01    1.182966e+00
  2.234109e+01    1.156185e+00
  2.237284e+01    1.118713e+00
  2.240459e+01    1.084959e+00
  2.243634e+01    1.093906e+00
  2.246809e+01    1.061117e+00
  2.249984e+01    1.021510e+00
  2.253160e+01    1.006984e+00
  2.256335e+01    1.007287e+00
  2.259510e+01    9.992454e-01
  2.262685e+01    9.803025e-01
  2.265860e+01    9.696088e-01
  2.269035e+01    9.735532e-01
  2.272210e+01    9.261968e-01
  2.275385e+01    9.272730e-01
  2.278560e+01    9.229200e-01
  2.281736e+01    9.305788e-01
  2.284911e+01    8.999399e-01
  2.288086e+01    9.344214e-01
  2.291261e+01    9.127506e-01
  2.294436e+01    9.148763e-01
  2.297611e+01    8.825011e-01
  2.300786e+01    9.065700e-01
  2.303961e+01    8.926425e-01
  2.307137e+01    8.853871e-01
  2.310312e+01    8.750718e-01
  2.313487e+01    8.763413e-01
  2.316662e+01    8.796985e-01
  2.319837e+01    8.733457e-01
  2.323012e+01    8.660259e-01
  2.326187e+01    8.808377e-01
  2.329362e+01    8.617584e-01
  2.332537e+01    8.555481e-01
  2.335713e+01    8.588258e-01
  2.338888e+01    8.660318e-01
  2.342063e+01    8.667850e-01
  2.345238e+01    8.499670e-01
  2.348413e+01    8.175930e-01
  2.351588e+01    8.403810e-01
  2.354763e+01    8.318874e-01
  2.357938e+01    8.293654e-01
  2.361113e+01    8.388174e-01
  2.364289e+01    8.192382e-01
  2.367464e+01    8.206709e-01
  2.370639e+01    8.119015e-01
  2.373814e+01    8.084017e-01
  2.376989e+01    7.766793e-01
  2.380164e+01    8.060194e-01
  2.383339e+01    8.106251e-01
  2.386514e+01    8.086082e-01
  2.389689e+01    8.031414e-01
  2.392865e+01    7.873260e-01
  2.396040e+01    8.131418e-01
  2.399215e+01    7.880728e-01
  2.402390e+01    8.210497e-01
  2.405565e+01    7.854897e-01
  2.408740e+01    7.949775e-01
  2.411915e+01    7.682303e-01
  2.415090e+01    7.685790e-01
  2.418266e+01    7.541770e-01
  2.421441e+01    7.559351e-01
  2.424616e+01    7.809500e-01
  2.427791e+01    7.879991e-01
  2.430966e+01    8.001106e-01
  2.434141e+01    7.856618e-01
  2.437316e+01    7.863961e-01
  2.440491e+01    7.882606e-01
  2.443666e+01    7.814686e-01
  2.446842e+01    7.838492e-01
  2.450017e+01    7.928801e-01
  2.453192e+01    7.892805e-01
  2.456367e+01    7.786471e-01
  2.459542e+01    7.807738e-01
  2.462717e+01    8.107594e-01
  2.465892e+01    7.777607e-01
  2.469067e+01    7.989903e-01
  2.472242e+01    7.939127e-01
  2.475418e+01    7.845129e-01
  2.478593e+01    7.665223e-01
  2.481768e+01    7.741228e-01
  2.484943e+01    7.766352e-01
  2.488118e+01    7.895603e-01
  2.491293e+01    7.830324e-01
  2.494468e+01    7.854041e-01
  2.497643e+01    8.070556e-01
  2.500819e+01    7.844697e-01
  2.503994e+01    7.919851e-01
  2.507169e+01    8.087854e-01
  2.510344e+01    7.943181e-01
  2.513519e+01    7.956304e-01
  2.516694e+01    8.174825e-01
  2.519869e+01    8.426449e-01
  2.523044e+01    8.619637e-01
  2.526219e+01    8.599764e-01
  2.529395e+01    8.599684e-01
  2.532570e+01    8.491924e-01
  2.535745e+01    8.789310e-01
  2.538920e+01    8.994945e-01
  2.542095e+01    9.133009e-01
  2.545270e+01    9.315723e-01
  2.548445e+01    9.624103e-01
  2.551620e+01    9.963048e-01
  2.554795e+01    1.002887e+00
  2.557971e+01    1.056853e+00
  2.561146e+01    1.100740e+00
  2.564321e+01    1.188827e+00
  2.567496e+01    1.274537e+00
  2.570671e+01    1.447110e+00
  2.573846e+01    1.646302e+00
  2.577021e+01    1.951861e+00
  2.580196e+01    2.412533e+00
  2.583371e+01    3.116531e+00
  2.586547e+01    4.093088e+00
  2.589722e+01    5.345157e+00
  2.592897e+01    6.745376e+00
  2.596072e+01    7.883121e+00
  2.599247e+01    8.271800e+00
  2.602422e+01    7.205163e+00
  2.605597e+01    5.636854e+00
  2.608772e+01    4.107625e+00
  2.611948e+01    3.051280e+00
  2.615123e+01    2.376040e+00
  2.618298e+01    1.927986e+00
  2.621473e+01    1.653542e+00
  2.624648e+01    1.462528e+00
  2.627823e+01    1.295915e+00
  2.630998e+01    1.189070e+00
  2.634173e+01    1.107808e+00
  2.637348e+01    1.082474e+00
  2.640524e+01    1.021020e+00
  2.643699e+01    9.793733e-01
  2.646874e+01    9.920233e-01
  2.650049e+01    9.566597e-01
  2.653224e+01    9.413678e-01
  2.656399e+01    9.382663e-01
  2.659574e+01    9.305518e-01
  2.662749e+01    9.175409e-01
  2.665924e+01    8.887938e-01
  2.669100e+01    9.027961e-01
  2.672275e+01    8.767933e-01
  2.675450e+01    8.927739e-01
  2.678625e+01    9.062368e-01
  2.681800e+01    8.933219e-01
  2.684975e+01    9.187140e-01
  2.688150e+01    9.013379e-01
  2.691325e+01    9.115632e-01
  2.694501e+01    9.628489e-01
  2.697676e+01    9.825243e-01
  2.700851e+01    9.970940e-01
  2.704026e+01    1.085541e+00
  2.707201e+01    1.187343e+00
  2.710376e+01    1.331528e+00
  2.713551e+01    1.532241e+00
  2.716726e+01    1.819961e+00
  2.719901e+01    2.165443e+00
  2.723077e+01    2.395863e+00
  2.726252e+01    2.333704e+00
  2.729427e+01    2.073410e+00
  2.732602e+01    1.738198e+00
  2.735777e+01    1.459820e+00
  2.738952e+01    1.245175e+00
  2.742127e+01    1.117457e+00
  2.745302e+01    1.023353e+00
  2.748477e+01    9.792576e-01
  2.751653e+01    9.291819e-01
  2.754828e+01    9.024512e-01
  2.758003e+01    8.690485e-01
  2.761178e+01    8.725275e-01
  2.764353e+01    8.421808e-01
  2.767528e+01    8.458744e-01
  2.770703e+01    8.157553e-01
  2.773878e+01    7.987579e-01
  2.777054e+01    8.168756e-01
  2.780229e+01    8.296968e-01
  2.783404e+01    7.926756e-01
  2.786579e+01    8.195196e-01
  2.789754e+01    8.034202e-01
  2.792929e+01    7.791807e-01
  2.796104e+01    7.839421e-01
  2.799279e+01    7.854491e-01
  2.802454e+01    7.964064e-01
  2.805630e+01    7.636873e-01
  2.808805e+01    7.965306e-01
  2.811980e+01    7.762809e-01
  2.815155e+01    7.650734e-01
  2.818330e+01    7.560197e-01
  2.821505e+01    7.664252e-01
  2.824680e+01    7.790142e-01
  2.827855e+01    7.516744e-01
  2.831030e+01    7.711402e-01
  2.834206e+01    7.857543e-01
  2.837381e+01    7.942767e-01
  2.840556e+01    7.468722e-01
  2.843731e+01    7.459538e-01
  2.846906e+01    7.476758e-01
  2.850081e+01    7.621382e-01
  2.853256e+01    7.571509e-01
  2.856431e+01    7.464265e-01
  2.859606e+01    7.378783e-01
  2.862782e+01    7.606808e-01
  2.865957e+01    7.653980e-01
  2.869132e+01    7.457013e-01
  2.872307e+01    7.494345e-01
  2.875482e+01    7.474287e-01
  2.878657e+01    7.128091e-01
  2.881832e+01    7.188563e-01
  2.885007e+01    7.417990e-01
  2.888183e+01    7.524909e-01
  2.891358e+01    7.099130e-01
  2.894533e+01    7.295259e-01
  2.897708e+01    7.272633e-01
  2.900883e+01    7.503470e-01
  2.904058e+01    7.155473e-01
  2.907233e+01    7.275752e-01
  2.910408e+01    7.307847e-01
  2.913583e+01    7.198483e-01
  2.916759e+01    7.046888e-01
  2.919934e+01    7.205133e-01
  2.923109e+01    7.079007e-01
  2.926284e+01    7.346108e-01
  2.929459e+01    7.361550e-01
  2.932634e+01    7.391260e-01
  2.935809e+01    7.224722e-01
  2.938984e+01    7.270159e-01
  2.942159e+01    7.281813e-01
  2.945335e+01    7.209595e-01
  2.948510e+01    7.018872e-01
  2.951685e+01    7.230300e-01
  2.954860e+01    7.245191e-01
  2.958035e+01    7.156021e-01
  2.961210e+01    7.304175e-01
  2.964385e+01    7.288145e-01
  2.967560e+01    7.306611e-01
  2.970736e+01    7.109300e-01
  2.973911e+01    7.147574e-01
  2.977086e+01    7.134640e-01
  2.980261e+01    6.866179e-01
  2.983436e+01    6.955338e-01
  2.986611e+01    7.042782e-01
  2.989786e+01    7.098100e-01
  2.992961e+01    7.124225e-01
  2.996136e+01    7.034267e-01
  2.999312e+01    7.165343e-01
  3.002487e+01    7.348613e-01
  3.005662e+01    7.395898e-01
  3.008837e+01    7.367020e-01
  3.012012e+01    7.212675e-01
  3.015187e+01    7.129750e-01
  3.018362e+01    7.252355e-01
  3.021537e+01    7.111899e-01
  3.024712e+01    6.970844e-01
  3.027888e+01    7.089845e-01
  3.031063e+01    7.228131e-01
  3.034238e+01    7.292838e-01
  3.037413e+01    6.950453e-01
  3.040588e+01    7.181662e-01
  3.043763e+01    7.311796e-01
  3.046938e+01    7.233380e-01
  3.050113e+01    7.223222e-01
  3.053288e+01    6.877634e-01
  3.056464e+01    7.210244e-01
  3.059639e+01    7.074192e-01
  3.062814e+01    7.037722e-01
  3.065989e+01    7.010422e-01
  3.069164e+01    6.795005e-01
  3.072339e+01    7.003486e-01
  3.075514e+01    7.255596e-01
  3.078689e+01    7.086775e-01
  3.081865e+01    7.274913e-01
  3.085040e+01    7.156196e-01
  3.088215e+01    7.105709e-01
  3.091390e+01    7.181630e-01
  3.094565e+01    7.191355e-01
  3.097740e+01    7.196449e-01
  3.100915e+01    7.179288e-01
  3.104090e+01    7.132909e-01
  3.107265e+01    7.046573e-01
  3.110441e+01    7.004759e-01
  3.113616e+01    7.111019e-01
  3.116791e+01    7.135220e-01
  3.119966e+01    7.075951e-01
  3.123141e+01    7.216794e-01
  3.126316e+01    7.193035e-01
  3.129491e+01    7.343184e-01
  3.132666e+01    7.234164e-01
  3.135841e+01    7.369161e-01
  3.139017e+01    7.249606e-01
  3.142192e+01    7.394069e-01
  3.145367e+01    7.515424e-01
  3.148542e+01    7.642517e-01
  3.151717e+01    7.602030e-01
  3.154892e+01    7.795392e-01
  3.158067e+01    7.861360e-01
  3.161242e+01    8.200025e-01
  3.164418e+01    8.367959e-01
  3.167593e+01    8.628448e-01
  3.170768e+01    9.595369e-01
  3.173943e+01    1.020491e+00
  3.177118e+01    1.125906e+00
  3.180293e+01    1.292769e+00
  3.183468e+01    1.524640e+00
  3.186643e+01    1.824558e+00
  3.189818e+01    2.199208e+00
  3.192994e+01    2.375519e+00
  3.196169e+01    2.283150e+00
  3.199344e+01    2.033370e+00
  3.202519e+01    1.617515e+00
  3.205694e+01    1.386857e+00
  3.208869e+01    1.134580e+00
  3.212044e+01    1.038075e+00
  3.215219e+01    9.137623e-01
  3.218394e+01    8.904114e-01
  3.221570e+01    8.059199e-01
  3.224745e+01    7.886826e-01
  3.227920e+01    7.853089e-01
  3.231095e+01    7.570510e-01
  3.234270e+01    7.364679e-01
  3.237445e+01    7.462211e-01
  3.240620e+01    7.256420e-01
  3.243795e+01    7.122721e-01
  3.246970e+01    7.359486e-01
  3.250146e+01    7.206832e-01
  3.253321e+01    7.268128e-01
  3.254908e+01    7.338158e-01