File: XRD/2024-07-27_002_Ru-CGO-ex_Activtation_ramp_000002_data_000080.dat
# == pyFAI calibration ==
# Distance Sample to Detector: 0.4 m
# PONI: 9.750e-02, 1.135e-01 m
# Rotations: -0.000175 0.000000 -0.000000 rad
#
# == Fit2d calibration ==
# Distance Sample-beamCenter: 400.000 mm
# Center: x=1514.000, y=1300.000 pix
# Tilt: 0.010 deg  TiltPlanRot: 0.010 deg
#
# Detector Detector	 Spline= None	 PixelSize= 7.500e-05, 7.500e-05 m
#    Detector has a mask: False
#    Detector has a dark current: False
#    detector has a flat field: False
#
# Wavelength: 6.888e-11 m
# Mask applied: user provided
# Dark current applied: False
# Flat field applied: False
# Polarization factor: 0.99
# Normalization factor: 1.0
# --> /home/myspot/data/2024_07_Rosario/Ru-CGO-ex/2024-07-27_002_Ru-CGO-ex_Activtation_ramp_000002_data_000080.dat
#       q_nm^-1             I
  2.003187e-02    0.000000e+00
  5.178302e-02    9.434488e-02
  8.353417e-02    2.000445e-01
  1.152853e-01    1.667184e-02
  1.470365e-01    6.784867e-02
  1.787876e-01    5.714611e-03
  2.105388e-01    0.000000e+00
  2.422899e-01    2.554595e-02
  2.740411e-01    1.070105e-02
  3.057922e-01    2.493653e-02
  3.375433e-01    2.200236e-02
  3.692945e-01    3.892761e-02
  4.010456e-01    2.877706e-02
  4.327968e-01    4.991255e-02
  4.645479e-01    2.771074e-02
  4.962991e-01    3.084948e-02
  5.280502e-01    3.164368e-02
  5.598014e-01    1.993216e-02
  5.915525e-01    4.230500e-02
  6.233037e-01    4.951267e-02
  6.550548e-01    4.719707e-02
  6.868060e-01    3.336330e-02
  7.185571e-01    2.305441e-02
  7.503083e-01    1.368617e-02
  7.820594e-01    1.345841e-01
  8.138106e-01    2.225155e-01
  8.455617e-01    3.361500e-01
  8.773129e-01    3.574804e-01
  9.090640e-01    5.045388e-01
  9.408152e-01    7.442929e-01
  9.725663e-01    8.657029e-01
  1.004317e+00    1.023850e+00
  1.036069e+00    1.151553e+00
  1.067820e+00    1.345658e+00
  1.099571e+00    1.316955e+00
  1.131322e+00    1.440249e+00
  1.163073e+00    1.434976e+00
  1.194824e+00    1.667448e+00
  1.226575e+00    2.184911e+00
  1.258327e+00    2.221736e+00
  1.290078e+00    2.585056e+00
  1.321829e+00    2.433232e+00
  1.353580e+00    2.561840e+00
  1.385331e+00    2.567989e+00
  1.417082e+00    2.598022e+00
  1.448834e+00    2.663035e+00
  1.480585e+00    2.880787e+00
  1.512336e+00    2.878839e+00
  1.544087e+00    2.857120e+00
  1.575838e+00    2.969409e+00
  1.607589e+00    3.025664e+00
  1.639340e+00    2.840909e+00
  1.671092e+00    2.814540e+00
  1.702843e+00    2.798428e+00
  1.734594e+00    2.817866e+00
  1.766345e+00    2.832960e+00
  1.798096e+00    2.805097e+00
  1.829847e+00    2.750559e+00
  1.861598e+00    2.769397e+00
  1.893350e+00    2.781196e+00
  1.925101e+00    2.718390e+00
  1.956852e+00    2.718094e+00
  1.988603e+00    2.714806e+00
  2.020354e+00    2.701382e+00
  2.052105e+00    2.685987e+00
  2.083856e+00    2.607833e+00
  2.115608e+00    2.821191e+00
  2.147359e+00    2.611323e+00
  2.179110e+00    2.814428e+00
  2.210861e+00    2.730294e+00
  2.242612e+00    2.758897e+00
  2.274363e+00    2.717772e+00
  2.306115e+00    2.655243e+00
  2.337866e+00    2.808824e+00
  2.369617e+00    2.793153e+00
  2.401368e+00    2.756850e+00
  2.433119e+00    2.659531e+00
  2.464870e+00    2.791783e+00
  2.496621e+00    2.731826e+00
  2.528373e+00    2.696047e+00
  2.560124e+00    2.754050e+00
  2.591875e+00    2.826268e+00
  2.623626e+00    2.729279e+00
  2.655377e+00    2.873594e+00
  2.687128e+00    2.784387e+00
  2.718879e+00    2.882612e+00
  2.750631e+00    2.925821e+00
  2.782382e+00    2.838130e+00
  2.814133e+00    3.029902e+00
  2.845884e+00    2.771135e+00
  2.877635e+00    2.813471e+00
  2.909386e+00    2.856387e+00
  2.941137e+00    2.910892e+00
  2.972889e+00    2.874970e+00
  3.004640e+00    2.807079e+00
  3.036391e+00    2.806397e+00
  3.068142e+00    2.942874e+00
  3.099893e+00    2.849650e+00
  3.131644e+00    2.855157e+00
  3.163395e+00    3.015990e+00
  3.195147e+00    2.875615e+00
  3.226898e+00    2.844764e+00
  3.258649e+00    2.916687e+00
  3.290400e+00    2.951911e+00
  3.322151e+00    2.947470e+00
  3.353902e+00    2.923966e+00
  3.385654e+00    2.941941e+00
  3.417405e+00    2.972212e+00
  3.449156e+00    2.958132e+00
  3.480907e+00    2.967968e+00
  3.512658e+00    2.839636e+00
  3.544409e+00    2.927834e+00
  3.576160e+00    2.926876e+00
  3.607912e+00    2.915618e+00
  3.639663e+00    2.954288e+00
  3.671414e+00    3.011317e+00
  3.703165e+00    2.979141e+00
  3.734916e+00    2.936995e+00
  3.766667e+00    2.995731e+00
  3.798418e+00    2.972826e+00
  3.830170e+00    3.003710e+00
  3.861921e+00    3.007250e+00
  3.893672e+00    2.939931e+00
  3.925423e+00    2.980944e+00
  3.957174e+00    2.976940e+00
  3.988925e+00    2.993291e+00
  4.020676e+00    3.058467e+00
  4.052428e+00    3.063509e+00
  4.084179e+00    2.948923e+00
  4.115930e+00    2.944481e+00
  4.147681e+00    2.954973e+00
  4.179432e+00    3.001866e+00
  4.211183e+00    3.047805e+00
  4.242935e+00    2.964079e+00
  4.274686e+00    3.026085e+00
  4.306437e+00    3.050485e+00
  4.338188e+00    2.987206e+00
  4.369939e+00    2.927406e+00
  4.401690e+00    3.101729e+00
  4.433441e+00    3.062818e+00
  4.465193e+00    2.990463e+00
  4.496944e+00    3.024491e+00
  4.528695e+00    3.004697e+00
  4.560446e+00    3.020169e+00
  4.592197e+00    3.124856e+00
  4.623948e+00    3.087920e+00
  4.655699e+00    3.011481e+00
  4.687451e+00    3.048117e+00
  4.719202e+00    3.104097e+00
  4.750953e+00    3.044999e+00
  4.782704e+00    3.035063e+00
  4.814455e+00    3.134014e+00
  4.846206e+00    3.161163e+00
  4.877957e+00    3.007395e+00
  4.909709e+00    3.103627e+00
  4.941460e+00    3.034284e+00
  4.973211e+00    3.054477e+00
  5.004962e+00    3.060279e+00
  5.036713e+00    3.079500e+00
  5.068464e+00    3.144408e+00
  5.100216e+00    3.008289e+00
  5.131967e+00    3.135906e+00
  5.163718e+00    3.086777e+00
  5.195469e+00    3.035435e+00
  5.227220e+00    3.180630e+00
  5.258971e+00    3.141809e+00
  5.290722e+00    3.145277e+00
  5.322474e+00    3.170935e+00
  5.354225e+00    3.117172e+00
  5.385976e+00    3.066084e+00
  5.417727e+00    3.106375e+00
  5.449478e+00    3.059343e+00
  5.481229e+00    3.059082e+00
  5.512980e+00    3.081092e+00
  5.544732e+00    3.032912e+00
  5.576483e+00    3.017581e+00
  5.608234e+00    3.038063e+00
  5.639985e+00    3.103951e+00
  5.671736e+00    3.129784e+00
  5.703487e+00    3.037015e+00
  5.735238e+00    3.041497e+00
  5.766990e+00    2.974432e+00
  5.798741e+00    3.035507e+00
  5.830492e+00    2.988067e+00
  5.862243e+00    3.057133e+00
  5.893994e+00    3.025763e+00
  5.925745e+00    3.012303e+00
  5.957497e+00    2.931918e+00
  5.989248e+00    3.014817e+00
  6.020999e+00    2.950446e+00
  6.052750e+00    3.086542e+00
  6.084501e+00    3.050338e+00
  6.116252e+00    2.982717e+00
  6.148003e+00    3.100557e+00
  6.179755e+00    3.089539e+00
  6.211506e+00    3.034181e+00
  6.243257e+00    3.000046e+00
  6.275008e+00    2.962589e+00
  6.306759e+00    3.011710e+00
  6.338510e+00    2.961672e+00
  6.370261e+00    3.020488e+00
  6.402013e+00    3.038458e+00
  6.433764e+00    3.015958e+00
  6.465515e+00    3.055575e+00
  6.497266e+00    3.002271e+00
  6.529017e+00    3.021736e+00
  6.560768e+00    2.951504e+00
  6.592519e+00    3.023901e+00
  6.624271e+00    3.094322e+00
  6.656022e+00    3.022462e+00
  6.687773e+00    3.037566e+00
  6.719524e+00    2.934373e+00
  6.751275e+00    3.044353e+00
  6.783026e+00    3.014090e+00
  6.814777e+00    3.035087e+00
  6.846529e+00    3.032065e+00
  6.878280e+00    2.930796e+00
  6.910031e+00    2.984103e+00
  6.941782e+00    2.993105e+00
  6.973533e+00    2.984652e+00
  7.005284e+00    2.988766e+00
  7.037036e+00    2.951181e+00
  7.068787e+00    3.019252e+00
  7.100538e+00    2.989897e+00
  7.132289e+00    3.009125e+00
  7.164040e+00    2.947922e+00
  7.195791e+00    2.895614e+00
  7.227542e+00    2.943125e+00
  7.259294e+00    2.912568e+00
  7.291045e+00    2.995552e+00
  7.322796e+00    2.950876e+00
  7.354547e+00    2.952412e+00
  7.386298e+00    2.966307e+00
  7.418049e+00    2.952559e+00
  7.449800e+00    2.904593e+00
  7.481552e+00    2.994304e+00
  7.513303e+00    2.931155e+00
  7.545054e+00    2.951887e+00
  7.576805e+00    2.915092e+00
  7.608556e+00    2.939212e+00
  7.640307e+00    2.932511e+00
  7.672058e+00    2.903438e+00
  7.703810e+00    2.959240e+00
  7.735561e+00    2.938889e+00
  7.767312e+00    2.936007e+00
  7.799063e+00    2.885750e+00
  7.830814e+00    2.898559e+00
  7.862565e+00    2.897292e+00
  7.894317e+00    2.936470e+00
  7.926068e+00    2.933241e+00
  7.957819e+00    2.884903e+00
  7.989570e+00    2.954012e+00
  8.021321e+00    2.900053e+00
  8.053072e+00    2.877131e+00
  8.084823e+00    2.908929e+00
  8.116575e+00    2.917730e+00
  8.148326e+00    2.930874e+00
  8.180077e+00    2.959022e+00
  8.211828e+00    2.949864e+00
  8.243579e+00    3.035607e+00
  8.275330e+00    2.918496e+00
  8.307081e+00    2.842285e+00
  8.338833e+00    2.872976e+00
  8.370584e+00    2.851523e+00
  8.402335e+00    2.838195e+00
  8.434086e+00    2.886936e+00
  8.465837e+00    2.882287e+00
  8.497588e+00    2.858521e+00
  8.529339e+00    2.912740e+00
  8.561091e+00    2.848177e+00
  8.592842e+00    2.875831e+00
  8.624593e+00    2.779551e+00
  8.656344e+00    2.882364e+00
  8.688095e+00    2.874400e+00
  8.719846e+00    2.831104e+00
  8.751598e+00    2.840163e+00
  8.783349e+00    2.848917e+00
  8.815100e+00    2.799576e+00
  8.846851e+00    2.819187e+00
  8.878602e+00    2.813692e+00
  8.910353e+00    2.810429e+00
  8.942104e+00    2.787037e+00
  8.973856e+00    2.792826e+00
  9.005607e+00    2.777423e+00
  9.037358e+00    2.810461e+00
  9.069109e+00    2.795882e+00
  9.100860e+00    2.793509e+00
  9.132611e+00    2.776589e+00
  9.164362e+00    2.771988e+00
  9.196114e+00    2.754686e+00
  9.227865e+00    2.704175e+00
  9.259616e+00    2.773174e+00
  9.291367e+00    2.765256e+00
  9.323118e+00    2.757817e+00
  9.354869e+00    2.768046e+00
  9.386620e+00    2.726284e+00
  9.418372e+00    2.748145e+00
  9.450123e+00    2.779932e+00
  9.481874e+00    2.719193e+00
  9.513625e+00    2.808132e+00
  9.545376e+00    2.662425e+00
  9.577127e+00    2.773909e+00
  9.608878e+00    2.776526e+00
  9.640630e+00    2.776374e+00
  9.672381e+00    2.722983e+00
  9.704132e+00    2.756848e+00
  9.735883e+00    2.736791e+00
  9.767634e+00    2.674203e+00
  9.799385e+00    2.692477e+00
  9.831137e+00    2.667196e+00
  9.862888e+00    2.686017e+00
  9.894639e+00    2.654178e+00
  9.926390e+00    2.727810e+00
  9.958141e+00    2.666646e+00
  9.989892e+00    2.691850e+00
  1.002164e+01    2.671333e+00
  1.005339e+01    2.663469e+00
  1.008515e+01    2.671369e+00
  1.011690e+01    2.546012e+00
  1.014865e+01    2.576588e+00
  1.018040e+01    2.634747e+00
  1.021215e+01    2.612601e+00
  1.024390e+01    2.652264e+00
  1.027565e+01    2.593986e+00
  1.030740e+01    2.588883e+00
  1.033915e+01    2.572337e+00
  1.037091e+01    2.587759e+00
  1.040266e+01    2.602925e+00
  1.043441e+01    2.610432e+00
  1.046616e+01    2.551398e+00
  1.049791e+01    2.540779e+00
  1.052966e+01    2.574283e+00
  1.056141e+01    2.564408e+00
  1.059316e+01    2.567101e+00
  1.062492e+01    2.524806e+00
  1.065667e+01    2.557335e+00
  1.068842e+01    2.529619e+00
  1.072017e+01    2.529197e+00
  1.075192e+01    2.506248e+00
  1.078367e+01    2.488125e+00
  1.081542e+01    2.511506e+00
  1.084717e+01    2.487292e+00
  1.087892e+01    2.485457e+00
  1.091068e+01    2.570454e+00
  1.094243e+01    2.503204e+00
  1.097418e+01    2.500100e+00
  1.100593e+01    2.446551e+00
  1.103768e+01    2.436752e+00
  1.106943e+01    2.469296e+00
  1.110118e+01    2.455751e+00
  1.113293e+01    2.411660e+00
  1.116468e+01    2.464918e+00
  1.119644e+01    2.408472e+00
  1.122819e+01    2.447986e+00
  1.125994e+01    2.429603e+00
  1.129169e+01    2.388696e+00
  1.132344e+01    2.463850e+00
  1.135519e+01    2.441202e+00
  1.138694e+01    2.406419e+00
  1.141869e+01    2.420283e+00
  1.145045e+01    2.377773e+00
  1.148220e+01    2.415614e+00
  1.151395e+01    2.336829e+00
  1.154570e+01    2.385758e+00
  1.157745e+01    2.394714e+00
  1.160920e+01    2.382251e+00
  1.164095e+01    2.418136e+00
  1.167270e+01    2.350792e+00
  1.170445e+01    2.363341e+00
  1.173621e+01    2.360514e+00
  1.176796e+01    2.306023e+00
  1.179971e+01    2.351513e+00
  1.183146e+01    2.338367e+00
  1.186321e+01    2.348244e+00
  1.189496e+01    2.315254e+00
  1.192671e+01    2.353888e+00
  1.195846e+01    2.328250e+00
  1.199021e+01    2.305373e+00
  1.202197e+01    2.359387e+00
  1.205372e+01    2.337391e+00
  1.208547e+01    2.270094e+00
  1.211722e+01    2.316783e+00
  1.214897e+01    2.294302e+00
  1.218072e+01    2.329317e+00
  1.221247e+01    2.317738e+00
  1.224422e+01    2.288622e+00
  1.227597e+01    2.317383e+00
  1.230773e+01    2.228783e+00
  1.233948e+01    2.305584e+00
  1.237123e+01    2.358452e+00
  1.240298e+01    2.361575e+00
  1.243473e+01    2.276738e+00
  1.246648e+01    2.325491e+00
  1.249823e+01    2.334275e+00
  1.252998e+01    2.329841e+00
  1.256174e+01    2.366289e+00
  1.259349e+01    2.384364e+00
  1.262524e+01    2.404105e+00
  1.265699e+01    2.429506e+00
  1.268874e+01    2.447702e+00
  1.272049e+01    2.479980e+00
  1.275224e+01    2.547035e+00
  1.278399e+01    2.564622e+00
  1.281574e+01    2.737211e+00
  1.284750e+01    2.818988e+00
  1.287925e+01    3.016815e+00
  1.291100e+01    3.257755e+00
  1.294275e+01    3.663345e+00
  1.297450e+01    4.304571e+00
  1.300625e+01    5.270535e+00
  1.303800e+01    6.864859e+00
  1.306975e+01    9.328352e+00
  1.310150e+01    1.213428e+01
  1.313326e+01    1.500544e+01
  1.316501e+01    1.726691e+01
  1.319676e+01    1.825898e+01
  1.322851e+01    1.591792e+01
  1.326026e+01    1.154691e+01
  1.329201e+01    8.218381e+00
  1.332376e+01    6.104438e+00
  1.335551e+01    4.803720e+00
  1.338727e+01    3.976862e+00
  1.341902e+01    3.428862e+00
  1.345077e+01    3.106219e+00
  1.348252e+01    2.915492e+00
  1.351427e+01    2.717237e+00
  1.354602e+01    2.584894e+00
  1.357777e+01    2.508210e+00
  1.360952e+01    2.377364e+00
  1.364127e+01    2.342449e+00
  1.367303e+01    2.327302e+00
  1.370478e+01    2.259856e+00
  1.373653e+01    2.191526e+00
  1.376828e+01    2.170485e+00
  1.380003e+01    2.183102e+00
  1.383178e+01    2.155918e+00
  1.386353e+01    2.089312e+00
  1.389528e+01    2.080192e+00
  1.392703e+01    2.102813e+00
  1.395879e+01    2.047497e+00
  1.399054e+01    2.032973e+00
  1.402229e+01    2.077559e+00
  1.405404e+01    2.066699e+00
  1.408579e+01    2.028767e+00
  1.411754e+01    2.002950e+00
  1.414929e+01    1.986104e+00
  1.418104e+01    2.017912e+00
  1.421279e+01    2.013272e+00
  1.424455e+01    1.996636e+00
  1.427630e+01    2.013467e+00
  1.430805e+01    1.969066e+00
  1.433980e+01    1.931967e+00
  1.437155e+01    1.911951e+00
  1.440330e+01    1.903294e+00
  1.443505e+01    1.929306e+00
  1.446680e+01    1.923284e+00
  1.449856e+01    1.878955e+00
  1.453031e+01    1.912903e+00
  1.456206e+01    1.912471e+00
  1.459381e+01    1.927768e+00
  1.462556e+01    1.886950e+00
  1.465731e+01    1.922722e+00
  1.468906e+01    1.912870e+00
  1.472081e+01    1.906721e+00
  1.475256e+01    1.895614e+00
  1.478432e+01    1.909946e+00
  1.481607e+01    1.911000e+00
  1.484782e+01    1.902393e+00
  1.487957e+01    1.974085e+00
  1.491132e+01    1.939335e+00
  1.494307e+01    1.967419e+00
  1.497482e+01    2.063967e+00
  1.500657e+01    2.142609e+00
  1.503832e+01    2.238195e+00
  1.507008e+01    2.461925e+00
  1.510183e+01    2.772403e+00
  1.513358e+01    3.350306e+00
  1.516533e+01    4.061502e+00
  1.519708e+01    4.903758e+00
  1.522883e+01    5.557512e+00
  1.526058e+01    6.024991e+00
  1.529233e+01    6.141676e+00
  1.532409e+01    5.424880e+00
  1.535584e+01    4.339112e+00
  1.538759e+01    3.373842e+00
  1.541934e+01    2.812213e+00
  1.545109e+01    2.451805e+00
  1.548284e+01    2.194335e+00
  1.551459e+01    2.046386e+00
  1.554634e+01    1.981825e+00
  1.557809e+01    1.894807e+00
  1.560985e+01    1.862433e+00
  1.564160e+01    1.795522e+00
  1.567335e+01    1.779809e+00
  1.570510e+01    1.728857e+00
  1.573685e+01    1.719804e+00
  1.576860e+01    1.704113e+00
  1.580035e+01    1.702033e+00
  1.583210e+01    1.648466e+00
  1.586385e+01    1.643747e+00
  1.589561e+01    1.647897e+00
  1.592736e+01    1.655579e+00
  1.595911e+01    1.660760e+00
  1.599086e+01    1.606851e+00
  1.602261e+01    1.624629e+00
  1.605436e+01    1.623100e+00
  1.608611e+01    1.608199e+00
  1.611786e+01    1.577111e+00
  1.614961e+01    1.580815e+00
  1.618137e+01    1.575429e+00
  1.621312e+01    1.554514e+00
  1.624487e+01    1.556878e+00
  1.627662e+01    1.553949e+00
  1.630837e+01    1.566585e+00
  1.634012e+01    1.528121e+00
  1.637187e+01    1.507046e+00
  1.640362e+01    1.508665e+00
  1.643538e+01    1.520583e+00
  1.646713e+01    1.524885e+00
  1.649888e+01    1.487317e+00
  1.653063e+01    1.502161e+00
  1.656238e+01    1.492927e+00
  1.659413e+01    1.479655e+00
  1.662588e+01    1.474520e+00
  1.665763e+01    1.506143e+00
  1.668938e+01    1.494534e+00
  1.672114e+01    1.469998e+00
  1.675289e+01    1.458526e+00
  1.678464e+01    1.448105e+00
  1.681639e+01    1.451283e+00
  1.684814e+01    1.426805e+00
  1.687989e+01    1.464693e+00
  1.691164e+01    1.457854e+00
  1.694339e+01    1.427740e+00
  1.697514e+01    1.416943e+00
  1.700690e+01    1.430482e+00
  1.703865e+01    1.421093e+00
  1.707040e+01    1.403027e+00
  1.710215e+01    1.452687e+00
  1.713390e+01    1.456385e+00
  1.716565e+01    1.400412e+00
  1.719740e+01    1.406893e+00
  1.722915e+01    1.396329e+00
  1.726091e+01    1.369780e+00
  1.729266e+01    1.403333e+00
  1.732441e+01    1.387351e+00
  1.735616e+01    1.357796e+00
  1.738791e+01    1.359556e+00
  1.741966e+01    1.379176e+00
  1.745141e+01    1.369233e+00
  1.748316e+01    1.334919e+00
  1.751491e+01    1.332978e+00
  1.754667e+01    1.336600e+00
  1.757842e+01    1.335988e+00
  1.761017e+01    1.352125e+00
  1.764192e+01    1.294260e+00
  1.767367e+01    1.351172e+00
  1.770542e+01    1.327183e+00
  1.773717e+01    1.328794e+00
  1.776892e+01    1.312297e+00
  1.780067e+01    1.338696e+00
  1.783243e+01    1.294102e+00
  1.786418e+01    1.294108e+00
  1.789593e+01    1.276660e+00
  1.792768e+01    1.315543e+00
  1.795943e+01    1.321008e+00
  1.799118e+01    1.321794e+00
  1.802293e+01    1.315160e+00
  1.805468e+01    1.297210e+00
  1.808643e+01    1.302894e+00
  1.811819e+01    1.269975e+00
  1.814994e+01    1.251833e+00
  1.818169e+01    1.259027e+00
  1.821344e+01    1.279379e+00
  1.824519e+01    1.271285e+00
  1.827694e+01    1.247210e+00
  1.830869e+01    1.259641e+00
  1.834044e+01    1.270481e+00
  1.837220e+01    1.263797e+00
  1.840395e+01    1.275391e+00
  1.843570e+01    1.238516e+00
  1.846745e+01    1.269336e+00
  1.849920e+01    1.275506e+00
  1.853095e+01    1.218598e+00
  1.856270e+01    1.234045e+00
  1.859445e+01    1.246689e+00
  1.862620e+01    1.218702e+00
  1.865796e+01    1.217701e+00
  1.868971e+01    1.222412e+00
  1.872146e+01    1.204202e+00
  1.875321e+01    1.212624e+00
  1.878496e+01    1.225834e+00
  1.881671e+01    1.221362e+00
  1.884846e+01    1.205065e+00
  1.888021e+01    1.191072e+00
  1.891196e+01    1.210601e+00
  1.894372e+01    1.188045e+00
  1.897547e+01    1.179277e+00
  1.900722e+01    1.172174e+00
  1.903897e+01    1.199028e+00
  1.907072e+01    1.188386e+00
  1.910247e+01    1.233250e+00
  1.913422e+01    1.153250e+00
  1.916597e+01    1.167008e+00
  1.919773e+01    1.187790e+00
  1.922948e+01    1.173718e+00
  1.926123e+01    1.187655e+00
  1.929298e+01    1.206298e+00
  1.932473e+01    1.173944e+00
  1.935648e+01    1.152257e+00
  1.938823e+01    1.143934e+00
  1.941998e+01    1.158193e+00
  1.945173e+01    1.160664e+00
  1.948349e+01    1.147961e+00
  1.951524e+01    1.172282e+00
  1.954699e+01    1.140776e+00
  1.957874e+01    1.145263e+00
  1.961049e+01    1.152821e+00
  1.964224e+01    1.152110e+00
  1.967399e+01    1.125015e+00
  1.970574e+01    1.139564e+00
  1.973749e+01    1.135059e+00
  1.976925e+01    1.127584e+00
  1.980100e+01    1.153791e+00
  1.983275e+01    1.154741e+00
  1.986450e+01    1.125405e+00
  1.989625e+01    1.111045e+00
  1.992800e+01    1.088331e+00
  1.995975e+01    1.125865e+00
  1.999150e+01    1.124753e+00
  2.002325e+01    1.114137e+00
  2.005501e+01    1.114961e+00
  2.008676e+01    1.099693e+00
  2.011851e+01    1.090529e+00
  2.015026e+01    1.111930e+00
  2.018201e+01    1.092222e+00
  2.021376e+01    1.075424e+00
  2.024551e+01    1.133441e+00
  2.027726e+01    1.105330e+00
  2.030902e+01    1.094865e+00
  2.034077e+01    1.094637e+00
  2.037252e+01    1.103728e+00
  2.040427e+01    1.114940e+00
  2.043602e+01    1.084519e+00
  2.046777e+01    1.095810e+00
  2.049952e+01    1.096948e+00
  2.053127e+01    1.073623e+00
  2.056302e+01    1.080139e+00
  2.059478e+01    1.077865e+00
  2.062653e+01    1.086696e+00
  2.065828e+01    1.040698e+00
  2.069003e+01    1.046323e+00
  2.072178e+01    1.084829e+00
  2.075353e+01    1.072118e+00
  2.078528e+01    1.068496e+00
  2.081703e+01    1.096032e+00
  2.084878e+01    1.091061e+00
  2.088054e+01    1.094475e+00
  2.091229e+01    1.085116e+00
  2.094404e+01    1.068311e+00
  2.097579e+01    1.083598e+00
  2.100754e+01    1.116616e+00
  2.103929e+01    1.069341e+00
  2.107104e+01    1.091018e+00
  2.110279e+01    1.087558e+00
  2.113455e+01    1.080036e+00
  2.116630e+01    1.094341e+00
  2.119805e+01    1.094274e+00
  2.122980e+01    1.105216e+00
  2.126155e+01    1.118642e+00
  2.129330e+01    1.099422e+00
  2.132505e+01    1.127042e+00
  2.135680e+01    1.132626e+00
  2.138855e+01    1.159266e+00
  2.142031e+01    1.206062e+00
  2.145206e+01    1.221125e+00
  2.148381e+01    1.262115e+00
  2.151556e+01    1.290817e+00
  2.154731e+01    1.366672e+00
  2.157906e+01    1.452203e+00
  2.161081e+01    1.578928e+00
  2.164256e+01    1.743926e+00
  2.167431e+01    2.065441e+00
  2.170607e+01    2.447573e+00
  2.173782e+01    2.995005e+00
  2.176957e+01    3.966846e+00
  2.180132e+01    5.206788e+00
  2.183307e+01    6.667510e+00
  2.186482e+01    8.355695e+00
  2.189657e+01    9.723066e+00
  2.192832e+01    1.014117e+01
  2.196007e+01    8.798830e+00
  2.199183e+01    6.578327e+00
  2.202358e+01    4.747110e+00
  2.205533e+01    3.453743e+00
  2.208708e+01    2.722683e+00
  2.211883e+01    2.199446e+00
  2.215058e+01    1.875452e+00
  2.218233e+01    1.647856e+00
  2.221408e+01    1.490659e+00
  2.224584e+01    1.373110e+00
  2.227759e+01    1.303671e+00
  2.230934e+01    1.225761e+00
  2.234109e+01    1.171770e+00
  2.237284e+01    1.133201e+00
  2.240459e+01    1.127397e+00
  2.243634e+01    1.094747e+00
  2.246809e+01    1.063642e+00
  2.249984e+01    1.026265e+00
  2.253160e+01    1.020604e+00
  2.256335e+01    1.031402e+00
  2.259510e+01    9.814041e-01
  2.262685e+01    9.988433e-01
  2.265860e+01    9.707894e-01
  2.269035e+01    9.564811e-01
  2.272210e+01    9.379526e-01
  2.275385e+01    9.482796e-01
  2.278560e+01    9.250521e-01
  2.281736e+01    9.345850e-01
  2.284911e+01    9.416976e-01
  2.288086e+01    9.179631e-01
  2.291261e+01    9.178871e-01
  2.294436e+01    9.066242e-01
  2.297611e+01    8.994737e-01
  2.300786e+01    9.132922e-01
  2.303961e+01    9.165531e-01
  2.307137e+01    9.081097e-01
  2.310312e+01    8.844912e-01
  2.313487e+01    8.689721e-01
  2.316662e+01    8.971078e-01
  2.319837e+01    8.928170e-01
  2.323012e+01    8.899940e-01
  2.326187e+01    8.769030e-01
  2.329362e+01    8.624992e-01
  2.332537e+01    8.645678e-01
  2.335713e+01    8.449137e-01
  2.338888e+01    8.626522e-01
  2.342063e+01    8.503298e-01
  2.345238e+01    8.522650e-01
  2.348413e+01    8.502198e-01
  2.351588e+01    8.464857e-01
  2.354763e+01    8.573201e-01
  2.357938e+01    8.558028e-01
  2.361113e+01    8.628892e-01
  2.364289e+01    8.196546e-01
  2.367464e+01    8.236998e-01
  2.370639e+01    8.181956e-01
  2.373814e+01    8.443138e-01
  2.376989e+01    8.169055e-01
  2.380164e+01    8.078146e-01
  2.383339e+01    8.029355e-01
  2.386514e+01    7.992613e-01
  2.389689e+01    7.922325e-01
  2.392865e+01    7.975421e-01
  2.396040e+01    8.025434e-01
  2.399215e+01    8.047319e-01
  2.402390e+01    7.834646e-01
  2.405565e+01    7.995821e-01
  2.408740e+01    7.875836e-01
  2.411915e+01    7.726287e-01
  2.415090e+01    7.976201e-01
  2.418266e+01    7.849104e-01
  2.421441e+01    7.812340e-01
  2.424616e+01    7.810140e-01
  2.427791e+01    8.073112e-01
  2.430966e+01    7.908976e-01
  2.434141e+01    8.014468e-01
  2.437316e+01    7.947198e-01
  2.440491e+01    7.890220e-01
  2.443666e+01    7.594306e-01
  2.446842e+01    7.790927e-01
  2.450017e+01    7.833772e-01
  2.453192e+01    7.813664e-01
  2.456367e+01    7.765263e-01
  2.459542e+01    7.740479e-01
  2.462717e+01    7.889734e-01
  2.465892e+01    7.990014e-01
  2.469067e+01    7.916130e-01
  2.472242e+01    7.959919e-01
  2.475418e+01    7.792335e-01
  2.478593e+01    7.864658e-01
  2.481768e+01    7.885150e-01
  2.484943e+01    7.746634e-01
  2.488118e+01    8.074197e-01
  2.491293e+01    7.883957e-01
  2.494468e+01    7.990551e-01
  2.497643e+01    7.952300e-01
  2.500819e+01    7.959572e-01
  2.503994e+01    8.173079e-01
  2.507169e+01    8.043412e-01
  2.510344e+01    8.179798e-01
  2.513519e+01    8.030891e-01
  2.516694e+01    8.089568e-01
  2.519869e+01    8.561270e-01
  2.523044e+01    8.477384e-01
  2.526219e+01    8.517798e-01
  2.529395e+01    8.676829e-01
  2.532570e+01    8.712265e-01
  2.535745e+01    8.887024e-01
  2.538920e+01    9.079173e-01
  2.542095e+01    8.973665e-01
  2.545270e+01    9.319324e-01
  2.548445e+01    9.644288e-01
  2.551620e+01    1.004978e+00
  2.554795e+01    1.015599e+00
  2.557971e+01    1.056729e+00
  2.561146e+01    1.102226e+00
  2.564321e+01    1.198681e+00
  2.567496e+01    1.275384e+00
  2.570671e+01    1.446705e+00
  2.573846e+01    1.677547e+00
  2.577021e+01    1.952218e+00
  2.580196e+01    2.412013e+00
  2.583371e+01    3.102385e+00
  2.586547e+01    4.055484e+00
  2.589722e+01    5.336442e+00
  2.592897e+01    6.771356e+00
  2.596072e+01    7.899941e+00
  2.599247e+01    8.356709e+00
  2.602422e+01    7.488258e+00
  2.605597e+01    5.911086e+00
  2.608772e+01    4.287708e+00
  2.611948e+01    3.166354e+00
  2.615123e+01    2.451959e+00
  2.618298e+01    1.987900e+00
  2.621473e+01    1.671443e+00
  2.624648e+01    1.497652e+00
  2.627823e+01    1.305377e+00
  2.630998e+01    1.222551e+00
  2.634173e+01    1.145753e+00
  2.637348e+01    1.058657e+00
  2.640524e+01    1.045162e+00
  2.643699e+01    9.853560e-01
  2.646874e+01    9.858675e-01
  2.650049e+01    9.657522e-01
  2.653224e+01    9.585462e-01
  2.656399e+01    9.406174e-01
  2.659574e+01    9.246779e-01
  2.662749e+01    9.142755e-01
  2.665924e+01    9.349097e-01
  2.669100e+01    8.884060e-01
  2.672275e+01    8.910645e-01
  2.675450e+01    8.900876e-01
  2.678625e+01    9.137568e-01
  2.681800e+01    9.076126e-01
  2.684975e+01    9.250008e-01
  2.688150e+01    9.200988e-01
  2.691325e+01    9.055223e-01
  2.694501e+01    9.262986e-01
  2.697676e+01    9.705171e-01
  2.700851e+01    1.017513e+00
  2.704026e+01    1.081470e+00
  2.707201e+01    1.179313e+00
  2.710376e+01    1.317786e+00
  2.713551e+01    1.539258e+00
  2.716726e+01    1.837125e+00
  2.719901e+01    2.165424e+00
  2.723077e+01    2.378766e+00
  2.726252e+01    2.386143e+00
  2.729427e+01    2.116272e+00
  2.732602e+01    1.824174e+00
  2.735777e+01    1.451456e+00
  2.738952e+01    1.290823e+00
  2.742127e+01    1.134988e+00
  2.745302e+01    1.052023e+00
  2.748477e+01    9.924603e-01
  2.751653e+01    9.428428e-01
  2.754828e+01    9.084335e-01
  2.758003e+01    9.154370e-01
  2.761178e+01    8.679562e-01
  2.764353e+01    8.829901e-01
  2.767528e+01    8.322932e-01
  2.770703e+01    8.313498e-01
  2.773878e+01    8.331832e-01
  2.777054e+01    8.366029e-01
  2.780229e+01    8.247202e-01
  2.783404e+01    8.359224e-01
  2.786579e+01    7.903242e-01
  2.789754e+01    8.063956e-01
  2.792929e+01    7.901832e-01
  2.796104e+01    8.130901e-01
  2.799279e+01    7.866716e-01
  2.802454e+01    7.747433e-01
  2.805630e+01    7.531614e-01
  2.808805e+01    7.845014e-01
  2.811980e+01    7.632653e-01
  2.815155e+01    7.897982e-01
  2.818330e+01    7.957239e-01
  2.821505e+01    7.868305e-01
  2.824680e+01    7.670471e-01
  2.827855e+01    7.792712e-01
  2.831030e+01    7.607837e-01
  2.834206e+01    7.617670e-01
  2.837381e+01    7.641673e-01
  2.840556e+01    7.760968e-01
  2.843731e+01    7.611014e-01
  2.846906e+01    7.619396e-01
  2.850081e+01    7.496252e-01
  2.853256e+01    7.599745e-01
  2.856431e+01    7.555035e-01
  2.859606e+01    7.748986e-01
  2.862782e+01    7.485504e-01
  2.865957e+01    7.528284e-01
  2.869132e+01    7.376078e-01
  2.872307e+01    7.592075e-01
  2.875482e+01    7.488927e-01
  2.878657e+01    7.362922e-01
  2.881832e+01    7.594649e-01
  2.885007e+01    7.474679e-01
  2.888183e+01    7.555252e-01
  2.891358e+01    7.355464e-01
  2.894533e+01    7.574267e-01
  2.897708e+01    7.446022e-01
  2.900883e+01    7.401500e-01
  2.904058e+01    7.174838e-01
  2.907233e+01    7.506738e-01
  2.910408e+01    7.310348e-01
  2.913583e+01    7.415756e-01
  2.916759e+01    7.445810e-01
  2.919934e+01    7.472380e-01
  2.923109e+01    7.368934e-01
  2.926284e+01    7.344465e-01
  2.929459e+01    7.527067e-01
  2.932634e+01    7.354988e-01
  2.935809e+01    7.304956e-01
  2.938984e+01    7.445427e-01
  2.942159e+01    7.170293e-01
  2.945335e+01    7.235835e-01
  2.948510e+01    7.261441e-01
  2.951685e+01    7.333373e-01
  2.954860e+01    7.251576e-01
  2.958035e+01    7.526574e-01
  2.961210e+01    7.253708e-01
  2.964385e+01    7.199311e-01
  2.967560e+01    7.136478e-01
  2.970736e+01    7.215775e-01
  2.973911e+01    7.106016e-01
  2.977086e+01    7.406604e-01
  2.980261e+01    7.133164e-01
  2.983436e+01    7.017334e-01
  2.986611e+01    7.130180e-01
  2.989786e+01    7.428079e-01
  2.992961e+01    7.352970e-01
  2.996136e+01    7.398234e-01
  2.999312e+01    7.195568e-01
  3.002487e+01    7.523632e-01
  3.005662e+01    7.220593e-01
  3.008837e+01    7.129485e-01
  3.012012e+01    7.308648e-01
  3.015187e+01    7.192023e-01
  3.018362e+01    7.121447e-01
  3.021537e+01    7.300114e-01
  3.024712e+01    7.078881e-01
  3.027888e+01    7.255812e-01
  3.031063e+01    7.057717e-01
  3.034238e+01    7.179283e-01
  3.037413e+01    7.085767e-01
  3.040588e+01    7.208532e-01
  3.043763e+01    7.088217e-01
  3.046938e+01    7.120641e-01
  3.050113e+01    7.036757e-01
  3.053288e+01    6.984007e-01
  3.056464e+01    7.041250e-01
  3.059639e+01    7.148647e-01
  3.062814e+01    7.209480e-01
  3.065989e+01    7.096694e-01
  3.069164e+01    7.328848e-01
  3.072339e+01    7.240018e-01
  3.075514e+01    7.199084e-01
  3.078689e+01    7.122389e-01
  3.081865e+01    7.274994e-01
  3.085040e+01    7.068823e-01
  3.088215e+01    7.078675e-01
  3.091390e+01    7.174810e-01
  3.094565e+01    7.441171e-01
  3.097740e+01    7.057425e-01
  3.100915e+01    7.107590e-01
  3.104090e+01    7.059755e-01
  3.107265e+01    7.070398e-01
  3.110441e+01    7.110417e-01
  3.113616e+01    7.111346e-01
  3.116791e+01    7.424148e-01
  3.119966e+01    7.156932e-01
  3.123141e+01    7.106931e-01
  3.126316e+01    7.442629e-01
  3.129491e+01    7.360778e-01
  3.132666e+01    7.577754e-01
  3.135841e+01    7.343120e-01
  3.139017e+01    7.241943e-01
  3.142192e+01    7.356071e-01
  3.145367e+01    7.675704e-01
  3.148542e+01    7.663705e-01
  3.151717e+01    7.640926e-01
  3.154892e+01    7.982835e-01
  3.158067e+01    7.853768e-01
  3.161242e+01    7.990849e-01
  3.164418e+01    8.344811e-01
  3.167593e+01    8.731529e-01
  3.170768e+01    9.180685e-01
  3.173943e+01    9.909173e-01
  3.177118e+01    1.131783e+00
  3.180293e+01    1.330954e+00
  3.183468e+01    1.530137e+00
  3.186643e+01    1.847311e+00
  3.189818e+01    2.180336e+00
  3.192994e+01    2.339654e+00
  3.196169e+01    2.352506e+00
  3.199344e+01    2.098476e+00
  3.202519e+01    1.696469e+00
  3.205694e+01    1.414839e+00
  3.208869e+01    1.195292e+00
  3.212044e+01    1.052908e+00
  3.215219e+01    9.446870e-01
  3.218394e+01    8.995030e-01
  3.221570e+01    8.671101e-01
  3.224745e+01    8.162687e-01
  3.227920e+01    7.873135e-01
  3.231095e+01    8.110772e-01
  3.234270e+01    7.806461e-01
  3.237445e+01    7.500672e-01
  3.240620e+01    7.189469e-01
  3.243795e+01    7.398042e-01
  3.246970e+01    7.345004e-01
  3.250146e+01    7.543084e-01
  3.253321e+01    7.265392e-01
  3.254908e+01    7.357096e-01