File: XRD/2024-07-27_002_Ru-CGO-ex_Activtation_ramp_000002_data_000135.dat
# == pyFAI calibration ==
# Distance Sample to Detector: 0.4 m
# PONI: 9.750e-02, 1.135e-01 m
# Rotations: -0.000175 0.000000 -0.000000 rad
#
# == Fit2d calibration ==
# Distance Sample-beamCenter: 400.000 mm
# Center: x=1514.000, y=1300.000 pix
# Tilt: 0.010 deg  TiltPlanRot: 0.010 deg
#
# Detector Detector	 Spline= None	 PixelSize= 7.500e-05, 7.500e-05 m
#    Detector has a mask: False
#    Detector has a dark current: False
#    detector has a flat field: False
#
# Wavelength: 6.888e-11 m
# Mask applied: user provided
# Dark current applied: False
# Flat field applied: False
# Polarization factor: 0.99
# Normalization factor: 1.0
# --> /home/myspot/data/2024_07_Rosario/Ru-CGO-ex/2024-07-27_002_Ru-CGO-ex_Activtation_ramp_000002_data_000135.dat
#       q_nm^-1             I
  2.003187e-02    0.000000e+00
  5.178302e-02    1.909255e-01
  8.353417e-02    8.470646e-02
  1.152853e-01    0.000000e+00
  1.470365e-01    1.571192e-02
  1.787876e-01    5.424045e-02
  2.105388e-01    9.025171e-03
  2.422899e-01    5.646945e-02
  2.740411e-01    1.280187e-03
  3.057922e-01    2.341191e-02
  3.375433e-01    1.498351e-02
  3.692945e-01    4.015093e-02
  4.010456e-01    2.309790e-02
  4.327968e-01    2.343735e-02
  4.645479e-01    3.840003e-02
  4.962991e-01    4.494494e-02
  5.280502e-01    3.729666e-02
  5.598014e-01    2.620964e-02
  5.915525e-01    1.761168e-02
  6.233037e-01    1.345043e-02
  6.550548e-01    3.409183e-02
  6.868060e-01    3.599530e-02
  7.185571e-01    1.172916e-02
  7.503083e-01    4.425606e-02
  7.820594e-01    1.121749e-01
  8.138106e-01    1.537366e-01
  8.455617e-01    2.584672e-01
  8.773129e-01    4.126507e-01
  9.090640e-01    5.676963e-01
  9.408152e-01    5.569689e-01
  9.725663e-01    7.900344e-01
  1.004317e+00    1.003465e+00
  1.036069e+00    1.156171e+00
  1.067820e+00    1.368963e+00
  1.099571e+00    1.367743e+00
  1.131322e+00    1.369579e+00
  1.163073e+00    1.388257e+00
  1.194824e+00    1.673035e+00
  1.226575e+00    2.046894e+00
  1.258327e+00    2.330045e+00
  1.290078e+00    2.402977e+00
  1.321829e+00    2.339795e+00
  1.353580e+00    2.531079e+00
  1.385331e+00    2.551966e+00
  1.417082e+00    2.574567e+00
  1.448834e+00    2.693078e+00
  1.480585e+00    2.856850e+00
  1.512336e+00    3.027430e+00
  1.544087e+00    2.864395e+00
  1.575838e+00    2.909022e+00
  1.607589e+00    2.887764e+00
  1.639340e+00    2.815206e+00
  1.671092e+00    2.868816e+00
  1.702843e+00    2.896839e+00
  1.734594e+00    2.784327e+00
  1.766345e+00    2.698226e+00
  1.798096e+00    2.638610e+00
  1.829847e+00    2.717266e+00
  1.861598e+00    2.771109e+00
  1.893350e+00    2.795939e+00
  1.925101e+00    2.738538e+00
  1.956852e+00    2.738152e+00
  1.988603e+00    2.625070e+00
  2.020354e+00    2.676225e+00
  2.052105e+00    2.680384e+00
  2.083856e+00    2.810380e+00
  2.115608e+00    2.741370e+00
  2.147359e+00    2.698383e+00
  2.179110e+00    2.868297e+00
  2.210861e+00    2.707546e+00
  2.242612e+00    2.710116e+00
  2.274363e+00    2.735087e+00
  2.306115e+00    2.716578e+00
  2.337866e+00    2.710950e+00
  2.369617e+00    2.744560e+00
  2.401368e+00    2.706903e+00
  2.433119e+00    2.612654e+00
  2.464870e+00    2.766432e+00
  2.496621e+00    2.752756e+00
  2.528373e+00    2.803074e+00
  2.560124e+00    2.729437e+00
  2.591875e+00    2.705912e+00
  2.623626e+00    2.837452e+00
  2.655377e+00    2.668173e+00
  2.687128e+00    2.885873e+00
  2.718879e+00    2.780993e+00
  2.750631e+00    2.665293e+00
  2.782382e+00    2.806407e+00
  2.814133e+00    2.705247e+00
  2.845884e+00    2.794020e+00
  2.877635e+00    2.870391e+00
  2.909386e+00    2.754114e+00
  2.941137e+00    2.855550e+00
  2.972889e+00    2.802218e+00
  3.004640e+00    2.854965e+00
  3.036391e+00    2.983461e+00
  3.068142e+00    2.922622e+00
  3.099893e+00    2.938865e+00
  3.131644e+00    2.869497e+00
  3.163395e+00    2.907130e+00
  3.195147e+00    2.898590e+00
  3.226898e+00    2.763618e+00
  3.258649e+00    2.951301e+00
  3.290400e+00    2.832066e+00
  3.322151e+00    3.019044e+00
  3.353902e+00    2.951570e+00
  3.385654e+00    2.836662e+00
  3.417405e+00    2.895117e+00
  3.449156e+00    2.891109e+00
  3.480907e+00    2.971510e+00
  3.512658e+00    2.889597e+00
  3.544409e+00    3.075405e+00
  3.576160e+00    2.998346e+00
  3.607912e+00    2.918253e+00
  3.639663e+00    2.899441e+00
  3.671414e+00    2.949255e+00
  3.703165e+00    2.980958e+00
  3.734916e+00    2.977445e+00
  3.766667e+00    2.878532e+00
  3.798418e+00    2.952217e+00
  3.830170e+00    2.960037e+00
  3.861921e+00    2.942335e+00
  3.893672e+00    3.057791e+00
  3.925423e+00    2.963055e+00
  3.957174e+00    2.952986e+00
  3.988925e+00    2.989326e+00
  4.020676e+00    3.034526e+00
  4.052428e+00    2.916414e+00
  4.084179e+00    3.048363e+00
  4.115930e+00    3.045419e+00
  4.147681e+00    2.890932e+00
  4.179432e+00    2.942245e+00
  4.211183e+00    2.975871e+00
  4.242935e+00    3.034197e+00
  4.274686e+00    3.029963e+00
  4.306437e+00    2.991335e+00
  4.338188e+00    3.077095e+00
  4.369939e+00    2.942496e+00
  4.401690e+00    3.026525e+00
  4.433441e+00    2.994897e+00
  4.465193e+00    3.047852e+00
  4.496944e+00    3.022682e+00
  4.528695e+00    2.965921e+00
  4.560446e+00    3.049845e+00
  4.592197e+00    3.065246e+00
  4.623948e+00    3.110381e+00
  4.655699e+00    3.183678e+00
  4.687451e+00    2.950946e+00
  4.719202e+00    3.097615e+00
  4.750953e+00    3.017382e+00
  4.782704e+00    3.117412e+00
  4.814455e+00    3.147647e+00
  4.846206e+00    3.041964e+00
  4.877957e+00    3.113814e+00
  4.909709e+00    3.057137e+00
  4.941460e+00    3.101061e+00
  4.973211e+00    3.126737e+00
  5.004962e+00    3.086625e+00
  5.036713e+00    3.127450e+00
  5.068464e+00    3.114322e+00
  5.100216e+00    3.085458e+00
  5.131967e+00    3.108264e+00
  5.163718e+00    3.097559e+00
  5.195469e+00    3.127724e+00
  5.227220e+00    3.123878e+00
  5.258971e+00    3.126969e+00
  5.290722e+00    2.937951e+00
  5.322474e+00    3.151814e+00
  5.354225e+00    3.064813e+00
  5.385976e+00    3.043024e+00
  5.417727e+00    3.160757e+00
  5.449478e+00    3.043300e+00
  5.481229e+00    3.053965e+00
  5.512980e+00    3.050141e+00
  5.544732e+00    3.078896e+00
  5.576483e+00    3.129274e+00
  5.608234e+00    3.133463e+00
  5.639985e+00    2.992398e+00
  5.671736e+00    3.056139e+00
  5.703487e+00    3.099691e+00
  5.735238e+00    3.060911e+00
  5.766990e+00    3.067666e+00
  5.798741e+00    3.009730e+00
  5.830492e+00    2.946258e+00
  5.862243e+00    3.018751e+00
  5.893994e+00    3.061021e+00
  5.925745e+00    3.070525e+00
  5.957497e+00    2.995908e+00
  5.989248e+00    3.010724e+00
  6.020999e+00    3.080300e+00
  6.052750e+00    2.995846e+00
  6.084501e+00    2.986895e+00
  6.116252e+00    3.057996e+00
  6.148003e+00    3.030932e+00
  6.179755e+00    3.038642e+00
  6.211506e+00    3.087817e+00
  6.243257e+00    3.033715e+00
  6.275008e+00    3.033103e+00
  6.306759e+00    2.997050e+00
  6.338510e+00    2.996832e+00
  6.370261e+00    3.012967e+00
  6.402013e+00    2.962632e+00
  6.433764e+00    2.994077e+00
  6.465515e+00    2.989502e+00
  6.497266e+00    3.008824e+00
  6.529017e+00    3.067555e+00
  6.560768e+00    3.006358e+00
  6.592519e+00    2.989883e+00
  6.624271e+00    2.921015e+00
  6.656022e+00    2.946985e+00
  6.687773e+00    2.951917e+00
  6.719524e+00    2.957958e+00
  6.751275e+00    3.083530e+00
  6.783026e+00    2.989830e+00
  6.814777e+00    3.023190e+00
  6.846529e+00    2.987909e+00
  6.878280e+00    2.926098e+00
  6.910031e+00    3.038932e+00
  6.941782e+00    2.989581e+00
  6.973533e+00    2.973612e+00
  7.005284e+00    2.963109e+00
  7.037036e+00    2.919657e+00
  7.068787e+00    3.004190e+00
  7.100538e+00    2.983726e+00
  7.132289e+00    3.008952e+00
  7.164040e+00    2.970507e+00
  7.195791e+00    2.968096e+00
  7.227542e+00    2.908346e+00
  7.259294e+00    2.974530e+00
  7.291045e+00    2.963452e+00
  7.322796e+00    3.002202e+00
  7.354547e+00    2.902462e+00
  7.386298e+00    2.985214e+00
  7.418049e+00    2.971416e+00
  7.449800e+00    3.017564e+00
  7.481552e+00    2.994000e+00
  7.513303e+00    2.866900e+00
  7.545054e+00    2.932452e+00
  7.576805e+00    2.898067e+00
  7.608556e+00    2.940819e+00
  7.640307e+00    2.906417e+00
  7.672058e+00    2.939871e+00
  7.703810e+00    2.938625e+00
  7.735561e+00    2.909230e+00
  7.767312e+00    2.885375e+00
  7.799063e+00    2.944298e+00
  7.830814e+00    2.925846e+00
  7.862565e+00    2.862229e+00
  7.894317e+00    2.909297e+00
  7.926068e+00    2.885366e+00
  7.957819e+00    2.862465e+00
  7.989570e+00    2.877314e+00
  8.021321e+00    2.922667e+00
  8.053072e+00    2.861980e+00
  8.084823e+00    2.919775e+00
  8.116575e+00    2.941304e+00
  8.148326e+00    2.934815e+00
  8.180077e+00    2.960874e+00
  8.211828e+00    2.983771e+00
  8.243579e+00    2.931576e+00
  8.275330e+00    2.840246e+00
  8.307081e+00    2.855614e+00
  8.338833e+00    2.928705e+00
  8.370584e+00    2.849627e+00
  8.402335e+00    2.861456e+00
  8.434086e+00    2.859494e+00
  8.465837e+00    2.823394e+00
  8.497588e+00    2.876981e+00
  8.529339e+00    2.810806e+00
  8.561091e+00    2.814084e+00
  8.592842e+00    2.819739e+00
  8.624593e+00    2.899189e+00
  8.656344e+00    2.849915e+00
  8.688095e+00    2.864387e+00
  8.719846e+00    2.851518e+00
  8.751598e+00    2.863430e+00
  8.783349e+00    2.774298e+00
  8.815100e+00    2.870448e+00
  8.846851e+00    2.847719e+00
  8.878602e+00    2.829321e+00
  8.910353e+00    2.823695e+00
  8.942104e+00    2.806357e+00
  8.973856e+00    2.766761e+00
  9.005607e+00    2.813964e+00
  9.037358e+00    2.810185e+00
  9.069109e+00    2.741352e+00
  9.100860e+00    2.794281e+00
  9.132611e+00    2.750440e+00
  9.164362e+00    2.765466e+00
  9.196114e+00    2.777561e+00
  9.227865e+00    2.799586e+00
  9.259616e+00    2.813982e+00
  9.291367e+00    2.808162e+00
  9.323118e+00    2.767587e+00
  9.354869e+00    2.743851e+00
  9.386620e+00    2.735367e+00
  9.418372e+00    2.776097e+00
  9.450123e+00    2.773737e+00
  9.481874e+00    2.741930e+00
  9.513625e+00    2.741818e+00
  9.545376e+00    2.691445e+00
  9.577127e+00    2.756848e+00
  9.608878e+00    2.752130e+00
  9.640630e+00    2.737232e+00
  9.672381e+00    2.723623e+00
  9.704132e+00    2.699766e+00
  9.735883e+00    2.686046e+00
  9.767634e+00    2.689819e+00
  9.799385e+00    2.714012e+00
  9.831137e+00    2.676690e+00
  9.862888e+00    2.669644e+00
  9.894639e+00    2.619158e+00
  9.926390e+00    2.640785e+00
  9.958141e+00    2.631449e+00
  9.989892e+00    2.676460e+00
  1.002164e+01    2.626384e+00
  1.005339e+01    2.690741e+00
  1.008515e+01    2.632788e+00
  1.011690e+01    2.605125e+00
  1.014865e+01    2.562686e+00
  1.018040e+01    2.663501e+00
  1.021215e+01    2.661822e+00
  1.024390e+01    2.589011e+00
  1.027565e+01    2.624153e+00
  1.030740e+01    2.621974e+00
  1.033915e+01    2.585815e+00
  1.037091e+01    2.615654e+00
  1.040266e+01    2.560243e+00
  1.043441e+01    2.550732e+00
  1.046616e+01    2.591482e+00
  1.049791e+01    2.579914e+00
  1.052966e+01    2.592502e+00
  1.056141e+01    2.601182e+00
  1.059316e+01    2.545329e+00
  1.062492e+01    2.575202e+00
  1.065667e+01    2.548975e+00
  1.068842e+01    2.560331e+00
  1.072017e+01    2.544659e+00
  1.075192e+01    2.544505e+00
  1.078367e+01    2.554151e+00
  1.081542e+01    2.525866e+00
  1.084717e+01    2.482424e+00
  1.087892e+01    2.476512e+00
  1.091068e+01    2.533499e+00
  1.094243e+01    2.505490e+00
  1.097418e+01    2.533337e+00
  1.100593e+01    2.464381e+00
  1.103768e+01    2.470354e+00
  1.106943e+01    2.466647e+00
  1.110118e+01    2.489450e+00
  1.113293e+01    2.488476e+00
  1.116468e+01    2.448167e+00
  1.119644e+01    2.433345e+00
  1.122819e+01    2.426524e+00
  1.125994e+01    2.403354e+00
  1.129169e+01    2.425845e+00
  1.132344e+01    2.429085e+00
  1.135519e+01    2.457042e+00
  1.138694e+01    2.439959e+00
  1.141869e+01    2.371695e+00
  1.145045e+01    2.412566e+00
  1.148220e+01    2.370259e+00
  1.151395e+01    2.348353e+00
  1.154570e+01    2.364472e+00
  1.157745e+01    2.357902e+00
  1.160920e+01    2.323464e+00
  1.164095e+01    2.359733e+00
  1.167270e+01    2.332698e+00
  1.170445e+01    2.363475e+00
  1.173621e+01    2.334589e+00
  1.176796e+01    2.292136e+00
  1.179971e+01    2.306418e+00
  1.183146e+01    2.345051e+00
  1.186321e+01    2.339862e+00
  1.189496e+01    2.322775e+00
  1.192671e+01    2.315148e+00
  1.195846e+01    2.295632e+00
  1.199021e+01    2.341611e+00
  1.202197e+01    2.337373e+00
  1.205372e+01    2.365738e+00
  1.208547e+01    2.299563e+00
  1.211722e+01    2.311344e+00
  1.214897e+01    2.345087e+00
  1.218072e+01    2.330389e+00
  1.221247e+01    2.302788e+00
  1.224422e+01    2.318622e+00
  1.227597e+01    2.297232e+00
  1.230773e+01    2.293000e+00
  1.233948e+01    2.313330e+00
  1.237123e+01    2.313248e+00
  1.240298e+01    2.316119e+00
  1.243473e+01    2.294002e+00
  1.246648e+01    2.320176e+00
  1.249823e+01    2.324647e+00
  1.252998e+01    2.337240e+00
  1.256174e+01    2.347900e+00
  1.259349e+01    2.319476e+00
  1.262524e+01    2.378541e+00
  1.265699e+01    2.401726e+00
  1.268874e+01    2.393017e+00
  1.272049e+01    2.500353e+00
  1.275224e+01    2.496197e+00
  1.278399e+01    2.623964e+00
  1.281574e+01    2.679461e+00
  1.284750e+01    2.826285e+00
  1.287925e+01    2.993328e+00
  1.291100e+01    3.291181e+00
  1.294275e+01    3.774200e+00
  1.297450e+01    4.349099e+00
  1.300625e+01    5.375991e+00
  1.303800e+01    7.172471e+00
  1.306975e+01    9.512998e+00
  1.310150e+01    1.220126e+01
  1.313326e+01    1.458223e+01
  1.316501e+01    1.657142e+01
  1.319676e+01    1.667918e+01
  1.322851e+01    1.376904e+01
  1.326026e+01    9.673851e+00
  1.329201e+01    6.976545e+00
  1.332376e+01    5.350519e+00
  1.335551e+01    4.348823e+00
  1.338727e+01    3.665785e+00
  1.341902e+01    3.251864e+00
  1.345077e+01    2.876164e+00
  1.348252e+01    2.747842e+00
  1.351427e+01    2.610474e+00
  1.354602e+01    2.488950e+00
  1.357777e+01    2.443979e+00
  1.360952e+01    2.349920e+00
  1.364127e+01    2.268817e+00
  1.367303e+01    2.216108e+00
  1.370478e+01    2.248663e+00
  1.373653e+01    2.176622e+00
  1.376828e+01    2.183853e+00
  1.380003e+01    2.168572e+00
  1.383178e+01    2.111935e+00
  1.386353e+01    2.078668e+00
  1.389528e+01    2.074252e+00
  1.392703e+01    2.078782e+00
  1.395879e+01    2.016750e+00
  1.399054e+01    2.036777e+00
  1.402229e+01    2.050187e+00
  1.405404e+01    2.035440e+00
  1.408579e+01    2.006263e+00
  1.411754e+01    2.012539e+00
  1.414929e+01    1.966434e+00
  1.418104e+01    1.999533e+00
  1.421279e+01    1.967016e+00
  1.424455e+01    1.962969e+00
  1.427630e+01    1.978888e+00
  1.430805e+01    1.913249e+00
  1.433980e+01    1.954623e+00
  1.437155e+01    1.953701e+00
  1.440330e+01    1.945932e+00
  1.443505e+01    1.933538e+00
  1.446680e+01    1.919755e+00
  1.449856e+01    1.895420e+00
  1.453031e+01    1.884555e+00
  1.456206e+01    1.910346e+00
  1.459381e+01    1.912641e+00
  1.462556e+01    1.928057e+00
  1.465731e+01    1.915326e+00
  1.468906e+01    1.862612e+00
  1.472081e+01    1.859411e+00
  1.475256e+01    1.932323e+00
  1.478432e+01    1.879535e+00
  1.481607e+01    1.873833e+00
  1.484782e+01    1.903081e+00
  1.487957e+01    1.937007e+00
  1.491132e+01    1.982226e+00
  1.494307e+01    1.998001e+00
  1.497482e+01    2.054744e+00
  1.500657e+01    2.122566e+00
  1.503832e+01    2.299713e+00
  1.507008e+01    2.526608e+00
  1.510183e+01    2.885862e+00
  1.513358e+01    3.484893e+00
  1.516533e+01    4.130140e+00
  1.519708e+01    4.901572e+00
  1.522883e+01    5.448853e+00
  1.526058e+01    5.793965e+00
  1.529233e+01    5.596732e+00
  1.532409e+01    4.846557e+00
  1.535584e+01    3.775440e+00
  1.538759e+01    3.007133e+00
  1.541934e+01    2.566910e+00
  1.545109e+01    2.312866e+00
  1.548284e+01    2.113413e+00
  1.551459e+01    1.978595e+00
  1.554634e+01    1.897637e+00
  1.557809e+01    1.819407e+00
  1.560985e+01    1.819180e+00
  1.564160e+01    1.789007e+00
  1.567335e+01    1.748184e+00
  1.570510e+01    1.720566e+00
  1.573685e+01    1.686216e+00
  1.576860e+01    1.680787e+00
  1.580035e+01    1.663601e+00
  1.583210e+01    1.625770e+00
  1.586385e+01    1.654331e+00
  1.589561e+01    1.614983e+00
  1.592736e+01    1.654547e+00
  1.595911e+01    1.620265e+00
  1.599086e+01    1.608204e+00
  1.602261e+01    1.579034e+00
  1.605436e+01    1.611458e+00
  1.608611e+01    1.593485e+00
  1.611786e+01    1.583047e+00
  1.614961e+01    1.580980e+00
  1.618137e+01    1.561609e+00
  1.621312e+01    1.605633e+00
  1.624487e+01    1.568827e+00
  1.627662e+01    1.544127e+00
  1.630837e+01    1.507456e+00
  1.634012e+01    1.536828e+00
  1.637187e+01    1.490386e+00
  1.640362e+01    1.515502e+00
  1.643538e+01    1.492771e+00
  1.646713e+01    1.540806e+00
  1.649888e+01    1.505522e+00
  1.653063e+01    1.517726e+00
  1.656238e+01    1.478511e+00
  1.659413e+01    1.461499e+00
  1.662588e+01    1.475011e+00
  1.665763e+01    1.462509e+00
  1.668938e+01    1.458481e+00
  1.672114e+01    1.433244e+00
  1.675289e+01    1.495297e+00
  1.678464e+01    1.443333e+00
  1.681639e+01    1.444370e+00
  1.684814e+01    1.439439e+00
  1.687989e+01    1.490225e+00
  1.691164e+01    1.445410e+00
  1.694339e+01    1.452519e+00
  1.697514e+01    1.452647e+00
  1.700690e+01    1.407915e+00
  1.703865e+01    1.442556e+00
  1.707040e+01    1.421999e+00
  1.710215e+01    1.395231e+00
  1.713390e+01    1.408928e+00
  1.716565e+01    1.435416e+00
  1.719740e+01    1.430251e+00
  1.722915e+01    1.386494e+00
  1.726091e+01    1.389793e+00
  1.729266e+01    1.412603e+00
  1.732441e+01    1.377825e+00
  1.735616e+01    1.404387e+00
  1.738791e+01    1.392767e+00
  1.741966e+01    1.362430e+00
  1.745141e+01    1.355277e+00
  1.748316e+01    1.350613e+00
  1.751491e+01    1.377417e+00
  1.754667e+01    1.340717e+00
  1.757842e+01    1.351000e+00
  1.761017e+01    1.366836e+00
  1.764192e+01    1.312559e+00
  1.767367e+01    1.348160e+00
  1.770542e+01    1.335729e+00
  1.773717e+01    1.315150e+00
  1.776892e+01    1.344392e+00
  1.780067e+01    1.317720e+00
  1.783243e+01    1.308342e+00
  1.786418e+01    1.304084e+00
  1.789593e+01    1.314792e+00
  1.792768e+01    1.309433e+00
  1.795943e+01    1.312047e+00
  1.799118e+01    1.317282e+00
  1.802293e+01    1.292100e+00
  1.805468e+01    1.296180e+00
  1.808643e+01    1.297989e+00
  1.811819e+01    1.264772e+00
  1.814994e+01    1.263303e+00
  1.818169e+01    1.290624e+00
  1.821344e+01    1.276026e+00
  1.824519e+01    1.270931e+00
  1.827694e+01    1.271039e+00
  1.830869e+01    1.257175e+00
  1.834044e+01    1.262779e+00
  1.837220e+01    1.247887e+00
  1.840395e+01    1.289573e+00
  1.843570e+01    1.259928e+00
  1.846745e+01    1.256504e+00
  1.849920e+01    1.242378e+00
  1.853095e+01    1.230900e+00
  1.856270e+01    1.247303e+00
  1.859445e+01    1.234450e+00
  1.862620e+01    1.219393e+00
  1.865796e+01    1.213332e+00
  1.868971e+01    1.235558e+00
  1.872146e+01    1.186744e+00
  1.875321e+01    1.186579e+00
  1.878496e+01    1.195647e+00
  1.881671e+01    1.213832e+00
  1.884846e+01    1.215741e+00
  1.888021e+01    1.204720e+00
  1.891196e+01    1.207344e+00
  1.894372e+01    1.207530e+00
  1.897547e+01    1.201080e+00
  1.900722e+01    1.200194e+00
  1.903897e+01    1.179466e+00
  1.907072e+01    1.184381e+00
  1.910247e+01    1.198426e+00
  1.913422e+01    1.175472e+00
  1.916597e+01    1.186905e+00
  1.919773e+01    1.172731e+00
  1.922948e+01    1.209642e+00
  1.926123e+01    1.168870e+00
  1.929298e+01    1.166475e+00
  1.932473e+01    1.175556e+00
  1.935648e+01    1.177945e+00
  1.938823e+01    1.170184e+00
  1.941998e+01    1.173422e+00
  1.945173e+01    1.166467e+00
  1.948349e+01    1.163636e+00
  1.951524e+01    1.155496e+00
  1.954699e+01    1.139940e+00
  1.957874e+01    1.156900e+00
  1.961049e+01    1.140177e+00
  1.964224e+01    1.162484e+00
  1.967399e+01    1.146041e+00
  1.970574e+01    1.139963e+00
  1.973749e+01    1.135964e+00
  1.976925e+01    1.146118e+00
  1.980100e+01    1.134934e+00
  1.983275e+01    1.141583e+00
  1.986450e+01    1.118207e+00
  1.989625e+01    1.106398e+00
  1.992800e+01    1.112099e+00
  1.995975e+01    1.101460e+00
  1.999150e+01    1.099982e+00
  2.002325e+01    1.105915e+00
  2.005501e+01    1.118819e+00
  2.008676e+01    1.099140e+00
  2.011851e+01    1.096185e+00
  2.015026e+01    1.112608e+00
  2.018201e+01    1.082199e+00
  2.021376e+01    1.088543e+00
  2.024551e+01    1.117484e+00
  2.027726e+01    1.102738e+00
  2.030902e+01    1.077996e+00
  2.034077e+01    1.116856e+00
  2.037252e+01    1.089103e+00
  2.040427e+01    1.063208e+00
  2.043602e+01    1.102926e+00
  2.046777e+01    1.071011e+00
  2.049952e+01    1.090985e+00
  2.053127e+01    1.064544e+00
  2.056302e+01    1.102222e+00
  2.059478e+01    1.064354e+00
  2.062653e+01    1.077342e+00
  2.065828e+01    1.047695e+00
  2.069003e+01    1.067882e+00
  2.072178e+01    1.074619e+00
  2.075353e+01    1.057792e+00
  2.078528e+01    1.071329e+00
  2.081703e+01    1.087447e+00
  2.084878e+01    1.065806e+00
  2.088054e+01    1.085874e+00
  2.091229e+01    1.092533e+00
  2.094404e+01    1.080025e+00
  2.097579e+01    1.062351e+00
  2.100754e+01    1.054940e+00
  2.103929e+01    1.085152e+00
  2.107104e+01    1.081404e+00
  2.110279e+01    1.094929e+00
  2.113455e+01    1.065219e+00
  2.116630e+01    1.082552e+00
  2.119805e+01    1.086091e+00
  2.122980e+01    1.083915e+00
  2.126155e+01    1.099007e+00
  2.129330e+01    1.110308e+00
  2.132505e+01    1.125052e+00
  2.135680e+01    1.142890e+00
  2.138855e+01    1.124596e+00
  2.142031e+01    1.201499e+00
  2.145206e+01    1.212873e+00
  2.148381e+01    1.240739e+00
  2.151556e+01    1.293044e+00
  2.154731e+01    1.390024e+00
  2.157906e+01    1.484647e+00
  2.161081e+01    1.621571e+00
  2.164256e+01    1.829382e+00
  2.167431e+01    2.129956e+00
  2.170607e+01    2.555264e+00
  2.173782e+01    3.261891e+00
  2.176957e+01    4.252228e+00
  2.180132e+01    5.533411e+00
  2.183307e+01    6.950624e+00
  2.186482e+01    8.316571e+00
  2.189657e+01    9.245237e+00
  2.192832e+01    8.900537e+00
  2.196007e+01    7.225219e+00
  2.199183e+01    5.318421e+00
  2.202358e+01    3.864563e+00
  2.205533e+01    2.912991e+00
  2.208708e+01    2.345819e+00
  2.211883e+01    1.951148e+00
  2.215058e+01    1.690349e+00
  2.218233e+01    1.500218e+00
  2.221408e+01    1.420025e+00
  2.224584e+01    1.305960e+00
  2.227759e+01    1.210024e+00
  2.230934e+01    1.181192e+00
  2.234109e+01    1.111083e+00
  2.237284e+01    1.094147e+00
  2.240459e+01    1.074490e+00
  2.243634e+01    1.038110e+00
  2.246809e+01    1.031838e+00
  2.249984e+01    1.017499e+00
  2.253160e+01    1.006962e+00
  2.256335e+01    9.948500e-01
  2.259510e+01    1.011266e+00
  2.262685e+01    9.725069e-01
  2.265860e+01    9.683411e-01
  2.269035e+01    9.233071e-01
  2.272210e+01    9.347422e-01
  2.275385e+01    9.277897e-01
  2.278560e+01    9.322600e-01
  2.281736e+01    9.337283e-01
  2.284911e+01    9.291088e-01
  2.288086e+01    9.100991e-01
  2.291261e+01    9.112603e-01
  2.294436e+01    9.059033e-01
  2.297611e+01    9.221283e-01
  2.300786e+01    8.718641e-01
  2.303961e+01    8.922594e-01
  2.307137e+01    8.949540e-01
  2.310312e+01    8.822017e-01
  2.313487e+01    8.787292e-01
  2.316662e+01    8.678819e-01
  2.319837e+01    8.724326e-01
  2.323012e+01    8.815905e-01
  2.326187e+01    8.768067e-01
  2.329362e+01    8.491265e-01
  2.332537e+01    8.416781e-01
  2.335713e+01    8.568186e-01
  2.338888e+01    8.371866e-01
  2.342063e+01    8.546228e-01
  2.345238e+01    8.611653e-01
  2.348413e+01    8.507558e-01
  2.351588e+01    8.298498e-01
  2.354763e+01    8.458030e-01
  2.357938e+01    8.317673e-01
  2.361113e+01    8.426530e-01
  2.364289e+01    8.416482e-01
  2.367464e+01    8.529795e-01
  2.370639e+01    8.254846e-01
  2.373814e+01    8.293079e-01
  2.376989e+01    8.207039e-01
  2.380164e+01    7.883794e-01
  2.383339e+01    8.099672e-01
  2.386514e+01    7.959788e-01
  2.389689e+01    7.987291e-01
  2.392865e+01    7.928725e-01
  2.396040e+01    7.911870e-01
  2.399215e+01    7.943951e-01
  2.402390e+01    7.861584e-01
  2.405565e+01    7.855898e-01
  2.408740e+01    7.881086e-01
  2.411915e+01    7.765010e-01
  2.415090e+01    7.541806e-01
  2.418266e+01    7.764988e-01
  2.421441e+01    7.594410e-01
  2.424616e+01    7.734933e-01
  2.427791e+01    7.783170e-01
  2.430966e+01    7.655266e-01
  2.434141e+01    7.676362e-01
  2.437316e+01    7.476099e-01
  2.440491e+01    7.812438e-01
  2.443666e+01    7.774432e-01
  2.446842e+01    7.885507e-01
  2.450017e+01    7.951927e-01
  2.453192e+01    7.890332e-01
  2.456367e+01    7.947019e-01
  2.459542e+01    8.145501e-01
  2.462717e+01    7.687933e-01
  2.465892e+01    7.784666e-01
  2.469067e+01    7.540916e-01
  2.472242e+01    7.902722e-01
  2.475418e+01    7.701024e-01
  2.478593e+01    7.892089e-01
  2.481768e+01    7.999276e-01
  2.484943e+01    7.853475e-01
  2.488118e+01    8.188686e-01
  2.491293e+01    7.939309e-01
  2.494468e+01    7.881468e-01
  2.497643e+01    7.923138e-01
  2.500819e+01    7.946305e-01
  2.503994e+01    7.915270e-01
  2.507169e+01    8.031005e-01
  2.510344e+01    8.118719e-01
  2.513519e+01    8.135117e-01
  2.516694e+01    8.250129e-01
  2.519869e+01    8.177766e-01
  2.523044e+01    8.539559e-01
  2.526219e+01    8.383799e-01
  2.529395e+01    8.535721e-01
  2.532570e+01    8.487974e-01
  2.535745e+01    8.852793e-01
  2.538920e+01    8.883525e-01
  2.542095e+01    9.081482e-01
  2.545270e+01    9.159059e-01
  2.548445e+01    9.625952e-01
  2.551620e+01    9.726832e-01
  2.554795e+01    1.014371e+00
  2.557971e+01    1.073957e+00
  2.561146e+01    1.113780e+00
  2.564321e+01    1.234185e+00
  2.567496e+01    1.311531e+00
  2.570671e+01    1.512942e+00
  2.573846e+01    1.744313e+00
  2.577021e+01    2.057812e+00
  2.580196e+01    2.639521e+00
  2.583371e+01    3.391697e+00
  2.586547e+01    4.481455e+00
  2.589722e+01    5.640332e+00
  2.592897e+01    6.842177e+00
  2.596072e+01    7.670487e+00
  2.599247e+01    7.332419e+00
  2.602422e+01    6.103228e+00
  2.605597e+01    4.598444e+00
  2.608772e+01    3.337564e+00
  2.611948e+01    2.554704e+00
  2.615123e+01    2.021889e+00
  2.618298e+01    1.724275e+00
  2.621473e+01    1.490462e+00
  2.624648e+01    1.303445e+00
  2.627823e+01    1.184952e+00
  2.630998e+01    1.125999e+00
  2.634173e+01    1.067125e+00
  2.637348e+01    1.022406e+00
  2.640524e+01    9.727148e-01
  2.643699e+01    9.521015e-01
  2.646874e+01    9.662678e-01
  2.650049e+01    9.310040e-01
  2.653224e+01    9.047990e-01
  2.656399e+01    8.968093e-01
  2.659574e+01    9.019223e-01
  2.662749e+01    9.108712e-01
  2.665924e+01    8.993765e-01
  2.669100e+01    8.755955e-01
  2.672275e+01    8.536439e-01
  2.675450e+01    9.055108e-01
  2.678625e+01    8.875029e-01
  2.681800e+01    8.947238e-01
  2.684975e+01    8.793666e-01
  2.688150e+01    9.250682e-01
  2.691325e+01    9.402587e-01
  2.694501e+01    9.464716e-01
  2.697676e+01    9.791433e-01
  2.700851e+01    1.025724e+00
  2.704026e+01    1.091910e+00
  2.707201e+01    1.209681e+00
  2.710376e+01    1.380537e+00
  2.713551e+01    1.584381e+00
  2.716726e+01    1.905046e+00
  2.719901e+01    2.194533e+00
  2.723077e+01    2.256181e+00
  2.726252e+01    2.114663e+00
  2.729427e+01    1.778131e+00
  2.732602e+01    1.530137e+00
  2.735777e+01    1.291703e+00
  2.738952e+01    1.135711e+00
  2.742127e+01    1.040814e+00
  2.745302e+01    9.842952e-01
  2.748477e+01    9.476179e-01
  2.751653e+01    9.136152e-01
  2.754828e+01    8.672664e-01
  2.758003e+01    8.689888e-01
  2.761178e+01    8.562831e-01
  2.764353e+01    8.512089e-01
  2.767528e+01    7.925138e-01
  2.770703e+01    8.259726e-01
  2.773878e+01    8.011315e-01
  2.777054e+01    8.071032e-01
  2.780229e+01    8.171804e-01
  2.783404e+01    7.805840e-01
  2.786579e+01    8.017794e-01
  2.789754e+01    7.960393e-01
  2.792929e+01    7.833516e-01
  2.796104e+01    7.742751e-01
  2.799279e+01    7.895086e-01
  2.802454e+01    7.681538e-01
  2.805630e+01    7.605708e-01
  2.808805e+01    7.588743e-01
  2.811980e+01    7.873496e-01
  2.815155e+01    7.649726e-01
  2.818330e+01    7.614465e-01
  2.821505e+01    7.660304e-01
  2.824680e+01    7.531285e-01
  2.827855e+01    7.410175e-01
  2.831030e+01    7.369596e-01
  2.834206e+01    7.719933e-01
  2.837381e+01    7.458267e-01
  2.840556e+01    7.824348e-01
  2.843731e+01    7.648397e-01
  2.846906e+01    7.516624e-01
  2.850081e+01    7.241565e-01
  2.853256e+01    7.491631e-01
  2.856431e+01    7.377751e-01
  2.859606e+01    7.430888e-01
  2.862782e+01    7.452126e-01
  2.865957e+01    7.399952e-01
  2.869132e+01    7.649544e-01
  2.872307e+01    7.348670e-01
  2.875482e+01    7.300673e-01
  2.878657e+01    7.376146e-01
  2.881832e+01    7.615557e-01
  2.885007e+01    7.461793e-01
  2.888183e+01    7.560014e-01
  2.891358e+01    7.496850e-01
  2.894533e+01    7.330160e-01
  2.897708e+01    7.581392e-01
  2.900883e+01    7.498078e-01
  2.904058e+01    7.276062e-01
  2.907233e+01    7.554390e-01
  2.910408e+01    7.560428e-01
  2.913583e+01    7.325489e-01
  2.916759e+01    7.298448e-01
  2.919934e+01    7.372344e-01
  2.923109e+01    7.219585e-01
  2.926284e+01    7.401347e-01
  2.929459e+01    7.249041e-01
  2.932634e+01    7.226796e-01
  2.935809e+01    7.195343e-01
  2.938984e+01    7.336860e-01
  2.942159e+01    7.103484e-01
  2.945335e+01    7.283300e-01
  2.948510e+01    7.155015e-01
  2.951685e+01    7.009774e-01
  2.954860e+01    7.123162e-01
  2.958035e+01    7.327155e-01
  2.961210e+01    7.236439e-01
  2.964385e+01    7.162423e-01
  2.967560e+01    7.166855e-01
  2.970736e+01    7.217880e-01
  2.973911e+01    7.133762e-01
  2.977086e+01    6.956927e-01
  2.980261e+01    7.289325e-01
  2.983436e+01    6.947724e-01
  2.986611e+01    7.113777e-01
  2.989786e+01    7.228852e-01
  2.992961e+01    7.269507e-01
  2.996136e+01    7.107244e-01
  2.999312e+01    7.360101e-01
  3.002487e+01    7.223457e-01
  3.005662e+01    7.304336e-01
  3.008837e+01    7.378680e-01
  3.012012e+01    7.078530e-01
  3.015187e+01    7.152472e-01
  3.018362e+01    7.050512e-01
  3.021537e+01    7.259911e-01
  3.024712e+01    7.017672e-01
  3.027888e+01    7.123323e-01
  3.031063e+01    6.879591e-01
  3.034238e+01    7.111377e-01
  3.037413e+01    7.187757e-01
  3.040588e+01    7.249765e-01
  3.043763e+01    7.056574e-01
  3.046938e+01    7.106430e-01
  3.050113e+01    7.132850e-01
  3.053288e+01    7.031851e-01
  3.056464e+01    7.083839e-01
  3.059639e+01    7.141751e-01
  3.062814e+01    7.078217e-01
  3.065989e+01    6.934423e-01
  3.069164e+01    7.007549e-01
  3.072339e+01    7.346877e-01
  3.075514e+01    7.174566e-01
  3.078689e+01    6.975797e-01
  3.081865e+01    7.108085e-01
  3.085040e+01    7.067393e-01
  3.088215e+01    7.023121e-01
  3.091390e+01    7.037025e-01
  3.094565e+01    7.161716e-01
  3.097740e+01    6.900338e-01
  3.100915e+01    7.068784e-01
  3.104090e+01    7.087396e-01
  3.107265e+01    7.105731e-01
  3.110441e+01    7.212014e-01
  3.113616e+01    7.322196e-01
  3.116791e+01    7.224105e-01
  3.119966e+01    7.320747e-01
  3.123141e+01    7.316749e-01
  3.126316e+01    7.401135e-01
  3.129491e+01    7.058411e-01
  3.132666e+01    7.279000e-01
  3.135841e+01    7.440488e-01
  3.139017e+01    7.506849e-01
  3.142192e+01    7.361349e-01
  3.145367e+01    7.442246e-01
  3.148542e+01    7.504264e-01
  3.151717e+01    7.646198e-01
  3.154892e+01    8.042178e-01
  3.158067e+01    7.886013e-01
  3.161242e+01    8.197470e-01
  3.164418e+01    8.696879e-01
  3.167593e+01    8.935680e-01
  3.170768e+01    9.557600e-01
  3.173943e+01    1.052784e+00
  3.177118e+01    1.189414e+00
  3.180293e+01    1.409402e+00
  3.183468e+01    1.691688e+00
  3.186643e+01    1.947571e+00
  3.189818e+01    2.173060e+00
  3.192994e+01    2.212932e+00
  3.196169e+01    2.037952e+00
  3.199344e+01    1.706856e+00
  3.202519e+01    1.412413e+00
  3.205694e+01    1.185702e+00
  3.208869e+01    1.048247e+00
  3.212044e+01    9.331070e-01
  3.215219e+01    8.697447e-01
  3.218394e+01    8.593616e-01
  3.221570e+01    7.863595e-01
  3.224745e+01    7.780423e-01
  3.227920e+01    7.595271e-01
  3.231095e+01    7.601084e-01
  3.234270e+01    7.624462e-01
  3.237445e+01    7.568060e-01
  3.240620e+01    7.415517e-01
  3.243795e+01    7.467169e-01
  3.246970e+01    7.079275e-01
  3.250146e+01    7.245066e-01
  3.253321e+01    7.352517e-01
  3.254908e+01    7.356716e-01