File: XRD/2024-07-27_002_Ru-CGO-ex_Activtation_ramp_000002_data_000140.dat
# == pyFAI calibration ==
# Distance Sample to Detector: 0.4 m
# PONI: 9.750e-02, 1.135e-01 m
# Rotations: -0.000175 0.000000 -0.000000 rad
#
# == Fit2d calibration ==
# Distance Sample-beamCenter: 400.000 mm
# Center: x=1514.000, y=1300.000 pix
# Tilt: 0.010 deg  TiltPlanRot: 0.010 deg
#
# Detector Detector	 Spline= None	 PixelSize= 7.500e-05, 7.500e-05 m
#    Detector has a mask: False
#    Detector has a dark current: False
#    detector has a flat field: False
#
# Wavelength: 6.888e-11 m
# Mask applied: user provided
# Dark current applied: False
# Flat field applied: False
# Polarization factor: 0.99
# Normalization factor: 1.0
# --> /home/myspot/data/2024_07_Rosario/Ru-CGO-ex/2024-07-27_002_Ru-CGO-ex_Activtation_ramp_000002_data_000140.dat
#       q_nm^-1             I
  2.003187e-02    9.939744e-02
  5.178302e-02    1.910478e-02
  8.353417e-02    3.909057e-02
  1.152853e-01    7.040652e-02
  1.470365e-01    2.787448e-02
  1.787876e-01    4.237584e-02
  2.105388e-01    3.109180e-02
  2.422899e-01    3.339208e-02
  2.740411e-01    2.972651e-02
  3.057922e-01    5.710402e-02
  3.375433e-01    3.159947e-02
  3.692945e-01    1.327448e-02
  4.010456e-01    2.882039e-02
  4.327968e-01    3.593087e-02
  4.645479e-01    2.585135e-02
  4.962991e-01    3.419477e-02
  5.280502e-01    3.859291e-02
  5.598014e-01    1.870423e-02
  5.915525e-01    6.625773e-04
  6.233037e-01    1.390817e-02
  6.550548e-01    3.927392e-02
  6.868060e-01    4.218122e-02
  7.185571e-01    4.971439e-02
  7.503083e-01    3.125348e-02
  7.820594e-01    1.052612e-01
  8.138106e-01    1.733664e-01
  8.455617e-01    2.869069e-01
  8.773129e-01    4.094240e-01
  9.090640e-01    5.594980e-01
  9.408152e-01    7.360860e-01
  9.725663e-01    8.916507e-01
  1.004317e+00    1.032328e+00
  1.036069e+00    1.138352e+00
  1.067820e+00    1.325112e+00
  1.099571e+00    1.464421e+00
  1.131322e+00    1.394673e+00
  1.163073e+00    1.537654e+00
  1.194824e+00    1.596772e+00
  1.226575e+00    2.014759e+00
  1.258327e+00    2.343140e+00
  1.290078e+00    2.313544e+00
  1.321829e+00    2.531249e+00
  1.353580e+00    2.676892e+00
  1.385331e+00    2.551857e+00
  1.417082e+00    2.486733e+00
  1.448834e+00    2.691733e+00
  1.480585e+00    2.701110e+00
  1.512336e+00    2.795903e+00
  1.544087e+00    2.891851e+00
  1.575838e+00    2.834336e+00
  1.607589e+00    2.841046e+00
  1.639340e+00    2.807998e+00
  1.671092e+00    2.804094e+00
  1.702843e+00    2.725920e+00
  1.734594e+00    2.670952e+00
  1.766345e+00    2.809180e+00
  1.798096e+00    2.891407e+00
  1.829847e+00    2.774297e+00
  1.861598e+00    2.732684e+00
  1.893350e+00    2.566166e+00
  1.925101e+00    2.662930e+00
  1.956852e+00    2.669112e+00
  1.988603e+00    2.578641e+00
  2.020354e+00    2.661825e+00
  2.052105e+00    2.666357e+00
  2.083856e+00    2.720130e+00
  2.115608e+00    2.692258e+00
  2.147359e+00    2.660181e+00
  2.179110e+00    2.677157e+00
  2.210861e+00    2.783949e+00
  2.242612e+00    2.671618e+00
  2.274363e+00    2.792324e+00
  2.306115e+00    2.806954e+00
  2.337866e+00    2.719324e+00
  2.369617e+00    2.748760e+00
  2.401368e+00    2.640244e+00
  2.433119e+00    2.837068e+00
  2.464870e+00    2.720946e+00
  2.496621e+00    2.633990e+00
  2.528373e+00    2.656086e+00
  2.560124e+00    2.712265e+00
  2.591875e+00    2.750628e+00
  2.623626e+00    2.795874e+00
  2.655377e+00    2.786174e+00
  2.687128e+00    2.849493e+00
  2.718879e+00    2.800998e+00
  2.750631e+00    2.751172e+00
  2.782382e+00    2.737668e+00
  2.814133e+00    2.780482e+00
  2.845884e+00    2.814713e+00
  2.877635e+00    2.786361e+00
  2.909386e+00    2.826700e+00
  2.941137e+00    2.868405e+00
  2.972889e+00    2.844569e+00
  3.004640e+00    2.783899e+00
  3.036391e+00    2.765083e+00
  3.068142e+00    2.850080e+00
  3.099893e+00    2.955625e+00
  3.131644e+00    2.775346e+00
  3.163395e+00    2.839813e+00
  3.195147e+00    2.805048e+00
  3.226898e+00    2.873467e+00
  3.258649e+00    2.841736e+00
  3.290400e+00    2.885885e+00
  3.322151e+00    2.844390e+00
  3.353902e+00    2.963066e+00
  3.385654e+00    2.886075e+00
  3.417405e+00    2.819155e+00
  3.449156e+00    2.866677e+00
  3.480907e+00    3.018966e+00
  3.512658e+00    2.959032e+00
  3.544409e+00    2.879372e+00
  3.576160e+00    2.893416e+00
  3.607912e+00    2.933077e+00
  3.639663e+00    2.954805e+00
  3.671414e+00    2.982333e+00
  3.703165e+00    2.923550e+00
  3.734916e+00    2.981914e+00
  3.766667e+00    2.965937e+00
  3.798418e+00    2.886127e+00
  3.830170e+00    2.936332e+00
  3.861921e+00    2.969008e+00
  3.893672e+00    3.009511e+00
  3.925423e+00    3.058998e+00
  3.957174e+00    2.928586e+00
  3.988925e+00    2.958633e+00
  4.020676e+00    2.904708e+00
  4.052428e+00    2.926411e+00
  4.084179e+00    3.038653e+00
  4.115930e+00    3.042716e+00
  4.147681e+00    2.943894e+00
  4.179432e+00    2.979493e+00
  4.211183e+00    2.952383e+00
  4.242935e+00    3.055986e+00
  4.274686e+00    3.036522e+00
  4.306437e+00    3.083424e+00
  4.338188e+00    3.039531e+00
  4.369939e+00    3.022400e+00
  4.401690e+00    2.998651e+00
  4.433441e+00    3.008431e+00
  4.465193e+00    3.065203e+00
  4.496944e+00    3.110250e+00
  4.528695e+00    3.072343e+00
  4.560446e+00    3.058086e+00
  4.592197e+00    3.073959e+00
  4.623948e+00    3.135102e+00
  4.655699e+00    3.009635e+00
  4.687451e+00    2.982677e+00
  4.719202e+00    3.150713e+00
  4.750953e+00    3.097158e+00
  4.782704e+00    3.015249e+00
  4.814455e+00    3.107971e+00
  4.846206e+00    3.085173e+00
  4.877957e+00    3.170120e+00
  4.909709e+00    3.153075e+00
  4.941460e+00    3.049395e+00
  4.973211e+00    3.063656e+00
  5.004962e+00    3.102918e+00
  5.036713e+00    3.067166e+00
  5.068464e+00    2.962008e+00
  5.100216e+00    3.058157e+00
  5.131967e+00    3.082669e+00
  5.163718e+00    3.025946e+00
  5.195469e+00    3.103688e+00
  5.227220e+00    3.073509e+00
  5.258971e+00    3.148419e+00
  5.290722e+00    3.040623e+00
  5.322474e+00    3.206031e+00
  5.354225e+00    3.101376e+00
  5.385976e+00    3.114399e+00
  5.417727e+00    3.006939e+00
  5.449478e+00    2.975072e+00
  5.481229e+00    3.111230e+00
  5.512980e+00    3.105286e+00
  5.544732e+00    3.097266e+00
  5.576483e+00    3.095487e+00
  5.608234e+00    2.990719e+00
  5.639985e+00    3.008631e+00
  5.671736e+00    3.063980e+00
  5.703487e+00    2.972507e+00
  5.735238e+00    2.977645e+00
  5.766990e+00    3.008803e+00
  5.798741e+00    3.006798e+00
  5.830492e+00    3.051704e+00
  5.862243e+00    2.985004e+00
  5.893994e+00    2.959700e+00
  5.925745e+00    2.927551e+00
  5.957497e+00    3.008156e+00
  5.989248e+00    3.060461e+00
  6.020999e+00    2.962976e+00
  6.052750e+00    2.963725e+00
  6.084501e+00    3.055124e+00
  6.116252e+00    3.032501e+00
  6.148003e+00    3.024379e+00
  6.179755e+00    3.121169e+00
  6.211506e+00    2.993621e+00
  6.243257e+00    3.028513e+00
  6.275008e+00    3.021524e+00
  6.306759e+00    3.050152e+00
  6.338510e+00    2.988759e+00
  6.370261e+00    3.002142e+00
  6.402013e+00    2.971166e+00
  6.433764e+00    3.039275e+00
  6.465515e+00    2.958727e+00
  6.497266e+00    3.029533e+00
  6.529017e+00    3.000045e+00
  6.560768e+00    3.015583e+00
  6.592519e+00    2.929844e+00
  6.624271e+00    2.936746e+00
  6.656022e+00    2.946064e+00
  6.687773e+00    3.091290e+00
  6.719524e+00    3.047491e+00
  6.751275e+00    2.979677e+00
  6.783026e+00    3.012345e+00
  6.814777e+00    2.936647e+00
  6.846529e+00    2.972621e+00
  6.878280e+00    3.006315e+00
  6.910031e+00    2.969889e+00
  6.941782e+00    2.952338e+00
  6.973533e+00    2.943836e+00
  7.005284e+00    2.903595e+00
  7.037036e+00    3.064963e+00
  7.068787e+00    2.997716e+00
  7.100538e+00    2.908247e+00
  7.132289e+00    2.995568e+00
  7.164040e+00    2.925408e+00
  7.195791e+00    3.020062e+00
  7.227542e+00    2.970549e+00
  7.259294e+00    2.946286e+00
  7.291045e+00    2.972242e+00
  7.322796e+00    2.941535e+00
  7.354547e+00    2.906579e+00
  7.386298e+00    3.005526e+00
  7.418049e+00    2.944376e+00
  7.449800e+00    2.931722e+00
  7.481552e+00    3.004918e+00
  7.513303e+00    3.018036e+00
  7.545054e+00    2.995217e+00
  7.576805e+00    2.927529e+00
  7.608556e+00    2.894570e+00
  7.640307e+00    2.936172e+00
  7.672058e+00    2.913507e+00
  7.703810e+00    2.975036e+00
  7.735561e+00    2.896713e+00
  7.767312e+00    2.908355e+00
  7.799063e+00    2.956482e+00
  7.830814e+00    2.913270e+00
  7.862565e+00    2.920938e+00
  7.894317e+00    2.896817e+00
  7.926068e+00    2.897745e+00
  7.957819e+00    2.904437e+00
  7.989570e+00    2.886522e+00
  8.021321e+00    2.829892e+00
  8.053072e+00    2.896192e+00
  8.084823e+00    2.930291e+00
  8.116575e+00    2.888335e+00
  8.148326e+00    2.969120e+00
  8.180077e+00    2.945786e+00
  8.211828e+00    3.024533e+00
  8.243579e+00    2.973229e+00
  8.275330e+00    2.887629e+00
  8.307081e+00    2.881918e+00
  8.338833e+00    2.876551e+00
  8.370584e+00    2.960822e+00
  8.402335e+00    2.877133e+00
  8.434086e+00    2.882177e+00
  8.465837e+00    2.840928e+00
  8.497588e+00    2.853221e+00
  8.529339e+00    2.914933e+00
  8.561091e+00    2.886232e+00
  8.592842e+00    2.825188e+00
  8.624593e+00    2.827687e+00
  8.656344e+00    2.821551e+00
  8.688095e+00    2.819870e+00
  8.719846e+00    2.796709e+00
  8.751598e+00    2.856494e+00
  8.783349e+00    2.780315e+00
  8.815100e+00    2.827396e+00
  8.846851e+00    2.815693e+00
  8.878602e+00    2.807225e+00
  8.910353e+00    2.764075e+00
  8.942104e+00    2.815229e+00
  8.973856e+00    2.826284e+00
  9.005607e+00    2.764253e+00
  9.037358e+00    2.726986e+00
  9.069109e+00    2.769310e+00
  9.100860e+00    2.760550e+00
  9.132611e+00    2.779936e+00
  9.164362e+00    2.755547e+00
  9.196114e+00    2.728376e+00
  9.227865e+00    2.737512e+00
  9.259616e+00    2.727107e+00
  9.291367e+00    2.764684e+00
  9.323118e+00    2.752368e+00
  9.354869e+00    2.736189e+00
  9.386620e+00    2.756840e+00
  9.418372e+00    2.700107e+00
  9.450123e+00    2.672534e+00
  9.481874e+00    2.760917e+00
  9.513625e+00    2.697196e+00
  9.545376e+00    2.718412e+00
  9.577127e+00    2.789540e+00
  9.608878e+00    2.702385e+00
  9.640630e+00    2.748142e+00
  9.672381e+00    2.799426e+00
  9.704132e+00    2.702677e+00
  9.735883e+00    2.734611e+00
  9.767634e+00    2.717805e+00
  9.799385e+00    2.662095e+00
  9.831137e+00    2.706231e+00
  9.862888e+00    2.659034e+00
  9.894639e+00    2.685854e+00
  9.926390e+00    2.661766e+00
  9.958141e+00    2.657690e+00
  9.989892e+00    2.626014e+00
  1.002164e+01    2.643467e+00
  1.005339e+01    2.652740e+00
  1.008515e+01    2.719337e+00
  1.011690e+01    2.540141e+00
  1.014865e+01    2.650955e+00
  1.018040e+01    2.636044e+00
  1.021215e+01    2.579978e+00
  1.024390e+01    2.669144e+00
  1.027565e+01    2.636415e+00
  1.030740e+01    2.627229e+00
  1.033915e+01    2.632302e+00
  1.037091e+01    2.608787e+00
  1.040266e+01    2.612602e+00
  1.043441e+01    2.583433e+00
  1.046616e+01    2.563981e+00
  1.049791e+01    2.567195e+00
  1.052966e+01    2.587018e+00
  1.056141e+01    2.513863e+00
  1.059316e+01    2.498555e+00
  1.062492e+01    2.496607e+00
  1.065667e+01    2.540756e+00
  1.068842e+01    2.573452e+00
  1.072017e+01    2.519052e+00
  1.075192e+01    2.507467e+00
  1.078367e+01    2.509434e+00
  1.081542e+01    2.520196e+00
  1.084717e+01    2.454493e+00
  1.087892e+01    2.486092e+00
  1.091068e+01    2.459304e+00
  1.094243e+01    2.452083e+00
  1.097418e+01    2.419218e+00
  1.100593e+01    2.440520e+00
  1.103768e+01    2.509053e+00
  1.106943e+01    2.480489e+00
  1.110118e+01    2.463065e+00
  1.113293e+01    2.444846e+00
  1.116468e+01    2.483632e+00
  1.119644e+01    2.448358e+00
  1.122819e+01    2.408471e+00
  1.125994e+01    2.429467e+00
  1.129169e+01    2.415789e+00
  1.132344e+01    2.412510e+00
  1.135519e+01    2.398143e+00
  1.138694e+01    2.394591e+00
  1.141869e+01    2.371333e+00
  1.145045e+01    2.352994e+00
  1.148220e+01    2.433509e+00
  1.151395e+01    2.343932e+00
  1.154570e+01    2.390455e+00
  1.157745e+01    2.349211e+00
  1.160920e+01    2.340736e+00
  1.164095e+01    2.341623e+00
  1.167270e+01    2.341089e+00
  1.170445e+01    2.322015e+00
  1.173621e+01    2.372874e+00
  1.176796e+01    2.331829e+00
  1.179971e+01    2.360281e+00
  1.183146e+01    2.330333e+00
  1.186321e+01    2.324161e+00
  1.189496e+01    2.307965e+00
  1.192671e+01    2.334728e+00
  1.195846e+01    2.340052e+00
  1.199021e+01    2.339582e+00
  1.202197e+01    2.309431e+00
  1.205372e+01    2.385598e+00
  1.208547e+01    2.323367e+00
  1.211722e+01    2.304800e+00
  1.214897e+01    2.346070e+00
  1.218072e+01    2.307342e+00
  1.221247e+01    2.322537e+00
  1.224422e+01    2.299805e+00
  1.227597e+01    2.283823e+00
  1.230773e+01    2.332661e+00
  1.233948e+01    2.281830e+00
  1.237123e+01    2.322412e+00
  1.240298e+01    2.281008e+00
  1.243473e+01    2.290450e+00
  1.246648e+01    2.354915e+00
  1.249823e+01    2.286027e+00
  1.252998e+01    2.274209e+00
  1.256174e+01    2.302476e+00
  1.259349e+01    2.398880e+00
  1.262524e+01    2.409883e+00
  1.265699e+01    2.431577e+00
  1.268874e+01    2.409454e+00
  1.272049e+01    2.476315e+00
  1.275224e+01    2.488595e+00
  1.278399e+01    2.578434e+00
  1.281574e+01    2.723188e+00
  1.284750e+01    2.751588e+00
  1.287925e+01    2.958088e+00
  1.291100e+01    3.282653e+00
  1.294275e+01    3.682045e+00
  1.297450e+01    4.343872e+00
  1.300625e+01    5.411235e+00
  1.303800e+01    7.078286e+00
  1.306975e+01    9.569785e+00
  1.310150e+01    1.207612e+01
  1.313326e+01    1.447816e+01
  1.316501e+01    1.654534e+01
  1.319676e+01    1.649599e+01
  1.322851e+01    1.352764e+01
  1.326026e+01    9.663203e+00
  1.329201e+01    7.014950e+00
  1.332376e+01    5.272990e+00
  1.335551e+01    4.292558e+00
  1.338727e+01    3.618479e+00
  1.341902e+01    3.232254e+00
  1.345077e+01    2.936010e+00
  1.348252e+01    2.731821e+00
  1.351427e+01    2.618521e+00
  1.354602e+01    2.469068e+00
  1.357777e+01    2.428313e+00
  1.360952e+01    2.337210e+00
  1.364127e+01    2.319654e+00
  1.367303e+01    2.249645e+00
  1.370478e+01    2.230088e+00
  1.373653e+01    2.165918e+00
  1.376828e+01    2.164028e+00
  1.380003e+01    2.161699e+00
  1.383178e+01    2.150357e+00
  1.386353e+01    2.105963e+00
  1.389528e+01    2.081701e+00
  1.392703e+01    2.066374e+00
  1.395879e+01    2.086241e+00
  1.399054e+01    2.061911e+00
  1.402229e+01    2.078303e+00
  1.405404e+01    2.035633e+00
  1.408579e+01    1.975357e+00
  1.411754e+01    1.986649e+00
  1.414929e+01    1.954871e+00
  1.418104e+01    2.011823e+00
  1.421279e+01    1.925130e+00
  1.424455e+01    1.952363e+00
  1.427630e+01    1.927472e+00
  1.430805e+01    1.921801e+00
  1.433980e+01    1.915700e+00
  1.437155e+01    1.916657e+00
  1.440330e+01    1.918928e+00
  1.443505e+01    1.949020e+00
  1.446680e+01    1.918771e+00
  1.449856e+01    1.880704e+00
  1.453031e+01    1.941024e+00
  1.456206e+01    1.887018e+00
  1.459381e+01    1.907776e+00
  1.462556e+01    1.915161e+00
  1.465731e+01    1.943455e+00
  1.468906e+01    1.900577e+00
  1.472081e+01    1.896839e+00
  1.475256e+01    1.882171e+00
  1.478432e+01    1.927402e+00
  1.481607e+01    1.888330e+00
  1.484782e+01    1.928852e+00
  1.487957e+01    1.916671e+00
  1.491132e+01    1.957423e+00
  1.494307e+01    1.995011e+00
  1.497482e+01    2.045118e+00
  1.500657e+01    2.150786e+00
  1.503832e+01    2.299242e+00
  1.507008e+01    2.531207e+00
  1.510183e+01    2.836672e+00
  1.513358e+01    3.392606e+00
  1.516533e+01    4.226778e+00
  1.519708e+01    4.905285e+00
  1.522883e+01    5.405404e+00
  1.526058e+01    5.789346e+00
  1.529233e+01    5.542139e+00
  1.532409e+01    4.755194e+00
  1.535584e+01    3.750428e+00
  1.538759e+01    3.029938e+00
  1.541934e+01    2.542127e+00
  1.545109e+01    2.259584e+00
  1.548284e+01    2.128802e+00
  1.551459e+01    1.969002e+00
  1.554634e+01    1.898337e+00
  1.557809e+01    1.844617e+00
  1.560985e+01    1.800441e+00
  1.564160e+01    1.769182e+00
  1.567335e+01    1.711723e+00
  1.570510e+01    1.706404e+00
  1.573685e+01    1.723050e+00
  1.576860e+01    1.681771e+00
  1.580035e+01    1.662186e+00
  1.583210e+01    1.621433e+00
  1.586385e+01    1.631445e+00
  1.589561e+01    1.598238e+00
  1.592736e+01    1.625714e+00
  1.595911e+01    1.585536e+00
  1.599086e+01    1.627299e+00
  1.602261e+01    1.565671e+00
  1.605436e+01    1.594623e+00
  1.608611e+01    1.550057e+00
  1.611786e+01    1.598877e+00
  1.614961e+01    1.576368e+00
  1.618137e+01    1.540614e+00
  1.621312e+01    1.552605e+00
  1.624487e+01    1.532883e+00
  1.627662e+01    1.565046e+00
  1.630837e+01    1.595064e+00
  1.634012e+01    1.507122e+00
  1.637187e+01    1.525760e+00
  1.640362e+01    1.477842e+00
  1.643538e+01    1.457178e+00
  1.646713e+01    1.494831e+00
  1.649888e+01    1.452258e+00
  1.653063e+01    1.506399e+00
  1.656238e+01    1.494714e+00
  1.659413e+01    1.506323e+00
  1.662588e+01    1.488315e+00
  1.665763e+01    1.475317e+00
  1.668938e+01    1.448925e+00
  1.672114e+01    1.439492e+00
  1.675289e+01    1.472811e+00
  1.678464e+01    1.431497e+00
  1.681639e+01    1.450667e+00
  1.684814e+01    1.454814e+00
  1.687989e+01    1.428706e+00
  1.691164e+01    1.420375e+00
  1.694339e+01    1.423800e+00
  1.697514e+01    1.436448e+00
  1.700690e+01    1.478596e+00
  1.703865e+01    1.442114e+00
  1.707040e+01    1.358308e+00
  1.710215e+01    1.431432e+00
  1.713390e+01    1.389032e+00
  1.716565e+01    1.412540e+00
  1.719740e+01    1.396190e+00
  1.722915e+01    1.411012e+00
  1.726091e+01    1.374271e+00
  1.729266e+01    1.363642e+00
  1.732441e+01    1.362075e+00
  1.735616e+01    1.349052e+00
  1.738791e+01    1.354795e+00
  1.741966e+01    1.364241e+00
  1.745141e+01    1.376759e+00
  1.748316e+01    1.352372e+00
  1.751491e+01    1.351444e+00
  1.754667e+01    1.359502e+00
  1.757842e+01    1.354307e+00
  1.761017e+01    1.353573e+00
  1.764192e+01    1.328957e+00
  1.767367e+01    1.317182e+00
  1.770542e+01    1.328095e+00
  1.773717e+01    1.321285e+00
  1.776892e+01    1.319273e+00
  1.780067e+01    1.329121e+00
  1.783243e+01    1.325514e+00
  1.786418e+01    1.293682e+00
  1.789593e+01    1.330164e+00
  1.792768e+01    1.303325e+00
  1.795943e+01    1.292998e+00
  1.799118e+01    1.294892e+00
  1.802293e+01    1.291072e+00
  1.805468e+01    1.274953e+00
  1.808643e+01    1.277590e+00
  1.811819e+01    1.312740e+00
  1.814994e+01    1.278307e+00
  1.818169e+01    1.277533e+00
  1.821344e+01    1.269217e+00
  1.824519e+01    1.264550e+00
  1.827694e+01    1.276451e+00
  1.830869e+01    1.265950e+00
  1.834044e+01    1.242394e+00
  1.837220e+01    1.223819e+00
  1.840395e+01    1.250607e+00
  1.843570e+01    1.250111e+00
  1.846745e+01    1.257502e+00
  1.849920e+01    1.253106e+00
  1.853095e+01    1.217517e+00
  1.856270e+01    1.252749e+00
  1.859445e+01    1.227572e+00
  1.862620e+01    1.216875e+00
  1.865796e+01    1.205396e+00
  1.868971e+01    1.226218e+00
  1.872146e+01    1.254881e+00
  1.875321e+01    1.222815e+00
  1.878496e+01    1.209999e+00
  1.881671e+01    1.205003e+00
  1.884846e+01    1.201058e+00
  1.888021e+01    1.190364e+00
  1.891196e+01    1.187137e+00
  1.894372e+01    1.188356e+00
  1.897547e+01    1.180617e+00
  1.900722e+01    1.224257e+00
  1.903897e+01    1.180096e+00
  1.907072e+01    1.197685e+00
  1.910247e+01    1.211592e+00
  1.913422e+01    1.206991e+00
  1.916597e+01    1.160162e+00
  1.919773e+01    1.192746e+00
  1.922948e+01    1.194018e+00
  1.926123e+01    1.173798e+00
  1.929298e+01    1.175805e+00
  1.932473e+01    1.150122e+00
  1.935648e+01    1.151537e+00
  1.938823e+01    1.181266e+00
  1.941998e+01    1.152807e+00
  1.945173e+01    1.142771e+00
  1.948349e+01    1.168184e+00
  1.951524e+01    1.171511e+00
  1.954699e+01    1.137016e+00
  1.957874e+01    1.151065e+00
  1.961049e+01    1.160600e+00
  1.964224e+01    1.147156e+00
  1.967399e+01    1.123941e+00
  1.970574e+01    1.124443e+00
  1.973749e+01    1.160592e+00
  1.976925e+01    1.133380e+00
  1.980100e+01    1.126286e+00
  1.983275e+01    1.127278e+00
  1.986450e+01    1.117132e+00
  1.989625e+01    1.090281e+00
  1.992800e+01    1.105939e+00
  1.995975e+01    1.102796e+00
  1.999150e+01    1.096904e+00
  2.002325e+01    1.095766e+00
  2.005501e+01    1.102594e+00
  2.008676e+01    1.113979e+00
  2.011851e+01    1.102046e+00
  2.015026e+01    1.107674e+00
  2.018201e+01    1.117230e+00
  2.021376e+01    1.088191e+00
  2.024551e+01    1.108031e+00
  2.027726e+01    1.089111e+00
  2.030902e+01    1.102714e+00
  2.034077e+01    1.088120e+00
  2.037252e+01    1.093590e+00
  2.040427e+01    1.055519e+00
  2.043602e+01    1.081518e+00
  2.046777e+01    1.063925e+00
  2.049952e+01    1.082244e+00
  2.053127e+01    1.088238e+00
  2.056302e+01    1.065884e+00
  2.059478e+01    1.045746e+00
  2.062653e+01    1.056479e+00
  2.065828e+01    1.079837e+00
  2.069003e+01    1.085204e+00
  2.072178e+01    1.072098e+00
  2.075353e+01    1.079909e+00
  2.078528e+01    1.045594e+00
  2.081703e+01    1.082177e+00
  2.084878e+01    1.067984e+00
  2.088054e+01    1.084359e+00
  2.091229e+01    1.059971e+00
  2.094404e+01    1.097628e+00
  2.097579e+01    1.056694e+00
  2.100754e+01    1.049731e+00
  2.103929e+01    1.099575e+00
  2.107104e+01    1.053764e+00
  2.110279e+01    1.064114e+00
  2.113455e+01    1.067903e+00
  2.116630e+01    1.075803e+00
  2.119805e+01    1.083929e+00
  2.122980e+01    1.096438e+00
  2.126155e+01    1.090361e+00
  2.129330e+01    1.112829e+00
  2.132505e+01    1.139749e+00
  2.135680e+01    1.127844e+00
  2.138855e+01    1.151029e+00
  2.142031e+01    1.171677e+00
  2.145206e+01    1.211068e+00
  2.148381e+01    1.237433e+00
  2.151556e+01    1.312956e+00
  2.154731e+01    1.374308e+00
  2.157906e+01    1.467843e+00
  2.161081e+01    1.603884e+00
  2.164256e+01    1.809629e+00
  2.167431e+01    2.105531e+00
  2.170607e+01    2.528280e+00
  2.173782e+01    3.233020e+00
  2.176957e+01    4.299133e+00
  2.180132e+01    5.521380e+00
  2.183307e+01    6.947263e+00
  2.186482e+01    8.315064e+00
  2.189657e+01    9.156410e+00
  2.192832e+01    8.854117e+00
  2.196007e+01    7.178603e+00
  2.199183e+01    5.144881e+00
  2.202358e+01    3.798492e+00
  2.205533e+01    2.871263e+00
  2.208708e+01    2.308337e+00
  2.211883e+01    1.938479e+00
  2.215058e+01    1.687830e+00
  2.218233e+01    1.507347e+00
  2.221408e+01    1.384765e+00
  2.224584e+01    1.306429e+00
  2.227759e+01    1.194345e+00
  2.230934e+01    1.152289e+00
  2.234109e+01    1.112240e+00
  2.237284e+01    1.102488e+00
  2.240459e+01    1.068808e+00
  2.243634e+01    1.050356e+00
  2.246809e+01    1.050242e+00
  2.249984e+01    9.910249e-01
  2.253160e+01    1.001475e+00
  2.256335e+01    9.936175e-01
  2.259510e+01    9.697937e-01
  2.262685e+01    9.507518e-01
  2.265860e+01    9.518512e-01
  2.269035e+01    9.642997e-01
  2.272210e+01    9.420571e-01
  2.275385e+01    9.466681e-01
  2.278560e+01    9.291101e-01
  2.281736e+01    9.144374e-01
  2.284911e+01    9.410686e-01
  2.288086e+01    8.749274e-01
  2.291261e+01    9.056762e-01
  2.294436e+01    8.940249e-01
  2.297611e+01    8.811541e-01
  2.300786e+01    8.744156e-01
  2.303961e+01    9.103445e-01
  2.307137e+01    8.913312e-01
  2.310312e+01    8.756883e-01
  2.313487e+01    8.806576e-01
  2.316662e+01    8.802590e-01
  2.319837e+01    8.503116e-01
  2.323012e+01    8.718593e-01
  2.326187e+01    8.973775e-01
  2.329362e+01    8.591934e-01
  2.332537e+01    8.502716e-01
  2.335713e+01    8.525531e-01
  2.338888e+01    8.583533e-01
  2.342063e+01    8.500657e-01
  2.345238e+01    8.604504e-01
  2.348413e+01    8.360008e-01
  2.351588e+01    8.207961e-01
  2.354763e+01    8.515248e-01
  2.357938e+01    8.269813e-01
  2.361113e+01    8.353304e-01
  2.364289e+01    8.396220e-01
  2.367464e+01    8.250471e-01
  2.370639e+01    8.109538e-01
  2.373814e+01    8.223914e-01
  2.376989e+01    8.014718e-01
  2.380164e+01    8.151690e-01
  2.383339e+01    8.095260e-01
  2.386514e+01    7.983637e-01
  2.389689e+01    7.946270e-01
  2.392865e+01    7.889358e-01
  2.396040e+01    7.893997e-01
  2.399215e+01    7.986460e-01
  2.402390e+01    7.966419e-01
  2.405565e+01    7.742855e-01
  2.408740e+01    7.719343e-01
  2.411915e+01    7.861263e-01
  2.415090e+01    7.714612e-01
  2.418266e+01    7.635815e-01
  2.421441e+01    7.895509e-01
  2.424616e+01    7.618056e-01
  2.427791e+01    7.888387e-01
  2.430966e+01    7.551541e-01
  2.434141e+01    7.635877e-01
  2.437316e+01    7.783073e-01
  2.440491e+01    7.914283e-01
  2.443666e+01    7.878262e-01
  2.446842e+01    7.827148e-01
  2.450017e+01    7.734396e-01
  2.453192e+01    7.740383e-01
  2.456367e+01    7.913843e-01
  2.459542e+01    8.002562e-01
  2.462717e+01    7.855290e-01
  2.465892e+01    7.783373e-01
  2.469067e+01    7.915046e-01
  2.472242e+01    7.824811e-01
  2.475418e+01    7.891775e-01
  2.478593e+01    7.648132e-01
  2.481768e+01    7.726057e-01
  2.484943e+01    7.910561e-01
  2.488118e+01    7.933667e-01
  2.491293e+01    7.822856e-01
  2.494468e+01    8.006119e-01
  2.497643e+01    8.095180e-01
  2.500819e+01    7.938390e-01
  2.503994e+01    7.859295e-01
  2.507169e+01    7.976874e-01
  2.510344e+01    7.933887e-01
  2.513519e+01    7.945169e-01
  2.516694e+01    8.349425e-01
  2.519869e+01    8.273810e-01
  2.523044e+01    8.279172e-01
  2.526219e+01    8.663728e-01
  2.529395e+01    8.656396e-01
  2.532570e+01    8.673340e-01
  2.535745e+01    8.571516e-01
  2.538920e+01    8.947691e-01
  2.542095e+01    9.098951e-01
  2.545270e+01    9.450777e-01
  2.548445e+01    9.378628e-01
  2.551620e+01    9.541674e-01
  2.554795e+01    1.019750e+00
  2.557971e+01    1.062886e+00
  2.561146e+01    1.139694e+00
  2.564321e+01    1.217604e+00
  2.567496e+01    1.321402e+00
  2.570671e+01    1.482540e+00
  2.573846e+01    1.686407e+00
  2.577021e+01    2.067131e+00
  2.580196e+01    2.591660e+00
  2.583371e+01    3.383888e+00
  2.586547e+01    4.371647e+00
  2.589722e+01    5.646872e+00
  2.592897e+01    6.867584e+00
  2.596072e+01    7.529339e+00
  2.599247e+01    7.192324e+00
  2.602422e+01    6.014327e+00
  2.605597e+01    4.398911e+00
  2.608772e+01    3.271921e+00
  2.611948e+01    2.478967e+00
  2.615123e+01    2.006544e+00
  2.618298e+01    1.687914e+00
  2.621473e+01    1.473117e+00
  2.624648e+01    1.316306e+00
  2.627823e+01    1.191921e+00
  2.630998e+01    1.122019e+00
  2.634173e+01    1.076010e+00
  2.637348e+01    1.012647e+00
  2.640524e+01    9.749182e-01
  2.643699e+01    9.556407e-01
  2.646874e+01    9.484990e-01
  2.650049e+01    9.252100e-01
  2.653224e+01    8.973892e-01
  2.656399e+01    9.028662e-01
  2.659574e+01    8.838496e-01
  2.662749e+01    8.784409e-01
  2.665924e+01    8.734746e-01
  2.669100e+01    8.970314e-01
  2.672275e+01    8.805625e-01
  2.675450e+01    8.866754e-01
  2.678625e+01    9.103236e-01
  2.681800e+01    8.962309e-01
  2.684975e+01    9.242252e-01
  2.688150e+01    9.048166e-01
  2.691325e+01    9.069582e-01
  2.694501e+01    9.420149e-01
  2.697676e+01    9.623926e-01
  2.700851e+01    1.018175e+00
  2.704026e+01    1.092311e+00
  2.707201e+01    1.229480e+00
  2.710376e+01    1.344520e+00
  2.713551e+01    1.605912e+00
  2.716726e+01    1.921212e+00
  2.719901e+01    2.194136e+00
  2.723077e+01    2.209262e+00
  2.726252e+01    2.112851e+00
  2.729427e+01    1.786114e+00
  2.732602e+01    1.488573e+00
  2.735777e+01    1.274317e+00
  2.738952e+01    1.128183e+00
  2.742127e+01    1.036384e+00
  2.745302e+01    9.573191e-01
  2.748477e+01    9.284670e-01
  2.751653e+01    8.898833e-01
  2.754828e+01    8.962033e-01
  2.758003e+01    8.615340e-01
  2.761178e+01    8.498943e-01
  2.764353e+01    8.413077e-01
  2.767528e+01    8.257531e-01
  2.770703e+01    8.019670e-01
  2.773878e+01    7.956083e-01
  2.777054e+01    8.074893e-01
  2.780229e+01    8.214130e-01
  2.783404e+01    7.816486e-01
  2.786579e+01    7.972649e-01
  2.789754e+01    7.659587e-01
  2.792929e+01    7.759536e-01
  2.796104e+01    8.075365e-01
  2.799279e+01    7.817968e-01
  2.802454e+01    7.691042e-01
  2.805630e+01    7.745759e-01
  2.808805e+01    7.735142e-01
  2.811980e+01    7.780840e-01
  2.815155e+01    7.734808e-01
  2.818330e+01    7.591726e-01
  2.821505e+01    7.759828e-01
  2.824680e+01    7.601163e-01
  2.827855e+01    7.641066e-01
  2.831030e+01    7.725866e-01
  2.834206e+01    7.727148e-01
  2.837381e+01    7.479531e-01
  2.840556e+01    7.419355e-01
  2.843731e+01    7.575821e-01
  2.846906e+01    7.524343e-01
  2.850081e+01    7.390839e-01
  2.853256e+01    7.445464e-01
  2.856431e+01    7.225223e-01
  2.859606e+01    7.527787e-01
  2.862782e+01    7.234392e-01
  2.865957e+01    7.439614e-01
  2.869132e+01    7.298854e-01
  2.872307e+01    7.453134e-01
  2.875482e+01    7.421732e-01
  2.878657e+01    7.416035e-01
  2.881832e+01    7.248598e-01
  2.885007e+01    7.457305e-01
  2.888183e+01    7.356531e-01
  2.891358e+01    7.406606e-01
  2.894533e+01    7.381243e-01
  2.897708e+01    7.074735e-01
  2.900883e+01    7.504074e-01
  2.904058e+01    7.474287e-01
  2.907233e+01    7.299765e-01
  2.910408e+01    7.445363e-01
  2.913583e+01    7.405612e-01
  2.916759e+01    7.264159e-01
  2.919934e+01    7.320138e-01
  2.923109e+01    7.094586e-01
  2.926284e+01    7.349340e-01
  2.929459e+01    7.268938e-01
  2.932634e+01    7.205274e-01
  2.935809e+01    7.501065e-01
  2.938984e+01    7.085030e-01
  2.942159e+01    7.106714e-01
  2.945335e+01    7.118395e-01
  2.948510e+01    7.125401e-01
  2.951685e+01    6.992854e-01
  2.954860e+01    7.172438e-01
  2.958035e+01    7.085617e-01
  2.961210e+01    7.040104e-01
  2.964385e+01    7.041478e-01
  2.967560e+01    7.088346e-01
  2.970736e+01    7.013282e-01
  2.973911e+01    7.260014e-01
  2.977086e+01    7.104803e-01
  2.980261e+01    7.194776e-01
  2.983436e+01    6.959838e-01
  2.986611e+01    7.027438e-01
  2.989786e+01    7.032811e-01
  2.992961e+01    7.184029e-01
  2.996136e+01    7.019558e-01
  2.999312e+01    7.240803e-01
  3.002487e+01    7.439201e-01
  3.005662e+01    7.051806e-01
  3.008837e+01    7.324831e-01
  3.012012e+01    7.194161e-01
  3.015187e+01    7.029000e-01
  3.018362e+01    6.878983e-01
  3.021537e+01    7.161061e-01
  3.024712e+01    7.233285e-01
  3.027888e+01    7.170300e-01
  3.031063e+01    6.896186e-01
  3.034238e+01    7.168333e-01
  3.037413e+01    6.953421e-01
  3.040588e+01    7.068799e-01
  3.043763e+01    7.288845e-01
  3.046938e+01    7.274448e-01
  3.050113e+01    7.106158e-01
  3.053288e+01    7.323222e-01
  3.056464e+01    6.897721e-01
  3.059639e+01    7.175086e-01
  3.062814e+01    7.106549e-01
  3.065989e+01    6.838754e-01
  3.069164e+01    7.008717e-01
  3.072339e+01    7.098328e-01
  3.075514e+01    7.091901e-01
  3.078689e+01    7.149288e-01
  3.081865e+01    7.255453e-01
  3.085040e+01    7.179057e-01
  3.088215e+01    7.010229e-01
  3.091390e+01    7.187664e-01
  3.094565e+01    7.073261e-01
  3.097740e+01    6.982833e-01
  3.100915e+01    7.191275e-01
  3.104090e+01    7.199781e-01
  3.107265e+01    7.215677e-01
  3.110441e+01    7.325827e-01
  3.113616e+01    7.145708e-01
  3.116791e+01    7.147371e-01
  3.119966e+01    7.300247e-01
  3.123141e+01    7.256235e-01
  3.126316e+01    7.307252e-01
  3.129491e+01    7.270018e-01
  3.132666e+01    7.353553e-01
  3.135841e+01    7.255747e-01
  3.139017e+01    7.374982e-01
  3.142192e+01    7.499540e-01
  3.145367e+01    7.531124e-01
  3.148542e+01    7.479378e-01
  3.151717e+01    7.671227e-01
  3.154892e+01    7.868347e-01
  3.158067e+01    7.886306e-01
  3.161242e+01    8.191583e-01
  3.164418e+01    8.568022e-01
  3.167593e+01    8.951792e-01
  3.170768e+01    9.545395e-01
  3.173943e+01    1.029370e+00
  3.177118e+01    1.197957e+00
  3.180293e+01    1.361515e+00
  3.183468e+01    1.609616e+00
  3.186643e+01    1.925078e+00
  3.189818e+01    2.191564e+00
  3.192994e+01    2.175579e+00
  3.196169e+01    1.983122e+00
  3.199344e+01    1.693157e+00
  3.202519e+01    1.411151e+00
  3.205694e+01    1.189175e+00
  3.208869e+01    1.025636e+00
  3.212044e+01    9.683830e-01
  3.215219e+01    8.780634e-01
  3.218394e+01    8.244653e-01
  3.221570e+01    8.234672e-01
  3.224745e+01    7.849352e-01
  3.227920e+01    7.587309e-01
  3.231095e+01    7.559401e-01
  3.234270e+01    7.493975e-01
  3.237445e+01    7.488101e-01
  3.240620e+01    7.469033e-01
  3.243795e+01    7.334628e-01
  3.246970e+01    7.377688e-01
  3.250146e+01    7.115966e-01
  3.253321e+01    7.282450e-01
  3.254908e+01    7.232604e-01