File: XRD/2024-07-27_002_Ru-CGO-ex_Activtation_ramp_000002_data_000030.dat
# == pyFAI calibration ==
# Distance Sample to Detector: 0.4 m
# PONI: 9.750e-02, 1.135e-01 m
# Rotations: -0.000175 0.000000 -0.000000 rad
#
# == Fit2d calibration ==
# Distance Sample-beamCenter: 400.000 mm
# Center: x=1514.000, y=1300.000 pix
# Tilt: 0.010 deg  TiltPlanRot: 0.010 deg
#
# Detector Detector	 Spline= None	 PixelSize= 7.500e-05, 7.500e-05 m
#    Detector has a mask: False
#    Detector has a dark current: False
#    detector has a flat field: False
#
# Wavelength: 6.888e-11 m
# Mask applied: user provided
# Dark current applied: False
# Flat field applied: False
# Polarization factor: 0.99
# Normalization factor: 1.0
# --> /home/myspot/data/2024_07_Rosario/Ru-CGO-ex/2024-07-27_002_Ru-CGO-ex_Activtation_ramp_000002_data_000030.dat
#       q_nm^-1             I
  2.003187e-02    0.000000e+00
  5.178302e-02    1.638723e-01
  8.353417e-02    3.348084e-01
  1.152853e-01    1.481684e-02
  1.470365e-01    3.033962e-03
  1.787876e-01    7.892524e-02
  2.105388e-01    7.245536e-02
  2.422899e-01    8.303907e-02
  2.740411e-01    0.000000e+00
  3.057922e-01    1.252654e-02
  3.375433e-01    1.121677e-02
  3.692945e-01    2.515214e-02
  4.010456e-01    3.462085e-02
  4.327968e-01    4.879940e-02
  4.645479e-01    4.338651e-02
  4.962991e-01    3.818736e-02
  5.280502e-01    3.775020e-02
  5.598014e-01    4.851359e-02
  5.915525e-01    4.583260e-02
  6.233037e-01    5.937569e-03
  6.550548e-01    3.888879e-02
  6.868060e-01    3.149852e-02
  7.185571e-01    3.357773e-02
  7.503083e-01    4.662322e-02
  7.820594e-01    1.160183e-01
  8.138106e-01    2.124628e-01
  8.455617e-01    2.942599e-01
  8.773129e-01    3.875251e-01
  9.090640e-01    5.916972e-01
  9.408152e-01    7.521804e-01
  9.725663e-01    9.102872e-01
  1.004317e+00    1.006837e+00
  1.036069e+00    1.137782e+00
  1.067820e+00    1.365595e+00
  1.099571e+00    1.356721e+00
  1.131322e+00    1.519692e+00
  1.163073e+00    1.469795e+00
  1.194824e+00    1.524269e+00
  1.226575e+00    2.090318e+00
  1.258327e+00    2.345232e+00
  1.290078e+00    2.443740e+00
  1.321829e+00    2.670932e+00
  1.353580e+00    2.827387e+00
  1.385331e+00    2.527645e+00
  1.417082e+00    2.645733e+00
  1.448834e+00    2.777128e+00
  1.480585e+00    2.764771e+00
  1.512336e+00    2.808986e+00
  1.544087e+00    2.949274e+00
  1.575838e+00    3.033230e+00
  1.607589e+00    2.971188e+00
  1.639340e+00    3.113588e+00
  1.671092e+00    2.934813e+00
  1.702843e+00    2.872668e+00
  1.734594e+00    2.971234e+00
  1.766345e+00    2.876206e+00
  1.798096e+00    2.832668e+00
  1.829847e+00    2.788584e+00
  1.861598e+00    2.864555e+00
  1.893350e+00    2.799186e+00
  1.925101e+00    2.753230e+00
  1.956852e+00    2.860650e+00
  1.988603e+00    2.791811e+00
  2.020354e+00    2.838289e+00
  2.052105e+00    2.789249e+00
  2.083856e+00    2.807915e+00
  2.115608e+00    2.827762e+00
  2.147359e+00    2.718251e+00
  2.179110e+00    2.813241e+00
  2.210861e+00    2.784264e+00
  2.242612e+00    2.624358e+00
  2.274363e+00    2.797537e+00
  2.306115e+00    2.742430e+00
  2.337866e+00    2.828119e+00
  2.369617e+00    2.754595e+00
  2.401368e+00    2.939092e+00
  2.433119e+00    2.785503e+00
  2.464870e+00    2.868997e+00
  2.496621e+00    2.784707e+00
  2.528373e+00    2.806710e+00
  2.560124e+00    2.896796e+00
  2.591875e+00    2.842822e+00
  2.623626e+00    2.798167e+00
  2.655377e+00    2.885531e+00
  2.687128e+00    2.860538e+00
  2.718879e+00    2.830208e+00
  2.750631e+00    2.845781e+00
  2.782382e+00    2.963806e+00
  2.814133e+00    2.978428e+00
  2.845884e+00    2.917296e+00
  2.877635e+00    2.947492e+00
  2.909386e+00    2.898323e+00
  2.941137e+00    2.851969e+00
  2.972889e+00    2.931560e+00
  3.004640e+00    2.852281e+00
  3.036391e+00    2.866186e+00
  3.068142e+00    2.796846e+00
  3.099893e+00    2.998350e+00
  3.131644e+00    2.936545e+00
  3.163395e+00    2.960370e+00
  3.195147e+00    2.905254e+00
  3.226898e+00    2.940094e+00
  3.258649e+00    3.018689e+00
  3.290400e+00    2.994908e+00
  3.322151e+00    2.929972e+00
  3.353902e+00    2.952394e+00
  3.385654e+00    2.968698e+00
  3.417405e+00    2.924648e+00
  3.449156e+00    3.045198e+00
  3.480907e+00    2.975683e+00
  3.512658e+00    2.938112e+00
  3.544409e+00    2.873381e+00
  3.576160e+00    2.938335e+00
  3.607912e+00    3.004519e+00
  3.639663e+00    3.051801e+00
  3.671414e+00    2.996530e+00
  3.703165e+00    2.983637e+00
  3.734916e+00    3.037231e+00
  3.766667e+00    2.906428e+00
  3.798418e+00    2.972780e+00
  3.830170e+00    2.996474e+00
  3.861921e+00    3.014175e+00
  3.893672e+00    3.035726e+00
  3.925423e+00    3.047303e+00
  3.957174e+00    3.019936e+00
  3.988925e+00    2.994664e+00
  4.020676e+00    2.993062e+00
  4.052428e+00    3.002440e+00
  4.084179e+00    2.982419e+00
  4.115930e+00    3.005662e+00
  4.147681e+00    2.975165e+00
  4.179432e+00    3.036599e+00
  4.211183e+00    3.118144e+00
  4.242935e+00    3.034509e+00
  4.274686e+00    3.083428e+00
  4.306437e+00    3.065559e+00
  4.338188e+00    3.022331e+00
  4.369939e+00    3.122080e+00
  4.401690e+00    3.103686e+00
  4.433441e+00    3.057423e+00
  4.465193e+00    2.977739e+00
  4.496944e+00    3.075556e+00
  4.528695e+00    3.115671e+00
  4.560446e+00    3.069440e+00
  4.592197e+00    3.141006e+00
  4.623948e+00    3.136024e+00
  4.655699e+00    3.046196e+00
  4.687451e+00    3.179915e+00
  4.719202e+00    3.071703e+00
  4.750953e+00    3.157421e+00
  4.782704e+00    3.149117e+00
  4.814455e+00    3.173077e+00
  4.846206e+00    3.137874e+00
  4.877957e+00    3.107296e+00
  4.909709e+00    3.112680e+00
  4.941460e+00    3.051060e+00
  4.973211e+00    3.195971e+00
  5.004962e+00    3.098564e+00
  5.036713e+00    3.122591e+00
  5.068464e+00    3.098558e+00
  5.100216e+00    3.111967e+00
  5.131967e+00    3.088069e+00
  5.163718e+00    3.085431e+00
  5.195469e+00    3.052636e+00
  5.227220e+00    3.162537e+00
  5.258971e+00    3.057318e+00
  5.290722e+00    3.117727e+00
  5.322474e+00    3.127386e+00
  5.354225e+00    3.152485e+00
  5.385976e+00    3.164964e+00
  5.417727e+00    3.077379e+00
  5.449478e+00    3.102628e+00
  5.481229e+00    3.032300e+00
  5.512980e+00    3.104297e+00
  5.544732e+00    3.079617e+00
  5.576483e+00    3.069793e+00
  5.608234e+00    3.094683e+00
  5.639985e+00    3.117420e+00
  5.671736e+00    3.152043e+00
  5.703487e+00    3.098069e+00
  5.735238e+00    3.034045e+00
  5.766990e+00    3.189523e+00
  5.798741e+00    3.060526e+00
  5.830492e+00    3.041000e+00
  5.862243e+00    3.037396e+00
  5.893994e+00    2.942504e+00
  5.925745e+00    3.092331e+00
  5.957497e+00    3.038027e+00
  5.989248e+00    3.089864e+00
  6.020999e+00    2.973007e+00
  6.052750e+00    3.057194e+00
  6.084501e+00    3.148393e+00
  6.116252e+00    3.071856e+00
  6.148003e+00    3.093567e+00
  6.179755e+00    3.067212e+00
  6.211506e+00    3.030189e+00
  6.243257e+00    2.983990e+00
  6.275008e+00    3.115108e+00
  6.306759e+00    3.062382e+00
  6.338510e+00    3.032852e+00
  6.370261e+00    3.050560e+00
  6.402013e+00    2.968467e+00
  6.433764e+00    3.020424e+00
  6.465515e+00    3.012640e+00
  6.497266e+00    3.118129e+00
  6.529017e+00    3.001287e+00
  6.560768e+00    3.051728e+00
  6.592519e+00    2.992894e+00
  6.624271e+00    3.019604e+00
  6.656022e+00    3.060689e+00
  6.687773e+00    3.015473e+00
  6.719524e+00    3.120699e+00
  6.751275e+00    3.005610e+00
  6.783026e+00    3.101066e+00
  6.814777e+00    3.035593e+00
  6.846529e+00    2.984374e+00
  6.878280e+00    3.009604e+00
  6.910031e+00    2.966045e+00
  6.941782e+00    2.980353e+00
  6.973533e+00    3.037306e+00
  7.005284e+00    3.013824e+00
  7.037036e+00    2.939648e+00
  7.068787e+00    3.071276e+00
  7.100538e+00    2.978348e+00
  7.132289e+00    2.994661e+00
  7.164040e+00    3.013740e+00
  7.195791e+00    2.917881e+00
  7.227542e+00    3.034923e+00
  7.259294e+00    3.017145e+00
  7.291045e+00    3.000641e+00
  7.322796e+00    3.016265e+00
  7.354547e+00    2.947898e+00
  7.386298e+00    2.944090e+00
  7.418049e+00    2.987731e+00
  7.449800e+00    2.966876e+00
  7.481552e+00    2.920392e+00
  7.513303e+00    2.990902e+00
  7.545054e+00    2.993566e+00
  7.576805e+00    2.934935e+00
  7.608556e+00    2.928516e+00
  7.640307e+00    2.979518e+00
  7.672058e+00    2.987974e+00
  7.703810e+00    2.883043e+00
  7.735561e+00    2.997914e+00
  7.767312e+00    2.878138e+00
  7.799063e+00    3.004067e+00
  7.830814e+00    2.978360e+00
  7.862565e+00    2.974753e+00
  7.894317e+00    2.909568e+00
  7.926068e+00    2.922673e+00
  7.957819e+00    3.018645e+00
  7.989570e+00    2.875572e+00
  8.021321e+00    2.967187e+00
  8.053072e+00    2.930400e+00
  8.084823e+00    2.910684e+00
  8.116575e+00    2.976177e+00
  8.148326e+00    2.978673e+00
  8.180077e+00    2.928567e+00
  8.211828e+00    2.921702e+00
  8.243579e+00    2.923028e+00
  8.275330e+00    2.929834e+00
  8.307081e+00    2.904897e+00
  8.338833e+00    2.933133e+00
  8.370584e+00    2.879009e+00
  8.402335e+00    2.887026e+00
  8.434086e+00    2.882123e+00
  8.465837e+00    2.846300e+00
  8.497588e+00    2.852850e+00
  8.529339e+00    2.889771e+00
  8.561091e+00    2.891533e+00
  8.592842e+00    2.854218e+00
  8.624593e+00    2.862871e+00
  8.656344e+00    2.807769e+00
  8.688095e+00    2.883087e+00
  8.719846e+00    2.874646e+00
  8.751598e+00    2.868058e+00
  8.783349e+00    2.899150e+00
  8.815100e+00    2.866221e+00
  8.846851e+00    2.868965e+00
  8.878602e+00    2.846383e+00
  8.910353e+00    2.818601e+00
  8.942104e+00    2.838238e+00
  8.973856e+00    2.840105e+00
  9.005607e+00    2.832476e+00
  9.037358e+00    2.847092e+00
  9.069109e+00    2.889349e+00
  9.100860e+00    2.816921e+00
  9.132611e+00    2.872568e+00
  9.164362e+00    2.819670e+00
  9.196114e+00    2.844262e+00
  9.227865e+00    2.787792e+00
  9.259616e+00    2.712474e+00
  9.291367e+00    2.759226e+00
  9.323118e+00    2.759701e+00
  9.354869e+00    2.790900e+00
  9.386620e+00    2.800225e+00
  9.418372e+00    2.769778e+00
  9.450123e+00    2.779189e+00
  9.481874e+00    2.851821e+00
  9.513625e+00    2.823827e+00
  9.545376e+00    2.809139e+00
  9.577127e+00    2.751230e+00
  9.608878e+00    2.776993e+00
  9.640630e+00    2.744891e+00
  9.672381e+00    2.733276e+00
  9.704132e+00    2.721051e+00
  9.735883e+00    2.710879e+00
  9.767634e+00    2.715341e+00
  9.799385e+00    2.719014e+00
  9.831137e+00    2.769064e+00
  9.862888e+00    2.711203e+00
  9.894639e+00    2.720060e+00
  9.926390e+00    2.707328e+00
  9.958141e+00    2.731055e+00
  9.989892e+00    2.679928e+00
  1.002164e+01    2.690569e+00
  1.005339e+01    2.651690e+00
  1.008515e+01    2.682648e+00
  1.011690e+01    2.688743e+00
  1.014865e+01    2.678577e+00
  1.018040e+01    2.690820e+00
  1.021215e+01    2.683370e+00
  1.024390e+01    2.652901e+00
  1.027565e+01    2.586324e+00
  1.030740e+01    2.690074e+00
  1.033915e+01    2.607446e+00
  1.037091e+01    2.581736e+00
  1.040266e+01    2.622038e+00
  1.043441e+01    2.616604e+00
  1.046616e+01    2.615418e+00
  1.049791e+01    2.609976e+00
  1.052966e+01    2.612906e+00
  1.056141e+01    2.553208e+00
  1.059316e+01    2.604138e+00
  1.062492e+01    2.575275e+00
  1.065667e+01    2.569417e+00
  1.068842e+01    2.580663e+00
  1.072017e+01    2.562635e+00
  1.075192e+01    2.544119e+00
  1.078367e+01    2.557546e+00
  1.081542e+01    2.514887e+00
  1.084717e+01    2.513429e+00
  1.087892e+01    2.539586e+00
  1.091068e+01    2.562130e+00
  1.094243e+01    2.526239e+00
  1.097418e+01    2.515317e+00
  1.100593e+01    2.521720e+00
  1.103768e+01    2.514193e+00
  1.106943e+01    2.522621e+00
  1.110118e+01    2.494277e+00
  1.113293e+01    2.465827e+00
  1.116468e+01    2.493944e+00
  1.119644e+01    2.502187e+00
  1.122819e+01    2.453864e+00
  1.125994e+01    2.469658e+00
  1.129169e+01    2.466758e+00
  1.132344e+01    2.443996e+00
  1.135519e+01    2.439572e+00
  1.138694e+01    2.445902e+00
  1.141869e+01    2.452973e+00
  1.145045e+01    2.438638e+00
  1.148220e+01    2.414581e+00
  1.151395e+01    2.385676e+00
  1.154570e+01    2.442002e+00
  1.157745e+01    2.438631e+00
  1.160920e+01    2.381166e+00
  1.164095e+01    2.433111e+00
  1.167270e+01    2.374522e+00
  1.170445e+01    2.380740e+00
  1.173621e+01    2.367139e+00
  1.176796e+01    2.335493e+00
  1.179971e+01    2.379603e+00
  1.183146e+01    2.368312e+00
  1.186321e+01    2.353550e+00
  1.189496e+01    2.395974e+00
  1.192671e+01    2.365052e+00
  1.195846e+01    2.381314e+00
  1.199021e+01    2.373939e+00
  1.202197e+01    2.341708e+00
  1.205372e+01    2.345147e+00
  1.208547e+01    2.317712e+00
  1.211722e+01    2.353027e+00
  1.214897e+01    2.356474e+00
  1.218072e+01    2.340196e+00
  1.221247e+01    2.333152e+00
  1.224422e+01    2.339447e+00
  1.227597e+01    2.363941e+00
  1.230773e+01    2.334482e+00
  1.233948e+01    2.370238e+00
  1.237123e+01    2.417243e+00
  1.240298e+01    2.404559e+00
  1.243473e+01    2.331565e+00
  1.246648e+01    2.390150e+00
  1.249823e+01    2.340119e+00
  1.252998e+01    2.411827e+00
  1.256174e+01    2.380542e+00
  1.259349e+01    2.427739e+00
  1.262524e+01    2.427588e+00
  1.265699e+01    2.451965e+00
  1.268874e+01    2.474822e+00
  1.272049e+01    2.539294e+00
  1.275224e+01    2.583699e+00
  1.278399e+01    2.655124e+00
  1.281574e+01    2.749475e+00
  1.284750e+01    2.842930e+00
  1.287925e+01    3.064145e+00
  1.291100e+01    3.296368e+00
  1.294275e+01    3.659343e+00
  1.297450e+01    4.258290e+00
  1.300625e+01    5.227666e+00
  1.303800e+01    6.662551e+00
  1.306975e+01    9.032629e+00
  1.310150e+01    1.197855e+01
  1.313326e+01    1.502313e+01
  1.316501e+01    1.794754e+01
  1.319676e+01    1.959551e+01
  1.322851e+01    1.806432e+01
  1.326026e+01    1.371005e+01
  1.329201e+01    9.607716e+00
  1.332376e+01    6.979360e+00
  1.335551e+01    5.377744e+00
  1.338727e+01    4.378853e+00
  1.341902e+01    3.753527e+00
  1.345077e+01    3.377418e+00
  1.348252e+01    3.019959e+00
  1.351427e+01    2.808940e+00
  1.354602e+01    2.686512e+00
  1.357777e+01    2.562665e+00
  1.360952e+01    2.435420e+00
  1.364127e+01    2.402225e+00
  1.367303e+01    2.353442e+00
  1.370478e+01    2.268605e+00
  1.373653e+01    2.230983e+00
  1.376828e+01    2.237392e+00
  1.380003e+01    2.231736e+00
  1.383178e+01    2.230471e+00
  1.386353e+01    2.180687e+00
  1.389528e+01    2.160086e+00
  1.392703e+01    2.105514e+00
  1.395879e+01    2.140889e+00
  1.399054e+01    2.087380e+00
  1.402229e+01    2.058697e+00
  1.405404e+01    2.130845e+00
  1.408579e+01    2.066130e+00
  1.411754e+01    2.054534e+00
  1.414929e+01    2.060529e+00
  1.418104e+01    2.046809e+00
  1.421279e+01    2.014699e+00
  1.424455e+01    2.001399e+00
  1.427630e+01    2.000782e+00
  1.430805e+01    1.973166e+00
  1.433980e+01    1.948270e+00
  1.437155e+01    1.931836e+00
  1.440330e+01    1.953457e+00
  1.443505e+01    1.942236e+00
  1.446680e+01    1.947275e+00
  1.449856e+01    1.941963e+00
  1.453031e+01    1.940539e+00
  1.456206e+01    1.942191e+00
  1.459381e+01    1.923337e+00
  1.462556e+01    1.966419e+00
  1.465731e+01    1.944589e+00
  1.468906e+01    1.924831e+00
  1.472081e+01    1.895147e+00
  1.475256e+01    1.887471e+00
  1.478432e+01    1.884359e+00
  1.481607e+01    1.941571e+00
  1.484782e+01    1.982976e+00
  1.487957e+01    1.980766e+00
  1.491132e+01    2.005832e+00
  1.494307e+01    2.015497e+00
  1.497482e+01    2.083557e+00
  1.500657e+01    2.145403e+00
  1.503832e+01    2.214099e+00
  1.507008e+01    2.499008e+00
  1.510183e+01    2.702636e+00
  1.513358e+01    3.232113e+00
  1.516533e+01    3.955942e+00
  1.519708e+01    4.865187e+00
  1.522883e+01    5.683102e+00
  1.526058e+01    6.316310e+00
  1.529233e+01    6.544932e+00
  1.532409e+01    6.024662e+00
  1.535584e+01    5.020797e+00
  1.538759e+01    3.873966e+00
  1.541934e+01    3.090387e+00
  1.545109e+01    2.664556e+00
  1.548284e+01    2.344410e+00
  1.551459e+01    2.148009e+00
  1.554634e+01    2.033898e+00
  1.557809e+01    1.953170e+00
  1.560985e+01    1.874466e+00
  1.564160e+01    1.831716e+00
  1.567335e+01    1.793825e+00
  1.570510e+01    1.749471e+00
  1.573685e+01    1.737301e+00
  1.576860e+01    1.705294e+00
  1.580035e+01    1.717863e+00
  1.583210e+01    1.681098e+00
  1.586385e+01    1.696699e+00
  1.589561e+01    1.692104e+00
  1.592736e+01    1.673314e+00
  1.595911e+01    1.677280e+00
  1.599086e+01    1.631884e+00
  1.602261e+01    1.608620e+00
  1.605436e+01    1.609554e+00
  1.608611e+01    1.619663e+00
  1.611786e+01    1.615109e+00
  1.614961e+01    1.602082e+00
  1.618137e+01    1.580388e+00
  1.621312e+01    1.541161e+00
  1.624487e+01    1.553322e+00
  1.627662e+01    1.592937e+00
  1.630837e+01    1.555162e+00
  1.634012e+01    1.558404e+00
  1.637187e+01    1.545454e+00
  1.640362e+01    1.542738e+00
  1.643538e+01    1.552658e+00
  1.646713e+01    1.540865e+00
  1.649888e+01    1.541300e+00
  1.653063e+01    1.517148e+00
  1.656238e+01    1.491381e+00
  1.659413e+01    1.517214e+00
  1.662588e+01    1.495037e+00
  1.665763e+01    1.501278e+00
  1.668938e+01    1.524932e+00
  1.672114e+01    1.473587e+00
  1.675289e+01    1.485253e+00
  1.678464e+01    1.468302e+00
  1.681639e+01    1.476034e+00
  1.684814e+01    1.484022e+00
  1.687989e+01    1.464543e+00
  1.691164e+01    1.468670e+00
  1.694339e+01    1.420823e+00
  1.697514e+01    1.449936e+00
  1.700690e+01    1.456299e+00
  1.703865e+01    1.452074e+00
  1.707040e+01    1.474109e+00
  1.710215e+01    1.423658e+00
  1.713390e+01    1.428431e+00
  1.716565e+01    1.422893e+00
  1.719740e+01    1.384933e+00
  1.722915e+01    1.391019e+00
  1.726091e+01    1.417090e+00
  1.729266e+01    1.421908e+00
  1.732441e+01    1.426776e+00
  1.735616e+01    1.375544e+00
  1.738791e+01    1.423860e+00
  1.741966e+01    1.434083e+00
  1.745141e+01    1.380606e+00
  1.748316e+01    1.388315e+00
  1.751491e+01    1.350174e+00
  1.754667e+01    1.356139e+00
  1.757842e+01    1.366181e+00
  1.761017e+01    1.353176e+00
  1.764192e+01    1.374202e+00
  1.767367e+01    1.365648e+00
  1.770542e+01    1.327671e+00
  1.773717e+01    1.342914e+00
  1.776892e+01    1.333386e+00
  1.780067e+01    1.340639e+00
  1.783243e+01    1.327655e+00
  1.786418e+01    1.334746e+00
  1.789593e+01    1.359294e+00
  1.792768e+01    1.334830e+00
  1.795943e+01    1.322427e+00
  1.799118e+01    1.290031e+00
  1.802293e+01    1.276472e+00
  1.805468e+01    1.316737e+00
  1.808643e+01    1.283674e+00
  1.811819e+01    1.316402e+00
  1.814994e+01    1.279402e+00
  1.818169e+01    1.295153e+00
  1.821344e+01    1.277722e+00
  1.824519e+01    1.265425e+00
  1.827694e+01    1.272476e+00
  1.830869e+01    1.275231e+00
  1.834044e+01    1.262326e+00
  1.837220e+01    1.271735e+00
  1.840395e+01    1.287330e+00
  1.843570e+01    1.264158e+00
  1.846745e+01    1.261500e+00
  1.849920e+01    1.248583e+00
  1.853095e+01    1.261914e+00
  1.856270e+01    1.260925e+00
  1.859445e+01    1.238821e+00
  1.862620e+01    1.237962e+00
  1.865796e+01    1.264025e+00
  1.868971e+01    1.233050e+00
  1.872146e+01    1.224039e+00
  1.875321e+01    1.253956e+00
  1.878496e+01    1.241094e+00
  1.881671e+01    1.224573e+00
  1.884846e+01    1.251705e+00
  1.888021e+01    1.233034e+00
  1.891196e+01    1.258991e+00
  1.894372e+01    1.209994e+00
  1.897547e+01    1.231601e+00
  1.900722e+01    1.215835e+00
  1.903897e+01    1.202461e+00
  1.907072e+01    1.224531e+00
  1.910247e+01    1.203117e+00
  1.913422e+01    1.190146e+00
  1.916597e+01    1.206290e+00
  1.919773e+01    1.198152e+00
  1.922948e+01    1.225465e+00
  1.926123e+01    1.212537e+00
  1.929298e+01    1.200076e+00
  1.932473e+01    1.199177e+00
  1.935648e+01    1.178891e+00
  1.938823e+01    1.195976e+00
  1.941998e+01    1.179366e+00
  1.945173e+01    1.202079e+00
  1.948349e+01    1.185171e+00
  1.951524e+01    1.131536e+00
  1.954699e+01    1.172462e+00
  1.957874e+01    1.175666e+00
  1.961049e+01    1.138656e+00
  1.964224e+01    1.147909e+00
  1.967399e+01    1.123340e+00
  1.970574e+01    1.176627e+00
  1.973749e+01    1.155405e+00
  1.976925e+01    1.158416e+00
  1.980100e+01    1.161683e+00
  1.983275e+01    1.158014e+00
  1.986450e+01    1.137597e+00
  1.989625e+01    1.121593e+00
  1.992800e+01    1.154153e+00
  1.995975e+01    1.131632e+00
  1.999150e+01    1.108053e+00
  2.002325e+01    1.163489e+00
  2.005501e+01    1.125015e+00
  2.008676e+01    1.123540e+00
  2.011851e+01    1.121786e+00
  2.015026e+01    1.123249e+00
  2.018201e+01    1.103109e+00
  2.021376e+01    1.124039e+00
  2.024551e+01    1.114147e+00
  2.027726e+01    1.112465e+00
  2.030902e+01    1.108854e+00
  2.034077e+01    1.126551e+00
  2.037252e+01    1.124077e+00
  2.040427e+01    1.112804e+00
  2.043602e+01    1.083756e+00
  2.046777e+01    1.100695e+00
  2.049952e+01    1.093686e+00
  2.053127e+01    1.100997e+00
  2.056302e+01    1.082737e+00
  2.059478e+01    1.105476e+00
  2.062653e+01    1.105357e+00
  2.065828e+01    1.093424e+00
  2.069003e+01    1.104675e+00
  2.072178e+01    1.105736e+00
  2.075353e+01    1.067257e+00
  2.078528e+01    1.079116e+00
  2.081703e+01    1.097131e+00
  2.084878e+01    1.087374e+00
  2.088054e+01    1.084850e+00
  2.091229e+01    1.087692e+00
  2.094404e+01    1.097594e+00
  2.097579e+01    1.091428e+00
  2.100754e+01    1.067858e+00
  2.103929e+01    1.073219e+00
  2.107104e+01    1.090072e+00
  2.110279e+01    1.112426e+00
  2.113455e+01    1.087193e+00
  2.116630e+01    1.086154e+00
  2.119805e+01    1.118469e+00
  2.122980e+01    1.138262e+00
  2.126155e+01    1.121054e+00
  2.129330e+01    1.132910e+00
  2.132505e+01    1.145250e+00
  2.135680e+01    1.139755e+00
  2.138855e+01    1.184021e+00
  2.142031e+01    1.208154e+00
  2.145206e+01    1.221356e+00
  2.148381e+01    1.272141e+00
  2.151556e+01    1.323117e+00
  2.154731e+01    1.383119e+00
  2.157906e+01    1.454165e+00
  2.161081e+01    1.555818e+00
  2.164256e+01    1.731610e+00
  2.167431e+01    1.987523e+00
  2.170607e+01    2.268034e+00
  2.173782e+01    2.861431e+00
  2.176957e+01    3.721951e+00
  2.180132e+01    4.899953e+00
  2.183307e+01    6.373258e+00
  2.186482e+01    8.066902e+00
  2.189657e+01    9.895020e+00
  2.192832e+01    1.085308e+01
  2.196007e+01    1.031287e+01
  2.199183e+01    8.237498e+00
  2.202358e+01    5.965610e+00
  2.205533e+01    4.345735e+00
  2.208708e+01    3.254766e+00
  2.211883e+01    2.565200e+00
  2.215058e+01    2.111432e+00
  2.218233e+01    1.786431e+00
  2.221408e+01    1.606468e+00
  2.224584e+01    1.462941e+00
  2.227759e+01    1.354583e+00
  2.230934e+01    1.259777e+00
  2.234109e+01    1.229415e+00
  2.237284e+01    1.189246e+00
  2.240459e+01    1.179797e+00
  2.243634e+01    1.117717e+00
  2.246809e+01    1.088242e+00
  2.249984e+01    1.070402e+00
  2.253160e+01    1.028813e+00
  2.256335e+01    1.031971e+00
  2.259510e+01    1.019359e+00
  2.262685e+01    1.006403e+00
  2.265860e+01    9.881650e-01
  2.269035e+01    9.987220e-01
  2.272210e+01    9.917714e-01
  2.275385e+01    9.848420e-01
  2.278560e+01    9.530092e-01
  2.281736e+01    9.619532e-01
  2.284911e+01    9.549826e-01
  2.288086e+01    9.328790e-01
  2.291261e+01    9.194250e-01
  2.294436e+01    9.319326e-01
  2.297611e+01    9.518650e-01
  2.300786e+01    9.359413e-01
  2.303961e+01    9.380905e-01
  2.307137e+01    9.013423e-01
  2.310312e+01    9.011222e-01
  2.313487e+01    9.017683e-01
  2.316662e+01    9.016564e-01
  2.319837e+01    8.956727e-01
  2.323012e+01    8.779930e-01
  2.326187e+01    8.894877e-01
  2.329362e+01    8.960727e-01
  2.332537e+01    8.739555e-01
  2.335713e+01    9.000210e-01
  2.338888e+01    8.674328e-01
  2.342063e+01    8.595052e-01
  2.345238e+01    8.570506e-01
  2.348413e+01    8.489799e-01
  2.351588e+01    8.743027e-01
  2.354763e+01    8.810933e-01
  2.357938e+01    8.720364e-01
  2.361113e+01    8.412300e-01
  2.364289e+01    8.519409e-01
  2.367464e+01    8.340398e-01
  2.370639e+01    8.429826e-01
  2.373814e+01    8.371112e-01
  2.376989e+01    8.595299e-01
  2.380164e+01    8.210018e-01
  2.383339e+01    8.275626e-01
  2.386514e+01    8.308496e-01
  2.389689e+01    8.188536e-01
  2.392865e+01    8.024136e-01
  2.396040e+01    7.829582e-01
  2.399215e+01    7.805124e-01
  2.402390e+01    8.145720e-01
  2.405565e+01    8.001681e-01
  2.408740e+01    7.751730e-01
  2.411915e+01    7.925960e-01
  2.415090e+01    7.866636e-01
  2.418266e+01    7.712042e-01
  2.421441e+01    8.085735e-01
  2.424616e+01    7.894142e-01
  2.427791e+01    7.775030e-01
  2.430966e+01    8.015870e-01
  2.434141e+01    8.055139e-01
  2.437316e+01    8.143402e-01
  2.440491e+01    8.058764e-01
  2.443666e+01    7.986262e-01
  2.446842e+01    8.037110e-01
  2.450017e+01    7.913842e-01
  2.453192e+01    7.939764e-01
  2.456367e+01    8.011391e-01
  2.459542e+01    7.975367e-01
  2.462717e+01    8.076993e-01
  2.465892e+01    8.066046e-01
  2.469067e+01    8.078473e-01
  2.472242e+01    7.946479e-01
  2.475418e+01    8.023514e-01
  2.478593e+01    7.916032e-01
  2.481768e+01    8.133363e-01
  2.484943e+01    8.183901e-01
  2.488118e+01    8.235189e-01
  2.491293e+01    7.965277e-01
  2.494468e+01    8.100070e-01
  2.497643e+01    8.192261e-01
  2.500819e+01    8.171242e-01
  2.503994e+01    7.948412e-01
  2.507169e+01    8.376226e-01
  2.510344e+01    8.195146e-01
  2.513519e+01    8.110609e-01
  2.516694e+01    8.367848e-01
  2.519869e+01    8.348455e-01
  2.523044e+01    8.605846e-01
  2.526219e+01    8.620542e-01
  2.529395e+01    8.609964e-01
  2.532570e+01    8.876854e-01
  2.535745e+01    9.013320e-01
  2.538920e+01    9.044412e-01
  2.542095e+01    9.290148e-01
  2.545270e+01    9.332888e-01
  2.548445e+01    9.889131e-01
  2.551620e+01    9.904901e-01
  2.554795e+01    1.011943e+00
  2.557971e+01    1.047199e+00
  2.561146e+01    1.104948e+00
  2.564321e+01    1.177351e+00
  2.567496e+01    1.272754e+00
  2.570671e+01    1.407593e+00
  2.573846e+01    1.585265e+00
  2.577021e+01    1.817803e+00
  2.580196e+01    2.225533e+00
  2.583371e+01    2.820999e+00
  2.586547e+01    3.666679e+00
  2.589722e+01    4.881625e+00
  2.592897e+01    6.381608e+00
  2.596072e+01    7.925489e+00
  2.599247e+01    8.907527e+00
  2.602422e+01    8.809968e+00
  2.605597e+01    7.459408e+00
  2.608772e+01    5.516614e+00
  2.611948e+01    4.047080e+00
  2.615123e+01    3.046693e+00
  2.618298e+01    2.390290e+00
  2.621473e+01    1.934015e+00
  2.624648e+01    1.652938e+00
  2.627823e+01    1.445199e+00
  2.630998e+01    1.324316e+00
  2.634173e+01    1.184531e+00
  2.637348e+01    1.128390e+00
  2.640524e+01    1.085938e+00
  2.643699e+01    1.064489e+00
  2.646874e+01    1.035629e+00
  2.650049e+01    1.011596e+00
  2.653224e+01    9.782304e-01
  2.656399e+01    9.729399e-01
  2.659574e+01    9.742024e-01
  2.662749e+01    9.523553e-01
  2.665924e+01    9.471912e-01
  2.669100e+01    9.277756e-01
  2.672275e+01    9.179226e-01
  2.675450e+01    9.038204e-01
  2.678625e+01    9.330589e-01
  2.681800e+01    9.173572e-01
  2.684975e+01    9.371905e-01
  2.688150e+01    9.230508e-01
  2.691325e+01    9.429856e-01
  2.694501e+01    9.514829e-01
  2.697676e+01    9.771491e-01
  2.700851e+01    1.017215e+00
  2.704026e+01    1.073954e+00
  2.707201e+01    1.135921e+00
  2.710376e+01    1.278834e+00
  2.713551e+01    1.449315e+00
  2.716726e+01    1.718072e+00
  2.719901e+01    2.055612e+00
  2.723077e+01    2.377904e+00
  2.726252e+01    2.554752e+00
  2.729427e+01    2.483682e+00
  2.732602e+01    2.104950e+00
  2.735777e+01    1.780864e+00
  2.738952e+01    1.493169e+00
  2.742127e+01    1.294994e+00
  2.745302e+01    1.145397e+00
  2.748477e+01    1.058665e+00
  2.751653e+01    1.004420e+00
  2.754828e+01    9.532049e-01
  2.758003e+01    9.216304e-01
  2.761178e+01    8.852172e-01
  2.764353e+01    8.796111e-01
  2.767528e+01    8.700722e-01
  2.770703e+01    8.642627e-01
  2.773878e+01    8.628825e-01
  2.777054e+01    8.531097e-01
  2.780229e+01    8.365793e-01
  2.783404e+01    8.340037e-01
  2.786579e+01    8.319508e-01
  2.789754e+01    8.084065e-01
  2.792929e+01    8.046046e-01
  2.796104e+01    8.184853e-01
  2.799279e+01    7.920161e-01
  2.802454e+01    8.133718e-01
  2.805630e+01    8.039714e-01
  2.808805e+01    8.072832e-01
  2.811980e+01    8.135492e-01
  2.815155e+01    8.103513e-01
  2.818330e+01    8.072349e-01
  2.821505e+01    8.009319e-01
  2.824680e+01    7.915207e-01
  2.827855e+01    7.919589e-01
  2.831030e+01    7.882144e-01
  2.834206e+01    7.824225e-01
  2.837381e+01    7.996950e-01
  2.840556e+01    7.846648e-01
  2.843731e+01    7.818165e-01
  2.846906e+01    7.659855e-01
  2.850081e+01    7.817451e-01
  2.853256e+01    7.937824e-01
  2.856431e+01    7.843482e-01
  2.859606e+01    7.701185e-01
  2.862782e+01    7.759293e-01
  2.865957e+01    7.588713e-01
  2.869132e+01    7.680610e-01
  2.872307e+01    7.695529e-01
  2.875482e+01    7.729023e-01
  2.878657e+01    7.687576e-01
  2.881832e+01    7.772317e-01
  2.885007e+01    7.763687e-01
  2.888183e+01    7.685490e-01
  2.891358e+01    7.585893e-01
  2.894533e+01    7.357429e-01
  2.897708e+01    7.818289e-01
  2.900883e+01    7.587312e-01
  2.904058e+01    7.550767e-01
  2.907233e+01    7.579024e-01
  2.910408e+01    7.323135e-01
  2.913583e+01    7.505720e-01
  2.916759e+01    7.393633e-01
  2.919934e+01    7.475370e-01
  2.923109e+01    7.193685e-01
  2.926284e+01    7.658939e-01
  2.929459e+01    7.519007e-01
  2.932634e+01    7.389515e-01
  2.935809e+01    7.369879e-01
  2.938984e+01    7.015967e-01
  2.942159e+01    7.420597e-01
  2.945335e+01    7.379333e-01
  2.948510e+01    7.403391e-01
  2.951685e+01    7.304147e-01
  2.954860e+01    7.483739e-01
  2.958035e+01    7.343012e-01
  2.961210e+01    7.529637e-01
  2.964385e+01    7.197309e-01
  2.967560e+01    7.512893e-01
  2.970736e+01    7.437736e-01
  2.973911e+01    7.160159e-01
  2.977086e+01    7.279917e-01
  2.980261e+01    7.251350e-01
  2.983436e+01    7.409416e-01
  2.986611e+01    7.239181e-01
  2.989786e+01    7.329635e-01
  2.992961e+01    7.343483e-01
  2.996136e+01    7.528659e-01
  2.999312e+01    7.315466e-01
  3.002487e+01    7.523370e-01
  3.005662e+01    7.384758e-01
  3.008837e+01    7.515429e-01
  3.012012e+01    7.458012e-01
  3.015187e+01    7.223576e-01
  3.018362e+01    7.229087e-01
  3.021537e+01    7.296392e-01
  3.024712e+01    7.452525e-01
  3.027888e+01    7.255503e-01
  3.031063e+01    7.017932e-01
  3.034238e+01    7.254269e-01
  3.037413e+01    7.341782e-01
  3.040588e+01    7.307705e-01
  3.043763e+01    7.182403e-01
  3.046938e+01    7.137499e-01
  3.050113e+01    7.084565e-01
  3.053288e+01    7.378204e-01
  3.056464e+01    7.399204e-01
  3.059639e+01    7.326520e-01
  3.062814e+01    7.154503e-01
  3.065989e+01    7.067438e-01
  3.069164e+01    7.124527e-01
  3.072339e+01    7.227334e-01
  3.075514e+01    7.364998e-01
  3.078689e+01    7.245774e-01
  3.081865e+01    7.210754e-01
  3.085040e+01    7.153178e-01
  3.088215e+01    7.318295e-01
  3.091390e+01    7.360142e-01
  3.094565e+01    7.379797e-01
  3.097740e+01    7.111764e-01
  3.100915e+01    7.271624e-01
  3.104090e+01    7.255251e-01
  3.107265e+01    7.403604e-01
  3.110441e+01    7.253066e-01
  3.113616e+01    7.212653e-01
  3.116791e+01    7.370540e-01
  3.119966e+01    7.572797e-01
  3.123141e+01    7.233900e-01
  3.126316e+01    7.349852e-01
  3.129491e+01    7.670743e-01
  3.132666e+01    7.430864e-01
  3.135841e+01    7.874045e-01
  3.139017e+01    7.612635e-01
  3.142192e+01    7.392617e-01
  3.145367e+01    7.363570e-01
  3.148542e+01    7.667497e-01
  3.151717e+01    7.791486e-01
  3.154892e+01    7.697082e-01
  3.158067e+01    7.874765e-01
  3.161242e+01    8.198869e-01
  3.164418e+01    8.274119e-01
  3.167593e+01    8.486310e-01
  3.170768e+01    9.077806e-01
  3.173943e+01    9.918136e-01
  3.177118e+01    1.086254e+00
  3.180293e+01    1.212017e+00
  3.183468e+01    1.437838e+00
  3.186643e+01    1.704433e+00
  3.189818e+01    2.063618e+00
  3.192994e+01    2.398808e+00
  3.196169e+01    2.615605e+00
  3.199344e+01    2.470209e+00
  3.202519e+01    2.113343e+00
  3.205694e+01    1.722496e+00
  3.208869e+01    1.369130e+00
  3.212044e+01    1.210161e+00
  3.215219e+01    1.045457e+00
  3.218394e+01    9.623482e-01
  3.221570e+01    9.240777e-01
  3.224745e+01    8.752148e-01
  3.227920e+01    8.026888e-01
  3.231095e+01    7.983148e-01
  3.234270e+01    7.939868e-01
  3.237445e+01    7.822742e-01
  3.240620e+01    7.676783e-01
  3.243795e+01    7.654328e-01
  3.246970e+01    7.775981e-01
  3.250146e+01    7.338390e-01
  3.253321e+01    7.303921e-01
  3.254908e+01    7.194920e-01