File: XRD/2024-07-27_002_Ru-CGO-ex_Activtation_ramp_000002_data_000166.dat
# == pyFAI calibration ==
# Distance Sample to Detector: 0.4 m
# PONI: 9.750e-02, 1.135e-01 m
# Rotations: -0.000175 0.000000 -0.000000 rad
#
# == Fit2d calibration ==
# Distance Sample-beamCenter: 400.000 mm
# Center: x=1514.000, y=1300.000 pix
# Tilt: 0.010 deg  TiltPlanRot: 0.010 deg
#
# Detector Detector	 Spline= None	 PixelSize= 7.500e-05, 7.500e-05 m
#    Detector has a mask: False
#    Detector has a dark current: False
#    detector has a flat field: False
#
# Wavelength: 6.888e-11 m
# Mask applied: user provided
# Dark current applied: False
# Flat field applied: False
# Polarization factor: 0.99
# Normalization factor: 1.0
# --> /home/myspot/data/2024_07_Rosario/Ru-CGO-ex/2024-07-27_002_Ru-CGO-ex_Activtation_ramp_000002_data_000166.dat
#       q_nm^-1             I
  2.003187e-02    0.000000e+00
  5.178302e-02    2.671360e-02
  8.353417e-02    2.592442e-03
  1.152853e-01    1.381797e-01
  1.470365e-01    2.542160e-02
  1.787876e-01    3.239403e-02
  2.105388e-01    2.828550e-02
  2.422899e-01    3.960438e-02
  2.740411e-01    2.623585e-02
  3.057922e-01    4.755418e-02
  3.375433e-01    4.247655e-02
  3.692945e-01    4.647535e-02
  4.010456e-01    2.664067e-02
  4.327968e-01    2.844745e-02
  4.645479e-01    8.413304e-02
  4.962991e-01    1.824494e-02
  5.280502e-01    4.504332e-02
  5.598014e-01    2.613695e-02
  5.915525e-01    1.940896e-02
  6.233037e-01    3.831737e-02
  6.550548e-01    5.418418e-02
  6.868060e-01    8.183810e-02
  7.185571e-01    3.420749e-02
  7.503083e-01    4.610668e-02
  7.820594e-01    8.637435e-02
  8.138106e-01    2.450616e-01
  8.455617e-01    3.857705e-01
  8.773129e-01    4.580913e-01
  9.090640e-01    5.196450e-01
  9.408152e-01    6.987858e-01
  9.725663e-01    8.856384e-01
  1.004317e+00    1.010140e+00
  1.036069e+00    1.232118e+00
  1.067820e+00    1.268681e+00
  1.099571e+00    1.314748e+00
  1.131322e+00    1.402992e+00
  1.163073e+00    1.527791e+00
  1.194824e+00    1.615096e+00
  1.226575e+00    1.944522e+00
  1.258327e+00    2.273878e+00
  1.290078e+00    2.348536e+00
  1.321829e+00    2.578131e+00
  1.353580e+00    2.446433e+00
  1.385331e+00    2.426472e+00
  1.417082e+00    2.397389e+00
  1.448834e+00    2.781704e+00
  1.480585e+00    2.784356e+00
  1.512336e+00    2.830775e+00
  1.544087e+00    2.944126e+00
  1.575838e+00    2.841181e+00
  1.607589e+00    2.821723e+00
  1.639340e+00    2.779769e+00
  1.671092e+00    2.829014e+00
  1.702843e+00    2.879099e+00
  1.734594e+00    2.811881e+00
  1.766345e+00    2.832903e+00
  1.798096e+00    2.623012e+00
  1.829847e+00    2.663790e+00
  1.861598e+00    2.798160e+00
  1.893350e+00    2.784782e+00
  1.925101e+00    2.723350e+00
  1.956852e+00    2.683596e+00
  1.988603e+00    2.759430e+00
  2.020354e+00    2.775185e+00
  2.052105e+00    2.694830e+00
  2.083856e+00    2.702087e+00
  2.115608e+00    2.627863e+00
  2.147359e+00    2.817935e+00
  2.179110e+00    2.652735e+00
  2.210861e+00    2.581223e+00
  2.242612e+00    2.771642e+00
  2.274363e+00    2.824530e+00
  2.306115e+00    2.707675e+00
  2.337866e+00    2.775150e+00
  2.369617e+00    2.670660e+00
  2.401368e+00    2.734361e+00
  2.433119e+00    2.808919e+00
  2.464870e+00    2.731641e+00
  2.496621e+00    2.926435e+00
  2.528373e+00    2.765068e+00
  2.560124e+00    2.678154e+00
  2.591875e+00    2.783451e+00
  2.623626e+00    2.742297e+00
  2.655377e+00    2.752251e+00
  2.687128e+00    2.914041e+00
  2.718879e+00    2.759969e+00
  2.750631e+00    2.776050e+00
  2.782382e+00    2.797568e+00
  2.814133e+00    2.777458e+00
  2.845884e+00    2.815522e+00
  2.877635e+00    2.937296e+00
  2.909386e+00    2.855738e+00
  2.941137e+00    2.871063e+00
  2.972889e+00    2.861851e+00
  3.004640e+00    2.924831e+00
  3.036391e+00    2.906173e+00
  3.068142e+00    2.903052e+00
  3.099893e+00    2.798360e+00
  3.131644e+00    2.889073e+00
  3.163395e+00    2.891167e+00
  3.195147e+00    2.842442e+00
  3.226898e+00    2.848974e+00
  3.258649e+00    2.886097e+00
  3.290400e+00    2.869051e+00
  3.322151e+00    2.971988e+00
  3.353902e+00    2.947442e+00
  3.385654e+00    2.899655e+00
  3.417405e+00    2.939371e+00
  3.449156e+00    2.890163e+00
  3.480907e+00    2.999480e+00
  3.512658e+00    3.000738e+00
  3.544409e+00    2.957231e+00
  3.576160e+00    3.009246e+00
  3.607912e+00    2.961709e+00
  3.639663e+00    2.906523e+00
  3.671414e+00    3.017580e+00
  3.703165e+00    2.999727e+00
  3.734916e+00    3.035941e+00
  3.766667e+00    2.983365e+00
  3.798418e+00    3.024014e+00
  3.830170e+00    3.007790e+00
  3.861921e+00    3.076864e+00
  3.893672e+00    3.010161e+00
  3.925423e+00    2.997471e+00
  3.957174e+00    3.054228e+00
  3.988925e+00    3.020953e+00
  4.020676e+00    2.986931e+00
  4.052428e+00    3.047638e+00
  4.084179e+00    2.962119e+00
  4.115930e+00    3.088118e+00
  4.147681e+00    3.071100e+00
  4.179432e+00    2.970503e+00
  4.211183e+00    3.025020e+00
  4.242935e+00    3.121265e+00
  4.274686e+00    3.068814e+00
  4.306437e+00    3.109285e+00
  4.338188e+00    3.108898e+00
  4.369939e+00    3.112321e+00
  4.401690e+00    3.088995e+00
  4.433441e+00    3.069536e+00
  4.465193e+00    3.046101e+00
  4.496944e+00    3.090517e+00
  4.528695e+00    3.053741e+00
  4.560446e+00    3.081771e+00
  4.592197e+00    3.146457e+00
  4.623948e+00    3.064406e+00
  4.655699e+00    3.059654e+00
  4.687451e+00    3.060047e+00
  4.719202e+00    3.113244e+00
  4.750953e+00    3.053936e+00
  4.782704e+00    3.156055e+00
  4.814455e+00    3.058035e+00
  4.846206e+00    3.084952e+00
  4.877957e+00    3.157423e+00
  4.909709e+00    3.113465e+00
  4.941460e+00    3.132853e+00
  4.973211e+00    3.188424e+00
  5.004962e+00    3.067801e+00
  5.036713e+00    3.156770e+00
  5.068464e+00    3.158974e+00
  5.100216e+00    3.055841e+00
  5.131967e+00    3.126729e+00
  5.163718e+00    3.159277e+00
  5.195469e+00    3.097429e+00
  5.227220e+00    3.113177e+00
  5.258971e+00    3.188552e+00
  5.290722e+00    3.067558e+00
  5.322474e+00    3.148878e+00
  5.354225e+00    3.152154e+00
  5.385976e+00    3.170107e+00
  5.417727e+00    3.142217e+00
  5.449478e+00    3.141677e+00
  5.481229e+00    3.051302e+00
  5.512980e+00    3.083975e+00
  5.544732e+00    3.092700e+00
  5.576483e+00    3.148913e+00
  5.608234e+00    3.097798e+00
  5.639985e+00    3.125630e+00
  5.671736e+00    3.040114e+00
  5.703487e+00    3.186618e+00
  5.735238e+00    3.095872e+00
  5.766990e+00    3.017352e+00
  5.798741e+00    3.073725e+00
  5.830492e+00    3.020962e+00
  5.862243e+00    3.076279e+00
  5.893994e+00    2.962176e+00
  5.925745e+00    3.046236e+00
  5.957497e+00    2.990947e+00
  5.989248e+00    2.957115e+00
  6.020999e+00    3.002012e+00
  6.052750e+00    3.020083e+00
  6.084501e+00    3.017214e+00
  6.116252e+00    3.123413e+00
  6.148003e+00    3.101444e+00
  6.179755e+00    3.115859e+00
  6.211506e+00    3.121199e+00
  6.243257e+00    3.048032e+00
  6.275008e+00    3.086430e+00
  6.306759e+00    3.001069e+00
  6.338510e+00    3.070207e+00
  6.370261e+00    3.024270e+00
  6.402013e+00    3.059370e+00
  6.433764e+00    3.031435e+00
  6.465515e+00    3.062597e+00
  6.497266e+00    3.098930e+00
  6.529017e+00    3.142662e+00
  6.560768e+00    3.043529e+00
  6.592519e+00    3.012579e+00
  6.624271e+00    3.072587e+00
  6.656022e+00    3.076248e+00
  6.687773e+00    3.018790e+00
  6.719524e+00    3.082026e+00
  6.751275e+00    3.047455e+00
  6.783026e+00    3.128752e+00
  6.814777e+00    3.105916e+00
  6.846529e+00    3.056338e+00
  6.878280e+00    2.978186e+00
  6.910031e+00    3.079244e+00
  6.941782e+00    3.115582e+00
  6.973533e+00    3.067505e+00
  7.005284e+00    3.060420e+00
  7.037036e+00    3.022818e+00
  7.068787e+00    3.021404e+00
  7.100538e+00    3.011476e+00
  7.132289e+00    3.039799e+00
  7.164040e+00    2.986730e+00
  7.195791e+00    3.043666e+00
  7.227542e+00    3.044764e+00
  7.259294e+00    2.991206e+00
  7.291045e+00    2.986800e+00
  7.322796e+00    3.019351e+00
  7.354547e+00    2.956342e+00
  7.386298e+00    2.959565e+00
  7.418049e+00    2.972699e+00
  7.449800e+00    2.966419e+00
  7.481552e+00    2.935716e+00
  7.513303e+00    2.946132e+00
  7.545054e+00    3.066587e+00
  7.576805e+00    2.933981e+00
  7.608556e+00    2.932769e+00
  7.640307e+00    2.986422e+00
  7.672058e+00    2.930645e+00
  7.703810e+00    2.975508e+00
  7.735561e+00    2.935382e+00
  7.767312e+00    2.954399e+00
  7.799063e+00    2.992513e+00
  7.830814e+00    2.958253e+00
  7.862565e+00    2.990116e+00
  7.894317e+00    2.927763e+00
  7.926068e+00    2.961274e+00
  7.957819e+00    2.927309e+00
  7.989570e+00    2.929819e+00
  8.021321e+00    3.007140e+00
  8.053072e+00    2.873235e+00
  8.084823e+00    2.912284e+00
  8.116575e+00    2.962818e+00
  8.148326e+00    2.933617e+00
  8.180077e+00    2.905553e+00
  8.211828e+00    2.966170e+00
  8.243579e+00    2.935645e+00
  8.275330e+00    2.959522e+00
  8.307081e+00    2.914108e+00
  8.338833e+00    2.924549e+00
  8.370584e+00    2.930039e+00
  8.402335e+00    2.939602e+00
  8.434086e+00    2.917626e+00
  8.465837e+00    2.909135e+00
  8.497588e+00    2.912216e+00
  8.529339e+00    2.883947e+00
  8.561091e+00    2.888527e+00
  8.592842e+00    2.907681e+00
  8.624593e+00    2.849381e+00
  8.656344e+00    2.861668e+00
  8.688095e+00    2.832688e+00
  8.719846e+00    2.833957e+00
  8.751598e+00    2.817029e+00
  8.783349e+00    2.817365e+00
  8.815100e+00    2.871384e+00
  8.846851e+00    2.888104e+00
  8.878602e+00    2.890714e+00
  8.910353e+00    2.828387e+00
  8.942104e+00    2.796149e+00
  8.973856e+00    2.834434e+00
  9.005607e+00    2.841944e+00
  9.037358e+00    2.845764e+00
  9.069109e+00    2.778055e+00
  9.100860e+00    2.845137e+00
  9.132611e+00    2.771415e+00
  9.164362e+00    2.786123e+00
  9.196114e+00    2.776516e+00
  9.227865e+00    2.813560e+00
  9.259616e+00    2.766889e+00
  9.291367e+00    2.769095e+00
  9.323118e+00    2.754249e+00
  9.354869e+00    2.780857e+00
  9.386620e+00    2.750753e+00
  9.418372e+00    2.785776e+00
  9.450123e+00    2.803760e+00
  9.481874e+00    2.752748e+00
  9.513625e+00    2.794327e+00
  9.545376e+00    2.750455e+00
  9.577127e+00    2.772926e+00
  9.608878e+00    2.792041e+00
  9.640630e+00    2.766234e+00
  9.672381e+00    2.764589e+00
  9.704132e+00    2.732976e+00
  9.735883e+00    2.684998e+00
  9.767634e+00    2.689748e+00
  9.799385e+00    2.673771e+00
  9.831137e+00    2.689605e+00
  9.862888e+00    2.717063e+00
  9.894639e+00    2.736024e+00
  9.926390e+00    2.677691e+00
  9.958141e+00    2.692806e+00
  9.989892e+00    2.715434e+00
  1.002164e+01    2.709789e+00
  1.005339e+01    2.703095e+00
  1.008515e+01    2.688971e+00
  1.011690e+01    2.668488e+00
  1.014865e+01    2.652488e+00
  1.018040e+01    2.640749e+00
  1.021215e+01    2.645740e+00
  1.024390e+01    2.652416e+00
  1.027565e+01    2.626365e+00
  1.030740e+01    2.684200e+00
  1.033915e+01    2.656567e+00
  1.037091e+01    2.645614e+00
  1.040266e+01    2.683299e+00
  1.043441e+01    2.614955e+00
  1.046616e+01    2.621954e+00
  1.049791e+01    2.609807e+00
  1.052966e+01    2.554556e+00
  1.056141e+01    2.572179e+00
  1.059316e+01    2.610999e+00
  1.062492e+01    2.578624e+00
  1.065667e+01    2.516109e+00
  1.068842e+01    2.541922e+00
  1.072017e+01    2.575533e+00
  1.075192e+01    2.540001e+00
  1.078367e+01    2.563932e+00
  1.081542e+01    2.526928e+00
  1.084717e+01    2.509960e+00
  1.087892e+01    2.510625e+00
  1.091068e+01    2.557546e+00
  1.094243e+01    2.495539e+00
  1.097418e+01    2.516924e+00
  1.100593e+01    2.460358e+00
  1.103768e+01    2.479734e+00
  1.106943e+01    2.460249e+00
  1.110118e+01    2.461894e+00
  1.113293e+01    2.470491e+00
  1.116468e+01    2.494190e+00
  1.119644e+01    2.463512e+00
  1.122819e+01    2.449245e+00
  1.125994e+01    2.475675e+00
  1.129169e+01    2.449075e+00
  1.132344e+01    2.425678e+00
  1.135519e+01    2.422809e+00
  1.138694e+01    2.414090e+00
  1.141869e+01    2.413371e+00
  1.145045e+01    2.475171e+00
  1.148220e+01    2.405685e+00
  1.151395e+01    2.359536e+00
  1.154570e+01    2.398765e+00
  1.157745e+01    2.426785e+00
  1.160920e+01    2.385379e+00
  1.164095e+01    2.356804e+00
  1.167270e+01    2.387661e+00
  1.170445e+01    2.350106e+00
  1.173621e+01    2.357091e+00
  1.176796e+01    2.378628e+00
  1.179971e+01    2.369763e+00
  1.183146e+01    2.315628e+00
  1.186321e+01    2.367728e+00
  1.189496e+01    2.313323e+00
  1.192671e+01    2.328372e+00
  1.195846e+01    2.359649e+00
  1.199021e+01    2.345435e+00
  1.202197e+01    2.332331e+00
  1.205372e+01    2.331900e+00
  1.208547e+01    2.336664e+00
  1.211722e+01    2.352125e+00
  1.214897e+01    2.325775e+00
  1.218072e+01    2.321595e+00
  1.221247e+01    2.332228e+00
  1.224422e+01    2.350103e+00
  1.227597e+01    2.282060e+00
  1.230773e+01    2.332981e+00
  1.233948e+01    2.338337e+00
  1.237123e+01    2.340891e+00
  1.240298e+01    2.293632e+00
  1.243473e+01    2.333127e+00
  1.246648e+01    2.348027e+00
  1.249823e+01    2.339701e+00
  1.252998e+01    2.356446e+00
  1.256174e+01    2.378972e+00
  1.259349e+01    2.366038e+00
  1.262524e+01    2.405235e+00
  1.265699e+01    2.425712e+00
  1.268874e+01    2.445250e+00
  1.272049e+01    2.534698e+00
  1.275224e+01    2.545542e+00
  1.278399e+01    2.663578e+00
  1.281574e+01    2.684382e+00
  1.284750e+01    2.889983e+00
  1.287925e+01    3.003002e+00
  1.291100e+01    3.314401e+00
  1.294275e+01    3.708692e+00
  1.297450e+01    4.446974e+00
  1.300625e+01    5.498586e+00
  1.303800e+01    7.213312e+00
  1.306975e+01    9.545061e+00
  1.310150e+01    1.202252e+01
  1.313326e+01    1.432367e+01
  1.316501e+01    1.602663e+01
  1.319676e+01    1.577656e+01
  1.322851e+01    1.258422e+01
  1.326026e+01    8.951527e+00
  1.329201e+01    6.510035e+00
  1.332376e+01    5.102431e+00
  1.335551e+01    4.137111e+00
  1.338727e+01    3.583157e+00
  1.341902e+01    3.114223e+00
  1.345077e+01    2.891547e+00
  1.348252e+01    2.768645e+00
  1.351427e+01    2.565882e+00
  1.354602e+01    2.522836e+00
  1.357777e+01    2.428050e+00
  1.360952e+01    2.350038e+00
  1.364127e+01    2.301600e+00
  1.367303e+01    2.278761e+00
  1.370478e+01    2.206652e+00
  1.373653e+01    2.181515e+00
  1.376828e+01    2.143524e+00
  1.380003e+01    2.119322e+00
  1.383178e+01    2.137448e+00
  1.386353e+01    2.121386e+00
  1.389528e+01    2.121199e+00
  1.392703e+01    2.083677e+00
  1.395879e+01    2.085591e+00
  1.399054e+01    2.052444e+00
  1.402229e+01    2.021444e+00
  1.405404e+01    2.045695e+00
  1.408579e+01    1.973361e+00
  1.411754e+01    2.014404e+00
  1.414929e+01    2.007181e+00
  1.418104e+01    1.991349e+00
  1.421279e+01    1.982090e+00
  1.424455e+01    1.991157e+00
  1.427630e+01    1.999529e+00
  1.430805e+01    1.985378e+00
  1.433980e+01    1.959268e+00
  1.437155e+01    1.944339e+00
  1.440330e+01    1.945960e+00
  1.443505e+01    1.951902e+00
  1.446680e+01    1.907852e+00
  1.449856e+01    1.942772e+00
  1.453031e+01    1.901235e+00
  1.456206e+01    1.880519e+00
  1.459381e+01    1.916315e+00
  1.462556e+01    1.956445e+00
  1.465731e+01    1.936363e+00
  1.468906e+01    1.931339e+00
  1.472081e+01    1.917897e+00
  1.475256e+01    1.897304e+00
  1.478432e+01    1.884706e+00
  1.481607e+01    1.935719e+00
  1.484782e+01    1.889419e+00
  1.487957e+01    1.949628e+00
  1.491132e+01    1.955516e+00
  1.494307e+01    2.004639e+00
  1.497482e+01    2.057439e+00
  1.500657e+01    2.165164e+00
  1.503832e+01    2.317218e+00
  1.507008e+01    2.544030e+00
  1.510183e+01    2.871292e+00
  1.513358e+01    3.481660e+00
  1.516533e+01    4.199719e+00
  1.519708e+01    4.843884e+00
  1.522883e+01    5.413626e+00
  1.526058e+01    5.604113e+00
  1.529233e+01    5.343651e+00
  1.532409e+01    4.523436e+00
  1.535584e+01    3.573119e+00
  1.538759e+01    2.915133e+00
  1.541934e+01    2.560645e+00
  1.545109e+01    2.285632e+00
  1.548284e+01    2.122940e+00
  1.551459e+01    2.011872e+00
  1.554634e+01    1.897315e+00
  1.557809e+01    1.853231e+00
  1.560985e+01    1.812381e+00
  1.564160e+01    1.800566e+00
  1.567335e+01    1.757048e+00
  1.570510e+01    1.749078e+00
  1.573685e+01    1.740646e+00
  1.576860e+01    1.720012e+00
  1.580035e+01    1.701565e+00
  1.583210e+01    1.664168e+00
  1.586385e+01    1.627909e+00
  1.589561e+01    1.632611e+00
  1.592736e+01    1.631296e+00
  1.595911e+01    1.612783e+00
  1.599086e+01    1.645934e+00
  1.602261e+01    1.588166e+00
  1.605436e+01    1.597465e+00
  1.608611e+01    1.638132e+00
  1.611786e+01    1.569795e+00
  1.614961e+01    1.600387e+00
  1.618137e+01    1.564469e+00
  1.621312e+01    1.615531e+00
  1.624487e+01    1.595769e+00
  1.627662e+01    1.549576e+00
  1.630837e+01    1.554244e+00
  1.634012e+01    1.561246e+00
  1.637187e+01    1.554018e+00
  1.640362e+01    1.517716e+00
  1.643538e+01    1.546134e+00
  1.646713e+01    1.529167e+00
  1.649888e+01    1.542715e+00
  1.653063e+01    1.514286e+00
  1.656238e+01    1.503153e+00
  1.659413e+01    1.520677e+00
  1.662588e+01    1.527756e+00
  1.665763e+01    1.512860e+00
  1.668938e+01    1.519196e+00
  1.672114e+01    1.465124e+00
  1.675289e+01    1.473487e+00
  1.678464e+01    1.464441e+00
  1.681639e+01    1.439171e+00
  1.684814e+01    1.479481e+00
  1.687989e+01    1.426283e+00
  1.691164e+01    1.438170e+00
  1.694339e+01    1.446025e+00
  1.697514e+01    1.466192e+00
  1.700690e+01    1.443257e+00
  1.703865e+01    1.427674e+00
  1.707040e+01    1.406539e+00
  1.710215e+01    1.421694e+00
  1.713390e+01    1.421692e+00
  1.716565e+01    1.395762e+00
  1.719740e+01    1.418910e+00
  1.722915e+01    1.384888e+00
  1.726091e+01    1.413355e+00
  1.729266e+01    1.390098e+00
  1.732441e+01    1.402575e+00
  1.735616e+01    1.379482e+00
  1.738791e+01    1.385913e+00
  1.741966e+01    1.378258e+00
  1.745141e+01    1.333297e+00
  1.748316e+01    1.383644e+00
  1.751491e+01    1.366467e+00
  1.754667e+01    1.369165e+00
  1.757842e+01    1.333723e+00
  1.761017e+01    1.372827e+00
  1.764192e+01    1.333879e+00
  1.767367e+01    1.361485e+00
  1.770542e+01    1.374002e+00
  1.773717e+01    1.333992e+00
  1.776892e+01    1.375470e+00
  1.780067e+01    1.318873e+00
  1.783243e+01    1.360214e+00
  1.786418e+01    1.329735e+00
  1.789593e+01    1.324949e+00
  1.792768e+01    1.325643e+00
  1.795943e+01    1.336019e+00
  1.799118e+01    1.304220e+00
  1.802293e+01    1.294142e+00
  1.805468e+01    1.303702e+00
  1.808643e+01    1.281803e+00
  1.811819e+01    1.298298e+00
  1.814994e+01    1.310019e+00
  1.818169e+01    1.298767e+00
  1.821344e+01    1.284808e+00
  1.824519e+01    1.282010e+00
  1.827694e+01    1.244008e+00
  1.830869e+01    1.307744e+00
  1.834044e+01    1.286783e+00
  1.837220e+01    1.266872e+00
  1.840395e+01    1.256355e+00
  1.843570e+01    1.262743e+00
  1.846745e+01    1.251605e+00
  1.849920e+01    1.243219e+00
  1.853095e+01    1.250989e+00
  1.856270e+01    1.247501e+00
  1.859445e+01    1.250593e+00
  1.862620e+01    1.245263e+00
  1.865796e+01    1.220577e+00
  1.868971e+01    1.228394e+00
  1.872146e+01    1.223518e+00
  1.875321e+01    1.203201e+00
  1.878496e+01    1.259341e+00
  1.881671e+01    1.225562e+00
  1.884846e+01    1.204633e+00
  1.888021e+01    1.192914e+00
  1.891196e+01    1.222907e+00
  1.894372e+01    1.192170e+00
  1.897547e+01    1.203661e+00
  1.900722e+01    1.186575e+00
  1.903897e+01    1.201764e+00
  1.907072e+01    1.232133e+00
  1.910247e+01    1.219289e+00
  1.913422e+01    1.179229e+00
  1.916597e+01    1.178566e+00
  1.919773e+01    1.178958e+00
  1.922948e+01    1.211552e+00
  1.926123e+01    1.169430e+00
  1.929298e+01    1.212255e+00
  1.932473e+01    1.184091e+00
  1.935648e+01    1.183409e+00
  1.938823e+01    1.194597e+00
  1.941998e+01    1.188924e+00
  1.945173e+01    1.178684e+00
  1.948349e+01    1.179025e+00
  1.951524e+01    1.154280e+00
  1.954699e+01    1.138028e+00
  1.957874e+01    1.165431e+00
  1.961049e+01    1.159374e+00
  1.964224e+01    1.151995e+00
  1.967399e+01    1.137062e+00
  1.970574e+01    1.133277e+00
  1.973749e+01    1.135762e+00
  1.976925e+01    1.152984e+00
  1.980100e+01    1.131221e+00
  1.983275e+01    1.119617e+00
  1.986450e+01    1.155210e+00
  1.989625e+01    1.120073e+00
  1.992800e+01    1.116645e+00
  1.995975e+01    1.148471e+00
  1.999150e+01    1.108646e+00
  2.002325e+01    1.109104e+00
  2.005501e+01    1.127259e+00
  2.008676e+01    1.119273e+00
  2.011851e+01    1.118048e+00
  2.015026e+01    1.097159e+00
  2.018201e+01    1.097238e+00
  2.021376e+01    1.086836e+00
  2.024551e+01    1.131434e+00
  2.027726e+01    1.082002e+00
  2.030902e+01    1.111382e+00
  2.034077e+01    1.080394e+00
  2.037252e+01    1.110150e+00
  2.040427e+01    1.085764e+00
  2.043602e+01    1.089737e+00
  2.046777e+01    1.103220e+00
  2.049952e+01    1.079807e+00
  2.053127e+01    1.108724e+00
  2.056302e+01    1.087756e+00
  2.059478e+01    1.089908e+00
  2.062653e+01    1.080551e+00
  2.065828e+01    1.089502e+00
  2.069003e+01    1.088560e+00
  2.072178e+01    1.094618e+00
  2.075353e+01    1.066230e+00
  2.078528e+01    1.085083e+00
  2.081703e+01    1.105865e+00
  2.084878e+01    1.071772e+00
  2.088054e+01    1.071083e+00
  2.091229e+01    1.054809e+00
  2.094404e+01    1.090026e+00
  2.097579e+01    1.057088e+00
  2.100754e+01    1.080116e+00
  2.103929e+01    1.092830e+00
  2.107104e+01    1.072198e+00
  2.110279e+01    1.095505e+00
  2.113455e+01    1.078122e+00
  2.116630e+01    1.094594e+00
  2.119805e+01    1.063011e+00
  2.122980e+01    1.094522e+00
  2.126155e+01    1.062238e+00
  2.129330e+01    1.129068e+00
  2.132505e+01    1.139320e+00
  2.135680e+01    1.151356e+00
  2.138855e+01    1.171100e+00
  2.142031e+01    1.189293e+00
  2.145206e+01    1.241858e+00
  2.148381e+01    1.245992e+00
  2.151556e+01    1.330092e+00
  2.154731e+01    1.389529e+00
  2.157906e+01    1.479190e+00
  2.161081e+01    1.654315e+00
  2.164256e+01    1.839678e+00
  2.167431e+01    2.139364e+00
  2.170607e+01    2.625723e+00
  2.173782e+01    3.285464e+00
  2.176957e+01    4.326079e+00
  2.180132e+01    5.558577e+00
  2.183307e+01    6.900810e+00
  2.186482e+01    8.217194e+00
  2.189657e+01    9.023791e+00
  2.192832e+01    8.319178e+00
  2.196007e+01    6.615765e+00
  2.199183e+01    4.791572e+00
  2.202358e+01    3.549974e+00
  2.205533e+01    2.669958e+00
  2.208708e+01    2.212152e+00
  2.211883e+01    1.843473e+00
  2.215058e+01    1.659981e+00
  2.218233e+01    1.475653e+00
  2.221408e+01    1.373364e+00
  2.224584e+01    1.272395e+00
  2.227759e+01    1.209292e+00
  2.230934e+01    1.162552e+00
  2.234109e+01    1.124744e+00
  2.237284e+01    1.083187e+00
  2.240459e+01    1.089778e+00
  2.243634e+01    1.074342e+00
  2.246809e+01    1.028948e+00
  2.249984e+01    1.017169e+00
  2.253160e+01    9.963480e-01
  2.256335e+01    1.019899e+00
  2.259510e+01    9.728777e-01
  2.262685e+01    9.557108e-01
  2.265860e+01    9.571174e-01
  2.269035e+01    9.472623e-01
  2.272210e+01    9.300758e-01
  2.275385e+01    9.247544e-01
  2.278560e+01    9.397140e-01
  2.281736e+01    9.242291e-01
  2.284911e+01    9.115968e-01
  2.288086e+01    9.182085e-01
  2.291261e+01    8.947448e-01
  2.294436e+01    9.087864e-01
  2.297611e+01    9.016663e-01
  2.300786e+01    8.800782e-01
  2.303961e+01    8.962477e-01
  2.307137e+01    9.041358e-01
  2.310312e+01    8.812522e-01
  2.313487e+01    8.764901e-01
  2.316662e+01    8.957074e-01
  2.319837e+01    8.768560e-01
  2.323012e+01    8.625926e-01
  2.326187e+01    8.651775e-01
  2.329362e+01    8.574550e-01
  2.332537e+01    8.923045e-01
  2.335713e+01    8.655472e-01
  2.338888e+01    8.652098e-01
  2.342063e+01    8.471294e-01
  2.345238e+01    8.425069e-01
  2.348413e+01    8.411512e-01
  2.351588e+01    8.371010e-01
  2.354763e+01    8.464543e-01
  2.357938e+01    8.387091e-01
  2.361113e+01    8.570935e-01
  2.364289e+01    8.275528e-01
  2.367464e+01    8.387274e-01
  2.370639e+01    8.162348e-01
  2.373814e+01    8.285224e-01
  2.376989e+01    7.971915e-01
  2.380164e+01    8.130071e-01
  2.383339e+01    7.980886e-01
  2.386514e+01    8.157033e-01
  2.389689e+01    7.875872e-01
  2.392865e+01    8.047850e-01
  2.396040e+01    7.900525e-01
  2.399215e+01    7.824836e-01
  2.402390e+01    7.946353e-01
  2.405565e+01    7.924148e-01
  2.408740e+01    7.730278e-01
  2.411915e+01    7.734385e-01
  2.415090e+01    8.050814e-01
  2.418266e+01    7.678792e-01
  2.421441e+01    7.525555e-01
  2.424616e+01    7.759462e-01
  2.427791e+01    7.690916e-01
  2.430966e+01    7.918690e-01
  2.434141e+01    7.912042e-01
  2.437316e+01    7.740450e-01
  2.440491e+01    7.811598e-01
  2.443666e+01    7.750226e-01
  2.446842e+01    7.701747e-01
  2.450017e+01    8.059801e-01
  2.453192e+01    7.749826e-01
  2.456367e+01    7.885730e-01
  2.459542e+01    7.983913e-01
  2.462717e+01    7.985418e-01
  2.465892e+01    7.837788e-01
  2.469067e+01    7.794792e-01
  2.472242e+01    8.015166e-01
  2.475418e+01    7.984416e-01
  2.478593e+01    7.728540e-01
  2.481768e+01    7.987744e-01
  2.484943e+01    7.862075e-01
  2.488118e+01    8.159022e-01
  2.491293e+01    8.047766e-01
  2.494468e+01    7.910714e-01
  2.497643e+01    8.187702e-01
  2.500819e+01    8.169553e-01
  2.503994e+01    7.952803e-01
  2.507169e+01    8.008696e-01
  2.510344e+01    8.096220e-01
  2.513519e+01    7.945189e-01
  2.516694e+01    8.349412e-01
  2.519869e+01    8.366852e-01
  2.523044e+01    8.057762e-01
  2.526219e+01    8.624625e-01
  2.529395e+01    8.396261e-01
  2.532570e+01    8.625118e-01
  2.535745e+01    8.905908e-01
  2.538920e+01    8.998215e-01
  2.542095e+01    9.260199e-01
  2.545270e+01    9.224820e-01
  2.548445e+01    9.530109e-01
  2.551620e+01    9.774913e-01
  2.554795e+01    1.024146e+00
  2.557971e+01    1.071776e+00
  2.561146e+01    1.104653e+00
  2.564321e+01    1.196212e+00
  2.567496e+01    1.342918e+00
  2.570671e+01    1.496062e+00
  2.573846e+01    1.752789e+00
  2.577021e+01    2.105977e+00
  2.580196e+01    2.675915e+00
  2.583371e+01    3.479110e+00
  2.586547e+01    4.491453e+00
  2.589722e+01    5.709674e+00
  2.592897e+01    6.777192e+00
  2.596072e+01    7.245903e+00
  2.599247e+01    6.773140e+00
  2.602422e+01    5.493618e+00
  2.605597e+01    4.071810e+00
  2.608772e+01    2.998626e+00
  2.611948e+01    2.309775e+00
  2.615123e+01    1.923896e+00
  2.618298e+01    1.626376e+00
  2.621473e+01    1.416157e+00
  2.624648e+01    1.257113e+00
  2.627823e+01    1.169573e+00
  2.630998e+01    1.068544e+00
  2.634173e+01    1.050139e+00
  2.637348e+01    1.010787e+00
  2.640524e+01    9.796897e-01
  2.643699e+01    9.390979e-01
  2.646874e+01    9.045348e-01
  2.650049e+01    9.231537e-01
  2.653224e+01    9.034292e-01
  2.656399e+01    8.910360e-01
  2.659574e+01    8.943310e-01
  2.662749e+01    8.805745e-01
  2.665924e+01    8.721394e-01
  2.669100e+01    8.812057e-01
  2.672275e+01    8.757228e-01
  2.675450e+01    8.835503e-01
  2.678625e+01    8.743498e-01
  2.681800e+01    8.755596e-01
  2.684975e+01    8.906859e-01
  2.688150e+01    8.862752e-01
  2.691325e+01    9.093471e-01
  2.694501e+01    9.549532e-01
  2.697676e+01    9.732665e-01
  2.700851e+01    1.028603e+00
  2.704026e+01    1.134676e+00
  2.707201e+01    1.226466e+00
  2.710376e+01    1.397218e+00
  2.713551e+01    1.620572e+00
  2.716726e+01    1.899254e+00
  2.719901e+01    2.123960e+00
  2.723077e+01    2.156630e+00
  2.726252e+01    1.987800e+00
  2.729427e+01    1.689251e+00
  2.732602e+01    1.397399e+00
  2.735777e+01    1.232245e+00
  2.738952e+01    1.110481e+00
  2.742127e+01    1.011390e+00
  2.745302e+01    9.704624e-01
  2.748477e+01    9.243795e-01
  2.751653e+01    8.968332e-01
  2.754828e+01    8.510773e-01
  2.758003e+01    8.460186e-01
  2.761178e+01    8.570374e-01
  2.764353e+01    8.279824e-01
  2.767528e+01    8.378320e-01
  2.770703e+01    8.094503e-01
  2.773878e+01    7.983619e-01
  2.777054e+01    8.003412e-01
  2.780229e+01    8.260984e-01
  2.783404e+01    7.678083e-01
  2.786579e+01    7.819845e-01
  2.789754e+01    7.900275e-01
  2.792929e+01    7.968763e-01
  2.796104e+01    7.750450e-01
  2.799279e+01    7.798015e-01
  2.802454e+01    7.787746e-01
  2.805630e+01    7.886401e-01
  2.808805e+01    7.673492e-01
  2.811980e+01    7.861440e-01
  2.815155e+01    7.994775e-01
  2.818330e+01    7.513331e-01
  2.821505e+01    7.714455e-01
  2.824680e+01    7.503836e-01
  2.827855e+01    7.634090e-01
  2.831030e+01    7.617471e-01
  2.834206e+01    7.863329e-01
  2.837381e+01    7.460608e-01
  2.840556e+01    7.689357e-01
  2.843731e+01    7.401712e-01
  2.846906e+01    7.588267e-01
  2.850081e+01    7.438773e-01
  2.853256e+01    7.514638e-01
  2.856431e+01    7.885962e-01
  2.859606e+01    7.558939e-01
  2.862782e+01    7.518286e-01
  2.865957e+01    7.322617e-01
  2.869132e+01    7.392923e-01
  2.872307e+01    7.314156e-01
  2.875482e+01    7.499722e-01
  2.878657e+01    7.301221e-01
  2.881832e+01    7.489234e-01
  2.885007e+01    7.514014e-01
  2.888183e+01    7.339614e-01
  2.891358e+01    7.301024e-01
  2.894533e+01    7.545088e-01
  2.897708e+01    7.446645e-01
  2.900883e+01    7.318568e-01
  2.904058e+01    7.417344e-01
  2.907233e+01    7.267153e-01
  2.910408e+01    7.312919e-01
  2.913583e+01    7.210640e-01
  2.916759e+01    7.222984e-01
  2.919934e+01    7.346861e-01
  2.923109e+01    7.287679e-01
  2.926284e+01    7.310935e-01
  2.929459e+01    7.282429e-01
  2.932634e+01    7.216422e-01
  2.935809e+01    7.159300e-01
  2.938984e+01    7.245825e-01
  2.942159e+01    7.177151e-01
  2.945335e+01    7.090920e-01
  2.948510e+01    7.165781e-01
  2.951685e+01    7.219203e-01
  2.954860e+01    7.114395e-01
  2.958035e+01    7.244706e-01
  2.961210e+01    7.353491e-01
  2.964385e+01    7.152993e-01
  2.967560e+01    7.277359e-01
  2.970736e+01    7.227078e-01
  2.973911e+01    7.020327e-01
  2.977086e+01    7.213470e-01
  2.980261e+01    7.174381e-01
  2.983436e+01    7.314232e-01
  2.986611e+01    7.199844e-01
  2.989786e+01    7.238339e-01
  2.992961e+01    7.213513e-01
  2.996136e+01    7.277559e-01
  2.999312e+01    7.379422e-01
  3.002487e+01    7.332538e-01
  3.005662e+01    7.134260e-01
  3.008837e+01    7.326815e-01
  3.012012e+01    7.145895e-01
  3.015187e+01    7.195413e-01
  3.018362e+01    7.028521e-01
  3.021537e+01    7.095512e-01
  3.024712e+01    7.057505e-01
  3.027888e+01    6.995828e-01
  3.031063e+01    7.023380e-01
  3.034238e+01    7.010360e-01
  3.037413e+01    7.093619e-01
  3.040588e+01    7.119434e-01
  3.043763e+01    7.248008e-01
  3.046938e+01    7.114104e-01
  3.050113e+01    6.982141e-01
  3.053288e+01    7.071868e-01
  3.056464e+01    6.985571e-01
  3.059639e+01    7.048133e-01
  3.062814e+01    6.687929e-01
  3.065989e+01    6.972678e-01
  3.069164e+01    7.194918e-01
  3.072339e+01    7.188346e-01
  3.075514e+01    7.186262e-01
  3.078689e+01    7.060916e-01
  3.081865e+01    6.963803e-01
  3.085040e+01    7.081694e-01
  3.088215e+01    7.203701e-01
  3.091390e+01    7.194777e-01
  3.094565e+01    7.137885e-01
  3.097740e+01    7.296376e-01
  3.100915e+01    7.062514e-01
  3.104090e+01    7.081690e-01
  3.107265e+01    7.218717e-01
  3.110441e+01    7.225398e-01
  3.113616e+01    7.001491e-01
  3.116791e+01    7.216175e-01
  3.119966e+01    7.339639e-01
  3.123141e+01    7.073053e-01
  3.126316e+01    7.226337e-01
  3.129491e+01    7.395279e-01
  3.132666e+01    7.262183e-01
  3.135841e+01    7.290111e-01
  3.139017e+01    7.484870e-01
  3.142192e+01    7.420768e-01
  3.145367e+01    7.360497e-01
  3.148542e+01    7.642209e-01
  3.151717e+01    7.865026e-01
  3.154892e+01    7.880318e-01
  3.158067e+01    7.894628e-01
  3.161242e+01    7.947520e-01
  3.164418e+01    8.803461e-01
  3.167593e+01    8.993288e-01
  3.170768e+01    9.710005e-01
  3.173943e+01    1.083793e+00
  3.177118e+01    1.188684e+00
  3.180293e+01    1.429851e+00
  3.183468e+01    1.683545e+00
  3.186643e+01    1.927554e+00
  3.189818e+01    2.123275e+00
  3.192994e+01    2.128580e+00
  3.196169e+01    1.862465e+00
  3.199344e+01    1.581417e+00
  3.202519e+01    1.301591e+00
  3.205694e+01    1.122396e+00
  3.208869e+01    9.852063e-01
  3.212044e+01    9.123108e-01
  3.215219e+01    8.527347e-01
  3.218394e+01    8.199636e-01
  3.221570e+01    8.216139e-01
  3.224745e+01    7.891686e-01
  3.227920e+01    7.338374e-01
  3.231095e+01    7.558901e-01
  3.234270e+01    7.311437e-01
  3.237445e+01    7.090225e-01
  3.240620e+01    7.227847e-01
  3.243795e+01    7.267284e-01
  3.246970e+01    7.118834e-01
  3.250146e+01    7.329093e-01
  3.253321e+01    7.241155e-01
  3.254908e+01    7.219604e-01