File: XRD/2024-07-27_002_Ru-CGO-ex_Activtation_ramp_000002_data_000108.dat
# == pyFAI calibration ==
# Distance Sample to Detector: 0.4 m
# PONI: 9.750e-02, 1.135e-01 m
# Rotations: -0.000175 0.000000 -0.000000 rad
#
# == Fit2d calibration ==
# Distance Sample-beamCenter: 400.000 mm
# Center: x=1514.000, y=1300.000 pix
# Tilt: 0.010 deg  TiltPlanRot: 0.010 deg
#
# Detector Detector	 Spline= None	 PixelSize= 7.500e-05, 7.500e-05 m
#    Detector has a mask: False
#    Detector has a dark current: False
#    detector has a flat field: False
#
# Wavelength: 6.888e-11 m
# Mask applied: user provided
# Dark current applied: False
# Flat field applied: False
# Polarization factor: 0.99
# Normalization factor: 1.0
# --> /home/myspot/data/2024_07_Rosario/Ru-CGO-ex/2024-07-27_002_Ru-CGO-ex_Activtation_ramp_000002_data_000108.dat
#       q_nm^-1             I
  2.003187e-02    7.712225e-02
  5.178302e-02    0.000000e+00
  8.353417e-02    1.345744e-01
  1.152853e-01    3.710140e-02
  1.470365e-01    1.301270e-02
  1.787876e-01    4.114927e-02
  2.105388e-01    4.353836e-02
  2.422899e-01    3.221241e-02
  2.740411e-01    2.489663e-02
  3.057922e-01    1.878839e-02
  3.375433e-01    4.278703e-02
  3.692945e-01    3.696050e-02
  4.010456e-01    2.920241e-02
  4.327968e-01    3.054561e-02
  4.645479e-01    4.060603e-02
  4.962991e-01    1.824646e-02
  5.280502e-01    2.812291e-02
  5.598014e-01    2.896653e-02
  5.915525e-01    3.961405e-02
  6.233037e-01    2.968169e-02
  6.550548e-01    4.894499e-02
  6.868060e-01    3.781554e-02
  7.185571e-01    2.703654e-02
  7.503083e-01    4.774882e-02
  7.820594e-01    1.079810e-01
  8.138106e-01    1.877978e-01
  8.455617e-01    2.977253e-01
  8.773129e-01    3.772830e-01
  9.090640e-01    6.420594e-01
  9.408152e-01    7.584773e-01
  9.725663e-01    8.673539e-01
  1.004317e+00    1.033875e+00
  1.036069e+00    1.169910e+00
  1.067820e+00    1.185739e+00
  1.099571e+00    1.284199e+00
  1.131322e+00    1.332874e+00
  1.163073e+00    1.524968e+00
  1.194824e+00    1.576792e+00
  1.226575e+00    1.999271e+00
  1.258327e+00    2.028020e+00
  1.290078e+00    2.448643e+00
  1.321829e+00    2.439534e+00
  1.353580e+00    2.446719e+00
  1.385331e+00    2.569738e+00
  1.417082e+00    2.596586e+00
  1.448834e+00    2.524194e+00
  1.480585e+00    2.750499e+00
  1.512336e+00    2.862634e+00
  1.544087e+00    2.888935e+00
  1.575838e+00    2.931395e+00
  1.607589e+00    2.868005e+00
  1.639340e+00    2.861123e+00
  1.671092e+00    2.799696e+00
  1.702843e+00    2.829575e+00
  1.734594e+00    2.780491e+00
  1.766345e+00    2.708147e+00
  1.798096e+00    2.732344e+00
  1.829847e+00    2.800105e+00
  1.861598e+00    2.660569e+00
  1.893350e+00    2.705063e+00
  1.925101e+00    2.685124e+00
  1.956852e+00    2.713541e+00
  1.988603e+00    2.716585e+00
  2.020354e+00    2.716261e+00
  2.052105e+00    2.710476e+00
  2.083856e+00    2.647899e+00
  2.115608e+00    2.816519e+00
  2.147359e+00    2.719378e+00
  2.179110e+00    2.703296e+00
  2.210861e+00    2.679171e+00
  2.242612e+00    2.614529e+00
  2.274363e+00    2.758118e+00
  2.306115e+00    2.731831e+00
  2.337866e+00    2.653647e+00
  2.369617e+00    2.646730e+00
  2.401368e+00    2.722135e+00
  2.433119e+00    2.673378e+00
  2.464870e+00    2.738359e+00
  2.496621e+00    2.721001e+00
  2.528373e+00    2.671166e+00
  2.560124e+00    2.761070e+00
  2.591875e+00    2.704323e+00
  2.623626e+00    2.829051e+00
  2.655377e+00    2.873254e+00
  2.687128e+00    2.766465e+00
  2.718879e+00    2.846262e+00
  2.750631e+00    2.787023e+00
  2.782382e+00    2.700794e+00
  2.814133e+00    2.690398e+00
  2.845884e+00    2.771331e+00
  2.877635e+00    2.826710e+00
  2.909386e+00    2.798121e+00
  2.941137e+00    2.895100e+00
  2.972889e+00    2.823291e+00
  3.004640e+00    2.786494e+00
  3.036391e+00    2.877887e+00
  3.068142e+00    2.869999e+00
  3.099893e+00    2.817872e+00
  3.131644e+00    2.873140e+00
  3.163395e+00    2.885811e+00
  3.195147e+00    2.822558e+00
  3.226898e+00    2.823023e+00
  3.258649e+00    2.851676e+00
  3.290400e+00    2.840681e+00
  3.322151e+00    2.844756e+00
  3.353902e+00    2.907276e+00
  3.385654e+00    2.899120e+00
  3.417405e+00    2.893790e+00
  3.449156e+00    2.953651e+00
  3.480907e+00    2.951461e+00
  3.512658e+00    2.957479e+00
  3.544409e+00    2.879966e+00
  3.576160e+00    2.936389e+00
  3.607912e+00    2.808390e+00
  3.639663e+00    2.961776e+00
  3.671414e+00    2.897302e+00
  3.703165e+00    2.959904e+00
  3.734916e+00    3.014248e+00
  3.766667e+00    2.923548e+00
  3.798418e+00    2.876455e+00
  3.830170e+00    2.936680e+00
  3.861921e+00    2.923595e+00
  3.893672e+00    2.895163e+00
  3.925423e+00    2.950471e+00
  3.957174e+00    2.990614e+00
  3.988925e+00    3.026210e+00
  4.020676e+00    3.010437e+00
  4.052428e+00    2.937042e+00
  4.084179e+00    3.013563e+00
  4.115930e+00    2.987766e+00
  4.147681e+00    2.938101e+00
  4.179432e+00    2.950899e+00
  4.211183e+00    2.901400e+00
  4.242935e+00    3.012962e+00
  4.274686e+00    2.952881e+00
  4.306437e+00    2.959190e+00
  4.338188e+00    3.040471e+00
  4.369939e+00    3.078502e+00
  4.401690e+00    3.051030e+00
  4.433441e+00    2.959414e+00
  4.465193e+00    3.028780e+00
  4.496944e+00    3.004356e+00
  4.528695e+00    3.014510e+00
  4.560446e+00    3.007449e+00
  4.592197e+00    2.981891e+00
  4.623948e+00    3.067685e+00
  4.655699e+00    3.054450e+00
  4.687451e+00    3.008938e+00
  4.719202e+00    3.082334e+00
  4.750953e+00    3.061175e+00
  4.782704e+00    3.079058e+00
  4.814455e+00    3.038369e+00
  4.846206e+00    3.065968e+00
  4.877957e+00    3.052792e+00
  4.909709e+00    3.102056e+00
  4.941460e+00    3.074460e+00
  4.973211e+00    3.108443e+00
  5.004962e+00    2.988262e+00
  5.036713e+00    3.079981e+00
  5.068464e+00    3.061560e+00
  5.100216e+00    3.068329e+00
  5.131967e+00    3.071153e+00
  5.163718e+00    3.065169e+00
  5.195469e+00    3.058216e+00
  5.227220e+00    3.031840e+00
  5.258971e+00    3.026378e+00
  5.290722e+00    3.072396e+00
  5.322474e+00    3.053947e+00
  5.354225e+00    3.113217e+00
  5.385976e+00    3.097999e+00
  5.417727e+00    3.107148e+00
  5.449478e+00    3.018157e+00
  5.481229e+00    2.955682e+00
  5.512980e+00    3.110309e+00
  5.544732e+00    2.984152e+00
  5.576483e+00    3.045853e+00
  5.608234e+00    3.075691e+00
  5.639985e+00    3.058236e+00
  5.671736e+00    3.036033e+00
  5.703487e+00    3.007350e+00
  5.735238e+00    2.963802e+00
  5.766990e+00    2.909258e+00
  5.798741e+00    2.993458e+00
  5.830492e+00    2.976412e+00
  5.862243e+00    2.953585e+00
  5.893994e+00    3.010980e+00
  5.925745e+00    2.933129e+00
  5.957497e+00    2.958892e+00
  5.989248e+00    2.982623e+00
  6.020999e+00    2.935522e+00
  6.052750e+00    2.927392e+00
  6.084501e+00    3.081345e+00
  6.116252e+00    3.036320e+00
  6.148003e+00    3.051427e+00
  6.179755e+00    2.952039e+00
  6.211506e+00    3.027519e+00
  6.243257e+00    3.008726e+00
  6.275008e+00    2.985093e+00
  6.306759e+00    2.960121e+00
  6.338510e+00    2.949378e+00
  6.370261e+00    2.948941e+00
  6.402013e+00    2.930706e+00
  6.433764e+00    2.993094e+00
  6.465515e+00    2.980295e+00
  6.497266e+00    3.040458e+00
  6.529017e+00    2.985725e+00
  6.560768e+00    2.964984e+00
  6.592519e+00    2.923625e+00
  6.624271e+00    2.962415e+00
  6.656022e+00    3.017610e+00
  6.687773e+00    3.068938e+00
  6.719524e+00    2.965916e+00
  6.751275e+00    2.910572e+00
  6.783026e+00    3.028293e+00
  6.814777e+00    2.957801e+00
  6.846529e+00    3.026863e+00
  6.878280e+00    2.995227e+00
  6.910031e+00    3.016484e+00
  6.941782e+00    2.986930e+00
  6.973533e+00    2.952088e+00
  7.005284e+00    2.912191e+00
  7.037036e+00    3.005782e+00
  7.068787e+00    2.863728e+00
  7.100538e+00    2.940160e+00
  7.132289e+00    2.981679e+00
  7.164040e+00    3.018972e+00
  7.195791e+00    2.925586e+00
  7.227542e+00    2.997896e+00
  7.259294e+00    2.892429e+00
  7.291045e+00    2.911302e+00
  7.322796e+00    2.963264e+00
  7.354547e+00    2.926913e+00
  7.386298e+00    2.945113e+00
  7.418049e+00    2.942288e+00
  7.449800e+00    2.975668e+00
  7.481552e+00    2.918717e+00
  7.513303e+00    2.975585e+00
  7.545054e+00    2.898846e+00
  7.576805e+00    2.975377e+00
  7.608556e+00    2.889667e+00
  7.640307e+00    2.936417e+00
  7.672058e+00    2.897632e+00
  7.703810e+00    2.892300e+00
  7.735561e+00    2.956328e+00
  7.767312e+00    2.874751e+00
  7.799063e+00    2.834361e+00
  7.830814e+00    2.893290e+00
  7.862565e+00    2.876631e+00
  7.894317e+00    2.908620e+00
  7.926068e+00    2.852254e+00
  7.957819e+00    2.941652e+00
  7.989570e+00    2.892713e+00
  8.021321e+00    2.878469e+00
  8.053072e+00    2.824681e+00
  8.084823e+00    2.860226e+00
  8.116575e+00    2.912851e+00
  8.148326e+00    2.814948e+00
  8.180077e+00    2.917984e+00
  8.211828e+00    2.951412e+00
  8.243579e+00    2.895551e+00
  8.275330e+00    2.867893e+00
  8.307081e+00    2.879777e+00
  8.338833e+00    2.887486e+00
  8.370584e+00    2.826166e+00
  8.402335e+00    2.912330e+00
  8.434086e+00    2.936762e+00
  8.465837e+00    2.820069e+00
  8.497588e+00    2.809713e+00
  8.529339e+00    2.822176e+00
  8.561091e+00    2.811928e+00
  8.592842e+00    2.858305e+00
  8.624593e+00    2.813182e+00
  8.656344e+00    2.849390e+00
  8.688095e+00    2.818985e+00
  8.719846e+00    2.851440e+00
  8.751598e+00    2.783006e+00
  8.783349e+00    2.852881e+00
  8.815100e+00    2.815532e+00
  8.846851e+00    2.833383e+00
  8.878602e+00    2.850295e+00
  8.910353e+00    2.815494e+00
  8.942104e+00    2.767283e+00
  8.973856e+00    2.785613e+00
  9.005607e+00    2.802574e+00
  9.037358e+00    2.713688e+00
  9.069109e+00    2.790008e+00
  9.100860e+00    2.728762e+00
  9.132611e+00    2.675116e+00
  9.164362e+00    2.752961e+00
  9.196114e+00    2.724333e+00
  9.227865e+00    2.764186e+00
  9.259616e+00    2.702306e+00
  9.291367e+00    2.709661e+00
  9.323118e+00    2.702307e+00
  9.354869e+00    2.695978e+00
  9.386620e+00    2.720589e+00
  9.418372e+00    2.718438e+00
  9.450123e+00    2.743198e+00
  9.481874e+00    2.718547e+00
  9.513625e+00    2.655415e+00
  9.545376e+00    2.700033e+00
  9.577127e+00    2.740520e+00
  9.608878e+00    2.759529e+00
  9.640630e+00    2.702913e+00
  9.672381e+00    2.749295e+00
  9.704132e+00    2.711075e+00
  9.735883e+00    2.670198e+00
  9.767634e+00    2.657305e+00
  9.799385e+00    2.700965e+00
  9.831137e+00    2.627521e+00
  9.862888e+00    2.618378e+00
  9.894639e+00    2.605319e+00
  9.926390e+00    2.635680e+00
  9.958141e+00    2.656804e+00
  9.989892e+00    2.591064e+00
  1.002164e+01    2.633571e+00
  1.005339e+01    2.616827e+00
  1.008515e+01    2.602517e+00
  1.011690e+01    2.627935e+00
  1.014865e+01    2.535249e+00
  1.018040e+01    2.599657e+00
  1.021215e+01    2.599977e+00
  1.024390e+01    2.582720e+00
  1.027565e+01    2.537928e+00
  1.030740e+01    2.599964e+00
  1.033915e+01    2.579429e+00
  1.037091e+01    2.535563e+00
  1.040266e+01    2.578946e+00
  1.043441e+01    2.543833e+00
  1.046616e+01    2.590368e+00
  1.049791e+01    2.527668e+00
  1.052966e+01    2.567357e+00
  1.056141e+01    2.568059e+00
  1.059316e+01    2.531684e+00
  1.062492e+01    2.583252e+00
  1.065667e+01    2.502413e+00
  1.068842e+01    2.479199e+00
  1.072017e+01    2.552083e+00
  1.075192e+01    2.486362e+00
  1.078367e+01    2.504542e+00
  1.081542e+01    2.511898e+00
  1.084717e+01    2.445590e+00
  1.087892e+01    2.481697e+00
  1.091068e+01    2.515049e+00
  1.094243e+01    2.525389e+00
  1.097418e+01    2.471675e+00
  1.100593e+01    2.435244e+00
  1.103768e+01    2.418012e+00
  1.106943e+01    2.524811e+00
  1.110118e+01    2.459076e+00
  1.113293e+01    2.433238e+00
  1.116468e+01    2.413743e+00
  1.119644e+01    2.431441e+00
  1.122819e+01    2.382340e+00
  1.125994e+01    2.381783e+00
  1.129169e+01    2.366187e+00
  1.132344e+01    2.445516e+00
  1.135519e+01    2.459405e+00
  1.138694e+01    2.388952e+00
  1.141869e+01    2.388455e+00
  1.145045e+01    2.367292e+00
  1.148220e+01    2.379179e+00
  1.151395e+01    2.360269e+00
  1.154570e+01    2.356658e+00
  1.157745e+01    2.309197e+00
  1.160920e+01    2.409173e+00
  1.164095e+01    2.384168e+00
  1.167270e+01    2.322865e+00
  1.170445e+01    2.350178e+00
  1.173621e+01    2.328760e+00
  1.176796e+01    2.312349e+00
  1.179971e+01    2.317483e+00
  1.183146e+01    2.331392e+00
  1.186321e+01    2.272115e+00
  1.189496e+01    2.315651e+00
  1.192671e+01    2.260139e+00
  1.195846e+01    2.332013e+00
  1.199021e+01    2.283495e+00
  1.202197e+01    2.274441e+00
  1.205372e+01    2.301661e+00
  1.208547e+01    2.298723e+00
  1.211722e+01    2.282560e+00
  1.214897e+01    2.288206e+00
  1.218072e+01    2.287785e+00
  1.221247e+01    2.265956e+00
  1.224422e+01    2.288898e+00
  1.227597e+01    2.292984e+00
  1.230773e+01    2.280268e+00
  1.233948e+01    2.283468e+00
  1.237123e+01    2.291685e+00
  1.240298e+01    2.317868e+00
  1.243473e+01    2.296754e+00
  1.246648e+01    2.304689e+00
  1.249823e+01    2.301092e+00
  1.252998e+01    2.333701e+00
  1.256174e+01    2.302529e+00
  1.259349e+01    2.373980e+00
  1.262524e+01    2.391704e+00
  1.265699e+01    2.332176e+00
  1.268874e+01    2.418860e+00
  1.272049e+01    2.446721e+00
  1.275224e+01    2.482056e+00
  1.278399e+01    2.574144e+00
  1.281574e+01    2.648474e+00
  1.284750e+01    2.769550e+00
  1.287925e+01    2.984549e+00
  1.291100e+01    3.329210e+00
  1.294275e+01    3.682714e+00
  1.297450e+01    4.280293e+00
  1.300625e+01    5.367072e+00
  1.303800e+01    7.028203e+00
  1.306975e+01    9.403083e+00
  1.310150e+01    1.224358e+01
  1.313326e+01    1.469235e+01
  1.316501e+01    1.700058e+01
  1.319676e+01    1.739697e+01
  1.322851e+01    1.460095e+01
  1.326026e+01    1.044938e+01
  1.329201e+01    7.525805e+00
  1.332376e+01    5.656626e+00
  1.335551e+01    4.549010e+00
  1.338727e+01    3.813427e+00
  1.341902e+01    3.312797e+00
  1.345077e+01    3.013294e+00
  1.348252e+01    2.751777e+00
  1.351427e+01    2.636838e+00
  1.354602e+01    2.547361e+00
  1.357777e+01    2.403039e+00
  1.360952e+01    2.345061e+00
  1.364127e+01    2.306165e+00
  1.367303e+01    2.272441e+00
  1.370478e+01    2.220149e+00
  1.373653e+01    2.157452e+00
  1.376828e+01    2.116828e+00
  1.380003e+01    2.128093e+00
  1.383178e+01    2.150472e+00
  1.386353e+01    2.077686e+00
  1.389528e+01    2.054125e+00
  1.392703e+01    2.074883e+00
  1.395879e+01    2.035064e+00
  1.399054e+01    2.001639e+00
  1.402229e+01    2.061681e+00
  1.405404e+01    2.037412e+00
  1.408579e+01    1.999379e+00
  1.411754e+01    1.978344e+00
  1.414929e+01    1.982771e+00
  1.418104e+01    1.955697e+00
  1.421279e+01    1.934049e+00
  1.424455e+01    1.949023e+00
  1.427630e+01    1.896403e+00
  1.430805e+01    1.961586e+00
  1.433980e+01    1.925724e+00
  1.437155e+01    1.940560e+00
  1.440330e+01    1.898676e+00
  1.443505e+01    1.877176e+00
  1.446680e+01    1.896232e+00
  1.449856e+01    1.892187e+00
  1.453031e+01    1.867526e+00
  1.456206e+01    1.891837e+00
  1.459381e+01    1.876230e+00
  1.462556e+01    1.895380e+00
  1.465731e+01    1.886271e+00
  1.468906e+01    1.883968e+00
  1.472081e+01    1.842947e+00
  1.475256e+01    1.853234e+00
  1.478432e+01    1.884830e+00
  1.481607e+01    1.916006e+00
  1.484782e+01    1.899912e+00
  1.487957e+01    1.935954e+00
  1.491132e+01    1.943214e+00
  1.494307e+01    1.965909e+00
  1.497482e+01    2.050581e+00
  1.500657e+01    2.128127e+00
  1.503832e+01    2.239646e+00
  1.507008e+01    2.427132e+00
  1.510183e+01    2.832347e+00
  1.513358e+01    3.370558e+00
  1.516533e+01    4.114566e+00
  1.519708e+01    4.906311e+00
  1.522883e+01    5.495971e+00
  1.526058e+01    5.983189e+00
  1.529233e+01    5.859126e+00
  1.532409e+01    5.024239e+00
  1.535584e+01    3.966032e+00
  1.538759e+01    3.163388e+00
  1.541934e+01    2.670951e+00
  1.545109e+01    2.348699e+00
  1.548284e+01    2.163321e+00
  1.551459e+01    2.034622e+00
  1.554634e+01    1.929622e+00
  1.557809e+01    1.895217e+00
  1.560985e+01    1.825489e+00
  1.564160e+01    1.811424e+00
  1.567335e+01    1.737043e+00
  1.570510e+01    1.726593e+00
  1.573685e+01    1.681174e+00
  1.576860e+01    1.661248e+00
  1.580035e+01    1.605179e+00
  1.583210e+01    1.633958e+00
  1.586385e+01    1.672144e+00
  1.589561e+01    1.585382e+00
  1.592736e+01    1.597632e+00
  1.595911e+01    1.608706e+00
  1.599086e+01    1.559883e+00
  1.602261e+01    1.604618e+00
  1.605436e+01    1.567428e+00
  1.608611e+01    1.596323e+00
  1.611786e+01    1.551832e+00
  1.614961e+01    1.563558e+00
  1.618137e+01    1.543564e+00
  1.621312e+01    1.549846e+00
  1.624487e+01    1.528279e+00
  1.627662e+01    1.549633e+00
  1.630837e+01    1.555077e+00
  1.634012e+01    1.519726e+00
  1.637187e+01    1.518473e+00
  1.640362e+01    1.497004e+00
  1.643538e+01    1.462241e+00
  1.646713e+01    1.459739e+00
  1.649888e+01    1.520565e+00
  1.653063e+01    1.474577e+00
  1.656238e+01    1.486279e+00
  1.659413e+01    1.473780e+00
  1.662588e+01    1.478820e+00
  1.665763e+01    1.440046e+00
  1.668938e+01    1.437915e+00
  1.672114e+01    1.441057e+00
  1.675289e+01    1.439492e+00
  1.678464e+01    1.447011e+00
  1.681639e+01    1.467521e+00
  1.684814e+01    1.429769e+00
  1.687989e+01    1.429022e+00
  1.691164e+01    1.436427e+00
  1.694339e+01    1.401466e+00
  1.697514e+01    1.410340e+00
  1.700690e+01    1.471638e+00
  1.703865e+01    1.376747e+00
  1.707040e+01    1.378687e+00
  1.710215e+01    1.418486e+00
  1.713390e+01    1.407511e+00
  1.716565e+01    1.397537e+00
  1.719740e+01    1.327830e+00
  1.722915e+01    1.382525e+00
  1.726091e+01    1.381616e+00
  1.729266e+01    1.376469e+00
  1.732441e+01    1.359991e+00
  1.735616e+01    1.344697e+00
  1.738791e+01    1.372794e+00
  1.741966e+01    1.341171e+00
  1.745141e+01    1.335055e+00
  1.748316e+01    1.341396e+00
  1.751491e+01    1.365234e+00
  1.754667e+01    1.339414e+00
  1.757842e+01    1.324658e+00
  1.761017e+01    1.339293e+00
  1.764192e+01    1.325781e+00
  1.767367e+01    1.336252e+00
  1.770542e+01    1.315789e+00
  1.773717e+01    1.316847e+00
  1.776892e+01    1.312633e+00
  1.780067e+01    1.292213e+00
  1.783243e+01    1.320452e+00
  1.786418e+01    1.294583e+00
  1.789593e+01    1.277075e+00
  1.792768e+01    1.291385e+00
  1.795943e+01    1.293532e+00
  1.799118e+01    1.292837e+00
  1.802293e+01    1.293718e+00
  1.805468e+01    1.277467e+00
  1.808643e+01    1.285768e+00
  1.811819e+01    1.282115e+00
  1.814994e+01    1.255333e+00
  1.818169e+01    1.285009e+00
  1.821344e+01    1.268659e+00
  1.824519e+01    1.264623e+00
  1.827694e+01    1.236736e+00
  1.830869e+01    1.262023e+00
  1.834044e+01    1.237393e+00
  1.837220e+01    1.272131e+00
  1.840395e+01    1.236301e+00
  1.843570e+01    1.262727e+00
  1.846745e+01    1.260349e+00
  1.849920e+01    1.229116e+00
  1.853095e+01    1.242958e+00
  1.856270e+01    1.207319e+00
  1.859445e+01    1.213388e+00
  1.862620e+01    1.232777e+00
  1.865796e+01    1.211448e+00
  1.868971e+01    1.210769e+00
  1.872146e+01    1.218204e+00
  1.875321e+01    1.232981e+00
  1.878496e+01    1.226137e+00
  1.881671e+01    1.198775e+00
  1.884846e+01    1.206570e+00
  1.888021e+01    1.221471e+00
  1.891196e+01    1.198630e+00
  1.894372e+01    1.204779e+00
  1.897547e+01    1.151021e+00
  1.900722e+01    1.186048e+00
  1.903897e+01    1.170637e+00
  1.907072e+01    1.184852e+00
  1.910247e+01    1.175396e+00
  1.913422e+01    1.150313e+00
  1.916597e+01    1.168646e+00
  1.919773e+01    1.153318e+00
  1.922948e+01    1.203251e+00
  1.926123e+01    1.169894e+00
  1.929298e+01    1.155512e+00
  1.932473e+01    1.149692e+00
  1.935648e+01    1.161723e+00
  1.938823e+01    1.142392e+00
  1.941998e+01    1.172482e+00
  1.945173e+01    1.133594e+00
  1.948349e+01    1.156651e+00
  1.951524e+01    1.127268e+00
  1.954699e+01    1.159622e+00
  1.957874e+01    1.133928e+00
  1.961049e+01    1.146989e+00
  1.964224e+01    1.113917e+00
  1.967399e+01    1.142501e+00
  1.970574e+01    1.120579e+00
  1.973749e+01    1.119424e+00
  1.976925e+01    1.133573e+00
  1.980100e+01    1.112311e+00
  1.983275e+01    1.117617e+00
  1.986450e+01    1.124992e+00
  1.989625e+01    1.110931e+00
  1.992800e+01    1.102130e+00
  1.995975e+01    1.104421e+00
  1.999150e+01    1.113120e+00
  2.002325e+01    1.090045e+00
  2.005501e+01    1.115863e+00
  2.008676e+01    1.076124e+00
  2.011851e+01    1.121910e+00
  2.015026e+01    1.078718e+00
  2.018201e+01    1.097690e+00
  2.021376e+01    1.081458e+00
  2.024551e+01    1.078203e+00
  2.027726e+01    1.080943e+00
  2.030902e+01    1.071741e+00
  2.034077e+01    1.082727e+00
  2.037252e+01    1.099211e+00
  2.040427e+01    1.101975e+00
  2.043602e+01    1.077696e+00
  2.046777e+01    1.073426e+00
  2.049952e+01    1.089714e+00
  2.053127e+01    1.084502e+00
  2.056302e+01    1.039981e+00
  2.059478e+01    1.071793e+00
  2.062653e+01    1.060682e+00
  2.065828e+01    1.044742e+00
  2.069003e+01    1.057510e+00
  2.072178e+01    1.079365e+00
  2.075353e+01    1.072713e+00
  2.078528e+01    1.032528e+00
  2.081703e+01    1.044669e+00
  2.084878e+01    1.061810e+00
  2.088054e+01    1.075237e+00
  2.091229e+01    1.061743e+00
  2.094404e+01    1.072394e+00
  2.097579e+01    1.068379e+00
  2.100754e+01    1.048200e+00
  2.103929e+01    1.085205e+00
  2.107104e+01    1.058411e+00
  2.110279e+01    1.074917e+00
  2.113455e+01    1.050703e+00
  2.116630e+01    1.066861e+00
  2.119805e+01    1.057674e+00
  2.122980e+01    1.104756e+00
  2.126155e+01    1.090095e+00
  2.129330e+01    1.116863e+00
  2.132505e+01    1.111937e+00
  2.135680e+01    1.129586e+00
  2.138855e+01    1.146529e+00
  2.142031e+01    1.201983e+00
  2.145206e+01    1.193181e+00
  2.148381e+01    1.249692e+00
  2.151556e+01    1.311122e+00
  2.154731e+01    1.365285e+00
  2.157906e+01    1.443113e+00
  2.161081e+01    1.600370e+00
  2.164256e+01    1.799256e+00
  2.167431e+01    2.060426e+00
  2.170607e+01    2.455456e+00
  2.173782e+01    3.149350e+00
  2.176957e+01    4.129652e+00
  2.180132e+01    5.373189e+00
  2.183307e+01    6.833603e+00
  2.186482e+01    8.385086e+00
  2.189657e+01    9.541992e+00
  2.192832e+01    9.425778e+00
  2.196007e+01    7.890438e+00
  2.199183e+01    5.758731e+00
  2.202358e+01    4.157891e+00
  2.205533e+01    3.109451e+00
  2.208708e+01    2.466271e+00
  2.211883e+01    2.031117e+00
  2.215058e+01    1.756752e+00
  2.218233e+01    1.568761e+00
  2.221408e+01    1.407187e+00
  2.224584e+01    1.308411e+00
  2.227759e+01    1.259738e+00
  2.230934e+01    1.207511e+00
  2.234109e+01    1.163045e+00
  2.237284e+01    1.113248e+00
  2.240459e+01    1.106574e+00
  2.243634e+01    1.051747e+00
  2.246809e+01    1.034894e+00
  2.249984e+01    1.026458e+00
  2.253160e+01    9.958909e-01
  2.256335e+01    9.759310e-01
  2.259510e+01    9.829514e-01
  2.262685e+01    9.494229e-01
  2.265860e+01    9.641900e-01
  2.269035e+01    9.478602e-01
  2.272210e+01    9.603222e-01
  2.275385e+01    9.254898e-01
  2.278560e+01    9.340538e-01
  2.281736e+01    9.261941e-01
  2.284911e+01    8.983881e-01
  2.288086e+01    9.066682e-01
  2.291261e+01    9.153652e-01
  2.294436e+01    9.165219e-01
  2.297611e+01    8.885854e-01
  2.300786e+01    8.944782e-01
  2.303961e+01    8.859919e-01
  2.307137e+01    8.664038e-01
  2.310312e+01    8.770512e-01
  2.313487e+01    8.994607e-01
  2.316662e+01    8.597330e-01
  2.319837e+01    8.650914e-01
  2.323012e+01    8.743496e-01
  2.326187e+01    8.463504e-01
  2.329362e+01    8.354593e-01
  2.332537e+01    8.549991e-01
  2.335713e+01    8.619843e-01
  2.338888e+01    8.457344e-01
  2.342063e+01    8.535877e-01
  2.345238e+01    8.371744e-01
  2.348413e+01    8.442553e-01
  2.351588e+01    8.510115e-01
  2.354763e+01    8.175935e-01
  2.357938e+01    8.173230e-01
  2.361113e+01    8.373627e-01
  2.364289e+01    8.297451e-01
  2.367464e+01    8.166030e-01
  2.370639e+01    8.093387e-01
  2.373814e+01    8.033606e-01
  2.376989e+01    8.154790e-01
  2.380164e+01    7.736487e-01
  2.383339e+01    7.989084e-01
  2.386514e+01    7.849053e-01
  2.389689e+01    8.252943e-01
  2.392865e+01    7.907699e-01
  2.396040e+01    7.677398e-01
  2.399215e+01    7.907623e-01
  2.402390e+01    8.103690e-01
  2.405565e+01    7.707272e-01
  2.408740e+01    7.785082e-01
  2.411915e+01    7.939807e-01
  2.415090e+01    7.623623e-01
  2.418266e+01    7.658972e-01
  2.421441e+01    7.848098e-01
  2.424616e+01    7.813759e-01
  2.427791e+01    7.778822e-01
  2.430966e+01    7.871438e-01
  2.434141e+01    7.949745e-01
  2.437316e+01    7.940508e-01
  2.440491e+01    7.619352e-01
  2.443666e+01    8.001295e-01
  2.446842e+01    7.882973e-01
  2.450017e+01    7.608271e-01
  2.453192e+01    7.808266e-01
  2.456367e+01    7.824466e-01
  2.459542e+01    7.978909e-01
  2.462717e+01    7.749508e-01
  2.465892e+01    7.868763e-01
  2.469067e+01    7.822941e-01
  2.472242e+01    7.862357e-01
  2.475418e+01    7.861910e-01
  2.478593e+01    7.732530e-01
  2.481768e+01    7.760345e-01
  2.484943e+01    7.800921e-01
  2.488118e+01    7.768883e-01
  2.491293e+01    7.948628e-01
  2.494468e+01    7.846166e-01
  2.497643e+01    7.819451e-01
  2.500819e+01    7.841715e-01
  2.503994e+01    7.763712e-01
  2.507169e+01    8.016875e-01
  2.510344e+01    8.114172e-01
  2.513519e+01    8.157490e-01
  2.516694e+01    8.231363e-01
  2.519869e+01    8.232615e-01
  2.523044e+01    8.625886e-01
  2.526219e+01    8.391601e-01
  2.529395e+01    8.270184e-01
  2.532570e+01    8.505382e-01
  2.535745e+01    8.695663e-01
  2.538920e+01    9.001757e-01
  2.542095e+01    9.089627e-01
  2.545270e+01    9.187201e-01
  2.548445e+01    9.570349e-01
  2.551620e+01    9.693857e-01
  2.554795e+01    1.008422e+00
  2.557971e+01    1.050813e+00
  2.561146e+01    1.124539e+00
  2.564321e+01    1.209515e+00
  2.567496e+01    1.306517e+00
  2.570671e+01    1.477310e+00
  2.573846e+01    1.677397e+00
  2.577021e+01    2.017628e+00
  2.580196e+01    2.532999e+00
  2.583371e+01    3.257826e+00
  2.586547e+01    4.283526e+00
  2.589722e+01    5.535593e+00
  2.592897e+01    6.881127e+00
  2.596072e+01    7.770981e+00
  2.599247e+01    7.827199e+00
  2.602422e+01    6.677082e+00
  2.605597e+01    5.058342e+00
  2.608772e+01    3.691164e+00
  2.611948e+01    2.757179e+00
  2.615123e+01    2.194175e+00
  2.618298e+01    1.774234e+00
  2.621473e+01    1.520536e+00
  2.624648e+01    1.380362e+00
  2.627823e+01    1.217404e+00
  2.630998e+01    1.154754e+00
  2.634173e+01    1.076492e+00
  2.637348e+01    1.037231e+00
  2.640524e+01    9.807729e-01
  2.643699e+01    9.774271e-01
  2.646874e+01    9.280425e-01
  2.650049e+01    9.397331e-01
  2.653224e+01    9.299829e-01
  2.656399e+01    9.140028e-01
  2.659574e+01    9.164076e-01
  2.662749e+01    8.908324e-01
  2.665924e+01    8.814111e-01
  2.669100e+01    8.791527e-01
  2.672275e+01    9.095971e-01
  2.675450e+01    9.093535e-01
  2.678625e+01    8.782701e-01
  2.681800e+01    9.112129e-01
  2.684975e+01    8.889092e-01
  2.688150e+01    8.853257e-01
  2.691325e+01    9.069768e-01
  2.694501e+01    9.056733e-01
  2.697676e+01    9.694955e-01
  2.700851e+01    9.860392e-01
  2.704026e+01    1.071849e+00
  2.707201e+01    1.177122e+00
  2.710376e+01    1.386710e+00
  2.713551e+01    1.565185e+00
  2.716726e+01    1.847520e+00
  2.719901e+01    2.137563e+00
  2.723077e+01    2.329886e+00
  2.726252e+01    2.264409e+00
  2.729427e+01    1.951114e+00
  2.732602e+01    1.634833e+00
  2.735777e+01    1.371083e+00
  2.738952e+01    1.166907e+00
  2.742127e+01    1.050986e+00
  2.745302e+01    9.886303e-01
  2.748477e+01    9.569392e-01
  2.751653e+01    9.296737e-01
  2.754828e+01    8.912825e-01
  2.758003e+01    8.704937e-01
  2.761178e+01    8.665913e-01
  2.764353e+01    8.608798e-01
  2.767528e+01    8.210427e-01
  2.770703e+01    8.231942e-01
  2.773878e+01    7.936925e-01
  2.777054e+01    8.148563e-01
  2.780229e+01    7.996897e-01
  2.783404e+01    7.909943e-01
  2.786579e+01    8.111426e-01
  2.789754e+01    7.904813e-01
  2.792929e+01    8.023573e-01
  2.796104e+01    7.834487e-01
  2.799279e+01    7.913423e-01
  2.802454e+01    7.806531e-01
  2.805630e+01    7.712412e-01
  2.808805e+01    7.677289e-01
  2.811980e+01    7.785491e-01
  2.815155e+01    7.649316e-01
  2.818330e+01    7.591648e-01
  2.821505e+01    7.685075e-01
  2.824680e+01    7.738775e-01
  2.827855e+01    7.676349e-01
  2.831030e+01    7.529947e-01
  2.834206e+01    7.589439e-01
  2.837381e+01    7.754337e-01
  2.840556e+01    7.724734e-01
  2.843731e+01    7.510068e-01
  2.846906e+01    7.526473e-01
  2.850081e+01    7.414476e-01
  2.853256e+01    7.430863e-01
  2.856431e+01    7.311332e-01
  2.859606e+01    7.436680e-01
  2.862782e+01    7.473271e-01
  2.865957e+01    7.417569e-01
  2.869132e+01    7.549772e-01
  2.872307e+01    7.488012e-01
  2.875482e+01    7.479184e-01
  2.878657e+01    7.408786e-01
  2.881832e+01    7.296394e-01
  2.885007e+01    7.473444e-01
  2.888183e+01    7.338753e-01
  2.891358e+01    7.196487e-01
  2.894533e+01    7.334466e-01
  2.897708e+01    7.451257e-01
  2.900883e+01    7.185382e-01
  2.904058e+01    7.364068e-01
  2.907233e+01    7.216296e-01
  2.910408e+01    7.160919e-01
  2.913583e+01    7.276860e-01
  2.916759e+01    7.278372e-01
  2.919934e+01    7.269449e-01
  2.923109e+01    7.433165e-01
  2.926284e+01    7.151082e-01
  2.929459e+01    7.173067e-01
  2.932634e+01    7.190655e-01
  2.935809e+01    7.225434e-01
  2.938984e+01    7.295762e-01
  2.942159e+01    7.223266e-01
  2.945335e+01    7.423084e-01
  2.948510e+01    7.247447e-01
  2.951685e+01    7.236995e-01
  2.954860e+01    7.140387e-01
  2.958035e+01    7.099094e-01
  2.961210e+01    7.298917e-01
  2.964385e+01    7.446234e-01
  2.967560e+01    7.341385e-01
  2.970736e+01    7.249796e-01
  2.973911e+01    6.973729e-01
  2.977086e+01    7.036197e-01
  2.980261e+01    7.164481e-01
  2.983436e+01    7.004681e-01
  2.986611e+01    7.214718e-01
  2.989786e+01    6.990235e-01
  2.992961e+01    7.092157e-01
  2.996136e+01    7.312985e-01
  2.999312e+01    7.301638e-01
  3.002487e+01    7.296338e-01
  3.005662e+01    7.086892e-01
  3.008837e+01    7.158640e-01
  3.012012e+01    7.244163e-01
  3.015187e+01    7.178498e-01
  3.018362e+01    6.905485e-01
  3.021537e+01    7.005454e-01
  3.024712e+01    7.275752e-01
  3.027888e+01    6.901090e-01
  3.031063e+01    7.073871e-01
  3.034238e+01    6.985178e-01
  3.037413e+01    7.096235e-01
  3.040588e+01    6.983092e-01
  3.043763e+01    7.188036e-01
  3.046938e+01    6.911703e-01
  3.050113e+01    7.007026e-01
  3.053288e+01    6.921943e-01
  3.056464e+01    6.886700e-01
  3.059639e+01    6.832808e-01
  3.062814e+01    6.863848e-01
  3.065989e+01    7.222453e-01
  3.069164e+01    7.240008e-01
  3.072339e+01    7.062774e-01
  3.075514e+01    7.047765e-01
  3.078689e+01    7.078077e-01
  3.081865e+01    6.937391e-01
  3.085040e+01    7.145690e-01
  3.088215e+01    6.961874e-01
  3.091390e+01    7.060063e-01
  3.094565e+01    7.123921e-01
  3.097740e+01    7.049347e-01
  3.100915e+01    6.908382e-01
  3.104090e+01    6.978309e-01
  3.107265e+01    7.249227e-01
  3.110441e+01    7.259996e-01
  3.113616e+01    7.047004e-01
  3.116791e+01    6.954758e-01
  3.119966e+01    7.228138e-01
  3.123141e+01    7.325538e-01
  3.126316e+01    7.190792e-01
  3.129491e+01    7.268372e-01
  3.132666e+01    7.374884e-01
  3.135841e+01    7.328768e-01
  3.139017e+01    7.089012e-01
  3.142192e+01    7.463836e-01
  3.145367e+01    7.272320e-01
  3.148542e+01    7.587718e-01
  3.151717e+01    7.581941e-01
  3.154892e+01    7.711038e-01
  3.158067e+01    7.734455e-01
  3.161242e+01    8.255046e-01
  3.164418e+01    8.358175e-01
  3.167593e+01    9.046304e-01
  3.170768e+01    9.325320e-01
  3.173943e+01    1.009569e+00
  3.177118e+01    1.184024e+00
  3.180293e+01    1.310014e+00
  3.183468e+01    1.586018e+00
  3.186643e+01    1.928382e+00
  3.189818e+01    2.177382e+00
  3.192994e+01    2.315824e+00
  3.196169e+01    2.194945e+00
  3.199344e+01    1.873820e+00
  3.202519e+01    1.538148e+00
  3.205694e+01    1.262918e+00
  3.208869e+01    1.079422e+00
  3.212044e+01    9.950214e-01
  3.215219e+01    8.681369e-01
  3.218394e+01    8.482013e-01
  3.221570e+01    8.121655e-01
  3.224745e+01    7.977490e-01
  3.227920e+01    7.859750e-01
  3.231095e+01    7.667243e-01
  3.234270e+01    7.562253e-01
  3.237445e+01    7.464011e-01
  3.240620e+01    7.152044e-01
  3.243795e+01    7.063873e-01
  3.246970e+01    7.383316e-01
  3.250146e+01    7.124464e-01
  3.253321e+01    7.016394e-01
  3.254908e+01    7.055529e-01