File: XRD/2024-07-27_002_Ru-CGO-ex_Activtation_ramp_000002_data_000101.dat
# == pyFAI calibration ==
# Distance Sample to Detector: 0.4 m
# PONI: 9.750e-02, 1.135e-01 m
# Rotations: -0.000175 0.000000 -0.000000 rad
#
# == Fit2d calibration ==
# Distance Sample-beamCenter: 400.000 mm
# Center: x=1514.000, y=1300.000 pix
# Tilt: 0.010 deg  TiltPlanRot: 0.010 deg
#
# Detector Detector	 Spline= None	 PixelSize= 7.500e-05, 7.500e-05 m
#    Detector has a mask: False
#    Detector has a dark current: False
#    detector has a flat field: False
#
# Wavelength: 6.888e-11 m
# Mask applied: user provided
# Dark current applied: False
# Flat field applied: False
# Polarization factor: 0.99
# Normalization factor: 1.0
# --> /home/myspot/data/2024_07_Rosario/Ru-CGO-ex/2024-07-27_002_Ru-CGO-ex_Activtation_ramp_000002_data_000101.dat
#       q_nm^-1             I
  2.003187e-02    0.000000e+00
  5.178302e-02    2.671360e-02
  8.353417e-02    4.178507e-02
  1.152853e-01    6.107927e-02
  1.470365e-01    7.189626e-02
  1.787876e-01    1.808010e-02
  2.105388e-01    0.000000e+00
  2.422899e-01    2.640141e-02
  2.740411e-01    3.819325e-03
  3.057922e-01    4.718069e-02
  3.375433e-01    1.085482e-02
  3.692945e-01    1.856460e-02
  4.010456e-01    3.208409e-03
  4.327968e-01    3.187952e-02
  4.645479e-01    2.999646e-02
  4.962991e-01    3.392721e-02
  5.280502e-01    2.623464e-02
  5.598014e-01    1.943217e-02
  5.915525e-01    6.108528e-02
  6.233037e-01    1.646393e-02
  6.550548e-01    5.392287e-02
  6.868060e-01    1.978184e-02
  7.185571e-01    3.028441e-02
  7.503083e-01    5.793823e-02
  7.820594e-01    7.871323e-02
  8.138106e-01    1.179784e-01
  8.455617e-01    3.802247e-01
  8.773129e-01    4.060085e-01
  9.090640e-01    5.219857e-01
  9.408152e-01    6.607803e-01
  9.725663e-01    8.950453e-01
  1.004317e+00    1.039330e+00
  1.036069e+00    1.155741e+00
  1.067820e+00    1.302988e+00
  1.099571e+00    1.333225e+00
  1.131322e+00    1.479071e+00
  1.163073e+00    1.538302e+00
  1.194824e+00    1.597765e+00
  1.226575e+00    2.035917e+00
  1.258327e+00    2.243815e+00
  1.290078e+00    2.360448e+00
  1.321829e+00    2.570781e+00
  1.353580e+00    2.377706e+00
  1.385331e+00    2.678745e+00
  1.417082e+00    2.700733e+00
  1.448834e+00    2.555249e+00
  1.480585e+00    2.688109e+00
  1.512336e+00    2.807015e+00
  1.544087e+00    2.936886e+00
  1.575838e+00    2.905956e+00
  1.607589e+00    2.965134e+00
  1.639340e+00    2.856653e+00
  1.671092e+00    2.837006e+00
  1.702843e+00    2.788106e+00
  1.734594e+00    2.801711e+00
  1.766345e+00    2.726293e+00
  1.798096e+00    2.797993e+00
  1.829847e+00    2.712054e+00
  1.861598e+00    2.756054e+00
  1.893350e+00    2.833649e+00
  1.925101e+00    2.738901e+00
  1.956852e+00    2.789333e+00
  1.988603e+00    2.736618e+00
  2.020354e+00    2.869884e+00
  2.052105e+00    2.665416e+00
  2.083856e+00    2.713150e+00
  2.115608e+00    2.716603e+00
  2.147359e+00    2.725825e+00
  2.179110e+00    2.607741e+00
  2.210861e+00    2.728480e+00
  2.242612e+00    2.767373e+00
  2.274363e+00    2.757822e+00
  2.306115e+00    2.582012e+00
  2.337866e+00    2.773673e+00
  2.369617e+00    2.696104e+00
  2.401368e+00    2.592811e+00
  2.433119e+00    2.773107e+00
  2.464870e+00    2.746885e+00
  2.496621e+00    2.743137e+00
  2.528373e+00    2.866686e+00
  2.560124e+00    2.808914e+00
  2.591875e+00    2.924843e+00
  2.623626e+00    2.810667e+00
  2.655377e+00    2.869581e+00
  2.687128e+00    2.849330e+00
  2.718879e+00    2.825895e+00
  2.750631e+00    2.802613e+00
  2.782382e+00    2.748768e+00
  2.814133e+00    2.840362e+00
  2.845884e+00    2.841767e+00
  2.877635e+00    2.860991e+00
  2.909386e+00    2.860465e+00
  2.941137e+00    2.854251e+00
  2.972889e+00    2.806197e+00
  3.004640e+00    2.880124e+00
  3.036391e+00    2.885810e+00
  3.068142e+00    2.820408e+00
  3.099893e+00    2.925937e+00
  3.131644e+00    2.812367e+00
  3.163395e+00    2.896355e+00
  3.195147e+00    2.808483e+00
  3.226898e+00    2.900326e+00
  3.258649e+00    2.942232e+00
  3.290400e+00    2.928892e+00
  3.322151e+00    2.881164e+00
  3.353902e+00    2.935279e+00
  3.385654e+00    2.924078e+00
  3.417405e+00    2.935440e+00
  3.449156e+00    2.841525e+00
  3.480907e+00    2.893716e+00
  3.512658e+00    2.944889e+00
  3.544409e+00    2.891295e+00
  3.576160e+00    2.936705e+00
  3.607912e+00    3.002640e+00
  3.639663e+00    3.001949e+00
  3.671414e+00    2.882785e+00
  3.703165e+00    3.000207e+00
  3.734916e+00    2.929938e+00
  3.766667e+00    3.013928e+00
  3.798418e+00    2.984032e+00
  3.830170e+00    2.896840e+00
  3.861921e+00    2.928101e+00
  3.893672e+00    2.929596e+00
  3.925423e+00    2.969623e+00
  3.957174e+00    2.964592e+00
  3.988925e+00    3.025423e+00
  4.020676e+00    2.939744e+00
  4.052428e+00    2.923416e+00
  4.084179e+00    2.959332e+00
  4.115930e+00    2.987736e+00
  4.147681e+00    3.081901e+00
  4.179432e+00    3.058839e+00
  4.211183e+00    2.973167e+00
  4.242935e+00    3.076119e+00
  4.274686e+00    3.087515e+00
  4.306437e+00    3.027935e+00
  4.338188e+00    2.975156e+00
  4.369939e+00    3.017492e+00
  4.401690e+00    3.015865e+00
  4.433441e+00    3.054099e+00
  4.465193e+00    3.106412e+00
  4.496944e+00    2.999377e+00
  4.528695e+00    3.026407e+00
  4.560446e+00    3.075933e+00
  4.592197e+00    2.931641e+00
  4.623948e+00    3.054690e+00
  4.655699e+00    3.099072e+00
  4.687451e+00    3.078947e+00
  4.719202e+00    3.073361e+00
  4.750953e+00    3.053763e+00
  4.782704e+00    2.999089e+00
  4.814455e+00    3.103618e+00
  4.846206e+00    3.062065e+00
  4.877957e+00    3.080394e+00
  4.909709e+00    3.050015e+00
  4.941460e+00    3.078580e+00
  4.973211e+00    3.072143e+00
  5.004962e+00    3.132354e+00
  5.036713e+00    3.076237e+00
  5.068464e+00    3.040209e+00
  5.100216e+00    3.028437e+00
  5.131967e+00    3.091746e+00
  5.163718e+00    3.073003e+00
  5.195469e+00    3.122360e+00
  5.227220e+00    3.011974e+00
  5.258971e+00    3.091637e+00
  5.290722e+00    3.122792e+00
  5.322474e+00    3.199282e+00
  5.354225e+00    3.036336e+00
  5.385976e+00    3.088941e+00
  5.417727e+00    3.067078e+00
  5.449478e+00    3.082832e+00
  5.481229e+00    2.997563e+00
  5.512980e+00    3.019443e+00
  5.544732e+00    3.054020e+00
  5.576483e+00    3.088846e+00
  5.608234e+00    3.024210e+00
  5.639985e+00    3.057580e+00
  5.671736e+00    3.036220e+00
  5.703487e+00    3.021387e+00
  5.735238e+00    3.036687e+00
  5.766990e+00    2.979096e+00
  5.798741e+00    3.009700e+00
  5.830492e+00    3.030986e+00
  5.862243e+00    3.051044e+00
  5.893994e+00    2.952293e+00
  5.925745e+00    3.015726e+00
  5.957497e+00    3.012603e+00
  5.989248e+00    2.919283e+00
  6.020999e+00    2.995433e+00
  6.052750e+00    3.030481e+00
  6.084501e+00    3.067495e+00
  6.116252e+00    2.973780e+00
  6.148003e+00    3.002074e+00
  6.179755e+00    2.926270e+00
  6.211506e+00    2.972344e+00
  6.243257e+00    2.946286e+00
  6.275008e+00    2.955853e+00
  6.306759e+00    3.022474e+00
  6.338510e+00    2.988153e+00
  6.370261e+00    2.915926e+00
  6.402013e+00    3.011840e+00
  6.433764e+00    2.951019e+00
  6.465515e+00    2.944198e+00
  6.497266e+00    2.982953e+00
  6.529017e+00    2.997920e+00
  6.560768e+00    3.039493e+00
  6.592519e+00    3.024584e+00
  6.624271e+00    2.982034e+00
  6.656022e+00    2.988597e+00
  6.687773e+00    2.962237e+00
  6.719524e+00    3.025878e+00
  6.751275e+00    2.984758e+00
  6.783026e+00    2.966636e+00
  6.814777e+00    2.999150e+00
  6.846529e+00    2.955262e+00
  6.878280e+00    2.974957e+00
  6.910031e+00    2.992213e+00
  6.941782e+00    3.105822e+00
  6.973533e+00    2.970010e+00
  7.005284e+00    2.974290e+00
  7.037036e+00    2.951802e+00
  7.068787e+00    2.960588e+00
  7.100538e+00    2.968321e+00
  7.132289e+00    2.967614e+00
  7.164040e+00    2.998907e+00
  7.195791e+00    2.984452e+00
  7.227542e+00    2.898203e+00
  7.259294e+00    2.954304e+00
  7.291045e+00    3.027063e+00
  7.322796e+00    2.978941e+00
  7.354547e+00    2.957647e+00
  7.386298e+00    2.978283e+00
  7.418049e+00    2.866970e+00
  7.449800e+00    2.955093e+00
  7.481552e+00    2.947692e+00
  7.513303e+00    2.884724e+00
  7.545054e+00    2.974843e+00
  7.576805e+00    2.911300e+00
  7.608556e+00    2.905482e+00
  7.640307e+00    2.950458e+00
  7.672058e+00    2.925625e+00
  7.703810e+00    2.889925e+00
  7.735561e+00    2.917540e+00
  7.767312e+00    2.949432e+00
  7.799063e+00    2.865962e+00
  7.830814e+00    2.869835e+00
  7.862565e+00    2.877975e+00
  7.894317e+00    2.915474e+00
  7.926068e+00    2.931314e+00
  7.957819e+00    2.809021e+00
  7.989570e+00    2.943260e+00
  8.021321e+00    2.901151e+00
  8.053072e+00    2.837175e+00
  8.084823e+00    2.872503e+00
  8.116575e+00    2.889559e+00
  8.148326e+00    2.914845e+00
  8.180077e+00    2.952615e+00
  8.211828e+00    2.968647e+00
  8.243579e+00    2.936941e+00
  8.275330e+00    2.864908e+00
  8.307081e+00    2.861398e+00
  8.338833e+00    2.866241e+00
  8.370584e+00    2.906542e+00
  8.402335e+00    2.893816e+00
  8.434086e+00    2.826172e+00
  8.465837e+00    2.834395e+00
  8.497588e+00    2.832574e+00
  8.529339e+00    2.875089e+00
  8.561091e+00    2.878152e+00
  8.592842e+00    2.772292e+00
  8.624593e+00    2.812378e+00
  8.656344e+00    2.816962e+00
  8.688095e+00    2.849791e+00
  8.719846e+00    2.820981e+00
  8.751598e+00    2.806030e+00
  8.783349e+00    2.782615e+00
  8.815100e+00    2.750413e+00
  8.846851e+00    2.818682e+00
  8.878602e+00    2.817164e+00
  8.910353e+00    2.799251e+00
  8.942104e+00    2.837976e+00
  8.973856e+00    2.788321e+00
  9.005607e+00    2.773751e+00
  9.037358e+00    2.772606e+00
  9.069109e+00    2.789877e+00
  9.100860e+00    2.762070e+00
  9.132611e+00    2.792043e+00
  9.164362e+00    2.747964e+00
  9.196114e+00    2.768458e+00
  9.227865e+00    2.735498e+00
  9.259616e+00    2.781949e+00
  9.291367e+00    2.713576e+00
  9.323118e+00    2.704918e+00
  9.354869e+00    2.718107e+00
  9.386620e+00    2.771388e+00
  9.418372e+00    2.768749e+00
  9.450123e+00    2.692052e+00
  9.481874e+00    2.702255e+00
  9.513625e+00    2.674738e+00
  9.545376e+00    2.701392e+00
  9.577127e+00    2.726566e+00
  9.608878e+00    2.739899e+00
  9.640630e+00    2.676942e+00
  9.672381e+00    2.695955e+00
  9.704132e+00    2.725889e+00
  9.735883e+00    2.749106e+00
  9.767634e+00    2.683198e+00
  9.799385e+00    2.662894e+00
  9.831137e+00    2.677689e+00
  9.862888e+00    2.666174e+00
  9.894639e+00    2.632273e+00
  9.926390e+00    2.603668e+00
  9.958141e+00    2.651547e+00
  9.989892e+00    2.600184e+00
  1.002164e+01    2.603252e+00
  1.005339e+01    2.659086e+00
  1.008515e+01    2.640139e+00
  1.011690e+01    2.630630e+00
  1.014865e+01    2.684836e+00
  1.018040e+01    2.651427e+00
  1.021215e+01    2.644317e+00
  1.024390e+01    2.613820e+00
  1.027565e+01    2.604152e+00
  1.030740e+01    2.635167e+00
  1.033915e+01    2.569535e+00
  1.037091e+01    2.621162e+00
  1.040266e+01    2.585660e+00
  1.043441e+01    2.604942e+00
  1.046616e+01    2.604545e+00
  1.049791e+01    2.592370e+00
  1.052966e+01    2.566524e+00
  1.056141e+01    2.563137e+00
  1.059316e+01    2.581388e+00
  1.062492e+01    2.522681e+00
  1.065667e+01    2.521409e+00
  1.068842e+01    2.504612e+00
  1.072017e+01    2.517715e+00
  1.075192e+01    2.550406e+00
  1.078367e+01    2.477512e+00
  1.081542e+01    2.504067e+00
  1.084717e+01    2.464355e+00
  1.087892e+01    2.437118e+00
  1.091068e+01    2.508857e+00
  1.094243e+01    2.470217e+00
  1.097418e+01    2.479404e+00
  1.100593e+01    2.480081e+00
  1.103768e+01    2.401823e+00
  1.106943e+01    2.481896e+00
  1.110118e+01    2.445531e+00
  1.113293e+01    2.411623e+00
  1.116468e+01    2.465886e+00
  1.119644e+01    2.425297e+00
  1.122819e+01    2.436023e+00
  1.125994e+01    2.448122e+00
  1.129169e+01    2.395199e+00
  1.132344e+01    2.409773e+00
  1.135519e+01    2.421191e+00
  1.138694e+01    2.430998e+00
  1.141869e+01    2.424047e+00
  1.145045e+01    2.373537e+00
  1.148220e+01    2.388917e+00
  1.151395e+01    2.364107e+00
  1.154570e+01    2.367869e+00
  1.157745e+01    2.360267e+00
  1.160920e+01    2.309738e+00
  1.164095e+01    2.371478e+00
  1.167270e+01    2.386624e+00
  1.170445e+01    2.370922e+00
  1.173621e+01    2.342715e+00
  1.176796e+01    2.313440e+00
  1.179971e+01    2.288823e+00
  1.183146e+01    2.340037e+00
  1.186321e+01    2.324857e+00
  1.189496e+01    2.354541e+00
  1.192671e+01    2.324338e+00
  1.195846e+01    2.275732e+00
  1.199021e+01    2.316560e+00
  1.202197e+01    2.301568e+00
  1.205372e+01    2.309114e+00
  1.208547e+01    2.306929e+00
  1.211722e+01    2.301037e+00
  1.214897e+01    2.289090e+00
  1.218072e+01    2.317172e+00
  1.221247e+01    2.290183e+00
  1.224422e+01    2.288799e+00
  1.227597e+01    2.288214e+00
  1.230773e+01    2.268788e+00
  1.233948e+01    2.300737e+00
  1.237123e+01    2.320984e+00
  1.240298e+01    2.293006e+00
  1.243473e+01    2.270508e+00
  1.246648e+01    2.339223e+00
  1.249823e+01    2.260713e+00
  1.252998e+01    2.348267e+00
  1.256174e+01    2.337008e+00
  1.259349e+01    2.353164e+00
  1.262524e+01    2.386734e+00
  1.265699e+01    2.358700e+00
  1.268874e+01    2.395320e+00
  1.272049e+01    2.461058e+00
  1.275224e+01    2.526935e+00
  1.278399e+01    2.559914e+00
  1.281574e+01    2.650087e+00
  1.284750e+01    2.828754e+00
  1.287925e+01    3.032926e+00
  1.291100e+01    3.267256e+00
  1.294275e+01    3.643508e+00
  1.297450e+01    4.316613e+00
  1.300625e+01    5.273307e+00
  1.303800e+01    6.903802e+00
  1.306975e+01    9.214830e+00
  1.310150e+01    1.208097e+01
  1.313326e+01    1.462196e+01
  1.316501e+01    1.704043e+01
  1.319676e+01    1.773359e+01
  1.322851e+01    1.522742e+01
  1.326026e+01    1.107851e+01
  1.329201e+01    7.840632e+00
  1.332376e+01    5.774123e+00
  1.335551e+01    4.657630e+00
  1.338727e+01    3.893808e+00
  1.341902e+01    3.368925e+00
  1.345077e+01    3.055358e+00
  1.348252e+01    2.816528e+00
  1.351427e+01    2.661445e+00
  1.354602e+01    2.590726e+00
  1.357777e+01    2.487963e+00
  1.360952e+01    2.406781e+00
  1.364127e+01    2.307248e+00
  1.367303e+01    2.255718e+00
  1.370478e+01    2.228262e+00
  1.373653e+01    2.203540e+00
  1.376828e+01    2.201443e+00
  1.380003e+01    2.138191e+00
  1.383178e+01    2.168716e+00
  1.386353e+01    2.112962e+00
  1.389528e+01    2.049905e+00
  1.392703e+01    2.054851e+00
  1.395879e+01    2.081180e+00
  1.399054e+01    2.000325e+00
  1.402229e+01    2.105364e+00
  1.405404e+01    2.011700e+00
  1.408579e+01    1.959811e+00
  1.411754e+01    1.983529e+00
  1.414929e+01    1.982098e+00
  1.418104e+01    1.983618e+00
  1.421279e+01    1.959659e+00
  1.424455e+01    1.951655e+00
  1.427630e+01    1.945357e+00
  1.430805e+01    1.963036e+00
  1.433980e+01    1.946470e+00
  1.437155e+01    1.906932e+00
  1.440330e+01    1.892626e+00
  1.443505e+01    1.921651e+00
  1.446680e+01    1.901658e+00
  1.449856e+01    1.889411e+00
  1.453031e+01    1.911498e+00
  1.456206e+01    1.926209e+00
  1.459381e+01    1.908013e+00
  1.462556e+01    1.910299e+00
  1.465731e+01    1.908266e+00
  1.468906e+01    1.884697e+00
  1.472081e+01    1.880551e+00
  1.475256e+01    1.889475e+00
  1.478432e+01    1.908079e+00
  1.481607e+01    1.942827e+00
  1.484782e+01    1.939662e+00
  1.487957e+01    1.940847e+00
  1.491132e+01    1.939195e+00
  1.494307e+01    1.976947e+00
  1.497482e+01    2.055961e+00
  1.500657e+01    2.110062e+00
  1.503832e+01    2.220090e+00
  1.507008e+01    2.476602e+00
  1.510183e+01    2.810056e+00
  1.513358e+01    3.279463e+00
  1.516533e+01    4.059251e+00
  1.519708e+01    4.832370e+00
  1.522883e+01    5.509861e+00
  1.526058e+01    5.965405e+00
  1.529233e+01    5.954411e+00
  1.532409e+01    5.235672e+00
  1.535584e+01    4.137566e+00
  1.538759e+01    3.265235e+00
  1.541934e+01    2.719354e+00
  1.545109e+01    2.410610e+00
  1.548284e+01    2.166752e+00
  1.551459e+01    2.061312e+00
  1.554634e+01    1.947053e+00
  1.557809e+01    1.856813e+00
  1.560985e+01    1.810070e+00
  1.564160e+01    1.745841e+00
  1.567335e+01    1.761764e+00
  1.570510e+01    1.729071e+00
  1.573685e+01    1.690788e+00
  1.576860e+01    1.687361e+00
  1.580035e+01    1.628956e+00
  1.583210e+01    1.610137e+00
  1.586385e+01    1.610990e+00
  1.589561e+01    1.629388e+00
  1.592736e+01    1.639741e+00
  1.595911e+01    1.601303e+00
  1.599086e+01    1.595727e+00
  1.602261e+01    1.597416e+00
  1.605436e+01    1.569630e+00
  1.608611e+01    1.602071e+00
  1.611786e+01    1.566342e+00
  1.614961e+01    1.576662e+00
  1.618137e+01    1.506108e+00
  1.621312e+01    1.551389e+00
  1.624487e+01    1.590209e+00
  1.627662e+01    1.514933e+00
  1.630837e+01    1.544368e+00
  1.634012e+01    1.502316e+00
  1.637187e+01    1.520876e+00
  1.640362e+01    1.533309e+00
  1.643538e+01    1.500406e+00
  1.646713e+01    1.497530e+00
  1.649888e+01    1.502058e+00
  1.653063e+01    1.490119e+00
  1.656238e+01    1.491892e+00
  1.659413e+01    1.469508e+00
  1.662588e+01    1.463574e+00
  1.665763e+01    1.481632e+00
  1.668938e+01    1.474234e+00
  1.672114e+01    1.462965e+00
  1.675289e+01    1.436914e+00
  1.678464e+01    1.445749e+00
  1.681639e+01    1.442443e+00
  1.684814e+01    1.442750e+00
  1.687989e+01    1.409815e+00
  1.691164e+01    1.436238e+00
  1.694339e+01    1.430519e+00
  1.697514e+01    1.419484e+00
  1.700690e+01    1.445637e+00
  1.703865e+01    1.408357e+00
  1.707040e+01    1.424959e+00
  1.710215e+01    1.403065e+00
  1.713390e+01    1.389106e+00
  1.716565e+01    1.387624e+00
  1.719740e+01    1.386294e+00
  1.722915e+01    1.363981e+00
  1.726091e+01    1.391906e+00
  1.729266e+01    1.368534e+00
  1.732441e+01    1.367069e+00
  1.735616e+01    1.348338e+00
  1.738791e+01    1.379568e+00
  1.741966e+01    1.358118e+00
  1.745141e+01    1.345671e+00
  1.748316e+01    1.371541e+00
  1.751491e+01    1.348887e+00
  1.754667e+01    1.363102e+00
  1.757842e+01    1.356941e+00
  1.761017e+01    1.323050e+00
  1.764192e+01    1.331453e+00
  1.767367e+01    1.336614e+00
  1.770542e+01    1.305118e+00
  1.773717e+01    1.324917e+00
  1.776892e+01    1.324252e+00
  1.780067e+01    1.326576e+00
  1.783243e+01    1.318778e+00
  1.786418e+01    1.297650e+00
  1.789593e+01    1.261237e+00
  1.792768e+01    1.294624e+00
  1.795943e+01    1.291845e+00
  1.799118e+01    1.285394e+00
  1.802293e+01    1.288800e+00
  1.805468e+01    1.282021e+00
  1.808643e+01    1.303336e+00
  1.811819e+01    1.288329e+00
  1.814994e+01    1.252590e+00
  1.818169e+01    1.251577e+00
  1.821344e+01    1.258907e+00
  1.824519e+01    1.269995e+00
  1.827694e+01    1.280700e+00
  1.830869e+01    1.258403e+00
  1.834044e+01    1.245924e+00
  1.837220e+01    1.251232e+00
  1.840395e+01    1.265352e+00
  1.843570e+01    1.252749e+00
  1.846745e+01    1.235166e+00
  1.849920e+01    1.245175e+00
  1.853095e+01    1.237650e+00
  1.856270e+01    1.236668e+00
  1.859445e+01    1.193555e+00
  1.862620e+01    1.231033e+00
  1.865796e+01    1.258104e+00
  1.868971e+01    1.228397e+00
  1.872146e+01    1.217427e+00
  1.875321e+01    1.217608e+00
  1.878496e+01    1.211619e+00
  1.881671e+01    1.183307e+00
  1.884846e+01    1.184727e+00
  1.888021e+01    1.215117e+00
  1.891196e+01    1.201219e+00
  1.894372e+01    1.182352e+00
  1.897547e+01    1.175628e+00
  1.900722e+01    1.186560e+00
  1.903897e+01    1.193964e+00
  1.907072e+01    1.205397e+00
  1.910247e+01    1.189861e+00
  1.913422e+01    1.173522e+00
  1.916597e+01    1.171826e+00
  1.919773e+01    1.173724e+00
  1.922948e+01    1.178036e+00
  1.926123e+01    1.183910e+00
  1.929298e+01    1.182502e+00
  1.932473e+01    1.147937e+00
  1.935648e+01    1.158751e+00
  1.938823e+01    1.175341e+00
  1.941998e+01    1.167212e+00
  1.945173e+01    1.156150e+00
  1.948349e+01    1.178381e+00
  1.951524e+01    1.140203e+00
  1.954699e+01    1.163944e+00
  1.957874e+01    1.118628e+00
  1.961049e+01    1.149867e+00
  1.964224e+01    1.154946e+00
  1.967399e+01    1.136604e+00
  1.970574e+01    1.126191e+00
  1.973749e+01    1.133066e+00
  1.976925e+01    1.131970e+00
  1.980100e+01    1.129511e+00
  1.983275e+01    1.118260e+00
  1.986450e+01    1.116634e+00
  1.989625e+01    1.121709e+00
  1.992800e+01    1.144431e+00
  1.995975e+01    1.106887e+00
  1.999150e+01    1.106260e+00
  2.002325e+01    1.110236e+00
  2.005501e+01    1.101824e+00
  2.008676e+01    1.102617e+00
  2.011851e+01    1.100665e+00
  2.015026e+01    1.092875e+00
  2.018201e+01    1.104956e+00
  2.021376e+01    1.111569e+00
  2.024551e+01    1.082781e+00
  2.027726e+01    1.060475e+00
  2.030902e+01    1.104661e+00
  2.034077e+01    1.106712e+00
  2.037252e+01    1.077544e+00
  2.040427e+01    1.095136e+00
  2.043602e+01    1.087005e+00
  2.046777e+01    1.086809e+00
  2.049952e+01    1.077582e+00
  2.053127e+01    1.088888e+00
  2.056302e+01    1.092930e+00
  2.059478e+01    1.075632e+00
  2.062653e+01    1.076808e+00
  2.065828e+01    1.101570e+00
  2.069003e+01    1.066191e+00
  2.072178e+01    1.069431e+00
  2.075353e+01    1.053857e+00
  2.078528e+01    1.051938e+00
  2.081703e+01    1.077299e+00
  2.084878e+01    1.071445e+00
  2.088054e+01    1.061037e+00
  2.091229e+01    1.078296e+00
  2.094404e+01    1.070799e+00
  2.097579e+01    1.063818e+00
  2.100754e+01    1.040954e+00
  2.103929e+01    1.051486e+00
  2.107104e+01    1.067411e+00
  2.110279e+01    1.079002e+00
  2.113455e+01    1.062259e+00
  2.116630e+01    1.095088e+00
  2.119805e+01    1.085321e+00
  2.122980e+01    1.066806e+00
  2.126155e+01    1.098792e+00
  2.129330e+01    1.127879e+00
  2.132505e+01    1.134468e+00
  2.135680e+01    1.126914e+00
  2.138855e+01    1.115086e+00
  2.142031e+01    1.166256e+00
  2.145206e+01    1.218528e+00
  2.148381e+01    1.245380e+00
  2.151556e+01    1.284374e+00
  2.154731e+01    1.336215e+00
  2.157906e+01    1.438582e+00
  2.161081e+01    1.568345e+00
  2.164256e+01    1.765280e+00
  2.167431e+01    2.006535e+00
  2.170607e+01    2.438169e+00
  2.173782e+01    3.070357e+00
  2.176957e+01    4.022607e+00
  2.180132e+01    5.249042e+00
  2.183307e+01    6.701364e+00
  2.186482e+01    8.270510e+00
  2.189657e+01    9.532200e+00
  2.192832e+01    9.654631e+00
  2.196007e+01    8.306717e+00
  2.199183e+01    6.250906e+00
  2.202358e+01    4.424178e+00
  2.205533e+01    3.279922e+00
  2.208708e+01    2.591216e+00
  2.211883e+01    2.118124e+00
  2.215058e+01    1.837152e+00
  2.218233e+01    1.588118e+00
  2.221408e+01    1.436723e+00
  2.224584e+01    1.335927e+00
  2.227759e+01    1.258244e+00
  2.230934e+01    1.209245e+00
  2.234109e+01    1.171232e+00
  2.237284e+01    1.124448e+00
  2.240459e+01    1.079539e+00
  2.243634e+01    1.071353e+00
  2.246809e+01    1.058231e+00
  2.249984e+01    1.054726e+00
  2.253160e+01    1.013086e+00
  2.256335e+01    1.001899e+00
  2.259510e+01    9.906061e-01
  2.262685e+01    9.624612e-01
  2.265860e+01    9.577937e-01
  2.269035e+01    9.520125e-01
  2.272210e+01    9.251473e-01
  2.275385e+01    9.482372e-01
  2.278560e+01    9.351883e-01
  2.281736e+01    9.011118e-01
  2.284911e+01    9.019697e-01
  2.288086e+01    9.012792e-01
  2.291261e+01    8.966981e-01
  2.294436e+01    9.038631e-01
  2.297611e+01    9.014844e-01
  2.300786e+01    8.796054e-01
  2.303961e+01    8.978768e-01
  2.307137e+01    8.704419e-01
  2.310312e+01    8.889467e-01
  2.313487e+01    8.708186e-01
  2.316662e+01    8.663150e-01
  2.319837e+01    8.768374e-01
  2.323012e+01    8.650713e-01
  2.326187e+01    8.643450e-01
  2.329362e+01    8.755012e-01
  2.332537e+01    8.620183e-01
  2.335713e+01    8.540226e-01
  2.338888e+01    8.508309e-01
  2.342063e+01    8.519610e-01
  2.345238e+01    8.412271e-01
  2.348413e+01    8.426771e-01
  2.351588e+01    8.323214e-01
  2.354763e+01    8.505312e-01
  2.357938e+01    8.340732e-01
  2.361113e+01    8.609009e-01
  2.364289e+01    8.210578e-01
  2.367464e+01    8.327692e-01
  2.370639e+01    8.062837e-01
  2.373814e+01    8.374822e-01
  2.376989e+01    8.054000e-01
  2.380164e+01    8.145921e-01
  2.383339e+01    8.133180e-01
  2.386514e+01    8.144895e-01
  2.389689e+01    7.723375e-01
  2.392865e+01    7.868641e-01
  2.396040e+01    7.876256e-01
  2.399215e+01    7.846755e-01
  2.402390e+01    7.982597e-01
  2.405565e+01    7.653647e-01
  2.408740e+01    7.792833e-01
  2.411915e+01    7.584394e-01
  2.415090e+01    7.397417e-01
  2.418266e+01    7.632130e-01
  2.421441e+01    7.684718e-01
  2.424616e+01    7.822626e-01
  2.427791e+01    7.691764e-01
  2.430966e+01    7.974452e-01
  2.434141e+01    7.923354e-01
  2.437316e+01    7.778851e-01
  2.440491e+01    7.901539e-01
  2.443666e+01    7.799124e-01
  2.446842e+01    7.754176e-01
  2.450017e+01    7.726905e-01
  2.453192e+01    7.674921e-01
  2.456367e+01    7.972519e-01
  2.459542e+01    7.904663e-01
  2.462717e+01    7.565423e-01
  2.465892e+01    7.976876e-01
  2.469067e+01    7.752766e-01
  2.472242e+01    7.642162e-01
  2.475418e+01    7.715244e-01
  2.478593e+01    7.805581e-01
  2.481768e+01    7.867019e-01
  2.484943e+01    7.914250e-01
  2.488118e+01    7.805741e-01
  2.491293e+01    7.939378e-01
  2.494468e+01    7.808666e-01
  2.497643e+01    7.951942e-01
  2.500819e+01    7.868167e-01
  2.503994e+01    8.196375e-01
  2.507169e+01    7.902870e-01
  2.510344e+01    7.988908e-01
  2.513519e+01    8.174658e-01
  2.516694e+01    8.288106e-01
  2.519869e+01    8.367468e-01
  2.523044e+01    8.424388e-01
  2.526219e+01    8.452422e-01
  2.529395e+01    8.497655e-01
  2.532570e+01    8.731558e-01
  2.535745e+01    8.712373e-01
  2.538920e+01    8.856565e-01
  2.542095e+01    9.080057e-01
  2.545270e+01    9.163846e-01
  2.548445e+01    9.383279e-01
  2.551620e+01    9.750913e-01
  2.554795e+01    1.004525e+00
  2.557971e+01    1.079887e+00
  2.561146e+01    1.113926e+00
  2.564321e+01    1.183270e+00
  2.567496e+01    1.288178e+00
  2.570671e+01    1.445209e+00
  2.573846e+01    1.642134e+00
  2.577021e+01    1.959546e+00
  2.580196e+01    2.456847e+00
  2.583371e+01    3.139573e+00
  2.586547e+01    4.096660e+00
  2.589722e+01    5.369214e+00
  2.592897e+01    6.709434e+00
  2.596072e+01    7.871837e+00
  2.599247e+01    8.073464e+00
  2.602422e+01    7.013751e+00
  2.605597e+01    5.440790e+00
  2.608772e+01    3.966054e+00
  2.611948e+01    2.974458e+00
  2.615123e+01    2.283301e+00
  2.618298e+01    1.897449e+00
  2.621473e+01    1.637320e+00
  2.624648e+01    1.411497e+00
  2.627823e+01    1.261445e+00
  2.630998e+01    1.176504e+00
  2.634173e+01    1.097224e+00
  2.637348e+01    1.082742e+00
  2.640524e+01    1.010943e+00
  2.643699e+01    1.005380e+00
  2.646874e+01    9.639201e-01
  2.650049e+01    9.345856e-01
  2.653224e+01    9.206082e-01
  2.656399e+01    9.111517e-01
  2.659574e+01    9.172745e-01
  2.662749e+01    8.974482e-01
  2.665924e+01    8.951208e-01
  2.669100e+01    8.903136e-01
  2.672275e+01    8.971522e-01
  2.675450e+01    8.980479e-01
  2.678625e+01    8.979236e-01
  2.681800e+01    8.789218e-01
  2.684975e+01    8.895797e-01
  2.688150e+01    9.071005e-01
  2.691325e+01    9.283655e-01
  2.694501e+01    9.215719e-01
  2.697676e+01    9.860686e-01
  2.700851e+01    1.017801e+00
  2.704026e+01    1.075932e+00
  2.707201e+01    1.204150e+00
  2.710376e+01    1.317589e+00
  2.713551e+01    1.537727e+00
  2.716726e+01    1.843955e+00
  2.719901e+01    2.109147e+00
  2.723077e+01    2.367588e+00
  2.726252e+01    2.327645e+00
  2.729427e+01    2.032163e+00
  2.732602e+01    1.674290e+00
  2.735777e+01    1.433433e+00
  2.738952e+01    1.230208e+00
  2.742127e+01    1.122705e+00
  2.745302e+01    1.013690e+00
  2.748477e+01    9.929993e-01
  2.751653e+01    9.405002e-01
  2.754828e+01    8.968887e-01
  2.758003e+01    8.748501e-01
  2.761178e+01    8.511626e-01
  2.764353e+01    8.517627e-01
  2.767528e+01    8.439575e-01
  2.770703e+01    8.013130e-01
  2.773878e+01    8.222580e-01
  2.777054e+01    8.032540e-01
  2.780229e+01    8.139650e-01
  2.783404e+01    8.030784e-01
  2.786579e+01    8.002387e-01
  2.789754e+01    7.903225e-01
  2.792929e+01    7.856691e-01
  2.796104e+01    8.053755e-01
  2.799279e+01    7.961380e-01
  2.802454e+01    8.043680e-01
  2.805630e+01    7.821886e-01
  2.808805e+01    7.761250e-01
  2.811980e+01    7.692177e-01
  2.815155e+01    7.709681e-01
  2.818330e+01    7.405137e-01
  2.821505e+01    7.617033e-01
  2.824680e+01    7.792418e-01
  2.827855e+01    7.786430e-01
  2.831030e+01    7.490359e-01
  2.834206e+01    7.638176e-01
  2.837381e+01    7.745303e-01
  2.840556e+01    7.780877e-01
  2.843731e+01    7.772103e-01
  2.846906e+01    7.611117e-01
  2.850081e+01    7.615848e-01
  2.853256e+01    7.517545e-01
  2.856431e+01    7.503526e-01
  2.859606e+01    7.818594e-01
  2.862782e+01    7.361295e-01
  2.865957e+01    7.523366e-01
  2.869132e+01    7.294977e-01
  2.872307e+01    7.471887e-01
  2.875482e+01    7.410210e-01
  2.878657e+01    7.389097e-01
  2.881832e+01    7.477823e-01
  2.885007e+01    7.319272e-01
  2.888183e+01    7.305772e-01
  2.891358e+01    7.541831e-01
  2.894533e+01    7.240386e-01
  2.897708e+01    7.345808e-01
  2.900883e+01    7.372143e-01
  2.904058e+01    7.395381e-01
  2.907233e+01    7.383200e-01
  2.910408e+01    7.317011e-01
  2.913583e+01    7.379619e-01
  2.916759e+01    7.251096e-01
  2.919934e+01    7.246470e-01
  2.923109e+01    7.347382e-01
  2.926284e+01    7.162868e-01
  2.929459e+01    7.479001e-01
  2.932634e+01    7.356907e-01
  2.935809e+01    7.173487e-01
  2.938984e+01    7.282956e-01
  2.942159e+01    7.242466e-01
  2.945335e+01    7.155290e-01
  2.948510e+01    7.100371e-01
  2.951685e+01    7.128128e-01
  2.954860e+01    7.364543e-01
  2.958035e+01    7.217788e-01
  2.961210e+01    7.127430e-01
  2.964385e+01    7.061714e-01
  2.967560e+01    7.091197e-01
  2.970736e+01    7.125353e-01
  2.973911e+01    7.115171e-01
  2.977086e+01    7.031329e-01
  2.980261e+01    7.038285e-01
  2.983436e+01    7.316644e-01
  2.986611e+01    7.144836e-01
  2.989786e+01    7.150427e-01
  2.992961e+01    7.031325e-01
  2.996136e+01    7.322152e-01
  2.999312e+01    7.169534e-01
  3.002487e+01    7.167324e-01
  3.005662e+01    7.438240e-01
  3.008837e+01    7.239889e-01
  3.012012e+01    7.199241e-01
  3.015187e+01    6.878604e-01
  3.018362e+01    7.152549e-01
  3.021537e+01    7.162512e-01
  3.024712e+01    7.167280e-01
  3.027888e+01    7.026672e-01
  3.031063e+01    7.133812e-01
  3.034238e+01    7.083253e-01
  3.037413e+01    7.213901e-01
  3.040588e+01    7.246441e-01
  3.043763e+01    6.932980e-01
  3.046938e+01    7.187933e-01
  3.050113e+01    7.206157e-01
  3.053288e+01    7.063446e-01
  3.056464e+01    7.450194e-01
  3.059639e+01    7.132304e-01
  3.062814e+01    7.012905e-01
  3.065989e+01    7.007911e-01
  3.069164e+01    7.198698e-01
  3.072339e+01    7.032153e-01
  3.075514e+01    7.029386e-01
  3.078689e+01    7.120631e-01
  3.081865e+01    7.206801e-01
  3.085040e+01    7.208762e-01
  3.088215e+01    7.132045e-01
  3.091390e+01    7.017682e-01
  3.094565e+01    7.320905e-01
  3.097740e+01    7.180682e-01
  3.100915e+01    7.291892e-01
  3.104090e+01    7.415063e-01
  3.107265e+01    7.184644e-01
  3.110441e+01    6.855124e-01
  3.113616e+01    7.343691e-01
  3.116791e+01    6.934971e-01
  3.119966e+01    7.045596e-01
  3.123141e+01    7.245215e-01
  3.126316e+01    7.359933e-01
  3.129491e+01    7.217835e-01
  3.132666e+01    7.487459e-01
  3.135841e+01    7.332354e-01
  3.139017e+01    7.277820e-01
  3.142192e+01    7.586051e-01
  3.145367e+01    7.494690e-01
  3.148542e+01    7.639091e-01
  3.151717e+01    7.818292e-01
  3.154892e+01    7.817027e-01
  3.158067e+01    7.859537e-01
  3.161242e+01    8.100039e-01
  3.164418e+01    8.518221e-01
  3.167593e+01    8.992807e-01
  3.170768e+01    9.293764e-01
  3.173943e+01    1.021755e+00
  3.177118e+01    1.142019e+00
  3.180293e+01    1.274830e+00
  3.183468e+01    1.538280e+00
  3.186643e+01    1.856926e+00
  3.189818e+01    2.133583e+00
  3.192994e+01    2.336613e+00
  3.196169e+01    2.239959e+00
  3.199344e+01    1.966007e+00
  3.202519e+01    1.625739e+00
  3.205694e+01    1.366460e+00
  3.208869e+01    1.137785e+00
  3.212044e+01    1.009668e+00
  3.215219e+01    9.254782e-01
  3.218394e+01    8.526360e-01
  3.221570e+01    8.293055e-01
  3.224745e+01    7.938914e-01
  3.227920e+01    7.806121e-01
  3.231095e+01    7.482414e-01
  3.234270e+01    7.764320e-01
  3.237445e+01    7.464014e-01
  3.240620e+01    7.457520e-01
  3.243795e+01    7.227429e-01
  3.246970e+01    7.400057e-01
  3.250146e+01    7.467076e-01
  3.253321e+01    7.195846e-01
  3.254908e+01    7.266414e-01