File: XRD/2024-07-27_002_Ru-CGO-ex_Activtation_ramp_000002_data_000037.dat
# == pyFAI calibration ==
# Distance Sample to Detector: 0.4 m
# PONI: 9.750e-02, 1.135e-01 m
# Rotations: -0.000175 0.000000 -0.000000 rad
#
# == Fit2d calibration ==
# Distance Sample-beamCenter: 400.000 mm
# Center: x=1514.000, y=1300.000 pix
# Tilt: 0.010 deg  TiltPlanRot: 0.010 deg
#
# Detector Detector	 Spline= None	 PixelSize= 7.500e-05, 7.500e-05 m
#    Detector has a mask: False
#    Detector has a dark current: False
#    detector has a flat field: False
#
# Wavelength: 6.888e-11 m
# Mask applied: user provided
# Dark current applied: False
# Flat field applied: False
# Polarization factor: 0.99
# Normalization factor: 1.0
# --> /home/myspot/data/2024_07_Rosario/Ru-CGO-ex/2024-07-27_002_Ru-CGO-ex_Activtation_ramp_000002_data_000037.dat
#       q_nm^-1             I
  2.003187e-02    1.424646e-01
  5.178302e-02    6.857615e-02
  8.353417e-02    1.028159e-01
  1.152853e-01    1.505354e-02
  1.470365e-01    1.937766e-02
  1.787876e-01    8.094265e-02
  2.105388e-01    5.211709e-02
  2.422899e-01    5.141767e-02
  2.740411e-01    2.981750e-02
  3.057922e-01    7.890080e-02
  3.375433e-01    2.830018e-02
  3.692945e-01    3.021115e-02
  4.010456e-01    2.304976e-02
  4.327968e-01    5.821876e-02
  4.645479e-01    2.883067e-02
  4.962991e-01    2.302244e-02
  5.280502e-01    8.365707e-03
  5.598014e-01    7.346944e-02
  5.915525e-01    3.883858e-02
  6.233037e-01    8.069853e-02
  6.550548e-01    4.473653e-02
  6.868060e-01    1.921400e-02
  7.185571e-01    3.671528e-02
  7.503083e-01    2.974364e-02
  7.820594e-01    6.896058e-02
  8.138106e-01    1.953284e-01
  8.455617e-01    3.493249e-01
  8.773129e-01    4.121065e-01
  9.090640e-01    5.768154e-01
  9.408152e-01    7.327839e-01
  9.725663e-01    8.872954e-01
  1.004317e+00    1.041397e+00
  1.036069e+00    1.215041e+00
  1.067820e+00    1.266127e+00
  1.099571e+00    1.430106e+00
  1.131322e+00    1.482686e+00
  1.163073e+00    1.613187e+00
  1.194824e+00    1.658322e+00
  1.226575e+00    2.123122e+00
  1.258327e+00    2.299205e+00
  1.290078e+00    2.518255e+00
  1.321829e+00    2.674402e+00
  1.353580e+00    2.551943e+00
  1.385331e+00    2.692135e+00
  1.417082e+00    2.644969e+00
  1.448834e+00    2.795847e+00
  1.480585e+00    2.954431e+00
  1.512336e+00    2.986257e+00
  1.544087e+00    3.175121e+00
  1.575838e+00    2.992699e+00
  1.607589e+00    2.929969e+00
  1.639340e+00    2.899804e+00
  1.671092e+00    2.957781e+00
  1.702843e+00    2.996474e+00
  1.734594e+00    2.982467e+00
  1.766345e+00    2.881917e+00
  1.798096e+00    2.877400e+00
  1.829847e+00    2.782526e+00
  1.861598e+00    2.648248e+00
  1.893350e+00    2.827479e+00
  1.925101e+00    2.823357e+00
  1.956852e+00    2.808174e+00
  1.988603e+00    2.706594e+00
  2.020354e+00    2.796466e+00
  2.052105e+00    2.876702e+00
  2.083856e+00    2.901819e+00
  2.115608e+00    2.819309e+00
  2.147359e+00    2.754218e+00
  2.179110e+00    2.804791e+00
  2.210861e+00    2.800590e+00
  2.242612e+00    2.884314e+00
  2.274363e+00    2.781728e+00
  2.306115e+00    2.879094e+00
  2.337866e+00    2.854118e+00
  2.369617e+00    2.894752e+00
  2.401368e+00    2.665216e+00
  2.433119e+00    2.860601e+00
  2.464870e+00    2.834211e+00
  2.496621e+00    2.755563e+00
  2.528373e+00    2.823986e+00
  2.560124e+00    2.787359e+00
  2.591875e+00    2.752301e+00
  2.623626e+00    2.794564e+00
  2.655377e+00    2.817992e+00
  2.687128e+00    2.860102e+00
  2.718879e+00    2.870395e+00
  2.750631e+00    2.809710e+00
  2.782382e+00    2.859092e+00
  2.814133e+00    2.846740e+00
  2.845884e+00    2.876671e+00
  2.877635e+00    2.892305e+00
  2.909386e+00    2.854744e+00
  2.941137e+00    2.926966e+00
  2.972889e+00    2.815798e+00
  3.004640e+00    2.956579e+00
  3.036391e+00    2.879233e+00
  3.068142e+00    2.897640e+00
  3.099893e+00    2.937252e+00
  3.131644e+00    2.983479e+00
  3.163395e+00    2.883137e+00
  3.195147e+00    2.975170e+00
  3.226898e+00    3.015371e+00
  3.258649e+00    2.891530e+00
  3.290400e+00    2.888932e+00
  3.322151e+00    2.842485e+00
  3.353902e+00    3.019548e+00
  3.385654e+00    2.990780e+00
  3.417405e+00    2.877866e+00
  3.449156e+00    2.966734e+00
  3.480907e+00    2.944908e+00
  3.512658e+00    3.046850e+00
  3.544409e+00    2.938871e+00
  3.576160e+00    2.924140e+00
  3.607912e+00    3.058530e+00
  3.639663e+00    3.051587e+00
  3.671414e+00    3.065323e+00
  3.703165e+00    2.952745e+00
  3.734916e+00    3.038269e+00
  3.766667e+00    3.080587e+00
  3.798418e+00    3.020976e+00
  3.830170e+00    3.003302e+00
  3.861921e+00    2.992298e+00
  3.893672e+00    3.018679e+00
  3.925423e+00    3.046858e+00
  3.957174e+00    2.989178e+00
  3.988925e+00    3.106120e+00
  4.020676e+00    3.094695e+00
  4.052428e+00    3.068838e+00
  4.084179e+00    3.106146e+00
  4.115930e+00    3.098949e+00
  4.147681e+00    3.060992e+00
  4.179432e+00    2.989943e+00
  4.211183e+00    3.004660e+00
  4.242935e+00    3.066132e+00
  4.274686e+00    3.098549e+00
  4.306437e+00    3.094599e+00
  4.338188e+00    3.117025e+00
  4.369939e+00    3.110124e+00
  4.401690e+00    3.049485e+00
  4.433441e+00    3.139900e+00
  4.465193e+00    3.044238e+00
  4.496944e+00    3.088413e+00
  4.528695e+00    3.076964e+00
  4.560446e+00    3.009209e+00
  4.592197e+00    3.062329e+00
  4.623948e+00    3.086778e+00
  4.655699e+00    3.021119e+00
  4.687451e+00    3.083440e+00
  4.719202e+00    3.035753e+00
  4.750953e+00    3.145329e+00
  4.782704e+00    3.211366e+00
  4.814455e+00    3.119581e+00
  4.846206e+00    3.192332e+00
  4.877957e+00    3.086945e+00
  4.909709e+00    3.084747e+00
  4.941460e+00    3.148223e+00
  4.973211e+00    3.131424e+00
  5.004962e+00    3.142827e+00
  5.036713e+00    3.128201e+00
  5.068464e+00    3.102198e+00
  5.100216e+00    3.091757e+00
  5.131967e+00    3.091043e+00
  5.163718e+00    3.032406e+00
  5.195469e+00    3.102774e+00
  5.227220e+00    3.199643e+00
  5.258971e+00    3.181613e+00
  5.290722e+00    2.975229e+00
  5.322474e+00    3.125301e+00
  5.354225e+00    3.135612e+00
  5.385976e+00    3.184203e+00
  5.417727e+00    3.132701e+00
  5.449478e+00    3.078648e+00
  5.481229e+00    3.152718e+00
  5.512980e+00    3.019998e+00
  5.544732e+00    3.103889e+00
  5.576483e+00    3.078212e+00
  5.608234e+00    3.022158e+00
  5.639985e+00    3.021228e+00
  5.671736e+00    3.041682e+00
  5.703487e+00    3.143746e+00
  5.735238e+00    3.040178e+00
  5.766990e+00    3.019609e+00
  5.798741e+00    3.028444e+00
  5.830492e+00    3.113273e+00
  5.862243e+00    3.039051e+00
  5.893994e+00    3.079026e+00
  5.925745e+00    2.960785e+00
  5.957497e+00    3.038185e+00
  5.989248e+00    2.920569e+00
  6.020999e+00    2.993610e+00
  6.052750e+00    3.024957e+00
  6.084501e+00    3.079506e+00
  6.116252e+00    3.142249e+00
  6.148003e+00    3.050555e+00
  6.179755e+00    3.017186e+00
  6.211506e+00    3.074279e+00
  6.243257e+00    3.085935e+00
  6.275008e+00    3.042390e+00
  6.306759e+00    3.052067e+00
  6.338510e+00    3.070225e+00
  6.370261e+00    3.041030e+00
  6.402013e+00    3.107205e+00
  6.433764e+00    3.065619e+00
  6.465515e+00    3.103992e+00
  6.497266e+00    3.180921e+00
  6.529017e+00    3.053899e+00
  6.560768e+00    3.095087e+00
  6.592519e+00    2.975858e+00
  6.624271e+00    3.056870e+00
  6.656022e+00    3.057920e+00
  6.687773e+00    3.038341e+00
  6.719524e+00    3.015911e+00
  6.751275e+00    3.098527e+00
  6.783026e+00    3.031660e+00
  6.814777e+00    3.041821e+00
  6.846529e+00    3.063838e+00
  6.878280e+00    3.055418e+00
  6.910031e+00    2.999804e+00
  6.941782e+00    3.015820e+00
  6.973533e+00    3.058804e+00
  7.005284e+00    2.987185e+00
  7.037036e+00    3.075667e+00
  7.068787e+00    3.012822e+00
  7.100538e+00    2.936552e+00
  7.132289e+00    3.034518e+00
  7.164040e+00    3.061204e+00
  7.195791e+00    2.947931e+00
  7.227542e+00    3.028405e+00
  7.259294e+00    3.041933e+00
  7.291045e+00    3.013885e+00
  7.322796e+00    2.968456e+00
  7.354547e+00    2.929348e+00
  7.386298e+00    3.067847e+00
  7.418049e+00    3.019120e+00
  7.449800e+00    3.028968e+00
  7.481552e+00    2.981467e+00
  7.513303e+00    2.942955e+00
  7.545054e+00    2.930969e+00
  7.576805e+00    3.000480e+00
  7.608556e+00    3.052931e+00
  7.640307e+00    2.937411e+00
  7.672058e+00    2.959983e+00
  7.703810e+00    2.988323e+00
  7.735561e+00    3.030364e+00
  7.767312e+00    2.991017e+00
  7.799063e+00    2.909652e+00
  7.830814e+00    2.885704e+00
  7.862565e+00    2.923942e+00
  7.894317e+00    2.983486e+00
  7.926068e+00    2.837603e+00
  7.957819e+00    2.979984e+00
  7.989570e+00    2.889302e+00
  8.021321e+00    3.007471e+00
  8.053072e+00    2.936261e+00
  8.084823e+00    2.948109e+00
  8.116575e+00    2.933590e+00
  8.148326e+00    2.990010e+00
  8.180077e+00    2.987376e+00
  8.211828e+00    3.026167e+00
  8.243579e+00    2.978137e+00
  8.275330e+00    2.912236e+00
  8.307081e+00    2.929524e+00
  8.338833e+00    2.917757e+00
  8.370584e+00    2.971971e+00
  8.402335e+00    2.955301e+00
  8.434086e+00    2.923763e+00
  8.465837e+00    2.824200e+00
  8.497588e+00    2.922616e+00
  8.529339e+00    2.886606e+00
  8.561091e+00    2.869981e+00
  8.592842e+00    2.937960e+00
  8.624593e+00    2.829603e+00
  8.656344e+00    2.899209e+00
  8.688095e+00    2.879140e+00
  8.719846e+00    2.866071e+00
  8.751598e+00    2.860335e+00
  8.783349e+00    2.882126e+00
  8.815100e+00    2.901083e+00
  8.846851e+00    2.821675e+00
  8.878602e+00    2.887755e+00
  8.910353e+00    2.745400e+00
  8.942104e+00    2.807157e+00
  8.973856e+00    2.795735e+00
  9.005607e+00    2.878966e+00
  9.037358e+00    2.852046e+00
  9.069109e+00    2.851373e+00
  9.100860e+00    2.777951e+00
  9.132611e+00    2.859274e+00
  9.164362e+00    2.829286e+00
  9.196114e+00    2.843319e+00
  9.227865e+00    2.819065e+00
  9.259616e+00    2.766262e+00
  9.291367e+00    2.838876e+00
  9.323118e+00    2.755498e+00
  9.354869e+00    2.786133e+00
  9.386620e+00    2.770842e+00
  9.418372e+00    2.762375e+00
  9.450123e+00    2.784464e+00
  9.481874e+00    2.805146e+00
  9.513625e+00    2.811755e+00
  9.545376e+00    2.790404e+00
  9.577127e+00    2.764716e+00
  9.608878e+00    2.749984e+00
  9.640630e+00    2.770056e+00
  9.672381e+00    2.732231e+00
  9.704132e+00    2.802071e+00
  9.735883e+00    2.698864e+00
  9.767634e+00    2.724007e+00
  9.799385e+00    2.736655e+00
  9.831137e+00    2.737749e+00
  9.862888e+00    2.718772e+00
  9.894639e+00    2.752029e+00
  9.926390e+00    2.745764e+00
  9.958141e+00    2.706581e+00
  9.989892e+00    2.670817e+00
  1.002164e+01    2.718609e+00
  1.005339e+01    2.677453e+00
  1.008515e+01    2.678478e+00
  1.011690e+01    2.655173e+00
  1.014865e+01    2.682109e+00
  1.018040e+01    2.652961e+00
  1.021215e+01    2.644490e+00
  1.024390e+01    2.685292e+00
  1.027565e+01    2.646956e+00
  1.030740e+01    2.639485e+00
  1.033915e+01    2.677755e+00
  1.037091e+01    2.671996e+00
  1.040266e+01    2.649540e+00
  1.043441e+01    2.573825e+00
  1.046616e+01    2.574629e+00
  1.049791e+01    2.594998e+00
  1.052966e+01    2.576189e+00
  1.056141e+01    2.591233e+00
  1.059316e+01    2.533546e+00
  1.062492e+01    2.532629e+00
  1.065667e+01    2.589452e+00
  1.068842e+01    2.579678e+00
  1.072017e+01    2.573101e+00
  1.075192e+01    2.594302e+00
  1.078367e+01    2.505265e+00
  1.081542e+01    2.552684e+00
  1.084717e+01    2.542987e+00
  1.087892e+01    2.507745e+00
  1.091068e+01    2.539008e+00
  1.094243e+01    2.547304e+00
  1.097418e+01    2.501918e+00
  1.100593e+01    2.516471e+00
  1.103768e+01    2.469737e+00
  1.106943e+01    2.471500e+00
  1.110118e+01    2.483885e+00
  1.113293e+01    2.484027e+00
  1.116468e+01    2.461867e+00
  1.119644e+01    2.400242e+00
  1.122819e+01    2.432335e+00
  1.125994e+01    2.497642e+00
  1.129169e+01    2.486397e+00
  1.132344e+01    2.468923e+00
  1.135519e+01    2.458584e+00
  1.138694e+01    2.417188e+00
  1.141869e+01    2.404523e+00
  1.145045e+01    2.406749e+00
  1.148220e+01    2.465685e+00
  1.151395e+01    2.432039e+00
  1.154570e+01    2.370065e+00
  1.157745e+01    2.432287e+00
  1.160920e+01    2.418569e+00
  1.164095e+01    2.379852e+00
  1.167270e+01    2.412738e+00
  1.170445e+01    2.365184e+00
  1.173621e+01    2.379525e+00
  1.176796e+01    2.367050e+00
  1.179971e+01    2.368490e+00
  1.183146e+01    2.348846e+00
  1.186321e+01    2.350122e+00
  1.189496e+01    2.313540e+00
  1.192671e+01    2.401377e+00
  1.195846e+01    2.347172e+00
  1.199021e+01    2.332171e+00
  1.202197e+01    2.390493e+00
  1.205372e+01    2.381010e+00
  1.208547e+01    2.344383e+00
  1.211722e+01    2.360384e+00
  1.214897e+01    2.359747e+00
  1.218072e+01    2.351051e+00
  1.221247e+01    2.325495e+00
  1.224422e+01    2.345371e+00
  1.227597e+01    2.360514e+00
  1.230773e+01    2.385610e+00
  1.233948e+01    2.305827e+00
  1.237123e+01    2.349669e+00
  1.240298e+01    2.333306e+00
  1.243473e+01    2.338192e+00
  1.246648e+01    2.385816e+00
  1.249823e+01    2.401831e+00
  1.252998e+01    2.345542e+00
  1.256174e+01    2.424989e+00
  1.259349e+01    2.443602e+00
  1.262524e+01    2.434525e+00
  1.265699e+01    2.449473e+00
  1.268874e+01    2.469227e+00
  1.272049e+01    2.554551e+00
  1.275224e+01    2.552730e+00
  1.278399e+01    2.646875e+00
  1.281574e+01    2.754297e+00
  1.284750e+01    2.871805e+00
  1.287925e+01    2.970285e+00
  1.291100e+01    3.286129e+00
  1.294275e+01    3.664564e+00
  1.297450e+01    4.270163e+00
  1.300625e+01    5.185397e+00
  1.303800e+01    6.805477e+00
  1.306975e+01    9.025127e+00
  1.310150e+01    1.206475e+01
  1.313326e+01    1.505229e+01
  1.316501e+01    1.781295e+01
  1.319676e+01    1.944696e+01
  1.322851e+01    1.778629e+01
  1.326026e+01    1.329227e+01
  1.329201e+01    9.483455e+00
  1.332376e+01    6.880106e+00
  1.335551e+01    5.378635e+00
  1.338727e+01    4.322305e+00
  1.341902e+01    3.799518e+00
  1.345077e+01    3.317451e+00
  1.348252e+01    3.030131e+00
  1.351427e+01    2.824319e+00
  1.354602e+01    2.671413e+00
  1.357777e+01    2.560256e+00
  1.360952e+01    2.460145e+00
  1.364127e+01    2.411065e+00
  1.367303e+01    2.338185e+00
  1.370478e+01    2.293405e+00
  1.373653e+01    2.287565e+00
  1.376828e+01    2.270296e+00
  1.380003e+01    2.202138e+00
  1.383178e+01    2.169544e+00
  1.386353e+01    2.194551e+00
  1.389528e+01    2.141685e+00
  1.392703e+01    2.093604e+00
  1.395879e+01    2.060050e+00
  1.399054e+01    2.025288e+00
  1.402229e+01    2.091123e+00
  1.405404e+01    2.048168e+00
  1.408579e+01    2.048978e+00
  1.411754e+01    2.068763e+00
  1.414929e+01    2.077821e+00
  1.418104e+01    2.021170e+00
  1.421279e+01    1.997815e+00
  1.424455e+01    1.968797e+00
  1.427630e+01    1.982888e+00
  1.430805e+01    1.984087e+00
  1.433980e+01    1.950610e+00
  1.437155e+01    1.982613e+00
  1.440330e+01    1.920342e+00
  1.443505e+01    1.983228e+00
  1.446680e+01    1.952040e+00
  1.449856e+01    1.936976e+00
  1.453031e+01    1.930536e+00
  1.456206e+01    1.946030e+00
  1.459381e+01    1.939465e+00
  1.462556e+01    1.948833e+00
  1.465731e+01    1.956437e+00
  1.468906e+01    1.935295e+00
  1.472081e+01    1.909623e+00
  1.475256e+01    1.923732e+00
  1.478432e+01    1.933595e+00
  1.481607e+01    1.957353e+00
  1.484782e+01    1.902153e+00
  1.487957e+01    1.958166e+00
  1.491132e+01    1.995054e+00
  1.494307e+01    2.011852e+00
  1.497482e+01    2.045577e+00
  1.500657e+01    2.170179e+00
  1.503832e+01    2.241354e+00
  1.507008e+01    2.478804e+00
  1.510183e+01    2.745450e+00
  1.513358e+01    3.225097e+00
  1.516533e+01    3.981931e+00
  1.519708e+01    4.829913e+00
  1.522883e+01    5.687449e+00
  1.526058e+01    6.261137e+00
  1.529233e+01    6.494606e+00
  1.532409e+01    6.077546e+00
  1.535584e+01    4.819540e+00
  1.538759e+01    3.753290e+00
  1.541934e+01    3.000723e+00
  1.545109e+01    2.610173e+00
  1.548284e+01    2.344191e+00
  1.551459e+01    2.127515e+00
  1.554634e+01    1.987828e+00
  1.557809e+01    1.922313e+00
  1.560985e+01    1.906655e+00
  1.564160e+01    1.862849e+00
  1.567335e+01    1.802250e+00
  1.570510e+01    1.802483e+00
  1.573685e+01    1.774986e+00
  1.576860e+01    1.724823e+00
  1.580035e+01    1.669436e+00
  1.583210e+01    1.688733e+00
  1.586385e+01    1.708721e+00
  1.589561e+01    1.693222e+00
  1.592736e+01    1.664918e+00
  1.595911e+01    1.644376e+00
  1.599086e+01    1.628490e+00
  1.602261e+01    1.639201e+00
  1.605436e+01    1.605927e+00
  1.608611e+01    1.609674e+00
  1.611786e+01    1.605432e+00
  1.614961e+01    1.608350e+00
  1.618137e+01    1.600061e+00
  1.621312e+01    1.585379e+00
  1.624487e+01    1.616229e+00
  1.627662e+01    1.586297e+00
  1.630837e+01    1.594363e+00
  1.634012e+01    1.545504e+00
  1.637187e+01    1.547808e+00
  1.640362e+01    1.572981e+00
  1.643538e+01    1.560104e+00
  1.646713e+01    1.518848e+00
  1.649888e+01    1.541088e+00
  1.653063e+01    1.493251e+00
  1.656238e+01    1.522639e+00
  1.659413e+01    1.526187e+00
  1.662588e+01    1.470739e+00
  1.665763e+01    1.489313e+00
  1.668938e+01    1.503478e+00
  1.672114e+01    1.470941e+00
  1.675289e+01    1.462685e+00
  1.678464e+01    1.466197e+00
  1.681639e+01    1.503853e+00
  1.684814e+01    1.448265e+00
  1.687989e+01    1.460047e+00
  1.691164e+01    1.445444e+00
  1.694339e+01    1.467347e+00
  1.697514e+01    1.422932e+00
  1.700690e+01    1.472171e+00
  1.703865e+01    1.434768e+00
  1.707040e+01    1.438179e+00
  1.710215e+01    1.445386e+00
  1.713390e+01    1.455875e+00
  1.716565e+01    1.442948e+00
  1.719740e+01    1.395343e+00
  1.722915e+01    1.402136e+00
  1.726091e+01    1.412458e+00
  1.729266e+01    1.390801e+00
  1.732441e+01    1.383325e+00
  1.735616e+01    1.420631e+00
  1.738791e+01    1.428552e+00
  1.741966e+01    1.388628e+00
  1.745141e+01    1.398297e+00
  1.748316e+01    1.364868e+00
  1.751491e+01    1.384265e+00
  1.754667e+01    1.394470e+00
  1.757842e+01    1.400064e+00
  1.761017e+01    1.371418e+00
  1.764192e+01    1.372282e+00
  1.767367e+01    1.363917e+00
  1.770542e+01    1.378444e+00
  1.773717e+01    1.335145e+00
  1.776892e+01    1.337475e+00
  1.780067e+01    1.321452e+00
  1.783243e+01    1.357413e+00
  1.786418e+01    1.308785e+00
  1.789593e+01    1.319840e+00
  1.792768e+01    1.306654e+00
  1.795943e+01    1.323737e+00
  1.799118e+01    1.325199e+00
  1.802293e+01    1.312807e+00
  1.805468e+01    1.313476e+00
  1.808643e+01    1.329086e+00
  1.811819e+01    1.290263e+00
  1.814994e+01    1.327746e+00
  1.818169e+01    1.309128e+00
  1.821344e+01    1.303432e+00
  1.824519e+01    1.268427e+00
  1.827694e+01    1.284856e+00
  1.830869e+01    1.265373e+00
  1.834044e+01    1.286064e+00
  1.837220e+01    1.307059e+00
  1.840395e+01    1.278870e+00
  1.843570e+01    1.262554e+00
  1.846745e+01    1.275293e+00
  1.849920e+01    1.249145e+00
  1.853095e+01    1.256016e+00
  1.856270e+01    1.243499e+00
  1.859445e+01    1.250520e+00
  1.862620e+01    1.247844e+00
  1.865796e+01    1.252970e+00
  1.868971e+01    1.249390e+00
  1.872146e+01    1.267375e+00
  1.875321e+01    1.254901e+00
  1.878496e+01    1.248173e+00
  1.881671e+01    1.229271e+00
  1.884846e+01    1.262415e+00
  1.888021e+01    1.246904e+00
  1.891196e+01    1.220348e+00
  1.894372e+01    1.233062e+00
  1.897547e+01    1.225195e+00
  1.900722e+01    1.210837e+00
  1.903897e+01    1.190699e+00
  1.907072e+01    1.209090e+00
  1.910247e+01    1.212460e+00
  1.913422e+01    1.175040e+00
  1.916597e+01    1.197725e+00
  1.919773e+01    1.215889e+00
  1.922948e+01    1.192436e+00
  1.926123e+01    1.172669e+00
  1.929298e+01    1.182719e+00
  1.932473e+01    1.207075e+00
  1.935648e+01    1.189368e+00
  1.938823e+01    1.197291e+00
  1.941998e+01    1.176010e+00
  1.945173e+01    1.198397e+00
  1.948349e+01    1.185381e+00
  1.951524e+01    1.165028e+00
  1.954699e+01    1.201333e+00
  1.957874e+01    1.167016e+00
  1.961049e+01    1.136537e+00
  1.964224e+01    1.170642e+00
  1.967399e+01    1.165958e+00
  1.970574e+01    1.145548e+00
  1.973749e+01    1.150014e+00
  1.976925e+01    1.180732e+00
  1.980100e+01    1.128910e+00
  1.983275e+01    1.139031e+00
  1.986450e+01    1.144797e+00
  1.989625e+01    1.137672e+00
  1.992800e+01    1.118657e+00
  1.995975e+01    1.138384e+00
  1.999150e+01    1.127807e+00
  2.002325e+01    1.150842e+00
  2.005501e+01    1.100083e+00
  2.008676e+01    1.128927e+00
  2.011851e+01    1.114499e+00
  2.015026e+01    1.110674e+00
  2.018201e+01    1.092543e+00
  2.021376e+01    1.141949e+00
  2.024551e+01    1.095374e+00
  2.027726e+01    1.132613e+00
  2.030902e+01    1.102207e+00
  2.034077e+01    1.114144e+00
  2.037252e+01    1.102816e+00
  2.040427e+01    1.120585e+00
  2.043602e+01    1.106214e+00
  2.046777e+01    1.093403e+00
  2.049952e+01    1.084414e+00
  2.053127e+01    1.112031e+00
  2.056302e+01    1.112572e+00
  2.059478e+01    1.051785e+00
  2.062653e+01    1.103418e+00
  2.065828e+01    1.098279e+00
  2.069003e+01    1.065828e+00
  2.072178e+01    1.099899e+00
  2.075353e+01    1.126288e+00
  2.078528e+01    1.085783e+00
  2.081703e+01    1.096063e+00
  2.084878e+01    1.105625e+00
  2.088054e+01    1.099862e+00
  2.091229e+01    1.090737e+00
  2.094404e+01    1.099507e+00
  2.097579e+01    1.090305e+00
  2.100754e+01    1.075788e+00
  2.103929e+01    1.105800e+00
  2.107104e+01    1.102796e+00
  2.110279e+01    1.105116e+00
  2.113455e+01    1.090502e+00
  2.116630e+01    1.122579e+00
  2.119805e+01    1.127635e+00
  2.122980e+01    1.125449e+00
  2.126155e+01    1.104472e+00
  2.129330e+01    1.146963e+00
  2.132505e+01    1.142577e+00
  2.135680e+01    1.160337e+00
  2.138855e+01    1.185601e+00
  2.142031e+01    1.195543e+00
  2.145206e+01    1.220604e+00
  2.148381e+01    1.262306e+00
  2.151556e+01    1.302402e+00
  2.154731e+01    1.405817e+00
  2.157906e+01    1.457140e+00
  2.161081e+01    1.558218e+00
  2.164256e+01    1.766047e+00
  2.167431e+01    1.961769e+00
  2.170607e+01    2.322389e+00
  2.173782e+01    2.901865e+00
  2.176957e+01    3.757886e+00
  2.180132e+01    4.928133e+00
  2.183307e+01    6.476952e+00
  2.186482e+01    8.154178e+00
  2.189657e+01    9.812833e+00
  2.192832e+01    1.081396e+01
  2.196007e+01    1.014299e+01
  2.199183e+01    8.006377e+00
  2.202358e+01    5.759912e+00
  2.205533e+01    4.124359e+00
  2.208708e+01    3.108296e+00
  2.211883e+01    2.480356e+00
  2.215058e+01    2.064148e+00
  2.218233e+01    1.766456e+00
  2.221408e+01    1.609822e+00
  2.224584e+01    1.480372e+00
  2.227759e+01    1.375810e+00
  2.230934e+01    1.295875e+00
  2.234109e+01    1.216706e+00
  2.237284e+01    1.207314e+00
  2.240459e+01    1.135297e+00
  2.243634e+01    1.130457e+00
  2.246809e+01    1.100614e+00
  2.249984e+01    1.066335e+00
  2.253160e+01    1.045950e+00
  2.256335e+01    1.060078e+00
  2.259510e+01    9.996338e-01
  2.262685e+01    1.016464e+00
  2.265860e+01    9.975073e-01
  2.269035e+01    9.763126e-01
  2.272210e+01    9.837428e-01
  2.275385e+01    9.756789e-01
  2.278560e+01    9.535484e-01
  2.281736e+01    9.661902e-01
  2.284911e+01    9.300620e-01
  2.288086e+01    9.318238e-01
  2.291261e+01    9.362414e-01
  2.294436e+01    9.153741e-01
  2.297611e+01    9.187002e-01
  2.300786e+01    9.224304e-01
  2.303961e+01    9.119982e-01
  2.307137e+01    8.992066e-01
  2.310312e+01    9.097518e-01
  2.313487e+01    8.979687e-01
  2.316662e+01    8.812531e-01
  2.319837e+01    8.773772e-01
  2.323012e+01    8.857552e-01
  2.326187e+01    8.895801e-01
  2.329362e+01    8.764505e-01
  2.332537e+01    8.755426e-01
  2.335713e+01    8.648781e-01
  2.338888e+01    8.612912e-01
  2.342063e+01    8.838682e-01
  2.345238e+01    8.523057e-01
  2.348413e+01    8.424673e-01
  2.351588e+01    8.799661e-01
  2.354763e+01    8.922438e-01
  2.357938e+01    8.316823e-01
  2.361113e+01    8.485652e-01
  2.364289e+01    8.706629e-01
  2.367464e+01    8.356069e-01
  2.370639e+01    8.473665e-01
  2.373814e+01    8.424488e-01
  2.376989e+01    8.219841e-01
  2.380164e+01    8.227611e-01
  2.383339e+01    8.324547e-01
  2.386514e+01    8.168443e-01
  2.389689e+01    8.221784e-01
  2.392865e+01    7.982686e-01
  2.396040e+01    7.919422e-01
  2.399215e+01    8.208128e-01
  2.402390e+01    8.032495e-01
  2.405565e+01    7.978332e-01
  2.408740e+01    7.783461e-01
  2.411915e+01    7.969728e-01
  2.415090e+01    7.827739e-01
  2.418266e+01    8.025020e-01
  2.421441e+01    7.779138e-01
  2.424616e+01    7.972645e-01
  2.427791e+01    7.911820e-01
  2.430966e+01    8.129967e-01
  2.434141e+01    8.106056e-01
  2.437316e+01    8.052949e-01
  2.440491e+01    7.975309e-01
  2.443666e+01    7.968194e-01
  2.446842e+01    8.189843e-01
  2.450017e+01    8.288288e-01
  2.453192e+01    8.112051e-01
  2.456367e+01    7.945006e-01
  2.459542e+01    8.006189e-01
  2.462717e+01    7.905477e-01
  2.465892e+01    7.959952e-01
  2.469067e+01    8.317496e-01
  2.472242e+01    8.053094e-01
  2.475418e+01    7.828617e-01
  2.478593e+01    8.141933e-01
  2.481768e+01    8.150886e-01
  2.484943e+01    8.085290e-01
  2.488118e+01    8.245139e-01
  2.491293e+01    8.122521e-01
  2.494468e+01    7.974779e-01
  2.497643e+01    8.036422e-01
  2.500819e+01    8.061674e-01
  2.503994e+01    7.945558e-01
  2.507169e+01    8.249411e-01
  2.510344e+01    8.010368e-01
  2.513519e+01    8.116535e-01
  2.516694e+01    8.569196e-01
  2.519869e+01    8.403176e-01
  2.523044e+01    8.696883e-01
  2.526219e+01    8.565348e-01
  2.529395e+01    8.534325e-01
  2.532570e+01    8.886777e-01
  2.535745e+01    9.005495e-01
  2.538920e+01    9.015726e-01
  2.542095e+01    9.249077e-01
  2.545270e+01    9.531992e-01
  2.548445e+01    9.746146e-01
  2.551620e+01    9.809359e-01
  2.554795e+01    1.041225e+00
  2.557971e+01    1.061635e+00
  2.561146e+01    1.107013e+00
  2.564321e+01    1.169418e+00
  2.567496e+01    1.275041e+00
  2.570671e+01    1.396809e+00
  2.573846e+01    1.627140e+00
  2.577021e+01    1.842200e+00
  2.580196e+01    2.258711e+00
  2.583371e+01    2.828651e+00
  2.586547e+01    3.729655e+00
  2.589722e+01    4.942747e+00
  2.592897e+01    6.457380e+00
  2.596072e+01    7.966308e+00
  2.599247e+01    8.966774e+00
  2.602422e+01    8.641138e+00
  2.605597e+01    7.157241e+00
  2.608772e+01    5.340148e+00
  2.611948e+01    3.946766e+00
  2.615123e+01    2.933806e+00
  2.618298e+01    2.310250e+00
  2.621473e+01    1.944525e+00
  2.624648e+01    1.616340e+00
  2.627823e+01    1.469898e+00
  2.630998e+01    1.304268e+00
  2.634173e+01    1.212357e+00
  2.637348e+01    1.145711e+00
  2.640524e+01    1.098565e+00
  2.643699e+01    1.071286e+00
  2.646874e+01    1.026328e+00
  2.650049e+01    9.923697e-01
  2.653224e+01    9.842367e-01
  2.656399e+01    9.719927e-01
  2.659574e+01    9.219564e-01
  2.662749e+01    9.565961e-01
  2.665924e+01    9.257599e-01
  2.669100e+01    9.421865e-01
  2.672275e+01    9.204223e-01
  2.675450e+01    8.920512e-01
  2.678625e+01    9.194162e-01
  2.681800e+01    9.234948e-01
  2.684975e+01    9.247774e-01
  2.688150e+01    9.358331e-01
  2.691325e+01    9.423247e-01
  2.694501e+01    9.587054e-01
  2.697676e+01    9.946219e-01
  2.700851e+01    1.005695e+00
  2.704026e+01    1.084754e+00
  2.707201e+01    1.132810e+00
  2.710376e+01    1.263179e+00
  2.713551e+01    1.456875e+00
  2.716726e+01    1.751009e+00
  2.719901e+01    2.068268e+00
  2.723077e+01    2.409218e+00
  2.726252e+01    2.530843e+00
  2.729427e+01    2.420383e+00
  2.732602e+01    2.080657e+00
  2.735777e+01    1.703549e+00
  2.738952e+01    1.452031e+00
  2.742127e+01    1.266335e+00
  2.745302e+01    1.135337e+00
  2.748477e+01    1.044832e+00
  2.751653e+01    9.965553e-01
  2.754828e+01    9.130201e-01
  2.758003e+01    9.405945e-01
  2.761178e+01    8.982404e-01
  2.764353e+01    8.824231e-01
  2.767528e+01    8.672605e-01
  2.770703e+01    8.768229e-01
  2.773878e+01    8.457599e-01
  2.777054e+01    8.215590e-01
  2.780229e+01    8.308389e-01
  2.783404e+01    8.207628e-01
  2.786579e+01    8.352858e-01
  2.789754e+01    8.183118e-01
  2.792929e+01    7.976197e-01
  2.796104e+01    8.230780e-01
  2.799279e+01    8.222067e-01
  2.802454e+01    8.075835e-01
  2.805630e+01    7.790482e-01
  2.808805e+01    7.776851e-01
  2.811980e+01    8.160998e-01
  2.815155e+01    8.000804e-01
  2.818330e+01    7.972860e-01
  2.821505e+01    8.078091e-01
  2.824680e+01    7.803256e-01
  2.827855e+01    7.865739e-01
  2.831030e+01    7.909029e-01
  2.834206e+01    7.630346e-01
  2.837381e+01    7.850267e-01
  2.840556e+01    7.885034e-01
  2.843731e+01    7.868335e-01
  2.846906e+01    7.594158e-01
  2.850081e+01    7.775087e-01
  2.853256e+01    7.702237e-01
  2.856431e+01    7.673767e-01
  2.859606e+01    7.604941e-01
  2.862782e+01    7.703246e-01
  2.865957e+01    7.684507e-01
  2.869132e+01    7.754130e-01
  2.872307e+01    7.490387e-01
  2.875482e+01    7.580891e-01
  2.878657e+01    7.534471e-01
  2.881832e+01    7.524747e-01
  2.885007e+01    7.610829e-01
  2.888183e+01    7.421841e-01
  2.891358e+01    7.465488e-01
  2.894533e+01    7.594813e-01
  2.897708e+01    7.697336e-01
  2.900883e+01    7.469284e-01
  2.904058e+01    7.480707e-01
  2.907233e+01    7.455220e-01
  2.910408e+01    7.383503e-01
  2.913583e+01    7.553945e-01
  2.916759e+01    7.460074e-01
  2.919934e+01    7.283560e-01
  2.923109e+01    7.373850e-01
  2.926284e+01    7.419156e-01
  2.929459e+01    7.221338e-01
  2.932634e+01    7.498354e-01
  2.935809e+01    7.655283e-01
  2.938984e+01    7.374700e-01
  2.942159e+01    7.543408e-01
  2.945335e+01    7.315982e-01
  2.948510e+01    7.407013e-01
  2.951685e+01    7.539424e-01
  2.954860e+01    7.354446e-01
  2.958035e+01    7.246324e-01
  2.961210e+01    7.275707e-01
  2.964385e+01    7.213598e-01
  2.967560e+01    7.400627e-01
  2.970736e+01    7.277489e-01
  2.973911e+01    7.433669e-01
  2.977086e+01    7.380368e-01
  2.980261e+01    7.335203e-01
  2.983436e+01    7.414907e-01
  2.986611e+01    7.300239e-01
  2.989786e+01    7.354200e-01
  2.992961e+01    7.423145e-01
  2.996136e+01    7.377927e-01
  2.999312e+01    7.419110e-01
  3.002487e+01    7.584896e-01
  3.005662e+01    7.289424e-01
  3.008837e+01    7.591938e-01
  3.012012e+01    7.493435e-01
  3.015187e+01    7.141773e-01
  3.018362e+01    7.200205e-01
  3.021537e+01    7.355875e-01
  3.024712e+01    7.269946e-01
  3.027888e+01    7.244319e-01
  3.031063e+01    7.158299e-01
  3.034238e+01    7.251641e-01
  3.037413e+01    7.495772e-01
  3.040588e+01    7.281445e-01
  3.043763e+01    7.216499e-01
  3.046938e+01    6.884245e-01
  3.050113e+01    7.264155e-01
  3.053288e+01    7.280493e-01
  3.056464e+01    7.514379e-01
  3.059639e+01    6.929889e-01
  3.062814e+01    7.116536e-01
  3.065989e+01    7.264752e-01
  3.069164e+01    7.236438e-01
  3.072339e+01    7.290919e-01
  3.075514e+01    7.132242e-01
  3.078689e+01    7.219431e-01
  3.081865e+01    7.470995e-01
  3.085040e+01    7.193206e-01
  3.088215e+01    7.227977e-01
  3.091390e+01    7.271245e-01
  3.094565e+01    7.257732e-01
  3.097740e+01    7.200829e-01
  3.100915e+01    7.290295e-01
  3.104090e+01    7.332360e-01
  3.107265e+01    7.164819e-01
  3.110441e+01    7.200335e-01
  3.113616e+01    7.394710e-01
  3.116791e+01    7.265242e-01
  3.119966e+01    7.186910e-01
  3.123141e+01    7.586221e-01
  3.126316e+01    7.367120e-01
  3.129491e+01    7.353449e-01
  3.132666e+01    7.438768e-01
  3.135841e+01    7.695878e-01
  3.139017e+01    7.421649e-01
  3.142192e+01    7.487468e-01
  3.145367e+01    7.687891e-01
  3.148542e+01    7.629449e-01
  3.151717e+01    7.730848e-01
  3.154892e+01    8.035514e-01
  3.158067e+01    7.823054e-01
  3.161242e+01    8.220094e-01
  3.164418e+01    8.400613e-01
  3.167593e+01    8.929207e-01
  3.170768e+01    9.229516e-01
  3.173943e+01    9.933883e-01
  3.177118e+01    1.088347e+00
  3.180293e+01    1.231352e+00
  3.183468e+01    1.421165e+00
  3.186643e+01    1.712341e+00
  3.189818e+01    2.106954e+00
  3.192994e+01    2.425732e+00
  3.196169e+01    2.560118e+00
  3.199344e+01    2.354904e+00
  3.202519e+01    2.080490e+00
  3.205694e+01    1.655780e+00
  3.208869e+01    1.356879e+00
  3.212044e+01    1.142190e+00
  3.215219e+01    1.000271e+00
  3.218394e+01    9.430022e-01
  3.221570e+01    9.099471e-01
  3.224745e+01    8.492558e-01
  3.227920e+01    8.245512e-01
  3.231095e+01    8.133119e-01
  3.234270e+01    7.815981e-01
  3.237445e+01    7.882300e-01
  3.240620e+01    7.764292e-01
  3.243795e+01    7.478476e-01
  3.246970e+01    7.462281e-01
  3.250146e+01    7.426609e-01
  3.253321e+01    7.132173e-01
  3.254908e+01    7.509369e-01