File: XRD/2024-07-27_002_Ru-CGO-ex_Activtation_ramp_000002_data_000185.dat
# == pyFAI calibration ==
# Distance Sample to Detector: 0.4 m
# PONI: 9.750e-02, 1.135e-01 m
# Rotations: -0.000175 0.000000 -0.000000 rad
#
# == Fit2d calibration ==
# Distance Sample-beamCenter: 400.000 mm
# Center: x=1514.000, y=1300.000 pix
# Tilt: 0.010 deg  TiltPlanRot: 0.010 deg
#
# Detector Detector	 Spline= None	 PixelSize= 7.500e-05, 7.500e-05 m
#    Detector has a mask: False
#    Detector has a dark current: False
#    detector has a flat field: False
#
# Wavelength: 6.888e-11 m
# Mask applied: user provided
# Dark current applied: False
# Flat field applied: False
# Polarization factor: 0.99
# Normalization factor: 1.0
# --> /home/myspot/data/2024_07_Rosario/Ru-CGO-ex/2024-07-27_002_Ru-CGO-ex_Activtation_ramp_000002_data_000185.dat
#       q_nm^-1             I
  2.003187e-02    0.000000e+00
  5.178302e-02    2.672067e-02
  8.353417e-02    2.592199e-03
  1.152853e-01    6.977715e-02
  1.470365e-01    6.831729e-02
  1.787876e-01    2.792086e-02
  2.105388e-01    2.784726e-02
  2.422899e-01    2.514863e-02
  2.740411e-01    1.300374e-02
  3.057922e-01    2.968315e-02
  3.375433e-01    4.256953e-02
  3.692945e-01    3.633934e-02
  4.010456e-01    2.547903e-02
  4.327968e-01    7.067900e-02
  4.645479e-01    7.012719e-02
  4.962991e-01    2.656625e-02
  5.280502e-01    2.366088e-02
  5.598014e-01    4.505271e-02
  5.915525e-01    3.838755e-02
  6.233037e-01    3.479370e-02
  6.550548e-01    1.921696e-02
  6.868060e-01    4.378666e-02
  7.185571e-01    3.237153e-02
  7.503083e-01    4.639823e-02
  7.820594e-01    1.045544e-01
  8.138106e-01    1.799677e-01
  8.455617e-01    2.647194e-01
  8.773129e-01    3.946640e-01
  9.090640e-01    5.572639e-01
  9.408152e-01    7.347980e-01
  9.725663e-01    9.901409e-01
  1.004317e+00    1.067753e+00
  1.036069e+00    1.132969e+00
  1.067820e+00    1.182984e+00
  1.099571e+00    1.255551e+00
  1.131322e+00    1.430273e+00
  1.163073e+00    1.524543e+00
  1.194824e+00    1.632556e+00
  1.226575e+00    2.029586e+00
  1.258327e+00    2.253903e+00
  1.290078e+00    2.482141e+00
  1.321829e+00    2.538095e+00
  1.353580e+00    2.379317e+00
  1.385331e+00    2.368958e+00
  1.417082e+00    2.565006e+00
  1.448834e+00    2.614603e+00
  1.480585e+00    2.817498e+00
  1.512336e+00    2.792632e+00
  1.544087e+00    2.795740e+00
  1.575838e+00    2.918667e+00
  1.607589e+00    2.815522e+00
  1.639340e+00    2.788564e+00
  1.671092e+00    2.827201e+00
  1.702843e+00    2.715498e+00
  1.734594e+00    2.782800e+00
  1.766345e+00    2.693644e+00
  1.798096e+00    2.697829e+00
  1.829847e+00    2.735134e+00
  1.861598e+00    2.676555e+00
  1.893350e+00    2.774338e+00
  1.925101e+00    2.787538e+00
  1.956852e+00    2.757704e+00
  1.988603e+00    2.728056e+00
  2.020354e+00    2.635653e+00
  2.052105e+00    2.748367e+00
  2.083856e+00    2.712671e+00
  2.115608e+00    2.715229e+00
  2.147359e+00    2.754753e+00
  2.179110e+00    2.651011e+00
  2.210861e+00    2.664416e+00
  2.242612e+00    2.779146e+00
  2.274363e+00    2.658108e+00
  2.306115e+00    2.717958e+00
  2.337866e+00    2.704963e+00
  2.369617e+00    2.760377e+00
  2.401368e+00    2.772637e+00
  2.433119e+00    2.755254e+00
  2.464870e+00    2.735183e+00
  2.496621e+00    2.722432e+00
  2.528373e+00    2.704758e+00
  2.560124e+00    2.777585e+00
  2.591875e+00    2.859535e+00
  2.623626e+00    2.686954e+00
  2.655377e+00    2.817468e+00
  2.687128e+00    2.873099e+00
  2.718879e+00    2.712692e+00
  2.750631e+00    2.805668e+00
  2.782382e+00    2.773378e+00
  2.814133e+00    2.868554e+00
  2.845884e+00    2.851382e+00
  2.877635e+00    2.797519e+00
  2.909386e+00    2.742272e+00
  2.941137e+00    2.971182e+00
  2.972889e+00    2.866168e+00
  3.004640e+00    2.829559e+00
  3.036391e+00    2.854304e+00
  3.068142e+00    2.844908e+00
  3.099893e+00    2.823603e+00
  3.131644e+00    2.918492e+00
  3.163395e+00    2.896458e+00
  3.195147e+00    2.970109e+00
  3.226898e+00    2.880539e+00
  3.258649e+00    2.910694e+00
  3.290400e+00    2.892277e+00
  3.322151e+00    3.010384e+00
  3.353902e+00    2.947864e+00
  3.385654e+00    2.927121e+00
  3.417405e+00    2.900691e+00
  3.449156e+00    2.941280e+00
  3.480907e+00    2.899725e+00
  3.512658e+00    3.021912e+00
  3.544409e+00    2.916077e+00
  3.576160e+00    2.989776e+00
  3.607912e+00    3.018756e+00
  3.639663e+00    2.943837e+00
  3.671414e+00    2.995379e+00
  3.703165e+00    3.013292e+00
  3.734916e+00    2.990998e+00
  3.766667e+00    2.990816e+00
  3.798418e+00    3.004908e+00
  3.830170e+00    3.018255e+00
  3.861921e+00    2.970963e+00
  3.893672e+00    3.038616e+00
  3.925423e+00    3.129074e+00
  3.957174e+00    3.043106e+00
  3.988925e+00    2.934761e+00
  4.020676e+00    2.977142e+00
  4.052428e+00    3.073743e+00
  4.084179e+00    3.049453e+00
  4.115930e+00    3.112157e+00
  4.147681e+00    2.902378e+00
  4.179432e+00    3.048344e+00
  4.211183e+00    3.021818e+00
  4.242935e+00    3.080548e+00
  4.274686e+00    3.075843e+00
  4.306437e+00    3.069055e+00
  4.338188e+00    3.106879e+00
  4.369939e+00    3.006272e+00
  4.401690e+00    3.170405e+00
  4.433441e+00    3.070046e+00
  4.465193e+00    3.066588e+00
  4.496944e+00    3.064520e+00
  4.528695e+00    3.087193e+00
  4.560446e+00    3.089140e+00
  4.592197e+00    3.074730e+00
  4.623948e+00    3.086127e+00
  4.655699e+00    3.142858e+00
  4.687451e+00    3.127138e+00
  4.719202e+00    3.061876e+00
  4.750953e+00    3.171842e+00
  4.782704e+00    3.041256e+00
  4.814455e+00    3.135791e+00
  4.846206e+00    3.125682e+00
  4.877957e+00    3.113809e+00
  4.909709e+00    3.140113e+00
  4.941460e+00    3.142536e+00
  4.973211e+00    3.140791e+00
  5.004962e+00    3.189519e+00
  5.036713e+00    3.060908e+00
  5.068464e+00    3.125875e+00
  5.100216e+00    3.123120e+00
  5.131967e+00    3.117385e+00
  5.163718e+00    3.141102e+00
  5.195469e+00    3.056014e+00
  5.227220e+00    3.141647e+00
  5.258971e+00    3.139663e+00
  5.290722e+00    3.078832e+00
  5.322474e+00    3.125991e+00
  5.354225e+00    3.150374e+00
  5.385976e+00    3.103357e+00
  5.417727e+00    3.049943e+00
  5.449478e+00    2.996660e+00
  5.481229e+00    3.113837e+00
  5.512980e+00    3.099360e+00
  5.544732e+00    3.094186e+00
  5.576483e+00    3.105694e+00
  5.608234e+00    3.052982e+00
  5.639985e+00    3.114169e+00
  5.671736e+00    3.070482e+00
  5.703487e+00    3.063615e+00
  5.735238e+00    3.063545e+00
  5.766990e+00    3.053513e+00
  5.798741e+00    3.071587e+00
  5.830492e+00    3.082733e+00
  5.862243e+00    2.982742e+00
  5.893994e+00    3.068029e+00
  5.925745e+00    3.031252e+00
  5.957497e+00    2.991125e+00
  5.989248e+00    3.016294e+00
  6.020999e+00    3.015118e+00
  6.052750e+00    3.074246e+00
  6.084501e+00    3.112492e+00
  6.116252e+00    3.109840e+00
  6.148003e+00    3.090115e+00
  6.179755e+00    3.065888e+00
  6.211506e+00    3.076414e+00
  6.243257e+00    3.055068e+00
  6.275008e+00    3.053041e+00
  6.306759e+00    3.044504e+00
  6.338510e+00    3.033911e+00
  6.370261e+00    3.003809e+00
  6.402013e+00    3.094063e+00
  6.433764e+00    3.072842e+00
  6.465515e+00    3.088577e+00
  6.497266e+00    3.074440e+00
  6.529017e+00    3.118663e+00
  6.560768e+00    3.035105e+00
  6.592519e+00    3.100452e+00
  6.624271e+00    3.035561e+00
  6.656022e+00    2.996116e+00
  6.687773e+00    3.014054e+00
  6.719524e+00    3.015631e+00
  6.751275e+00    2.997973e+00
  6.783026e+00    3.033764e+00
  6.814777e+00    3.042970e+00
  6.846529e+00    3.047237e+00
  6.878280e+00    3.061599e+00
  6.910031e+00    3.011865e+00
  6.941782e+00    2.966914e+00
  6.973533e+00    3.061614e+00
  7.005284e+00    2.998855e+00
  7.037036e+00    3.058940e+00
  7.068787e+00    3.065461e+00
  7.100538e+00    3.045614e+00
  7.132289e+00    3.059339e+00
  7.164040e+00    3.066637e+00
  7.195791e+00    3.052624e+00
  7.227542e+00    2.978084e+00
  7.259294e+00    3.051838e+00
  7.291045e+00    2.943605e+00
  7.322796e+00    3.033243e+00
  7.354547e+00    3.072021e+00
  7.386298e+00    3.023029e+00
  7.418049e+00    2.908851e+00
  7.449800e+00    3.041014e+00
  7.481552e+00    2.914510e+00
  7.513303e+00    3.020143e+00
  7.545054e+00    2.992633e+00
  7.576805e+00    2.984363e+00
  7.608556e+00    2.990675e+00
  7.640307e+00    2.955807e+00
  7.672058e+00    2.958622e+00
  7.703810e+00    2.948734e+00
  7.735561e+00    3.019545e+00
  7.767312e+00    2.957945e+00
  7.799063e+00    3.033459e+00
  7.830814e+00    2.967433e+00
  7.862565e+00    2.948316e+00
  7.894317e+00    2.985931e+00
  7.926068e+00    2.889272e+00
  7.957819e+00    2.984353e+00
  7.989570e+00    2.933420e+00
  8.021321e+00    2.934075e+00
  8.053072e+00    2.886744e+00
  8.084823e+00    2.916808e+00
  8.116575e+00    2.914351e+00
  8.148326e+00    2.910349e+00
  8.180077e+00    2.955934e+00
  8.211828e+00    2.949198e+00
  8.243579e+00    2.994146e+00
  8.275330e+00    3.000163e+00
  8.307081e+00    2.970917e+00
  8.338833e+00    2.865635e+00
  8.370584e+00    2.963403e+00
  8.402335e+00    2.877794e+00
  8.434086e+00    2.880351e+00
  8.465837e+00    2.902044e+00
  8.497588e+00    2.875216e+00
  8.529339e+00    2.907660e+00
  8.561091e+00    2.888707e+00
  8.592842e+00    2.869862e+00
  8.624593e+00    2.883844e+00
  8.656344e+00    2.851050e+00
  8.688095e+00    2.969067e+00
  8.719846e+00    2.886793e+00
  8.751598e+00    2.790070e+00
  8.783349e+00    2.811719e+00
  8.815100e+00    2.849844e+00
  8.846851e+00    2.807685e+00
  8.878602e+00    2.929058e+00
  8.910353e+00    2.829527e+00
  8.942104e+00    2.858348e+00
  8.973856e+00    2.868831e+00
  9.005607e+00    2.804530e+00
  9.037358e+00    2.800871e+00
  9.069109e+00    2.806716e+00
  9.100860e+00    2.813269e+00
  9.132611e+00    2.835164e+00
  9.164362e+00    2.797211e+00
  9.196114e+00    2.760819e+00
  9.227865e+00    2.808044e+00
  9.259616e+00    2.811026e+00
  9.291367e+00    2.810928e+00
  9.323118e+00    2.731297e+00
  9.354869e+00    2.730840e+00
  9.386620e+00    2.842453e+00
  9.418372e+00    2.742818e+00
  9.450123e+00    2.755183e+00
  9.481874e+00    2.793528e+00
  9.513625e+00    2.779290e+00
  9.545376e+00    2.764064e+00
  9.577127e+00    2.776508e+00
  9.608878e+00    2.799982e+00
  9.640630e+00    2.689277e+00
  9.672381e+00    2.744577e+00
  9.704132e+00    2.812588e+00
  9.735883e+00    2.692483e+00
  9.767634e+00    2.708342e+00
  9.799385e+00    2.720100e+00
  9.831137e+00    2.693351e+00
  9.862888e+00    2.680188e+00
  9.894639e+00    2.700878e+00
  9.926390e+00    2.706977e+00
  9.958141e+00    2.688735e+00
  9.989892e+00    2.655992e+00
  1.002164e+01    2.735021e+00
  1.005339e+01    2.665516e+00
  1.008515e+01    2.699147e+00
  1.011690e+01    2.664962e+00
  1.014865e+01    2.659168e+00
  1.018040e+01    2.707457e+00
  1.021215e+01    2.675912e+00
  1.024390e+01    2.626280e+00
  1.027565e+01    2.581616e+00
  1.030740e+01    2.626526e+00
  1.033915e+01    2.654640e+00
  1.037091e+01    2.585314e+00
  1.040266e+01    2.607245e+00
  1.043441e+01    2.560603e+00
  1.046616e+01    2.628832e+00
  1.049791e+01    2.614657e+00
  1.052966e+01    2.632090e+00
  1.056141e+01    2.545144e+00
  1.059316e+01    2.611979e+00
  1.062492e+01    2.593340e+00
  1.065667e+01    2.593205e+00
  1.068842e+01    2.594667e+00
  1.072017e+01    2.563415e+00
  1.075192e+01    2.568374e+00
  1.078367e+01    2.548598e+00
  1.081542e+01    2.539597e+00
  1.084717e+01    2.494869e+00
  1.087892e+01    2.565924e+00
  1.091068e+01    2.539290e+00
  1.094243e+01    2.525796e+00
  1.097418e+01    2.519684e+00
  1.100593e+01    2.518164e+00
  1.103768e+01    2.485399e+00
  1.106943e+01    2.475194e+00
  1.110118e+01    2.465912e+00
  1.113293e+01    2.483739e+00
  1.116468e+01    2.455127e+00
  1.119644e+01    2.451225e+00
  1.122819e+01    2.447293e+00
  1.125994e+01    2.411847e+00
  1.129169e+01    2.408880e+00
  1.132344e+01    2.431549e+00
  1.135519e+01    2.457890e+00
  1.138694e+01    2.402019e+00
  1.141869e+01    2.423052e+00
  1.145045e+01    2.407148e+00
  1.148220e+01    2.424035e+00
  1.151395e+01    2.375607e+00
  1.154570e+01    2.421499e+00
  1.157745e+01    2.350129e+00
  1.160920e+01    2.415957e+00
  1.164095e+01    2.399492e+00
  1.167270e+01    2.395980e+00
  1.170445e+01    2.367994e+00
  1.173621e+01    2.373620e+00
  1.176796e+01    2.363814e+00
  1.179971e+01    2.313441e+00
  1.183146e+01    2.323956e+00
  1.186321e+01    2.386773e+00
  1.189496e+01    2.353571e+00
  1.192671e+01    2.340187e+00
  1.195846e+01    2.372154e+00
  1.199021e+01    2.351260e+00
  1.202197e+01    2.355190e+00
  1.205372e+01    2.346184e+00
  1.208547e+01    2.328604e+00
  1.211722e+01    2.319007e+00
  1.214897e+01    2.334094e+00
  1.218072e+01    2.367084e+00
  1.221247e+01    2.301290e+00
  1.224422e+01    2.340345e+00
  1.227597e+01    2.294592e+00
  1.230773e+01    2.314548e+00
  1.233948e+01    2.349554e+00
  1.237123e+01    2.362182e+00
  1.240298e+01    2.321189e+00
  1.243473e+01    2.319094e+00
  1.246648e+01    2.358153e+00
  1.249823e+01    2.352510e+00
  1.252998e+01    2.330579e+00
  1.256174e+01    2.360128e+00
  1.259349e+01    2.437312e+00
  1.262524e+01    2.409413e+00
  1.265699e+01    2.451927e+00
  1.268874e+01    2.450115e+00
  1.272049e+01    2.515241e+00
  1.275224e+01    2.587974e+00
  1.278399e+01    2.579243e+00
  1.281574e+01    2.707087e+00
  1.284750e+01    2.827564e+00
  1.287925e+01    3.029650e+00
  1.291100e+01    3.324912e+00
  1.294275e+01    3.729821e+00
  1.297450e+01    4.311194e+00
  1.300625e+01    5.319812e+00
  1.303800e+01    6.985518e+00
  1.306975e+01    9.368871e+00
  1.310150e+01    1.183045e+01
  1.313326e+01    1.388412e+01
  1.316501e+01    1.542712e+01
  1.319676e+01    1.518997e+01
  1.322851e+01    1.226156e+01
  1.326026e+01    8.771879e+00
  1.329201e+01    6.385953e+00
  1.332376e+01    5.005458e+00
  1.335551e+01    4.039466e+00
  1.338727e+01    3.473617e+00
  1.341902e+01    3.141748e+00
  1.345077e+01    2.869390e+00
  1.348252e+01    2.702142e+00
  1.351427e+01    2.566511e+00
  1.354602e+01    2.437967e+00
  1.357777e+01    2.370745e+00
  1.360952e+01    2.338289e+00
  1.364127e+01    2.302750e+00
  1.367303e+01    2.251796e+00
  1.370478e+01    2.195341e+00
  1.373653e+01    2.199270e+00
  1.376828e+01    2.196758e+00
  1.380003e+01    2.124481e+00
  1.383178e+01    2.137667e+00
  1.386353e+01    2.127516e+00
  1.389528e+01    2.108363e+00
  1.392703e+01    2.097666e+00
  1.395879e+01    2.110997e+00
  1.399054e+01    2.067183e+00
  1.402229e+01    2.056726e+00
  1.405404e+01    2.049766e+00
  1.408579e+01    1.997901e+00
  1.411754e+01    1.995208e+00
  1.414929e+01    2.006568e+00
  1.418104e+01    1.945828e+00
  1.421279e+01    1.995450e+00
  1.424455e+01    1.977853e+00
  1.427630e+01    1.976969e+00
  1.430805e+01    1.955295e+00
  1.433980e+01    1.972126e+00
  1.437155e+01    1.941249e+00
  1.440330e+01    1.940979e+00
  1.443505e+01    1.930743e+00
  1.446680e+01    1.955738e+00
  1.449856e+01    1.959162e+00
  1.453031e+01    1.956506e+00
  1.456206e+01    1.906606e+00
  1.459381e+01    1.911203e+00
  1.462556e+01    1.911382e+00
  1.465731e+01    1.900737e+00
  1.468906e+01    1.896098e+00
  1.472081e+01    1.930376e+00
  1.475256e+01    1.929121e+00
  1.478432e+01    1.930120e+00
  1.481607e+01    1.913448e+00
  1.484782e+01    1.950077e+00
  1.487957e+01    1.934001e+00
  1.491132e+01    1.956384e+00
  1.494307e+01    2.036496e+00
  1.497482e+01    2.082994e+00
  1.500657e+01    2.141483e+00
  1.503832e+01    2.281877e+00
  1.507008e+01    2.544054e+00
  1.510183e+01    2.847676e+00
  1.513358e+01    3.399660e+00
  1.516533e+01    4.094334e+00
  1.519708e+01    4.702552e+00
  1.522883e+01    5.236770e+00
  1.526058e+01    5.486874e+00
  1.529233e+01    5.211811e+00
  1.532409e+01    4.441824e+00
  1.535584e+01    3.554136e+00
  1.538759e+01    2.910819e+00
  1.541934e+01    2.473441e+00
  1.545109e+01    2.234050e+00
  1.548284e+01    2.067128e+00
  1.551459e+01    1.965272e+00
  1.554634e+01    1.925007e+00
  1.557809e+01    1.809157e+00
  1.560985e+01    1.820095e+00
  1.564160e+01    1.797546e+00
  1.567335e+01    1.761136e+00
  1.570510e+01    1.758083e+00
  1.573685e+01    1.701016e+00
  1.576860e+01    1.685431e+00
  1.580035e+01    1.683526e+00
  1.583210e+01    1.671048e+00
  1.586385e+01    1.627885e+00
  1.589561e+01    1.637564e+00
  1.592736e+01    1.639734e+00
  1.595911e+01    1.627027e+00
  1.599086e+01    1.608638e+00
  1.602261e+01    1.568647e+00
  1.605436e+01    1.633377e+00
  1.608611e+01    1.585943e+00
  1.611786e+01    1.576773e+00
  1.614961e+01    1.570611e+00
  1.618137e+01    1.567332e+00
  1.621312e+01    1.569852e+00
  1.624487e+01    1.554304e+00
  1.627662e+01    1.576312e+00
  1.630837e+01    1.576865e+00
  1.634012e+01    1.545840e+00
  1.637187e+01    1.516532e+00
  1.640362e+01    1.540667e+00
  1.643538e+01    1.542109e+00
  1.646713e+01    1.539021e+00
  1.649888e+01    1.497999e+00
  1.653063e+01    1.515539e+00
  1.656238e+01    1.533279e+00
  1.659413e+01    1.514449e+00
  1.662588e+01    1.487321e+00
  1.665763e+01    1.494803e+00
  1.668938e+01    1.487492e+00
  1.672114e+01    1.463839e+00
  1.675289e+01    1.505242e+00
  1.678464e+01    1.460992e+00
  1.681639e+01    1.443193e+00
  1.684814e+01    1.518097e+00
  1.687989e+01    1.495469e+00
  1.691164e+01    1.496457e+00
  1.694339e+01    1.459117e+00
  1.697514e+01    1.447575e+00
  1.700690e+01    1.444839e+00
  1.703865e+01    1.444867e+00
  1.707040e+01    1.400594e+00
  1.710215e+01    1.430204e+00
  1.713390e+01    1.424271e+00
  1.716565e+01    1.441969e+00
  1.719740e+01    1.414598e+00
  1.722915e+01    1.382732e+00
  1.726091e+01    1.427834e+00
  1.729266e+01    1.414008e+00
  1.732441e+01    1.370770e+00
  1.735616e+01    1.374574e+00
  1.738791e+01    1.368593e+00
  1.741966e+01    1.382713e+00
  1.745141e+01    1.389247e+00
  1.748316e+01    1.369059e+00
  1.751491e+01    1.345037e+00
  1.754667e+01    1.342232e+00
  1.757842e+01    1.350447e+00
  1.761017e+01    1.381157e+00
  1.764192e+01    1.348003e+00
  1.767367e+01    1.343351e+00
  1.770542e+01    1.357269e+00
  1.773717e+01    1.367265e+00
  1.776892e+01    1.353233e+00
  1.780067e+01    1.339761e+00
  1.783243e+01    1.319779e+00
  1.786418e+01    1.328794e+00
  1.789593e+01    1.330119e+00
  1.792768e+01    1.293086e+00
  1.795943e+01    1.310189e+00
  1.799118e+01    1.301906e+00
  1.802293e+01    1.310107e+00
  1.805468e+01    1.309481e+00
  1.808643e+01    1.277060e+00
  1.811819e+01    1.270051e+00
  1.814994e+01    1.286030e+00
  1.818169e+01    1.289580e+00
  1.821344e+01    1.268700e+00
  1.824519e+01    1.265438e+00
  1.827694e+01    1.299837e+00
  1.830869e+01    1.257603e+00
  1.834044e+01    1.248884e+00
  1.837220e+01    1.296190e+00
  1.840395e+01    1.246152e+00
  1.843570e+01    1.253912e+00
  1.846745e+01    1.273161e+00
  1.849920e+01    1.233836e+00
  1.853095e+01    1.256805e+00
  1.856270e+01    1.227597e+00
  1.859445e+01    1.224894e+00
  1.862620e+01    1.259294e+00
  1.865796e+01    1.215780e+00
  1.868971e+01    1.215299e+00
  1.872146e+01    1.215094e+00
  1.875321e+01    1.220506e+00
  1.878496e+01    1.242168e+00
  1.881671e+01    1.224972e+00
  1.884846e+01    1.218738e+00
  1.888021e+01    1.190668e+00
  1.891196e+01    1.222783e+00
  1.894372e+01    1.209005e+00
  1.897547e+01    1.166046e+00
  1.900722e+01    1.192434e+00
  1.903897e+01    1.206106e+00
  1.907072e+01    1.191341e+00
  1.910247e+01    1.186205e+00
  1.913422e+01    1.187765e+00
  1.916597e+01    1.163924e+00
  1.919773e+01    1.192875e+00
  1.922948e+01    1.180177e+00
  1.926123e+01    1.167154e+00
  1.929298e+01    1.189645e+00
  1.932473e+01    1.190804e+00
  1.935648e+01    1.175429e+00
  1.938823e+01    1.165451e+00
  1.941998e+01    1.194578e+00
  1.945173e+01    1.173229e+00
  1.948349e+01    1.156226e+00
  1.951524e+01    1.158778e+00
  1.954699e+01    1.154067e+00
  1.957874e+01    1.145757e+00
  1.961049e+01    1.135313e+00
  1.964224e+01    1.139309e+00
  1.967399e+01    1.099290e+00
  1.970574e+01    1.124903e+00
  1.973749e+01    1.152380e+00
  1.976925e+01    1.130552e+00
  1.980100e+01    1.142479e+00
  1.983275e+01    1.158002e+00
  1.986450e+01    1.133129e+00
  1.989625e+01    1.127277e+00
  1.992800e+01    1.142860e+00
  1.995975e+01    1.123288e+00
  1.999150e+01    1.118466e+00
  2.002325e+01    1.104939e+00
  2.005501e+01    1.116858e+00
  2.008676e+01    1.119413e+00
  2.011851e+01    1.111560e+00
  2.015026e+01    1.110502e+00
  2.018201e+01    1.106815e+00
  2.021376e+01    1.096820e+00
  2.024551e+01    1.077767e+00
  2.027726e+01    1.102803e+00
  2.030902e+01    1.085352e+00
  2.034077e+01    1.103175e+00
  2.037252e+01    1.074027e+00
  2.040427e+01    1.100200e+00
  2.043602e+01    1.103325e+00
  2.046777e+01    1.078332e+00
  2.049952e+01    1.076764e+00
  2.053127e+01    1.065038e+00
  2.056302e+01    1.077543e+00
  2.059478e+01    1.086264e+00
  2.062653e+01    1.067229e+00
  2.065828e+01    1.069573e+00
  2.069003e+01    1.062653e+00
  2.072178e+01    1.081913e+00
  2.075353e+01    1.082708e+00
  2.078528e+01    1.072332e+00
  2.081703e+01    1.087890e+00
  2.084878e+01    1.077798e+00
  2.088054e+01    1.066173e+00
  2.091229e+01    1.091473e+00
  2.094404e+01    1.075042e+00
  2.097579e+01    1.092617e+00
  2.100754e+01    1.058730e+00
  2.103929e+01    1.065627e+00
  2.107104e+01    1.073722e+00
  2.110279e+01    1.085125e+00
  2.113455e+01    1.068857e+00
  2.116630e+01    1.066658e+00
  2.119805e+01    1.120044e+00
  2.122980e+01    1.117299e+00
  2.126155e+01    1.102404e+00
  2.129330e+01    1.101637e+00
  2.132505e+01    1.141341e+00
  2.135680e+01    1.156740e+00
  2.138855e+01    1.173537e+00
  2.142031e+01    1.172980e+00
  2.145206e+01    1.215157e+00
  2.148381e+01    1.221362e+00
  2.151556e+01    1.294733e+00
  2.154731e+01    1.356716e+00
  2.157906e+01    1.467857e+00
  2.161081e+01    1.596463e+00
  2.164256e+01    1.807308e+00
  2.167431e+01    2.080596e+00
  2.170607e+01    2.554607e+00
  2.173782e+01    3.243185e+00
  2.176957e+01    4.287656e+00
  2.180132e+01    5.475272e+00
  2.183307e+01    6.808212e+00
  2.186482e+01    8.083989e+00
  2.189657e+01    8.685997e+00
  2.192832e+01    8.172411e+00
  2.196007e+01    6.482535e+00
  2.199183e+01    4.751581e+00
  2.202358e+01    3.483225e+00
  2.205533e+01    2.636355e+00
  2.208708e+01    2.160681e+00
  2.211883e+01    1.839262e+00
  2.215058e+01    1.602392e+00
  2.218233e+01    1.468338e+00
  2.221408e+01    1.338543e+00
  2.224584e+01    1.247152e+00
  2.227759e+01    1.215606e+00
  2.230934e+01    1.139822e+00
  2.234109e+01    1.117907e+00
  2.237284e+01    1.093486e+00
  2.240459e+01    1.052197e+00
  2.243634e+01    1.037695e+00
  2.246809e+01    1.015908e+00
  2.249984e+01    1.037078e+00
  2.253160e+01    9.851974e-01
  2.256335e+01    9.880148e-01
  2.259510e+01    9.727120e-01
  2.262685e+01    9.588889e-01
  2.265860e+01    9.474065e-01
  2.269035e+01    9.623679e-01
  2.272210e+01    9.408267e-01
  2.275385e+01    9.069947e-01
  2.278560e+01    9.266941e-01
  2.281736e+01    9.294849e-01
  2.284911e+01    9.311882e-01
  2.288086e+01    9.260194e-01
  2.291261e+01    9.055789e-01
  2.294436e+01    9.029611e-01
  2.297611e+01    8.971232e-01
  2.300786e+01    8.909123e-01
  2.303961e+01    9.118848e-01
  2.307137e+01    9.001321e-01
  2.310312e+01    8.920016e-01
  2.313487e+01    8.718477e-01
  2.316662e+01    8.586917e-01
  2.319837e+01    8.745651e-01
  2.323012e+01    8.639655e-01
  2.326187e+01    8.792999e-01
  2.329362e+01    8.497749e-01
  2.332537e+01    8.487059e-01
  2.335713e+01    8.745764e-01
  2.338888e+01    8.640982e-01
  2.342063e+01    8.511844e-01
  2.345238e+01    8.417000e-01
  2.348413e+01    8.420942e-01
  2.351588e+01    8.570285e-01
  2.354763e+01    8.299654e-01
  2.357938e+01    8.407679e-01
  2.361113e+01    8.631104e-01
  2.364289e+01    8.238611e-01
  2.367464e+01    8.365537e-01
  2.370639e+01    8.291385e-01
  2.373814e+01    8.142818e-01
  2.376989e+01    8.105933e-01
  2.380164e+01    8.071359e-01
  2.383339e+01    8.185740e-01
  2.386514e+01    8.081303e-01
  2.389689e+01    8.134834e-01
  2.392865e+01    7.997963e-01
  2.396040e+01    7.961366e-01
  2.399215e+01    7.964776e-01
  2.402390e+01    7.778957e-01
  2.405565e+01    7.991861e-01
  2.408740e+01    7.679252e-01
  2.411915e+01    7.669000e-01
  2.415090e+01    7.730607e-01
  2.418266e+01    7.858974e-01
  2.421441e+01    7.619053e-01
  2.424616e+01    7.624987e-01
  2.427791e+01    8.011901e-01
  2.430966e+01    7.897322e-01
  2.434141e+01    7.805933e-01
  2.437316e+01    7.963345e-01
  2.440491e+01    7.873646e-01
  2.443666e+01    7.846465e-01
  2.446842e+01    7.817098e-01
  2.450017e+01    7.970127e-01
  2.453192e+01    7.777368e-01
  2.456367e+01    8.009065e-01
  2.459542e+01    7.911280e-01
  2.462717e+01    7.841855e-01
  2.465892e+01    7.746747e-01
  2.469067e+01    7.952308e-01
  2.472242e+01    7.695396e-01
  2.475418e+01    7.695980e-01
  2.478593e+01    7.903614e-01
  2.481768e+01    7.857283e-01
  2.484943e+01    7.819613e-01
  2.488118e+01    7.838688e-01
  2.491293e+01    7.946131e-01
  2.494468e+01    7.969040e-01
  2.497643e+01    7.996960e-01
  2.500819e+01    7.915776e-01
  2.503994e+01    7.957528e-01
  2.507169e+01    8.086221e-01
  2.510344e+01    8.121898e-01
  2.513519e+01    8.048203e-01
  2.516694e+01    8.076618e-01
  2.519869e+01    8.574079e-01
  2.523044e+01    8.473492e-01
  2.526219e+01    8.249100e-01
  2.529395e+01    8.581972e-01
  2.532570e+01    8.902189e-01
  2.535745e+01    8.739066e-01
  2.538920e+01    8.815421e-01
  2.542095e+01    8.934183e-01
  2.545270e+01    9.378332e-01
  2.548445e+01    9.511524e-01
  2.551620e+01    9.767631e-01
  2.554795e+01    1.017213e+00
  2.557971e+01    1.060066e+00
  2.561146e+01    1.132441e+00
  2.564321e+01    1.206604e+00
  2.567496e+01    1.323669e+00
  2.570671e+01    1.495471e+00
  2.573846e+01    1.717686e+00
  2.577021e+01    2.096087e+00
  2.580196e+01    2.647678e+00
  2.583371e+01    3.408994e+00
  2.586547e+01    4.432467e+00
  2.589722e+01    5.526173e+00
  2.592897e+01    6.643870e+00
  2.596072e+01    7.057984e+00
  2.599247e+01    6.571747e+00
  2.602422e+01    5.335844e+00
  2.605597e+01    3.936555e+00
  2.608772e+01    2.946414e+00
  2.611948e+01    2.286635e+00
  2.615123e+01    1.862880e+00
  2.618298e+01    1.572639e+00
  2.621473e+01    1.378839e+00
  2.624648e+01    1.261468e+00
  2.627823e+01    1.162140e+00
  2.630998e+01    1.082331e+00
  2.634173e+01    1.017515e+00
  2.637348e+01    9.913707e-01
  2.640524e+01    9.502129e-01
  2.643699e+01    9.129941e-01
  2.646874e+01    9.245164e-01
  2.650049e+01    9.144006e-01
  2.653224e+01    8.904648e-01
  2.656399e+01    8.879517e-01
  2.659574e+01    8.714557e-01
  2.662749e+01    8.924214e-01
  2.665924e+01    8.579178e-01
  2.669100e+01    8.604758e-01
  2.672275e+01    8.712313e-01
  2.675450e+01    8.981848e-01
  2.678625e+01    8.571681e-01
  2.681800e+01    8.909749e-01
  2.684975e+01    8.707961e-01
  2.688150e+01    8.954160e-01
  2.691325e+01    8.924313e-01
  2.694501e+01    9.351794e-01
  2.697676e+01    9.646101e-01
  2.700851e+01    1.009149e+00
  2.704026e+01    1.106619e+00
  2.707201e+01    1.224107e+00
  2.710376e+01    1.392093e+00
  2.713551e+01    1.616370e+00
  2.716726e+01    1.870495e+00
  2.719901e+01    2.068649e+00
  2.723077e+01    2.100890e+00
  2.726252e+01    1.932417e+00
  2.729427e+01    1.640692e+00
  2.732602e+01    1.363384e+00
  2.735777e+01    1.218664e+00
  2.738952e+01    1.088577e+00
  2.742127e+01    1.006301e+00
  2.745302e+01    9.572474e-01
  2.748477e+01    9.190298e-01
  2.751653e+01    8.942203e-01
  2.754828e+01    8.630426e-01
  2.758003e+01    8.379700e-01
  2.761178e+01    8.309804e-01
  2.764353e+01    8.338197e-01
  2.767528e+01    8.129236e-01
  2.770703e+01    8.140048e-01
  2.773878e+01    8.080208e-01
  2.777054e+01    7.949828e-01
  2.780229e+01    8.051193e-01
  2.783404e+01    7.877254e-01
  2.786579e+01    7.850044e-01
  2.789754e+01    7.989529e-01
  2.792929e+01    7.740371e-01
  2.796104e+01    7.673527e-01
  2.799279e+01    7.870578e-01
  2.802454e+01    7.718482e-01
  2.805630e+01    7.668480e-01
  2.808805e+01    7.828792e-01
  2.811980e+01    7.544624e-01
  2.815155e+01    7.699339e-01
  2.818330e+01    7.683656e-01
  2.821505e+01    7.525960e-01
  2.824680e+01    7.560930e-01
  2.827855e+01    7.642811e-01
  2.831030e+01    7.600898e-01
  2.834206e+01    7.731480e-01
  2.837381e+01    7.669134e-01
  2.840556e+01    7.404397e-01
  2.843731e+01    7.405284e-01
  2.846906e+01    7.738004e-01
  2.850081e+01    7.550308e-01
  2.853256e+01    7.669672e-01
  2.856431e+01    7.504382e-01
  2.859606e+01    7.797396e-01
  2.862782e+01    7.624757e-01
  2.865957e+01    7.399852e-01
  2.869132e+01    7.523659e-01
  2.872307e+01    7.303382e-01
  2.875482e+01    7.188085e-01
  2.878657e+01    7.361636e-01
  2.881832e+01    7.614335e-01
  2.885007e+01    7.286105e-01
  2.888183e+01    7.506655e-01
  2.891358e+01    7.223670e-01
  2.894533e+01    7.420586e-01
  2.897708e+01    7.329046e-01
  2.900883e+01    7.284815e-01
  2.904058e+01    7.323030e-01
  2.907233e+01    7.360967e-01
  2.910408e+01    7.069137e-01
  2.913583e+01    7.361885e-01
  2.916759e+01    7.501420e-01
  2.919934e+01    7.253215e-01
  2.923109e+01    7.309126e-01
  2.926284e+01    7.130169e-01
  2.929459e+01    7.203138e-01
  2.932634e+01    7.048273e-01
  2.935809e+01    7.275062e-01
  2.938984e+01    7.114800e-01
  2.942159e+01    7.144450e-01
  2.945335e+01    7.168298e-01
  2.948510e+01    7.157741e-01
  2.951685e+01    7.306811e-01
  2.954860e+01    7.213033e-01
  2.958035e+01    7.312101e-01
  2.961210e+01    7.170866e-01
  2.964385e+01    7.098650e-01
  2.967560e+01    7.246495e-01
  2.970736e+01    7.234800e-01
  2.973911e+01    7.169202e-01
  2.977086e+01    7.015633e-01
  2.980261e+01    7.146955e-01
  2.983436e+01    7.026151e-01
  2.986611e+01    7.142888e-01
  2.989786e+01    7.259083e-01
  2.992961e+01    7.141482e-01
  2.996136e+01    7.416003e-01
  2.999312e+01    7.378423e-01
  3.002487e+01    7.221305e-01
  3.005662e+01    7.053202e-01
  3.008837e+01    7.426894e-01
  3.012012e+01    7.228519e-01
  3.015187e+01    7.021387e-01
  3.018362e+01    7.130580e-01
  3.021537e+01    6.940792e-01
  3.024712e+01    7.154150e-01
  3.027888e+01    7.235264e-01
  3.031063e+01    7.172686e-01
  3.034238e+01    6.900310e-01
  3.037413e+01    6.963962e-01
  3.040588e+01    6.914473e-01
  3.043763e+01    7.198274e-01
  3.046938e+01    6.953914e-01
  3.050113e+01    6.751899e-01
  3.053288e+01    6.991014e-01
  3.056464e+01    7.056623e-01
  3.059639e+01    7.004965e-01
  3.062814e+01    7.035624e-01
  3.065989e+01    7.010726e-01
  3.069164e+01    7.029042e-01
  3.072339e+01    7.018301e-01
  3.075514e+01    6.987520e-01
  3.078689e+01    7.059957e-01
  3.081865e+01    7.017726e-01
  3.085040e+01    6.927640e-01
  3.088215e+01    7.081354e-01
  3.091390e+01    6.830356e-01
  3.094565e+01    7.130542e-01
  3.097740e+01    7.053555e-01
  3.100915e+01    7.015809e-01
  3.104090e+01    7.244157e-01
  3.107265e+01    7.022611e-01
  3.110441e+01    7.094588e-01
  3.113616e+01    7.037395e-01
  3.116791e+01    7.283802e-01
  3.119966e+01    7.135380e-01
  3.123141e+01    7.323944e-01
  3.126316e+01    7.147193e-01
  3.129491e+01    7.137329e-01
  3.132666e+01    7.203411e-01
  3.135841e+01    7.023084e-01
  3.139017e+01    7.425592e-01
  3.142192e+01    7.393979e-01
  3.145367e+01    7.472725e-01
  3.148542e+01    7.494621e-01
  3.151717e+01    7.599537e-01
  3.154892e+01    7.833758e-01
  3.158067e+01    8.008348e-01
  3.161242e+01    8.374767e-01
  3.164418e+01    8.535398e-01
  3.167593e+01    8.712706e-01
  3.170768e+01    9.870412e-01
  3.173943e+01    1.024055e+00
  3.177118e+01    1.190862e+00
  3.180293e+01    1.405094e+00
  3.183468e+01    1.629468e+00
  3.186643e+01    1.882640e+00
  3.189818e+01    2.120048e+00
  3.192994e+01    2.057996e+00
  3.196169e+01    1.846055e+00
  3.199344e+01    1.547680e+00
  3.202519e+01    1.283428e+00
  3.205694e+01    1.114474e+00
  3.208869e+01    9.955274e-01
  3.212044e+01    9.344183e-01
  3.215219e+01    8.561714e-01
  3.218394e+01    8.014998e-01
  3.221570e+01    7.994763e-01
  3.224745e+01    7.742149e-01
  3.227920e+01    7.413795e-01
  3.231095e+01    7.584462e-01
  3.234270e+01    7.419525e-01
  3.237445e+01    7.458951e-01
  3.240620e+01    7.195809e-01
  3.243795e+01    7.056603e-01
  3.246970e+01    7.052265e-01
  3.250146e+01    7.341072e-01
  3.253321e+01    7.128195e-01
  3.254908e+01    6.895375e-01