File: XRD/2024-07-27_002_Ru-CGO-ex_Activtation_ramp_000002_data_000157.dat
# == pyFAI calibration ==
# Distance Sample to Detector: 0.4 m
# PONI: 9.750e-02, 1.135e-01 m
# Rotations: -0.000175 0.000000 -0.000000 rad
#
# == Fit2d calibration ==
# Distance Sample-beamCenter: 400.000 mm
# Center: x=1514.000, y=1300.000 pix
# Tilt: 0.010 deg  TiltPlanRot: 0.010 deg
#
# Detector Detector	 Spline= None	 PixelSize= 7.500e-05, 7.500e-05 m
#    Detector has a mask: False
#    Detector has a dark current: False
#    detector has a flat field: False
#
# Wavelength: 6.888e-11 m
# Mask applied: user provided
# Dark current applied: False
# Flat field applied: False
# Polarization factor: 0.99
# Normalization factor: 1.0
# --> /home/myspot/data/2024_07_Rosario/Ru-CGO-ex/2024-07-27_002_Ru-CGO-ex_Activtation_ramp_000002_data_000157.dat
#       q_nm^-1             I
  2.003187e-02    0.000000e+00
  5.178302e-02    9.764390e-02
  8.353417e-02    1.045163e-01
  1.152853e-01    3.507604e-02
  1.470365e-01    1.388489e-01
  1.787876e-01    1.797042e-03
  2.105388e-01    3.805593e-02
  2.422899e-01    1.428251e-02
  2.740411e-01    4.939852e-02
  3.057922e-01    5.048520e-02
  3.375433e-01    2.859506e-02
  3.692945e-01    4.978323e-02
  4.010456e-01    1.992207e-02
  4.327968e-01    4.539279e-02
  4.645479e-01    2.549582e-02
  4.962991e-01    4.792889e-02
  5.280502e-01    4.747957e-02
  5.598014e-01    4.480530e-02
  5.915525e-01    1.906718e-02
  6.233037e-01    2.014748e-02
  6.550548e-01    4.721186e-02
  6.868060e-01    1.625404e-02
  7.185571e-01    3.352078e-02
  7.503083e-01    2.403454e-02
  7.820594e-01    8.799678e-02
  8.138106e-01    2.194347e-01
  8.455617e-01    2.930314e-01
  8.773129e-01    4.235879e-01
  9.090640e-01    5.572349e-01
  9.408152e-01    6.981484e-01
  9.725663e-01    8.371762e-01
  1.004317e+00    1.053795e+00
  1.036069e+00    1.113587e+00
  1.067820e+00    1.294516e+00
  1.099571e+00    1.397310e+00
  1.131322e+00    1.546790e+00
  1.163073e+00    1.417757e+00
  1.194824e+00    1.650891e+00
  1.226575e+00    2.085650e+00
  1.258327e+00    2.419028e+00
  1.290078e+00    2.362281e+00
  1.321829e+00    2.512738e+00
  1.353580e+00    2.712628e+00
  1.385331e+00    2.448835e+00
  1.417082e+00    2.595743e+00
  1.448834e+00    2.676288e+00
  1.480585e+00    2.646902e+00
  1.512336e+00    2.808306e+00
  1.544087e+00    2.860672e+00
  1.575838e+00    2.930675e+00
  1.607589e+00    2.792464e+00
  1.639340e+00    2.857305e+00
  1.671092e+00    2.798147e+00
  1.702843e+00    2.869879e+00
  1.734594e+00    2.745737e+00
  1.766345e+00    2.667709e+00
  1.798096e+00    2.853822e+00
  1.829847e+00    2.789219e+00
  1.861598e+00    2.730328e+00
  1.893350e+00    2.793288e+00
  1.925101e+00    2.683553e+00
  1.956852e+00    2.734216e+00
  1.988603e+00    2.757325e+00
  2.020354e+00    2.748045e+00
  2.052105e+00    2.662372e+00
  2.083856e+00    2.777906e+00
  2.115608e+00    2.670353e+00
  2.147359e+00    2.832011e+00
  2.179110e+00    2.738595e+00
  2.210861e+00    2.807675e+00
  2.242612e+00    2.630712e+00
  2.274363e+00    2.689222e+00
  2.306115e+00    2.831065e+00
  2.337866e+00    2.764646e+00
  2.369617e+00    2.777029e+00
  2.401368e+00    2.758278e+00
  2.433119e+00    2.860172e+00
  2.464870e+00    2.696288e+00
  2.496621e+00    2.675148e+00
  2.528373e+00    2.804577e+00
  2.560124e+00    2.731822e+00
  2.591875e+00    2.741652e+00
  2.623626e+00    2.804095e+00
  2.655377e+00    2.906719e+00
  2.687128e+00    2.785265e+00
  2.718879e+00    2.849515e+00
  2.750631e+00    2.806441e+00
  2.782382e+00    2.961362e+00
  2.814133e+00    2.813477e+00
  2.845884e+00    2.882898e+00
  2.877635e+00    2.827186e+00
  2.909386e+00    2.812577e+00
  2.941137e+00    2.848634e+00
  2.972889e+00    2.871850e+00
  3.004640e+00    2.813065e+00
  3.036391e+00    2.880319e+00
  3.068142e+00    2.849715e+00
  3.099893e+00    2.920808e+00
  3.131644e+00    2.846110e+00
  3.163395e+00    2.987383e+00
  3.195147e+00    2.969149e+00
  3.226898e+00    2.906024e+00
  3.258649e+00    3.015449e+00
  3.290400e+00    2.899981e+00
  3.322151e+00    2.978832e+00
  3.353902e+00    2.914792e+00
  3.385654e+00    2.879771e+00
  3.417405e+00    2.901329e+00
  3.449156e+00    2.941207e+00
  3.480907e+00    2.954371e+00
  3.512658e+00    2.866487e+00
  3.544409e+00    3.047536e+00
  3.576160e+00    3.041631e+00
  3.607912e+00    2.928893e+00
  3.639663e+00    2.983454e+00
  3.671414e+00    3.050409e+00
  3.703165e+00    2.919028e+00
  3.734916e+00    2.971854e+00
  3.766667e+00    2.982009e+00
  3.798418e+00    2.991733e+00
  3.830170e+00    2.942657e+00
  3.861921e+00    2.978785e+00
  3.893672e+00    2.937059e+00
  3.925423e+00    3.109918e+00
  3.957174e+00    3.015511e+00
  3.988925e+00    3.046754e+00
  4.020676e+00    2.985359e+00
  4.052428e+00    3.080481e+00
  4.084179e+00    3.041901e+00
  4.115930e+00    3.120273e+00
  4.147681e+00    2.994839e+00
  4.179432e+00    3.005988e+00
  4.211183e+00    3.074180e+00
  4.242935e+00    2.964518e+00
  4.274686e+00    3.102256e+00
  4.306437e+00    3.024143e+00
  4.338188e+00    3.012318e+00
  4.369939e+00    3.118043e+00
  4.401690e+00    2.979645e+00
  4.433441e+00    3.096859e+00
  4.465193e+00    3.082770e+00
  4.496944e+00    3.104552e+00
  4.528695e+00    3.049633e+00
  4.560446e+00    3.104388e+00
  4.592197e+00    3.110405e+00
  4.623948e+00    3.092263e+00
  4.655699e+00    3.102316e+00
  4.687451e+00    3.100908e+00
  4.719202e+00    3.042872e+00
  4.750953e+00    3.234709e+00
  4.782704e+00    3.141639e+00
  4.814455e+00    3.112993e+00
  4.846206e+00    3.022535e+00
  4.877957e+00    3.084935e+00
  4.909709e+00    3.166761e+00
  4.941460e+00    3.132749e+00
  4.973211e+00    3.083899e+00
  5.004962e+00    3.113698e+00
  5.036713e+00    3.222934e+00
  5.068464e+00    3.143630e+00
  5.100216e+00    3.060160e+00
  5.131967e+00    3.123966e+00
  5.163718e+00    3.300593e+00
  5.195469e+00    3.204530e+00
  5.227220e+00    3.143001e+00
  5.258971e+00    3.178826e+00
  5.290722e+00    3.167865e+00
  5.322474e+00    3.216151e+00
  5.354225e+00    3.158293e+00
  5.385976e+00    3.128882e+00
  5.417727e+00    3.099695e+00
  5.449478e+00    3.103989e+00
  5.481229e+00    3.052634e+00
  5.512980e+00    3.048519e+00
  5.544732e+00    3.041469e+00
  5.576483e+00    3.114534e+00
  5.608234e+00    3.073430e+00
  5.639985e+00    3.122785e+00
  5.671736e+00    3.050672e+00
  5.703487e+00    3.077055e+00
  5.735238e+00    3.113299e+00
  5.766990e+00    3.156408e+00
  5.798741e+00    3.027298e+00
  5.830492e+00    2.986881e+00
  5.862243e+00    3.046883e+00
  5.893994e+00    2.990605e+00
  5.925745e+00    2.989894e+00
  5.957497e+00    3.010533e+00
  5.989248e+00    3.004736e+00
  6.020999e+00    2.996144e+00
  6.052750e+00    3.054416e+00
  6.084501e+00    3.033973e+00
  6.116252e+00    3.134834e+00
  6.148003e+00    3.026031e+00
  6.179755e+00    3.073479e+00
  6.211506e+00    3.105271e+00
  6.243257e+00    3.020059e+00
  6.275008e+00    3.019536e+00
  6.306759e+00    3.121264e+00
  6.338510e+00    3.117383e+00
  6.370261e+00    3.170593e+00
  6.402013e+00    3.092315e+00
  6.433764e+00    3.053202e+00
  6.465515e+00    3.084507e+00
  6.497266e+00    2.982648e+00
  6.529017e+00    3.048277e+00
  6.560768e+00    3.039891e+00
  6.592519e+00    3.027248e+00
  6.624271e+00    3.040343e+00
  6.656022e+00    3.028376e+00
  6.687773e+00    3.027915e+00
  6.719524e+00    2.967964e+00
  6.751275e+00    3.027783e+00
  6.783026e+00    3.057560e+00
  6.814777e+00    3.068869e+00
  6.846529e+00    3.041092e+00
  6.878280e+00    3.069816e+00
  6.910031e+00    3.003706e+00
  6.941782e+00    3.048801e+00
  6.973533e+00    2.953888e+00
  7.005284e+00    3.073640e+00
  7.037036e+00    3.023028e+00
  7.068787e+00    3.017475e+00
  7.100538e+00    3.031429e+00
  7.132289e+00    3.004836e+00
  7.164040e+00    2.993593e+00
  7.195791e+00    3.039603e+00
  7.227542e+00    3.008199e+00
  7.259294e+00    3.051463e+00
  7.291045e+00    2.926383e+00
  7.322796e+00    3.027287e+00
  7.354547e+00    2.911016e+00
  7.386298e+00    3.035249e+00
  7.418049e+00    3.079641e+00
  7.449800e+00    3.001253e+00
  7.481552e+00    3.002613e+00
  7.513303e+00    2.975988e+00
  7.545054e+00    3.038265e+00
  7.576805e+00    2.926749e+00
  7.608556e+00    2.949511e+00
  7.640307e+00    2.991387e+00
  7.672058e+00    2.936027e+00
  7.703810e+00    2.934154e+00
  7.735561e+00    3.001110e+00
  7.767312e+00    2.968887e+00
  7.799063e+00    2.883125e+00
  7.830814e+00    2.986676e+00
  7.862565e+00    2.941671e+00
  7.894317e+00    2.947521e+00
  7.926068e+00    2.903505e+00
  7.957819e+00    2.933240e+00
  7.989570e+00    3.016998e+00
  8.021321e+00    2.943589e+00
  8.053072e+00    2.915313e+00
  8.084823e+00    2.949433e+00
  8.116575e+00    3.002411e+00
  8.148326e+00    2.974402e+00
  8.180077e+00    3.029153e+00
  8.211828e+00    2.921831e+00
  8.243579e+00    2.987101e+00
  8.275330e+00    3.006341e+00
  8.307081e+00    2.909748e+00
  8.338833e+00    2.952008e+00
  8.370584e+00    2.906475e+00
  8.402335e+00    2.962426e+00
  8.434086e+00    2.899825e+00
  8.465837e+00    2.879453e+00
  8.497588e+00    2.957191e+00
  8.529339e+00    2.918161e+00
  8.561091e+00    2.852194e+00
  8.592842e+00    2.848987e+00
  8.624593e+00    2.860451e+00
  8.656344e+00    2.891265e+00
  8.688095e+00    2.861436e+00
  8.719846e+00    2.876133e+00
  8.751598e+00    2.905379e+00
  8.783349e+00    2.935323e+00
  8.815100e+00    2.841193e+00
  8.846851e+00    2.812428e+00
  8.878602e+00    2.814636e+00
  8.910353e+00    2.873988e+00
  8.942104e+00    2.826542e+00
  8.973856e+00    2.818040e+00
  9.005607e+00    2.811527e+00
  9.037358e+00    2.783173e+00
  9.069109e+00    2.812925e+00
  9.100860e+00    2.776394e+00
  9.132611e+00    2.924627e+00
  9.164362e+00    2.869297e+00
  9.196114e+00    2.841833e+00
  9.227865e+00    2.792320e+00
  9.259616e+00    2.828599e+00
  9.291367e+00    2.804651e+00
  9.323118e+00    2.798131e+00
  9.354869e+00    2.751143e+00
  9.386620e+00    2.814309e+00
  9.418372e+00    2.776261e+00
  9.450123e+00    2.754736e+00
  9.481874e+00    2.827754e+00
  9.513625e+00    2.789397e+00
  9.545376e+00    2.749444e+00
  9.577127e+00    2.728029e+00
  9.608878e+00    2.766246e+00
  9.640630e+00    2.786561e+00
  9.672381e+00    2.750492e+00
  9.704132e+00    2.689378e+00
  9.735883e+00    2.688247e+00
  9.767634e+00    2.742825e+00
  9.799385e+00    2.737686e+00
  9.831137e+00    2.695421e+00
  9.862888e+00    2.679452e+00
  9.894639e+00    2.728117e+00
  9.926390e+00    2.713999e+00
  9.958141e+00    2.714002e+00
  9.989892e+00    2.693691e+00
  1.002164e+01    2.697673e+00
  1.005339e+01    2.687650e+00
  1.008515e+01    2.653042e+00
  1.011690e+01    2.646219e+00
  1.014865e+01    2.668035e+00
  1.018040e+01    2.675229e+00
  1.021215e+01    2.689807e+00
  1.024390e+01    2.624449e+00
  1.027565e+01    2.601359e+00
  1.030740e+01    2.613701e+00
  1.033915e+01    2.647854e+00
  1.037091e+01    2.609091e+00
  1.040266e+01    2.599566e+00
  1.043441e+01    2.533348e+00
  1.046616e+01    2.596435e+00
  1.049791e+01    2.606788e+00
  1.052966e+01    2.612697e+00
  1.056141e+01    2.568163e+00
  1.059316e+01    2.535191e+00
  1.062492e+01    2.557253e+00
  1.065667e+01    2.575958e+00
  1.068842e+01    2.609746e+00
  1.072017e+01    2.557508e+00
  1.075192e+01    2.525237e+00
  1.078367e+01    2.485865e+00
  1.081542e+01    2.515620e+00
  1.084717e+01    2.605709e+00
  1.087892e+01    2.534740e+00
  1.091068e+01    2.526790e+00
  1.094243e+01    2.507154e+00
  1.097418e+01    2.531920e+00
  1.100593e+01    2.499818e+00
  1.103768e+01    2.511508e+00
  1.106943e+01    2.526759e+00
  1.110118e+01    2.524904e+00
  1.113293e+01    2.501603e+00
  1.116468e+01    2.494384e+00
  1.119644e+01    2.472894e+00
  1.122819e+01    2.497706e+00
  1.125994e+01    2.449425e+00
  1.129169e+01    2.412336e+00
  1.132344e+01    2.446749e+00
  1.135519e+01    2.430247e+00
  1.138694e+01    2.501012e+00
  1.141869e+01    2.372069e+00
  1.145045e+01    2.436379e+00
  1.148220e+01    2.425748e+00
  1.151395e+01    2.398784e+00
  1.154570e+01    2.459712e+00
  1.157745e+01    2.409327e+00
  1.160920e+01    2.425527e+00
  1.164095e+01    2.422487e+00
  1.167270e+01    2.364527e+00
  1.170445e+01    2.402312e+00
  1.173621e+01    2.354275e+00
  1.176796e+01    2.349031e+00
  1.179971e+01    2.381776e+00
  1.183146e+01    2.412775e+00
  1.186321e+01    2.394751e+00
  1.189496e+01    2.331184e+00
  1.192671e+01    2.377024e+00
  1.195846e+01    2.283276e+00
  1.199021e+01    2.313435e+00
  1.202197e+01    2.318201e+00
  1.205372e+01    2.326548e+00
  1.208547e+01    2.323944e+00
  1.211722e+01    2.294425e+00
  1.214897e+01    2.339077e+00
  1.218072e+01    2.338531e+00
  1.221247e+01    2.323325e+00
  1.224422e+01    2.321580e+00
  1.227597e+01    2.316780e+00
  1.230773e+01    2.329654e+00
  1.233948e+01    2.319076e+00
  1.237123e+01    2.328860e+00
  1.240298e+01    2.315190e+00
  1.243473e+01    2.351955e+00
  1.246648e+01    2.368067e+00
  1.249823e+01    2.349726e+00
  1.252998e+01    2.357667e+00
  1.256174e+01    2.370545e+00
  1.259349e+01    2.391219e+00
  1.262524e+01    2.374681e+00
  1.265699e+01    2.438542e+00
  1.268874e+01    2.469722e+00
  1.272049e+01    2.491003e+00
  1.275224e+01    2.530488e+00
  1.278399e+01    2.648278e+00
  1.281574e+01    2.726980e+00
  1.284750e+01    2.812781e+00
  1.287925e+01    3.037434e+00
  1.291100e+01    3.296387e+00
  1.294275e+01    3.721019e+00
  1.297450e+01    4.406806e+00
  1.300625e+01    5.490817e+00
  1.303800e+01    7.218141e+00
  1.306975e+01    9.696443e+00
  1.310150e+01    1.218058e+01
  1.313326e+01    1.443684e+01
  1.316501e+01    1.619699e+01
  1.319676e+01    1.598761e+01
  1.322851e+01    1.295854e+01
  1.326026e+01    9.242480e+00
  1.329201e+01    6.687690e+00
  1.332376e+01    5.099086e+00
  1.335551e+01    4.225260e+00
  1.338727e+01    3.598541e+00
  1.341902e+01    3.195819e+00
  1.345077e+01    2.932535e+00
  1.348252e+01    2.723369e+00
  1.351427e+01    2.627502e+00
  1.354602e+01    2.502277e+00
  1.357777e+01    2.443801e+00
  1.360952e+01    2.388414e+00
  1.364127e+01    2.310546e+00
  1.367303e+01    2.262213e+00
  1.370478e+01    2.238032e+00
  1.373653e+01    2.191652e+00
  1.376828e+01    2.205024e+00
  1.380003e+01    2.173954e+00
  1.383178e+01    2.106300e+00
  1.386353e+01    2.143897e+00
  1.389528e+01    2.092401e+00
  1.392703e+01    2.095368e+00
  1.395879e+01    2.086641e+00
  1.399054e+01    2.015108e+00
  1.402229e+01    2.014647e+00
  1.405404e+01    2.031113e+00
  1.408579e+01    2.020916e+00
  1.411754e+01    2.052304e+00
  1.414929e+01    2.026868e+00
  1.418104e+01    1.995114e+00
  1.421279e+01    2.016675e+00
  1.424455e+01    2.006253e+00
  1.427630e+01    1.988098e+00
  1.430805e+01    1.966185e+00
  1.433980e+01    1.987555e+00
  1.437155e+01    1.962650e+00
  1.440330e+01    1.970540e+00
  1.443505e+01    1.974967e+00
  1.446680e+01    1.906720e+00
  1.449856e+01    1.944011e+00
  1.453031e+01    1.930737e+00
  1.456206e+01    1.915671e+00
  1.459381e+01    1.882393e+00
  1.462556e+01    1.918308e+00
  1.465731e+01    1.952576e+00
  1.468906e+01    1.872105e+00
  1.472081e+01    1.930096e+00
  1.475256e+01    1.897092e+00
  1.478432e+01    1.914855e+00
  1.481607e+01    1.890172e+00
  1.484782e+01    1.922883e+00
  1.487957e+01    1.949739e+00
  1.491132e+01    2.002335e+00
  1.494307e+01    2.032553e+00
  1.497482e+01    2.083408e+00
  1.500657e+01    2.160591e+00
  1.503832e+01    2.302306e+00
  1.507008e+01    2.547269e+00
  1.510183e+01    2.901344e+00
  1.513358e+01    3.439376e+00
  1.516533e+01    4.194080e+00
  1.519708e+01    4.897794e+00
  1.522883e+01    5.368042e+00
  1.526058e+01    5.728717e+00
  1.529233e+01    5.444307e+00
  1.532409e+01    4.613443e+00
  1.535584e+01    3.655000e+00
  1.538759e+01    2.941036e+00
  1.541934e+01    2.593236e+00
  1.545109e+01    2.246812e+00
  1.548284e+01    2.110519e+00
  1.551459e+01    2.007909e+00
  1.554634e+01    1.922930e+00
  1.557809e+01    1.893579e+00
  1.560985e+01    1.826309e+00
  1.564160e+01    1.763629e+00
  1.567335e+01    1.741621e+00
  1.570510e+01    1.737986e+00
  1.573685e+01    1.727369e+00
  1.576860e+01    1.721963e+00
  1.580035e+01    1.650393e+00
  1.583210e+01    1.682895e+00
  1.586385e+01    1.676413e+00
  1.589561e+01    1.636512e+00
  1.592736e+01    1.632577e+00
  1.595911e+01    1.632520e+00
  1.599086e+01    1.619545e+00
  1.602261e+01    1.577538e+00
  1.605436e+01    1.635830e+00
  1.608611e+01    1.573314e+00
  1.611786e+01    1.597458e+00
  1.614961e+01    1.610723e+00
  1.618137e+01    1.551224e+00
  1.621312e+01    1.536809e+00
  1.624487e+01    1.586120e+00
  1.627662e+01    1.554104e+00
  1.630837e+01    1.589755e+00
  1.634012e+01    1.519894e+00
  1.637187e+01    1.537448e+00
  1.640362e+01    1.523274e+00
  1.643538e+01    1.517867e+00
  1.646713e+01    1.526759e+00
  1.649888e+01    1.545510e+00
  1.653063e+01    1.519539e+00
  1.656238e+01    1.497649e+00
  1.659413e+01    1.520891e+00
  1.662588e+01    1.507653e+00
  1.665763e+01    1.487508e+00
  1.668938e+01    1.458339e+00
  1.672114e+01    1.495706e+00
  1.675289e+01    1.484607e+00
  1.678464e+01    1.458714e+00
  1.681639e+01    1.454446e+00
  1.684814e+01    1.427865e+00
  1.687989e+01    1.465030e+00
  1.691164e+01    1.434024e+00
  1.694339e+01    1.471761e+00
  1.697514e+01    1.473813e+00
  1.700690e+01    1.426182e+00
  1.703865e+01    1.442580e+00
  1.707040e+01    1.425537e+00
  1.710215e+01    1.449552e+00
  1.713390e+01    1.405869e+00
  1.716565e+01    1.394201e+00
  1.719740e+01    1.386785e+00
  1.722915e+01    1.406093e+00
  1.726091e+01    1.407015e+00
  1.729266e+01    1.443481e+00
  1.732441e+01    1.383169e+00
  1.735616e+01    1.405361e+00
  1.738791e+01    1.417207e+00
  1.741966e+01    1.398981e+00
  1.745141e+01    1.390914e+00
  1.748316e+01    1.334348e+00
  1.751491e+01    1.351505e+00
  1.754667e+01    1.344918e+00
  1.757842e+01    1.341428e+00
  1.761017e+01    1.369380e+00
  1.764192e+01    1.348888e+00
  1.767367e+01    1.337082e+00
  1.770542e+01    1.331974e+00
  1.773717e+01    1.350308e+00
  1.776892e+01    1.356628e+00
  1.780067e+01    1.349264e+00
  1.783243e+01    1.328975e+00
  1.786418e+01    1.336589e+00
  1.789593e+01    1.320828e+00
  1.792768e+01    1.311692e+00
  1.795943e+01    1.319791e+00
  1.799118e+01    1.306650e+00
  1.802293e+01    1.296243e+00
  1.805468e+01    1.307022e+00
  1.808643e+01    1.296414e+00
  1.811819e+01    1.291739e+00
  1.814994e+01    1.282338e+00
  1.818169e+01    1.283651e+00
  1.821344e+01    1.293634e+00
  1.824519e+01    1.277852e+00
  1.827694e+01    1.256805e+00
  1.830869e+01    1.264774e+00
  1.834044e+01    1.278482e+00
  1.837220e+01    1.245880e+00
  1.840395e+01    1.268668e+00
  1.843570e+01    1.255347e+00
  1.846745e+01    1.244173e+00
  1.849920e+01    1.229441e+00
  1.853095e+01    1.271880e+00
  1.856270e+01    1.253453e+00
  1.859445e+01    1.249598e+00
  1.862620e+01    1.220787e+00
  1.865796e+01    1.239785e+00
  1.868971e+01    1.241726e+00
  1.872146e+01    1.231751e+00
  1.875321e+01    1.222054e+00
  1.878496e+01    1.229996e+00
  1.881671e+01    1.239173e+00
  1.884846e+01    1.197035e+00
  1.888021e+01    1.230696e+00
  1.891196e+01    1.197365e+00
  1.894372e+01    1.194681e+00
  1.897547e+01    1.216512e+00
  1.900722e+01    1.188469e+00
  1.903897e+01    1.206518e+00
  1.907072e+01    1.177121e+00
  1.910247e+01    1.180124e+00
  1.913422e+01    1.173783e+00
  1.916597e+01    1.202316e+00
  1.919773e+01    1.201247e+00
  1.922948e+01    1.168892e+00
  1.926123e+01    1.184656e+00
  1.929298e+01    1.181016e+00
  1.932473e+01    1.180261e+00
  1.935648e+01    1.140012e+00
  1.938823e+01    1.192997e+00
  1.941998e+01    1.185378e+00
  1.945173e+01    1.173460e+00
  1.948349e+01    1.163561e+00
  1.951524e+01    1.163469e+00
  1.954699e+01    1.163058e+00
  1.957874e+01    1.163900e+00
  1.961049e+01    1.153599e+00
  1.964224e+01    1.145665e+00
  1.967399e+01    1.175619e+00
  1.970574e+01    1.139513e+00
  1.973749e+01    1.134738e+00
  1.976925e+01    1.144426e+00
  1.980100e+01    1.121092e+00
  1.983275e+01    1.148452e+00
  1.986450e+01    1.135936e+00
  1.989625e+01    1.116506e+00
  1.992800e+01    1.120387e+00
  1.995975e+01    1.116117e+00
  1.999150e+01    1.152713e+00
  2.002325e+01    1.116823e+00
  2.005501e+01    1.126727e+00
  2.008676e+01    1.113722e+00
  2.011851e+01    1.133175e+00
  2.015026e+01    1.119501e+00
  2.018201e+01    1.101762e+00
  2.021376e+01    1.094143e+00
  2.024551e+01    1.092581e+00
  2.027726e+01    1.089404e+00
  2.030902e+01    1.117109e+00
  2.034077e+01    1.087315e+00
  2.037252e+01    1.076642e+00
  2.040427e+01    1.116759e+00
  2.043602e+01    1.085972e+00
  2.046777e+01    1.103182e+00
  2.049952e+01    1.086950e+00
  2.053127e+01    1.100324e+00
  2.056302e+01    1.076130e+00
  2.059478e+01    1.077023e+00
  2.062653e+01    1.075199e+00
  2.065828e+01    1.050946e+00
  2.069003e+01    1.091296e+00
  2.072178e+01    1.053222e+00
  2.075353e+01    1.052411e+00
  2.078528e+01    1.098010e+00
  2.081703e+01    1.085222e+00
  2.084878e+01    1.093929e+00
  2.088054e+01    1.075114e+00
  2.091229e+01    1.079551e+00
  2.094404e+01    1.069397e+00
  2.097579e+01    1.092351e+00
  2.100754e+01    1.070077e+00
  2.103929e+01    1.071535e+00
  2.107104e+01    1.097467e+00
  2.110279e+01    1.106758e+00
  2.113455e+01    1.073816e+00
  2.116630e+01    1.091178e+00
  2.119805e+01    1.086059e+00
  2.122980e+01    1.119621e+00
  2.126155e+01    1.106297e+00
  2.129330e+01    1.112945e+00
  2.132505e+01    1.127928e+00
  2.135680e+01    1.149225e+00
  2.138855e+01    1.140625e+00
  2.142031e+01    1.170978e+00
  2.145206e+01    1.219888e+00
  2.148381e+01    1.254147e+00
  2.151556e+01    1.303901e+00
  2.154731e+01    1.396879e+00
  2.157906e+01    1.487168e+00
  2.161081e+01    1.599133e+00
  2.164256e+01    1.848661e+00
  2.167431e+01    2.174296e+00
  2.170607e+01    2.608688e+00
  2.173782e+01    3.336913e+00
  2.176957e+01    4.444459e+00
  2.180132e+01    5.591753e+00
  2.183307e+01    7.003151e+00
  2.186482e+01    8.368885e+00
  2.189657e+01    9.109556e+00
  2.192832e+01    8.538001e+00
  2.196007e+01    6.847439e+00
  2.199183e+01    4.912966e+00
  2.202358e+01    3.557618e+00
  2.205533e+01    2.794770e+00
  2.208708e+01    2.230669e+00
  2.211883e+01    1.882476e+00
  2.215058e+01    1.666615e+00
  2.218233e+01    1.478483e+00
  2.221408e+01    1.396913e+00
  2.224584e+01    1.246003e+00
  2.227759e+01    1.200267e+00
  2.230934e+01    1.190241e+00
  2.234109e+01    1.127092e+00
  2.237284e+01    1.088080e+00
  2.240459e+01    1.098268e+00
  2.243634e+01    1.056517e+00
  2.246809e+01    1.048516e+00
  2.249984e+01    1.017887e+00
  2.253160e+01    1.032999e+00
  2.256335e+01    9.891202e-01
  2.259510e+01    9.750865e-01
  2.262685e+01    9.988872e-01
  2.265860e+01    9.745995e-01
  2.269035e+01    9.622846e-01
  2.272210e+01    9.505892e-01
  2.275385e+01    9.456788e-01
  2.278560e+01    9.481186e-01
  2.281736e+01    9.222865e-01
  2.284911e+01    9.372813e-01
  2.288086e+01    9.339339e-01
  2.291261e+01    8.982933e-01
  2.294436e+01    9.118302e-01
  2.297611e+01    8.885605e-01
  2.300786e+01    9.052191e-01
  2.303961e+01    8.924256e-01
  2.307137e+01    8.971967e-01
  2.310312e+01    8.918487e-01
  2.313487e+01    8.934885e-01
  2.316662e+01    8.699836e-01
  2.319837e+01    8.923231e-01
  2.323012e+01    8.714727e-01
  2.326187e+01    8.967764e-01
  2.329362e+01    8.794073e-01
  2.332537e+01    8.725515e-01
  2.335713e+01    8.523455e-01
  2.338888e+01    8.426421e-01
  2.342063e+01    8.487185e-01
  2.345238e+01    8.790895e-01
  2.348413e+01    8.630758e-01
  2.351588e+01    8.416020e-01
  2.354763e+01    8.382345e-01
  2.357938e+01    8.474148e-01
  2.361113e+01    8.661776e-01
  2.364289e+01    8.488967e-01
  2.367464e+01    8.286564e-01
  2.370639e+01    8.261201e-01
  2.373814e+01    8.308886e-01
  2.376989e+01    8.207055e-01
  2.380164e+01    8.344295e-01
  2.383339e+01    8.088251e-01
  2.386514e+01    8.005541e-01
  2.389689e+01    8.078467e-01
  2.392865e+01    8.153313e-01
  2.396040e+01    7.996072e-01
  2.399215e+01    7.882211e-01
  2.402390e+01    8.085372e-01
  2.405565e+01    7.854829e-01
  2.408740e+01    7.905737e-01
  2.411915e+01    7.687304e-01
  2.415090e+01    7.972658e-01
  2.418266e+01    7.915856e-01
  2.421441e+01    7.874135e-01
  2.424616e+01    7.673156e-01
  2.427791e+01    7.818982e-01
  2.430966e+01    7.989005e-01
  2.434141e+01    7.917707e-01
  2.437316e+01    7.798498e-01
  2.440491e+01    8.030619e-01
  2.443666e+01    7.853140e-01
  2.446842e+01    7.970287e-01
  2.450017e+01    7.943177e-01
  2.453192e+01    8.004944e-01
  2.456367e+01    8.021289e-01
  2.459542e+01    7.983849e-01
  2.462717e+01    7.897917e-01
  2.465892e+01    8.077669e-01
  2.469067e+01    7.728819e-01
  2.472242e+01    8.036495e-01
  2.475418e+01    7.742677e-01
  2.478593e+01    7.904935e-01
  2.481768e+01    7.893444e-01
  2.484943e+01    8.001028e-01
  2.488118e+01    8.011441e-01
  2.491293e+01    7.765453e-01
  2.494468e+01    7.930698e-01
  2.497643e+01    8.098627e-01
  2.500819e+01    8.270174e-01
  2.503994e+01    8.039709e-01
  2.507169e+01    8.204732e-01
  2.510344e+01    8.117368e-01
  2.513519e+01    8.230168e-01
  2.516694e+01    8.186638e-01
  2.519869e+01    8.452793e-01
  2.523044e+01    8.226364e-01
  2.526219e+01    8.587805e-01
  2.529395e+01    8.493034e-01
  2.532570e+01    8.710167e-01
  2.535745e+01    8.826400e-01
  2.538920e+01    8.986498e-01
  2.542095e+01    9.102766e-01
  2.545270e+01    9.360468e-01
  2.548445e+01    9.521708e-01
  2.551620e+01    9.916553e-01
  2.554795e+01    1.004066e+00
  2.557971e+01    1.071666e+00
  2.561146e+01    1.147247e+00
  2.564321e+01    1.221022e+00
  2.567496e+01    1.320883e+00
  2.570671e+01    1.526391e+00
  2.573846e+01    1.755833e+00
  2.577021e+01    2.142875e+00
  2.580196e+01    2.718664e+00
  2.583371e+01    3.516105e+00
  2.586547e+01    4.510133e+00
  2.589722e+01    5.725034e+00
  2.592897e+01    6.899244e+00
  2.596072e+01    7.353351e+00
  2.599247e+01    6.965511e+00
  2.602422e+01    5.629220e+00
  2.605597e+01    4.135656e+00
  2.608772e+01    3.098421e+00
  2.611948e+01    2.362333e+00
  2.615123e+01    1.903288e+00
  2.618298e+01    1.640072e+00
  2.621473e+01    1.430504e+00
  2.624648e+01    1.281588e+00
  2.627823e+01    1.167994e+00
  2.630998e+01    1.105925e+00
  2.634173e+01    1.049228e+00
  2.637348e+01    9.882072e-01
  2.640524e+01    9.749300e-01
  2.643699e+01    9.360972e-01
  2.646874e+01    9.571366e-01
  2.650049e+01    9.248568e-01
  2.653224e+01    9.176499e-01
  2.656399e+01    8.967806e-01
  2.659574e+01    9.013500e-01
  2.662749e+01    9.031337e-01
  2.665924e+01    8.951187e-01
  2.669100e+01    8.966449e-01
  2.672275e+01    8.931950e-01
  2.675450e+01    8.769263e-01
  2.678625e+01    8.992758e-01
  2.681800e+01    8.869697e-01
  2.684975e+01    8.998780e-01
  2.688150e+01    9.162446e-01
  2.691325e+01    9.211902e-01
  2.694501e+01    9.362549e-01
  2.697676e+01    9.993150e-01
  2.700851e+01    1.015508e+00
  2.704026e+01    1.135879e+00
  2.707201e+01    1.239034e+00
  2.710376e+01    1.397584e+00
  2.713551e+01    1.643350e+00
  2.716726e+01    1.921798e+00
  2.719901e+01    2.178893e+00
  2.723077e+01    2.252364e+00
  2.726252e+01    2.035638e+00
  2.729427e+01    1.716014e+00
  2.732602e+01    1.418299e+00
  2.735777e+01    1.260160e+00
  2.738952e+01    1.118414e+00
  2.742127e+01    1.012286e+00
  2.745302e+01    9.967778e-01
  2.748477e+01    9.050269e-01
  2.751653e+01    8.913205e-01
  2.754828e+01    8.840674e-01
  2.758003e+01    8.642813e-01
  2.761178e+01    8.209926e-01
  2.764353e+01    8.386876e-01
  2.767528e+01    8.172705e-01
  2.770703e+01    8.354654e-01
  2.773878e+01    8.311012e-01
  2.777054e+01    8.310156e-01
  2.780229e+01    8.009210e-01
  2.783404e+01    8.055664e-01
  2.786579e+01    8.029051e-01
  2.789754e+01    7.953935e-01
  2.792929e+01    8.016260e-01
  2.796104e+01    7.957690e-01
  2.799279e+01    7.890251e-01
  2.802454e+01    7.970828e-01
  2.805630e+01    7.712117e-01
  2.808805e+01    8.014500e-01
  2.811980e+01    7.901235e-01
  2.815155e+01    7.758944e-01
  2.818330e+01    7.512916e-01
  2.821505e+01    7.553117e-01
  2.824680e+01    7.624879e-01
  2.827855e+01    7.931075e-01
  2.831030e+01    7.729014e-01
  2.834206e+01    7.585876e-01
  2.837381e+01    7.806314e-01
  2.840556e+01    7.708389e-01
  2.843731e+01    7.518710e-01
  2.846906e+01    7.722091e-01
  2.850081e+01    7.574911e-01
  2.853256e+01    7.704257e-01
  2.856431e+01    7.548714e-01
  2.859606e+01    7.719269e-01
  2.862782e+01    7.476161e-01
  2.865957e+01    7.754185e-01
  2.869132e+01    7.679766e-01
  2.872307e+01    7.564821e-01
  2.875482e+01    7.414628e-01
  2.878657e+01    7.463726e-01
  2.881832e+01    7.591676e-01
  2.885007e+01    7.324006e-01
  2.888183e+01    7.478146e-01
  2.891358e+01    7.499143e-01
  2.894533e+01    7.399191e-01
  2.897708e+01    7.520964e-01
  2.900883e+01    7.437480e-01
  2.904058e+01    7.588542e-01
  2.907233e+01    7.441291e-01
  2.910408e+01    7.382205e-01
  2.913583e+01    7.041214e-01
  2.916759e+01    7.237652e-01
  2.919934e+01    7.333944e-01
  2.923109e+01    7.286558e-01
  2.926284e+01    7.176626e-01
  2.929459e+01    7.327545e-01
  2.932634e+01    7.206928e-01
  2.935809e+01    7.362173e-01
  2.938984e+01    7.401437e-01
  2.942159e+01    7.434499e-01
  2.945335e+01    7.120711e-01
  2.948510e+01    7.347063e-01
  2.951685e+01    7.246807e-01
  2.954860e+01    7.315156e-01
  2.958035e+01    7.223070e-01
  2.961210e+01    7.341421e-01
  2.964385e+01    7.104657e-01
  2.967560e+01    7.079922e-01
  2.970736e+01    7.171703e-01
  2.973911e+01    7.034403e-01
  2.977086e+01    7.250097e-01
  2.980261e+01    7.170250e-01
  2.983436e+01    7.343657e-01
  2.986611e+01    7.131011e-01
  2.989786e+01    7.219247e-01
  2.992961e+01    7.383090e-01
  2.996136e+01    7.086701e-01
  2.999312e+01    7.298270e-01
  3.002487e+01    7.330722e-01
  3.005662e+01    7.333351e-01
  3.008837e+01    7.212617e-01
  3.012012e+01    7.318764e-01
  3.015187e+01    7.220634e-01
  3.018362e+01    7.057821e-01
  3.021537e+01    7.064825e-01
  3.024712e+01    7.032322e-01
  3.027888e+01    7.097937e-01
  3.031063e+01    7.118902e-01
  3.034238e+01    7.025433e-01
  3.037413e+01    7.102005e-01
  3.040588e+01    7.034903e-01
  3.043763e+01    7.045654e-01
  3.046938e+01    7.089880e-01
  3.050113e+01    7.145437e-01
  3.053288e+01    7.130316e-01
  3.056464e+01    7.267785e-01
  3.059639e+01    6.989786e-01
  3.062814e+01    7.298085e-01
  3.065989e+01    7.069224e-01
  3.069164e+01    6.997542e-01
  3.072339e+01    7.003096e-01
  3.075514e+01    7.166324e-01
  3.078689e+01    7.175331e-01
  3.081865e+01    6.791684e-01
  3.085040e+01    7.025887e-01
  3.088215e+01    7.070060e-01
  3.091390e+01    7.155668e-01
  3.094565e+01    7.114790e-01
  3.097740e+01    7.060549e-01
  3.100915e+01    7.284620e-01
  3.104090e+01    7.115873e-01
  3.107265e+01    7.111449e-01
  3.110441e+01    7.254747e-01
  3.113616e+01    7.439283e-01
  3.116791e+01    7.253509e-01
  3.119966e+01    7.342138e-01
  3.123141e+01    7.189103e-01
  3.126316e+01    7.384857e-01
  3.129491e+01    7.362614e-01
  3.132666e+01    7.448971e-01
  3.135841e+01    7.204928e-01
  3.139017e+01    7.328085e-01
  3.142192e+01    7.404366e-01
  3.145367e+01    7.401097e-01
  3.148542e+01    7.586161e-01
  3.151717e+01    7.831209e-01
  3.154892e+01    7.830094e-01
  3.158067e+01    7.984139e-01
  3.161242e+01    8.178348e-01
  3.164418e+01    8.450515e-01
  3.167593e+01    8.891285e-01
  3.170768e+01    9.814233e-01
  3.173943e+01    1.080648e+00
  3.177118e+01    1.174350e+00
  3.180293e+01    1.434128e+00
  3.183468e+01    1.699151e+00
  3.186643e+01    1.948966e+00
  3.189818e+01    2.156107e+00
  3.192994e+01    2.139308e+00
  3.196169e+01    1.910777e+00
  3.199344e+01    1.598490e+00
  3.202519e+01    1.327485e+00
  3.205694e+01    1.102770e+00
  3.208869e+01    1.007837e+00
  3.212044e+01    9.402906e-01
  3.215219e+01    8.581345e-01
  3.218394e+01    8.260825e-01
  3.221570e+01    8.159927e-01
  3.224745e+01    7.752053e-01
  3.227920e+01    7.338220e-01
  3.231095e+01    7.432329e-01
  3.234270e+01    7.633212e-01
  3.237445e+01    7.606723e-01
  3.240620e+01    7.504957e-01
  3.243795e+01    7.214594e-01
  3.246970e+01    7.283201e-01
  3.250146e+01    7.214898e-01
  3.253321e+01    7.207361e-01
  3.254908e+01    7.158752e-01