File: XRD/2024-07-27_002_Ru-CGO-ex_Activtation_ramp_000002_data_000026.dat
# == pyFAI calibration ==
# Distance Sample to Detector: 0.4 m
# PONI: 9.750e-02, 1.135e-01 m
# Rotations: -0.000175 0.000000 -0.000000 rad
#
# == Fit2d calibration ==
# Distance Sample-beamCenter: 400.000 mm
# Center: x=1514.000, y=1300.000 pix
# Tilt: 0.010 deg  TiltPlanRot: 0.010 deg
#
# Detector Detector	 Spline= None	 PixelSize= 7.500e-05, 7.500e-05 m
#    Detector has a mask: False
#    Detector has a dark current: False
#    detector has a flat field: False
#
# Wavelength: 6.888e-11 m
# Mask applied: user provided
# Dark current applied: False
# Flat field applied: False
# Polarization factor: 0.99
# Normalization factor: 1.0
# --> /home/myspot/data/2024_07_Rosario/Ru-CGO-ex/2024-07-27_002_Ru-CGO-ex_Activtation_ramp_000002_data_000026.dat
#       q_nm^-1             I
  2.003187e-02    0.000000e+00
  5.178302e-02    0.000000e+00
  8.353417e-02    2.223064e-01
  1.152853e-01    4.401297e-02
  1.470365e-01    3.033962e-03
  1.787876e-01    1.121227e-01
  2.105388e-01    1.404426e-02
  2.422899e-01    6.128873e-02
  2.740411e-01    3.105798e-03
  3.057922e-01    4.970350e-02
  3.375433e-01    4.634592e-02
  3.692945e-01    3.863386e-02
  4.010456e-01    4.927658e-02
  4.327968e-01    5.068202e-02
  4.645479e-01    3.332130e-02
  4.962991e-01    3.416341e-02
  5.280502e-01    2.969210e-02
  5.598014e-01    3.291117e-02
  5.915525e-01    5.729218e-02
  6.233037e-01    3.022472e-02
  6.550548e-01    3.449768e-02
  6.868060e-01    2.606203e-02
  7.185571e-01    3.951358e-02
  7.503083e-01    5.792471e-02
  7.820594e-01    1.378625e-01
  8.138106e-01    2.025879e-01
  8.455617e-01    3.105288e-01
  8.773129e-01    4.845001e-01
  9.090640e-01    6.188316e-01
  9.408152e-01    7.339628e-01
  9.725663e-01    8.742462e-01
  1.004317e+00    1.009029e+00
  1.036069e+00    1.070796e+00
  1.067820e+00    1.305373e+00
  1.099571e+00    1.383945e+00
  1.131322e+00    1.317499e+00
  1.163073e+00    1.432968e+00
  1.194824e+00    1.675802e+00
  1.226575e+00    2.258094e+00
  1.258327e+00    2.400316e+00
  1.290078e+00    2.506176e+00
  1.321829e+00    2.586703e+00
  1.353580e+00    2.659231e+00
  1.385331e+00    2.499063e+00
  1.417082e+00    2.871018e+00
  1.448834e+00    2.674999e+00
  1.480585e+00    2.855359e+00
  1.512336e+00    3.023360e+00
  1.544087e+00    2.938035e+00
  1.575838e+00    2.948001e+00
  1.607589e+00    2.881237e+00
  1.639340e+00    2.847456e+00
  1.671092e+00    2.895708e+00
  1.702843e+00    2.887401e+00
  1.734594e+00    2.914748e+00
  1.766345e+00    2.906142e+00
  1.798096e+00    2.801949e+00
  1.829847e+00    2.826389e+00
  1.861598e+00    2.846717e+00
  1.893350e+00    2.993443e+00
  1.925101e+00    2.809265e+00
  1.956852e+00    2.806625e+00
  1.988603e+00    2.827631e+00
  2.020354e+00    2.728580e+00
  2.052105e+00    2.725190e+00
  2.083856e+00    2.808432e+00
  2.115608e+00    2.771572e+00
  2.147359e+00    2.888057e+00
  2.179110e+00    2.798184e+00
  2.210861e+00    2.708127e+00
  2.242612e+00    2.804380e+00
  2.274363e+00    2.810108e+00
  2.306115e+00    2.774373e+00
  2.337866e+00    2.755217e+00
  2.369617e+00    2.876633e+00
  2.401368e+00    2.840379e+00
  2.433119e+00    2.830402e+00
  2.464870e+00    2.721876e+00
  2.496621e+00    2.896722e+00
  2.528373e+00    2.844496e+00
  2.560124e+00    2.791032e+00
  2.591875e+00    2.776258e+00
  2.623626e+00    2.904805e+00
  2.655377e+00    2.793609e+00
  2.687128e+00    2.872767e+00
  2.718879e+00    2.929154e+00
  2.750631e+00    2.923955e+00
  2.782382e+00    2.896076e+00
  2.814133e+00    2.971515e+00
  2.845884e+00    2.787105e+00
  2.877635e+00    2.847322e+00
  2.909386e+00    2.933523e+00
  2.941137e+00    2.916972e+00
  2.972889e+00    2.833900e+00
  3.004640e+00    3.036320e+00
  3.036391e+00    2.970749e+00
  3.068142e+00    2.877053e+00
  3.099893e+00    2.933500e+00
  3.131644e+00    2.987482e+00
  3.163395e+00    2.899280e+00
  3.195147e+00    2.918888e+00
  3.226898e+00    2.846711e+00
  3.258649e+00    2.966216e+00
  3.290400e+00    3.022595e+00
  3.322151e+00    2.899847e+00
  3.353902e+00    2.971449e+00
  3.385654e+00    2.967701e+00
  3.417405e+00    2.964889e+00
  3.449156e+00    3.061866e+00
  3.480907e+00    3.029546e+00
  3.512658e+00    2.869926e+00
  3.544409e+00    3.003118e+00
  3.576160e+00    2.989483e+00
  3.607912e+00    2.999163e+00
  3.639663e+00    2.895183e+00
  3.671414e+00    2.977169e+00
  3.703165e+00    3.003217e+00
  3.734916e+00    2.913510e+00
  3.766667e+00    2.940605e+00
  3.798418e+00    3.077113e+00
  3.830170e+00    2.986310e+00
  3.861921e+00    3.126820e+00
  3.893672e+00    3.012980e+00
  3.925423e+00    3.061865e+00
  3.957174e+00    3.049807e+00
  3.988925e+00    3.079678e+00
  4.020676e+00    3.049350e+00
  4.052428e+00    3.045197e+00
  4.084179e+00    3.070832e+00
  4.115930e+00    3.110929e+00
  4.147681e+00    3.070842e+00
  4.179432e+00    3.103235e+00
  4.211183e+00    3.032929e+00
  4.242935e+00    3.005979e+00
  4.274686e+00    3.108329e+00
  4.306437e+00    3.019825e+00
  4.338188e+00    3.026271e+00
  4.369939e+00    3.104717e+00
  4.401690e+00    3.052340e+00
  4.433441e+00    3.074753e+00
  4.465193e+00    3.092772e+00
  4.496944e+00    3.064118e+00
  4.528695e+00    3.112634e+00
  4.560446e+00    3.048395e+00
  4.592197e+00    3.127981e+00
  4.623948e+00    3.253671e+00
  4.655699e+00    3.001892e+00
  4.687451e+00    3.159486e+00
  4.719202e+00    3.133718e+00
  4.750953e+00    3.279601e+00
  4.782704e+00    2.984061e+00
  4.814455e+00    3.144530e+00
  4.846206e+00    3.119881e+00
  4.877957e+00    3.155725e+00
  4.909709e+00    3.119781e+00
  4.941460e+00    3.119197e+00
  4.973211e+00    3.131576e+00
  5.004962e+00    3.120404e+00
  5.036713e+00    3.042412e+00
  5.068464e+00    3.185750e+00
  5.100216e+00    3.118840e+00
  5.131967e+00    3.144952e+00
  5.163718e+00    3.261443e+00
  5.195469e+00    3.152401e+00
  5.227220e+00    3.142832e+00
  5.258971e+00    3.221639e+00
  5.290722e+00    3.157749e+00
  5.322474e+00    3.222287e+00
  5.354225e+00    3.152237e+00
  5.385976e+00    3.160469e+00
  5.417727e+00    3.100810e+00
  5.449478e+00    3.182612e+00
  5.481229e+00    3.079345e+00
  5.512980e+00    3.050550e+00
  5.544732e+00    3.139716e+00
  5.576483e+00    3.080583e+00
  5.608234e+00    3.028996e+00
  5.639985e+00    3.111584e+00
  5.671736e+00    3.137658e+00
  5.703487e+00    3.117302e+00
  5.735238e+00    3.100379e+00
  5.766990e+00    3.062704e+00
  5.798741e+00    3.040277e+00
  5.830492e+00    3.071158e+00
  5.862243e+00    3.076663e+00
  5.893994e+00    3.072766e+00
  5.925745e+00    3.001589e+00
  5.957497e+00    3.048057e+00
  5.989248e+00    2.942603e+00
  6.020999e+00    3.020672e+00
  6.052750e+00    3.088763e+00
  6.084501e+00    3.036680e+00
  6.116252e+00    3.163605e+00
  6.148003e+00    3.078518e+00
  6.179755e+00    3.105832e+00
  6.211506e+00    2.980752e+00
  6.243257e+00    3.106685e+00
  6.275008e+00    3.042083e+00
  6.306759e+00    3.022349e+00
  6.338510e+00    3.071777e+00
  6.370261e+00    3.104001e+00
  6.402013e+00    3.088570e+00
  6.433764e+00    3.057815e+00
  6.465515e+00    3.133582e+00
  6.497266e+00    3.039118e+00
  6.529017e+00    2.989823e+00
  6.560768e+00    3.027041e+00
  6.592519e+00    3.136150e+00
  6.624271e+00    3.028489e+00
  6.656022e+00    3.078923e+00
  6.687773e+00    3.064357e+00
  6.719524e+00    2.972426e+00
  6.751275e+00    3.032820e+00
  6.783026e+00    3.047343e+00
  6.814777e+00    3.092599e+00
  6.846529e+00    3.009310e+00
  6.878280e+00    3.000022e+00
  6.910031e+00    3.042562e+00
  6.941782e+00    3.036350e+00
  6.973533e+00    3.047739e+00
  7.005284e+00    2.999726e+00
  7.037036e+00    3.005211e+00
  7.068787e+00    3.057158e+00
  7.100538e+00    3.065254e+00
  7.132289e+00    3.052877e+00
  7.164040e+00    3.034236e+00
  7.195791e+00    3.074378e+00
  7.227542e+00    3.014881e+00
  7.259294e+00    2.984483e+00
  7.291045e+00    3.030687e+00
  7.322796e+00    3.045260e+00
  7.354547e+00    3.039800e+00
  7.386298e+00    3.046539e+00
  7.418049e+00    3.001844e+00
  7.449800e+00    3.029516e+00
  7.481552e+00    3.005846e+00
  7.513303e+00    2.943063e+00
  7.545054e+00    3.009937e+00
  7.576805e+00    2.959453e+00
  7.608556e+00    3.022166e+00
  7.640307e+00    2.995457e+00
  7.672058e+00    3.016222e+00
  7.703810e+00    2.930153e+00
  7.735561e+00    2.964457e+00
  7.767312e+00    2.933227e+00
  7.799063e+00    2.948880e+00
  7.830814e+00    3.007605e+00
  7.862565e+00    3.027033e+00
  7.894317e+00    2.924560e+00
  7.926068e+00    2.952930e+00
  7.957819e+00    2.910914e+00
  7.989570e+00    2.899393e+00
  8.021321e+00    2.961223e+00
  8.053072e+00    3.031213e+00
  8.084823e+00    2.958411e+00
  8.116575e+00    2.936622e+00
  8.148326e+00    2.991269e+00
  8.180077e+00    2.974476e+00
  8.211828e+00    2.971931e+00
  8.243579e+00    2.955578e+00
  8.275330e+00    2.909357e+00
  8.307081e+00    2.939991e+00
  8.338833e+00    2.880691e+00
  8.370584e+00    2.958079e+00
  8.402335e+00    2.932237e+00
  8.434086e+00    2.924370e+00
  8.465837e+00    2.983485e+00
  8.497588e+00    2.945622e+00
  8.529339e+00    2.896887e+00
  8.561091e+00    2.899309e+00
  8.592842e+00    2.887508e+00
  8.624593e+00    2.881610e+00
  8.656344e+00    2.888968e+00
  8.688095e+00    2.835749e+00
  8.719846e+00    2.882117e+00
  8.751598e+00    2.895031e+00
  8.783349e+00    2.879253e+00
  8.815100e+00    2.841769e+00
  8.846851e+00    2.842506e+00
  8.878602e+00    2.871535e+00
  8.910353e+00    2.881770e+00
  8.942104e+00    2.870775e+00
  8.973856e+00    2.829183e+00
  9.005607e+00    2.850993e+00
  9.037358e+00    2.836369e+00
  9.069109e+00    2.856389e+00
  9.100860e+00    2.780298e+00
  9.132611e+00    2.883015e+00
  9.164362e+00    2.836900e+00
  9.196114e+00    2.789779e+00
  9.227865e+00    2.807855e+00
  9.259616e+00    2.761705e+00
  9.291367e+00    2.836659e+00
  9.323118e+00    2.820445e+00
  9.354869e+00    2.819732e+00
  9.386620e+00    2.817096e+00
  9.418372e+00    2.816137e+00
  9.450123e+00    2.791570e+00
  9.481874e+00    2.767810e+00
  9.513625e+00    2.783361e+00
  9.545376e+00    2.831110e+00
  9.577127e+00    2.792947e+00
  9.608878e+00    2.794868e+00
  9.640630e+00    2.790602e+00
  9.672381e+00    2.721438e+00
  9.704132e+00    2.731035e+00
  9.735883e+00    2.787424e+00
  9.767634e+00    2.757903e+00
  9.799385e+00    2.728233e+00
  9.831137e+00    2.711324e+00
  9.862888e+00    2.751270e+00
  9.894639e+00    2.734124e+00
  9.926390e+00    2.643233e+00
  9.958141e+00    2.747125e+00
  9.989892e+00    2.719775e+00
  1.002164e+01    2.723964e+00
  1.005339e+01    2.708162e+00
  1.008515e+01    2.704435e+00
  1.011690e+01    2.681077e+00
  1.014865e+01    2.698034e+00
  1.018040e+01    2.670267e+00
  1.021215e+01    2.638199e+00
  1.024390e+01    2.639882e+00
  1.027565e+01    2.644372e+00
  1.030740e+01    2.696175e+00
  1.033915e+01    2.679257e+00
  1.037091e+01    2.658907e+00
  1.040266e+01    2.649165e+00
  1.043441e+01    2.566950e+00
  1.046616e+01    2.607152e+00
  1.049791e+01    2.614911e+00
  1.052966e+01    2.590879e+00
  1.056141e+01    2.610514e+00
  1.059316e+01    2.586334e+00
  1.062492e+01    2.567330e+00
  1.065667e+01    2.620143e+00
  1.068842e+01    2.622633e+00
  1.072017e+01    2.571016e+00
  1.075192e+01    2.553119e+00
  1.078367e+01    2.600273e+00
  1.081542e+01    2.542858e+00
  1.084717e+01    2.547119e+00
  1.087892e+01    2.507958e+00
  1.091068e+01    2.521394e+00
  1.094243e+01    2.524027e+00
  1.097418e+01    2.500919e+00
  1.100593e+01    2.532497e+00
  1.103768e+01    2.505664e+00
  1.106943e+01    2.528479e+00
  1.110118e+01    2.431102e+00
  1.113293e+01    2.497135e+00
  1.116468e+01    2.494749e+00
  1.119644e+01    2.515529e+00
  1.122819e+01    2.468915e+00
  1.125994e+01    2.476560e+00
  1.129169e+01    2.441941e+00
  1.132344e+01    2.427873e+00
  1.135519e+01    2.462127e+00
  1.138694e+01    2.504242e+00
  1.141869e+01    2.435501e+00
  1.145045e+01    2.452360e+00
  1.148220e+01    2.436420e+00
  1.151395e+01    2.353032e+00
  1.154570e+01    2.383728e+00
  1.157745e+01    2.460483e+00
  1.160920e+01    2.428973e+00
  1.164095e+01    2.410551e+00
  1.167270e+01    2.411807e+00
  1.170445e+01    2.365129e+00
  1.173621e+01    2.359481e+00
  1.176796e+01    2.393752e+00
  1.179971e+01    2.405447e+00
  1.183146e+01    2.390315e+00
  1.186321e+01    2.351352e+00
  1.189496e+01    2.398981e+00
  1.192671e+01    2.339756e+00
  1.195846e+01    2.384231e+00
  1.199021e+01    2.388439e+00
  1.202197e+01    2.314866e+00
  1.205372e+01    2.336202e+00
  1.208547e+01    2.370771e+00
  1.211722e+01    2.357596e+00
  1.214897e+01    2.306122e+00
  1.218072e+01    2.369114e+00
  1.221247e+01    2.350647e+00
  1.224422e+01    2.382760e+00
  1.227597e+01    2.337806e+00
  1.230773e+01    2.353867e+00
  1.233948e+01    2.359971e+00
  1.237123e+01    2.363856e+00
  1.240298e+01    2.352720e+00
  1.243473e+01    2.375623e+00
  1.246648e+01    2.384975e+00
  1.249823e+01    2.350903e+00
  1.252998e+01    2.368244e+00
  1.256174e+01    2.394322e+00
  1.259349e+01    2.395772e+00
  1.262524e+01    2.438537e+00
  1.265699e+01    2.444780e+00
  1.268874e+01    2.422641e+00
  1.272049e+01    2.524288e+00
  1.275224e+01    2.618603e+00
  1.278399e+01    2.667549e+00
  1.281574e+01    2.787065e+00
  1.284750e+01    2.821101e+00
  1.287925e+01    3.047386e+00
  1.291100e+01    3.316269e+00
  1.294275e+01    3.707813e+00
  1.297450e+01    4.242727e+00
  1.300625e+01    5.262389e+00
  1.303800e+01    6.815949e+00
  1.306975e+01    9.074080e+00
  1.310150e+01    1.214595e+01
  1.313326e+01    1.518020e+01
  1.316501e+01    1.800234e+01
  1.319676e+01    1.981356e+01
  1.322851e+01    1.814422e+01
  1.326026e+01    1.379249e+01
  1.329201e+01    9.662888e+00
  1.332376e+01    7.021653e+00
  1.335551e+01    5.381913e+00
  1.338727e+01    4.431967e+00
  1.341902e+01    3.738037e+00
  1.345077e+01    3.337764e+00
  1.348252e+01    2.992127e+00
  1.351427e+01    2.846757e+00
  1.354602e+01    2.777590e+00
  1.357777e+01    2.640171e+00
  1.360952e+01    2.493737e+00
  1.364127e+01    2.423458e+00
  1.367303e+01    2.340679e+00
  1.370478e+01    2.320368e+00
  1.373653e+01    2.255740e+00
  1.376828e+01    2.223683e+00
  1.380003e+01    2.246859e+00
  1.383178e+01    2.183458e+00
  1.386353e+01    2.190303e+00
  1.389528e+01    2.185837e+00
  1.392703e+01    2.135353e+00
  1.395879e+01    2.112192e+00
  1.399054e+01    2.123574e+00
  1.402229e+01    2.052339e+00
  1.405404e+01    2.089091e+00
  1.408579e+01    2.052847e+00
  1.411754e+01    2.049318e+00
  1.414929e+01    2.004351e+00
  1.418104e+01    2.037627e+00
  1.421279e+01    2.063964e+00
  1.424455e+01    2.013068e+00
  1.427630e+01    2.009252e+00
  1.430805e+01    2.010150e+00
  1.433980e+01    1.976308e+00
  1.437155e+01    1.980379e+00
  1.440330e+01    1.962130e+00
  1.443505e+01    1.955839e+00
  1.446680e+01    1.954722e+00
  1.449856e+01    1.945019e+00
  1.453031e+01    1.932413e+00
  1.456206e+01    1.942176e+00
  1.459381e+01    1.949062e+00
  1.462556e+01    1.915916e+00
  1.465731e+01    1.916998e+00
  1.468906e+01    1.893371e+00
  1.472081e+01    1.953054e+00
  1.475256e+01    1.970946e+00
  1.478432e+01    1.940203e+00
  1.481607e+01    1.943560e+00
  1.484782e+01    1.956338e+00
  1.487957e+01    1.937123e+00
  1.491132e+01    1.960542e+00
  1.494307e+01    2.014598e+00
  1.497482e+01    2.088621e+00
  1.500657e+01    2.192885e+00
  1.503832e+01    2.278209e+00
  1.507008e+01    2.480827e+00
  1.510183e+01    2.795034e+00
  1.513358e+01    3.260145e+00
  1.516533e+01    4.047487e+00
  1.519708e+01    4.917276e+00
  1.522883e+01    5.733765e+00
  1.526058e+01    6.316854e+00
  1.529233e+01    6.572750e+00
  1.532409e+01    6.180438e+00
  1.535584e+01    4.973277e+00
  1.538759e+01    3.880645e+00
  1.541934e+01    3.142134e+00
  1.545109e+01    2.609790e+00
  1.548284e+01    2.388674e+00
  1.551459e+01    2.169934e+00
  1.554634e+01    2.042356e+00
  1.557809e+01    1.938652e+00
  1.560985e+01    1.912385e+00
  1.564160e+01    1.857976e+00
  1.567335e+01    1.804337e+00
  1.570510e+01    1.772050e+00
  1.573685e+01    1.756028e+00
  1.576860e+01    1.736903e+00
  1.580035e+01    1.707322e+00
  1.583210e+01    1.705873e+00
  1.586385e+01    1.708752e+00
  1.589561e+01    1.684870e+00
  1.592736e+01    1.670132e+00
  1.595911e+01    1.670142e+00
  1.599086e+01    1.675782e+00
  1.602261e+01    1.627655e+00
  1.605436e+01    1.641888e+00
  1.608611e+01    1.651648e+00
  1.611786e+01    1.588962e+00
  1.614961e+01    1.627215e+00
  1.618137e+01    1.620216e+00
  1.621312e+01    1.579684e+00
  1.624487e+01    1.622268e+00
  1.627662e+01    1.565116e+00
  1.630837e+01    1.588587e+00
  1.634012e+01    1.546165e+00
  1.637187e+01    1.574119e+00
  1.640362e+01    1.516374e+00
  1.643538e+01    1.563936e+00
  1.646713e+01    1.532701e+00
  1.649888e+01    1.541416e+00
  1.653063e+01    1.542201e+00
  1.656238e+01    1.525106e+00
  1.659413e+01    1.514363e+00
  1.662588e+01    1.492546e+00
  1.665763e+01    1.506654e+00
  1.668938e+01    1.510208e+00
  1.672114e+01    1.499302e+00
  1.675289e+01    1.475178e+00
  1.678464e+01    1.469285e+00
  1.681639e+01    1.495081e+00
  1.684814e+01    1.481184e+00
  1.687989e+01    1.502857e+00
  1.691164e+01    1.462526e+00
  1.694339e+01    1.497845e+00
  1.697514e+01    1.437532e+00
  1.700690e+01    1.469585e+00
  1.703865e+01    1.446902e+00
  1.707040e+01    1.465780e+00
  1.710215e+01    1.417616e+00
  1.713390e+01    1.444556e+00
  1.716565e+01    1.425982e+00
  1.719740e+01    1.407549e+00
  1.722915e+01    1.415218e+00
  1.726091e+01    1.451012e+00
  1.729266e+01    1.397366e+00
  1.732441e+01    1.402497e+00
  1.735616e+01    1.400399e+00
  1.738791e+01    1.414628e+00
  1.741966e+01    1.386070e+00
  1.745141e+01    1.396918e+00
  1.748316e+01    1.367782e+00
  1.751491e+01    1.400533e+00
  1.754667e+01    1.393171e+00
  1.757842e+01    1.388116e+00
  1.761017e+01    1.394683e+00
  1.764192e+01    1.341580e+00
  1.767367e+01    1.349822e+00
  1.770542e+01    1.404647e+00
  1.773717e+01    1.334180e+00
  1.776892e+01    1.339450e+00
  1.780067e+01    1.336604e+00
  1.783243e+01    1.336245e+00
  1.786418e+01    1.343760e+00
  1.789593e+01    1.366397e+00
  1.792768e+01    1.315102e+00
  1.795943e+01    1.322445e+00
  1.799118e+01    1.329523e+00
  1.802293e+01    1.324548e+00
  1.805468e+01    1.311274e+00
  1.808643e+01    1.344225e+00
  1.811819e+01    1.303756e+00
  1.814994e+01    1.280472e+00
  1.818169e+01    1.301895e+00
  1.821344e+01    1.307610e+00
  1.824519e+01    1.291958e+00
  1.827694e+01    1.289171e+00
  1.830869e+01    1.288952e+00
  1.834044e+01    1.271438e+00
  1.837220e+01    1.287789e+00
  1.840395e+01    1.266828e+00
  1.843570e+01    1.291493e+00
  1.846745e+01    1.254071e+00
  1.849920e+01    1.266923e+00
  1.853095e+01    1.265370e+00
  1.856270e+01    1.270074e+00
  1.859445e+01    1.270582e+00
  1.862620e+01    1.230474e+00
  1.865796e+01    1.264629e+00
  1.868971e+01    1.237207e+00
  1.872146e+01    1.233829e+00
  1.875321e+01    1.257679e+00
  1.878496e+01    1.247554e+00
  1.881671e+01    1.244470e+00
  1.884846e+01    1.244339e+00
  1.888021e+01    1.255882e+00
  1.891196e+01    1.212263e+00
  1.894372e+01    1.209031e+00
  1.897547e+01    1.213851e+00
  1.900722e+01    1.236350e+00
  1.903897e+01    1.235823e+00
  1.907072e+01    1.207163e+00
  1.910247e+01    1.227898e+00
  1.913422e+01    1.212261e+00
  1.916597e+01    1.198352e+00
  1.919773e+01    1.187680e+00
  1.922948e+01    1.187667e+00
  1.926123e+01    1.196945e+00
  1.929298e+01    1.192667e+00
  1.932473e+01    1.225927e+00
  1.935648e+01    1.156262e+00
  1.938823e+01    1.194139e+00
  1.941998e+01    1.170608e+00
  1.945173e+01    1.194949e+00
  1.948349e+01    1.178095e+00
  1.951524e+01    1.174659e+00
  1.954699e+01    1.174819e+00
  1.957874e+01    1.179657e+00
  1.961049e+01    1.160979e+00
  1.964224e+01    1.152274e+00
  1.967399e+01    1.144950e+00
  1.970574e+01    1.151109e+00
  1.973749e+01    1.177245e+00
  1.976925e+01    1.130954e+00
  1.980100e+01    1.150611e+00
  1.983275e+01    1.151283e+00
  1.986450e+01    1.142031e+00
  1.989625e+01    1.167546e+00
  1.992800e+01    1.140013e+00
  1.995975e+01    1.153125e+00
  1.999150e+01    1.115696e+00
  2.002325e+01    1.144661e+00
  2.005501e+01    1.141380e+00
  2.008676e+01    1.137890e+00
  2.011851e+01    1.128610e+00
  2.015026e+01    1.121860e+00
  2.018201e+01    1.120236e+00
  2.021376e+01    1.117259e+00
  2.024551e+01    1.132445e+00
  2.027726e+01    1.127677e+00
  2.030902e+01    1.120868e+00
  2.034077e+01    1.133595e+00
  2.037252e+01    1.124137e+00
  2.040427e+01    1.147109e+00
  2.043602e+01    1.121917e+00
  2.046777e+01    1.117442e+00
  2.049952e+01    1.117094e+00
  2.053127e+01    1.110960e+00
  2.056302e+01    1.144518e+00
  2.059478e+01    1.118243e+00
  2.062653e+01    1.111245e+00
  2.065828e+01    1.105452e+00
  2.069003e+01    1.097157e+00
  2.072178e+01    1.094712e+00
  2.075353e+01    1.106640e+00
  2.078528e+01    1.087714e+00
  2.081703e+01    1.120186e+00
  2.084878e+01    1.113264e+00
  2.088054e+01    1.104663e+00
  2.091229e+01    1.125373e+00
  2.094404e+01    1.087779e+00
  2.097579e+01    1.106027e+00
  2.100754e+01    1.091270e+00
  2.103929e+01    1.091496e+00
  2.107104e+01    1.111020e+00
  2.110279e+01    1.109132e+00
  2.113455e+01    1.132396e+00
  2.116630e+01    1.125191e+00
  2.119805e+01    1.132267e+00
  2.122980e+01    1.128279e+00
  2.126155e+01    1.114988e+00
  2.129330e+01    1.143496e+00
  2.132505e+01    1.122467e+00
  2.135680e+01    1.169582e+00
  2.138855e+01    1.203478e+00
  2.142031e+01    1.206051e+00
  2.145206e+01    1.225576e+00
  2.148381e+01    1.302660e+00
  2.151556e+01    1.322821e+00
  2.154731e+01    1.370051e+00
  2.157906e+01    1.486755e+00
  2.161081e+01    1.562772e+00
  2.164256e+01    1.710183e+00
  2.167431e+01    1.946396e+00
  2.170607e+01    2.330291e+00
  2.173782e+01    2.884365e+00
  2.176957e+01    3.712132e+00
  2.180132e+01    4.855309e+00
  2.183307e+01    6.417747e+00
  2.186482e+01    8.123548e+00
  2.189657e+01    9.893312e+00
  2.192832e+01    1.092454e+01
  2.196007e+01    1.034812e+01
  2.199183e+01    8.279721e+00
  2.202358e+01    5.961821e+00
  2.205533e+01    4.288911e+00
  2.208708e+01    3.215545e+00
  2.211883e+01    2.548306e+00
  2.215058e+01    2.105282e+00
  2.218233e+01    1.817871e+00
  2.221408e+01    1.634924e+00
  2.224584e+01    1.463420e+00
  2.227759e+01    1.402264e+00
  2.230934e+01    1.283718e+00
  2.234109e+01    1.243721e+00
  2.237284e+01    1.174551e+00
  2.240459e+01    1.158006e+00
  2.243634e+01    1.124714e+00
  2.246809e+01    1.077904e+00
  2.249984e+01    1.067800e+00
  2.253160e+01    1.057062e+00
  2.256335e+01    1.044726e+00
  2.259510e+01    1.019008e+00
  2.262685e+01    9.981443e-01
  2.265860e+01    9.966677e-01
  2.269035e+01    9.993539e-01
  2.272210e+01    9.734616e-01
  2.275385e+01    9.866067e-01
  2.278560e+01    9.443460e-01
  2.281736e+01    9.546592e-01
  2.284911e+01    9.539084e-01
  2.288086e+01    9.359884e-01
  2.291261e+01    9.557856e-01
  2.294436e+01    9.337500e-01
  2.297611e+01    9.151193e-01
  2.300786e+01    9.412692e-01
  2.303961e+01    9.012404e-01
  2.307137e+01    8.947627e-01
  2.310312e+01    9.075640e-01
  2.313487e+01    9.063184e-01
  2.316662e+01    9.051384e-01
  2.319837e+01    8.967921e-01
  2.323012e+01    8.799386e-01
  2.326187e+01    8.957526e-01
  2.329362e+01    8.982469e-01
  2.332537e+01    8.755369e-01
  2.335713e+01    8.776660e-01
  2.338888e+01    8.781490e-01
  2.342063e+01    8.644715e-01
  2.345238e+01    8.615579e-01
  2.348413e+01    8.535791e-01
  2.351588e+01    8.438439e-01
  2.354763e+01    8.688709e-01
  2.357938e+01    8.851240e-01
  2.361113e+01    8.529841e-01
  2.364289e+01    8.718294e-01
  2.367464e+01    8.488152e-01
  2.370639e+01    8.529691e-01
  2.373814e+01    8.390085e-01
  2.376989e+01    8.279321e-01
  2.380164e+01    8.208047e-01
  2.383339e+01    8.166682e-01
  2.386514e+01    8.239615e-01
  2.389689e+01    8.362325e-01
  2.392865e+01    8.134874e-01
  2.396040e+01    8.134546e-01
  2.399215e+01    7.997468e-01
  2.402390e+01    8.078576e-01
  2.405565e+01    7.963927e-01
  2.408740e+01    7.851603e-01
  2.411915e+01    8.078740e-01
  2.415090e+01    7.913061e-01
  2.418266e+01    7.994602e-01
  2.421441e+01    7.856058e-01
  2.424616e+01    7.922033e-01
  2.427791e+01    8.005639e-01
  2.430966e+01    8.082763e-01
  2.434141e+01    8.202467e-01
  2.437316e+01    8.026505e-01
  2.440491e+01    8.201156e-01
  2.443666e+01    7.849912e-01
  2.446842e+01    8.012805e-01
  2.450017e+01    7.886663e-01
  2.453192e+01    7.959436e-01
  2.456367e+01    8.019489e-01
  2.459542e+01    8.120617e-01
  2.462717e+01    8.099592e-01
  2.465892e+01    8.160833e-01
  2.469067e+01    8.048206e-01
  2.472242e+01    8.054987e-01
  2.475418e+01    8.028893e-01
  2.478593e+01    7.924749e-01
  2.481768e+01    7.883909e-01
  2.484943e+01    8.058653e-01
  2.488118e+01    8.055545e-01
  2.491293e+01    8.083727e-01
  2.494468e+01    8.185155e-01
  2.497643e+01    8.081312e-01
  2.500819e+01    8.202848e-01
  2.503994e+01    8.139674e-01
  2.507169e+01    8.127378e-01
  2.510344e+01    8.546323e-01
  2.513519e+01    8.212945e-01
  2.516694e+01    8.493531e-01
  2.519869e+01    8.436267e-01
  2.523044e+01    8.480327e-01
  2.526219e+01    8.723118e-01
  2.529395e+01    8.902358e-01
  2.532570e+01    8.933585e-01
  2.535745e+01    9.047744e-01
  2.538920e+01    9.275813e-01
  2.542095e+01    9.286547e-01
  2.545270e+01    9.491181e-01
  2.548445e+01    9.738542e-01
  2.551620e+01    9.717135e-01
  2.554795e+01    1.026609e+00
  2.557971e+01    1.065081e+00
  2.561146e+01    1.088783e+00
  2.564321e+01    1.204184e+00
  2.567496e+01    1.291655e+00
  2.570671e+01    1.402928e+00
  2.573846e+01    1.591978e+00
  2.577021e+01    1.850627e+00
  2.580196e+01    2.235001e+00
  2.583371e+01    2.872232e+00
  2.586547e+01    3.725104e+00
  2.589722e+01    4.880123e+00
  2.592897e+01    6.403713e+00
  2.596072e+01    8.022449e+00
  2.599247e+01    9.040774e+00
  2.602422e+01    8.871084e+00
  2.605597e+01    7.479207e+00
  2.608772e+01    5.582911e+00
  2.611948e+01    4.056487e+00
  2.615123e+01    3.009011e+00
  2.618298e+01    2.364964e+00
  2.621473e+01    1.993167e+00
  2.624648e+01    1.658945e+00
  2.627823e+01    1.474769e+00
  2.630998e+01    1.345969e+00
  2.634173e+01    1.226852e+00
  2.637348e+01    1.134633e+00
  2.640524e+01    1.109147e+00
  2.643699e+01    1.047539e+00
  2.646874e+01    1.004250e+00
  2.650049e+01    1.026420e+00
  2.653224e+01    9.569171e-01
  2.656399e+01    9.588256e-01
  2.659574e+01    9.595096e-01
  2.662749e+01    9.624105e-01
  2.665924e+01    9.429062e-01
  2.669100e+01    9.136766e-01
  2.672275e+01    9.426317e-01
  2.675450e+01    9.050007e-01
  2.678625e+01    8.785114e-01
  2.681800e+01    9.382709e-01
  2.684975e+01    9.268078e-01
  2.688150e+01    9.171993e-01
  2.691325e+01    9.432604e-01
  2.694501e+01    9.727376e-01
  2.697676e+01    9.716642e-01
  2.700851e+01    1.037386e+00
  2.704026e+01    1.074140e+00
  2.707201e+01    1.127439e+00
  2.710376e+01    1.284850e+00
  2.713551e+01    1.483539e+00
  2.716726e+01    1.708290e+00
  2.719901e+01    2.082892e+00
  2.723077e+01    2.421667e+00
  2.726252e+01    2.654893e+00
  2.729427e+01    2.478750e+00
  2.732602e+01    2.122617e+00
  2.735777e+01    1.750813e+00
  2.738952e+01    1.469006e+00
  2.742127e+01    1.253964e+00
  2.745302e+01    1.153346e+00
  2.748477e+01    1.044623e+00
  2.751653e+01    9.912183e-01
  2.754828e+01    9.579565e-01
  2.758003e+01    9.267160e-01
  2.761178e+01    9.081909e-01
  2.764353e+01    8.725561e-01
  2.767528e+01    8.513020e-01
  2.770703e+01    8.579345e-01
  2.773878e+01    8.556730e-01
  2.777054e+01    8.605102e-01
  2.780229e+01    8.408344e-01
  2.783404e+01    8.310149e-01
  2.786579e+01    8.241724e-01
  2.789754e+01    8.362120e-01
  2.792929e+01    8.195019e-01
  2.796104e+01    7.991192e-01
  2.799279e+01    7.877243e-01
  2.802454e+01    8.183857e-01
  2.805630e+01    8.077837e-01
  2.808805e+01    8.003899e-01
  2.811980e+01    7.969516e-01
  2.815155e+01    7.823368e-01
  2.818330e+01    7.961060e-01
  2.821505e+01    8.104182e-01
  2.824680e+01    7.742767e-01
  2.827855e+01    7.951757e-01
  2.831030e+01    8.099467e-01
  2.834206e+01    8.027816e-01
  2.837381e+01    7.646413e-01
  2.840556e+01    7.766909e-01
  2.843731e+01    7.952008e-01
  2.846906e+01    7.667629e-01
  2.850081e+01    7.892385e-01
  2.853256e+01    7.472368e-01
  2.856431e+01    7.710919e-01
  2.859606e+01    7.611718e-01
  2.862782e+01    7.910919e-01
  2.865957e+01    7.501537e-01
  2.869132e+01    7.650744e-01
  2.872307e+01    7.471092e-01
  2.875482e+01    7.735142e-01
  2.878657e+01    7.696592e-01
  2.881832e+01    7.733791e-01
  2.885007e+01    7.582762e-01
  2.888183e+01    7.708668e-01
  2.891358e+01    7.531027e-01
  2.894533e+01    7.516313e-01
  2.897708e+01    7.414428e-01
  2.900883e+01    7.559618e-01
  2.904058e+01    7.439154e-01
  2.907233e+01    7.664507e-01
  2.910408e+01    7.679752e-01
  2.913583e+01    7.517855e-01
  2.916759e+01    7.566706e-01
  2.919934e+01    7.719820e-01
  2.923109e+01    7.701873e-01
  2.926284e+01    7.300234e-01
  2.929459e+01    7.582040e-01
  2.932634e+01    7.672579e-01
  2.935809e+01    7.764372e-01
  2.938984e+01    7.466339e-01
  2.942159e+01    7.584717e-01
  2.945335e+01    7.104130e-01
  2.948510e+01    7.472638e-01
  2.951685e+01    7.643113e-01
  2.954860e+01    7.261004e-01
  2.958035e+01    7.249531e-01
  2.961210e+01    7.311127e-01
  2.964385e+01    7.545850e-01
  2.967560e+01    7.340788e-01
  2.970736e+01    7.245962e-01
  2.973911e+01    7.603436e-01
  2.977086e+01    7.253770e-01
  2.980261e+01    7.341340e-01
  2.983436e+01    7.403055e-01
  2.986611e+01    7.457364e-01
  2.989786e+01    7.220504e-01
  2.992961e+01    7.409299e-01
  2.996136e+01    7.304137e-01
  2.999312e+01    7.416281e-01
  3.002487e+01    7.458113e-01
  3.005662e+01    7.314369e-01
  3.008837e+01    7.419100e-01
  3.012012e+01    7.582181e-01
  3.015187e+01    7.237966e-01
  3.018362e+01    7.309061e-01
  3.021537e+01    7.334503e-01
  3.024712e+01    7.301363e-01
  3.027888e+01    7.054096e-01
  3.031063e+01    7.208954e-01
  3.034238e+01    7.234756e-01
  3.037413e+01    7.397013e-01
  3.040588e+01    7.366728e-01
  3.043763e+01    7.519955e-01
  3.046938e+01    7.524589e-01
  3.050113e+01    7.376285e-01
  3.053288e+01    7.202458e-01
  3.056464e+01    7.193043e-01
  3.059639e+01    7.120309e-01
  3.062814e+01    7.205630e-01
  3.065989e+01    7.168558e-01
  3.069164e+01    7.186746e-01
  3.072339e+01    7.108980e-01
  3.075514e+01    7.077857e-01
  3.078689e+01    7.188281e-01
  3.081865e+01    7.236575e-01
  3.085040e+01    7.185215e-01
  3.088215e+01    7.431530e-01
  3.091390e+01    7.366101e-01
  3.094565e+01    7.369179e-01
  3.097740e+01    7.261246e-01
  3.100915e+01    7.215854e-01
  3.104090e+01    7.046940e-01
  3.107265e+01    7.468362e-01
  3.110441e+01    7.550563e-01
  3.113616e+01    7.198162e-01
  3.116791e+01    7.329578e-01
  3.119966e+01    7.389660e-01
  3.123141e+01    7.588597e-01
  3.126316e+01    7.421191e-01
  3.129491e+01    7.283853e-01
  3.132666e+01    7.389356e-01
  3.135841e+01    7.539807e-01
  3.139017e+01    7.797369e-01
  3.142192e+01    7.769724e-01
  3.145367e+01    7.872290e-01
  3.148542e+01    7.575668e-01
  3.151717e+01    7.681268e-01
  3.154892e+01    8.003220e-01
  3.158067e+01    8.032604e-01
  3.161242e+01    8.192682e-01
  3.164418e+01    8.269947e-01
  3.167593e+01    8.868409e-01
  3.170768e+01    9.190605e-01
  3.173943e+01    9.832603e-01
  3.177118e+01    1.092888e+00
  3.180293e+01    1.211768e+00
  3.183468e+01    1.367602e+00
  3.186643e+01    1.707909e+00
  3.189818e+01    2.085715e+00
  3.192994e+01    2.413183e+00
  3.196169e+01    2.584503e+00
  3.199344e+01    2.527395e+00
  3.202519e+01    2.103218e+00
  3.205694e+01    1.723485e+00
  3.208869e+01    1.386655e+00
  3.212044e+01    1.177368e+00
  3.215219e+01    1.045168e+00
  3.218394e+01    9.635078e-01
  3.221570e+01    9.028871e-01
  3.224745e+01    8.522378e-01
  3.227920e+01    8.111123e-01
  3.231095e+01    7.963643e-01
  3.234270e+01    8.212357e-01
  3.237445e+01    7.930467e-01
  3.240620e+01    7.522923e-01
  3.243795e+01    7.709351e-01
  3.246970e+01    7.400041e-01
  3.250146e+01    7.900953e-01
  3.253321e+01    7.500145e-01
  3.254908e+01    7.531216e-01