File: XRD/2024-07-27_002_Ru-CGO-ex_Activtation_ramp_000002_data_000006.dat
# == pyFAI calibration ==
# Distance Sample to Detector: 0.4 m
# PONI: 9.750e-02, 1.135e-01 m
# Rotations: -0.000175 0.000000 -0.000000 rad
#
# == Fit2d calibration ==
# Distance Sample-beamCenter: 400.000 mm
# Center: x=1514.000, y=1300.000 pix
# Tilt: 0.010 deg  TiltPlanRot: 0.010 deg
#
# Detector Detector	 Spline= None	 PixelSize= 7.500e-05, 7.500e-05 m
#    Detector has a mask: False
#    Detector has a dark current: False
#    detector has a flat field: False
#
# Wavelength: 6.888e-11 m
# Mask applied: user provided
# Dark current applied: False
# Flat field applied: False
# Polarization factor: 0.99
# Normalization factor: 1.0
# --> /home/myspot/data/2024_07_Rosario/Ru-CGO-ex/2024-07-27_002_Ru-CGO-ex_Activtation_ramp_000002_data_000006.dat
#       q_nm^-1             I
  2.003187e-02    7.711996e-02
  5.178302e-02    1.032391e-01
  8.353417e-02    4.427407e-02
  1.152853e-01    7.214832e-02
  1.470365e-01    0.000000e+00
  1.787876e-01    2.850442e-02
  2.105388e-01    7.744397e-02
  2.422899e-01    1.689109e-02
  2.740411e-01    2.660313e-02
  3.057922e-01    4.936139e-02
  3.375433e-01    4.687761e-02
  3.692945e-01    4.984429e-02
  4.010456e-01    4.760433e-02
  4.327968e-01    4.248233e-02
  4.645479e-01    7.956030e-02
  4.962991e-01    2.336524e-02
  5.280502e-01    3.907560e-02
  5.598014e-01    4.507072e-02
  5.915525e-01    1.916624e-02
  6.233037e-01    4.409622e-02
  6.550548e-01    2.047590e-02
  6.868060e-01    4.013106e-02
  7.185571e-01    2.764563e-02
  7.503083e-01    3.979433e-02
  7.820594e-01    9.966222e-02
  8.138106e-01    1.901165e-01
  8.455617e-01    3.274961e-01
  8.773129e-01    4.227967e-01
  9.090640e-01    5.381382e-01
  9.408152e-01    7.094898e-01
  9.725663e-01    9.295579e-01
  1.004317e+00    1.020731e+00
  1.036069e+00    1.191939e+00
  1.067820e+00    1.408914e+00
  1.099571e+00    1.387345e+00
  1.131322e+00    1.455608e+00
  1.163073e+00    1.591004e+00
  1.194824e+00    1.719262e+00
  1.226575e+00    2.124032e+00
  1.258327e+00    2.495872e+00
  1.290078e+00    2.656854e+00
  1.321829e+00    2.621504e+00
  1.353580e+00    2.646133e+00
  1.385331e+00    2.752135e+00
  1.417082e+00    2.782213e+00
  1.448834e+00    2.861947e+00
  1.480585e+00    2.913315e+00
  1.512336e+00    3.040955e+00
  1.544087e+00    3.138462e+00
  1.575838e+00    3.213686e+00
  1.607589e+00    2.922501e+00
  1.639340e+00    2.798045e+00
  1.671092e+00    3.049460e+00
  1.702843e+00    2.917877e+00
  1.734594e+00    2.872076e+00
  1.766345e+00    3.040334e+00
  1.798096e+00    2.913907e+00
  1.829847e+00    2.826971e+00
  1.861598e+00    2.930084e+00
  1.893350e+00    2.855238e+00
  1.925101e+00    2.853007e+00
  1.956852e+00    2.727282e+00
  1.988603e+00    2.864571e+00
  2.020354e+00    2.779576e+00
  2.052105e+00    2.827569e+00
  2.083856e+00    2.779834e+00
  2.115608e+00    2.752010e+00
  2.147359e+00    2.801077e+00
  2.179110e+00    2.832304e+00
  2.210861e+00    2.834939e+00
  2.242612e+00    2.668948e+00
  2.274363e+00    2.861439e+00
  2.306115e+00    2.940777e+00
  2.337866e+00    2.798329e+00
  2.369617e+00    2.714462e+00
  2.401368e+00    2.946169e+00
  2.433119e+00    2.774755e+00
  2.464870e+00    2.858837e+00
  2.496621e+00    2.944664e+00
  2.528373e+00    2.920938e+00
  2.560124e+00    2.894221e+00
  2.591875e+00    2.874530e+00
  2.623626e+00    2.929487e+00
  2.655377e+00    2.899529e+00
  2.687128e+00    2.946540e+00
  2.718879e+00    2.975101e+00
  2.750631e+00    2.936560e+00
  2.782382e+00    2.879671e+00
  2.814133e+00    2.866112e+00
  2.845884e+00    2.909142e+00
  2.877635e+00    2.946809e+00
  2.909386e+00    2.915086e+00
  2.941137e+00    2.907336e+00
  2.972889e+00    3.025886e+00
  3.004640e+00    2.932579e+00
  3.036391e+00    2.983004e+00
  3.068142e+00    3.036424e+00
  3.099893e+00    3.066940e+00
  3.131644e+00    2.937225e+00
  3.163395e+00    2.941246e+00
  3.195147e+00    3.004185e+00
  3.226898e+00    2.992980e+00
  3.258649e+00    2.926391e+00
  3.290400e+00    2.973895e+00
  3.322151e+00    3.060138e+00
  3.353902e+00    2.988967e+00
  3.385654e+00    2.962263e+00
  3.417405e+00    2.966023e+00
  3.449156e+00    3.005837e+00
  3.480907e+00    3.005400e+00
  3.512658e+00    2.978415e+00
  3.544409e+00    2.955240e+00
  3.576160e+00    3.034908e+00
  3.607912e+00    2.944803e+00
  3.639663e+00    2.988629e+00
  3.671414e+00    3.050430e+00
  3.703165e+00    2.971359e+00
  3.734916e+00    3.044366e+00
  3.766667e+00    3.063533e+00
  3.798418e+00    2.986937e+00
  3.830170e+00    3.007548e+00
  3.861921e+00    3.115196e+00
  3.893672e+00    3.029036e+00
  3.925423e+00    3.109331e+00
  3.957174e+00    2.984211e+00
  3.988925e+00    2.979182e+00
  4.020676e+00    3.049760e+00
  4.052428e+00    3.037090e+00
  4.084179e+00    3.061693e+00
  4.115930e+00    3.094007e+00
  4.147681e+00    3.062624e+00
  4.179432e+00    3.047939e+00
  4.211183e+00    3.075719e+00
  4.242935e+00    2.999191e+00
  4.274686e+00    3.068598e+00
  4.306437e+00    3.119260e+00
  4.338188e+00    3.157078e+00
  4.369939e+00    3.111233e+00
  4.401690e+00    3.133344e+00
  4.433441e+00    3.116164e+00
  4.465193e+00    3.094497e+00
  4.496944e+00    3.056639e+00
  4.528695e+00    3.100373e+00
  4.560446e+00    3.059310e+00
  4.592197e+00    3.094924e+00
  4.623948e+00    3.202737e+00
  4.655699e+00    3.138122e+00
  4.687451e+00    3.178519e+00
  4.719202e+00    3.128602e+00
  4.750953e+00    3.320585e+00
  4.782704e+00    3.314378e+00
  4.814455e+00    3.189656e+00
  4.846206e+00    3.162983e+00
  4.877957e+00    3.118453e+00
  4.909709e+00    3.181137e+00
  4.941460e+00    3.258500e+00
  4.973211e+00    3.185211e+00
  5.004962e+00    3.139833e+00
  5.036713e+00    3.156837e+00
  5.068464e+00    3.221014e+00
  5.100216e+00    3.146033e+00
  5.131967e+00    3.154503e+00
  5.163718e+00    3.171851e+00
  5.195469e+00    3.226428e+00
  5.227220e+00    3.143435e+00
  5.258971e+00    3.143238e+00
  5.290722e+00    3.192103e+00
  5.322474e+00    3.105301e+00
  5.354225e+00    3.211440e+00
  5.385976e+00    3.162198e+00
  5.417727e+00    3.071748e+00
  5.449478e+00    3.121762e+00
  5.481229e+00    3.105047e+00
  5.512980e+00    3.019837e+00
  5.544732e+00    3.175398e+00
  5.576483e+00    3.067186e+00
  5.608234e+00    3.106909e+00
  5.639985e+00    3.124321e+00
  5.671736e+00    3.116340e+00
  5.703487e+00    3.143979e+00
  5.735238e+00    3.173163e+00
  5.766990e+00    3.069403e+00
  5.798741e+00    3.068347e+00
  5.830492e+00    3.043087e+00
  5.862243e+00    3.094126e+00
  5.893994e+00    3.171650e+00
  5.925745e+00    2.971167e+00
  5.957497e+00    3.066958e+00
  5.989248e+00    3.137564e+00
  6.020999e+00    3.013325e+00
  6.052750e+00    3.028778e+00
  6.084501e+00    3.112851e+00
  6.116252e+00    3.129675e+00
  6.148003e+00    3.205121e+00
  6.179755e+00    3.131352e+00
  6.211506e+00    3.055986e+00
  6.243257e+00    2.993447e+00
  6.275008e+00    3.054396e+00
  6.306759e+00    3.096020e+00
  6.338510e+00    3.061694e+00
  6.370261e+00    3.025009e+00
  6.402013e+00    3.010587e+00
  6.433764e+00    3.086747e+00
  6.465515e+00    3.083540e+00
  6.497266e+00    3.036156e+00
  6.529017e+00    3.013282e+00
  6.560768e+00    3.074411e+00
  6.592519e+00    3.066380e+00
  6.624271e+00    3.026334e+00
  6.656022e+00    3.105854e+00
  6.687773e+00    3.053633e+00
  6.719524e+00    3.122276e+00
  6.751275e+00    3.072769e+00
  6.783026e+00    3.066082e+00
  6.814777e+00    3.026101e+00
  6.846529e+00    3.088415e+00
  6.878280e+00    3.098354e+00
  6.910031e+00    3.024988e+00
  6.941782e+00    3.061614e+00
  6.973533e+00    3.041303e+00
  7.005284e+00    3.004277e+00
  7.037036e+00    3.017394e+00
  7.068787e+00    3.043689e+00
  7.100538e+00    3.146224e+00
  7.132289e+00    3.003396e+00
  7.164040e+00    2.995715e+00
  7.195791e+00    3.026925e+00
  7.227542e+00    2.999177e+00
  7.259294e+00    3.088502e+00
  7.291045e+00    3.070726e+00
  7.322796e+00    3.089219e+00
  7.354547e+00    3.030061e+00
  7.386298e+00    3.041075e+00
  7.418049e+00    2.912568e+00
  7.449800e+00    3.024966e+00
  7.481552e+00    3.019083e+00
  7.513303e+00    3.071343e+00
  7.545054e+00    3.005927e+00
  7.576805e+00    3.079022e+00
  7.608556e+00    2.963869e+00
  7.640307e+00    2.977025e+00
  7.672058e+00    2.977091e+00
  7.703810e+00    2.932516e+00
  7.735561e+00    2.937289e+00
  7.767312e+00    3.039058e+00
  7.799063e+00    3.013440e+00
  7.830814e+00    2.984380e+00
  7.862565e+00    2.949728e+00
  7.894317e+00    2.988273e+00
  7.926068e+00    2.979845e+00
  7.957819e+00    2.931222e+00
  7.989570e+00    2.961659e+00
  8.021321e+00    2.956767e+00
  8.053072e+00    2.960896e+00
  8.084823e+00    3.022212e+00
  8.116575e+00    2.960735e+00
  8.148326e+00    3.037405e+00
  8.180077e+00    2.932254e+00
  8.211828e+00    2.955442e+00
  8.243579e+00    2.970773e+00
  8.275330e+00    2.954210e+00
  8.307081e+00    2.955768e+00
  8.338833e+00    2.964731e+00
  8.370584e+00    2.972915e+00
  8.402335e+00    2.913533e+00
  8.434086e+00    2.953481e+00
  8.465837e+00    2.905764e+00
  8.497588e+00    2.954723e+00
  8.529339e+00    2.915141e+00
  8.561091e+00    2.958525e+00
  8.592842e+00    2.888587e+00
  8.624593e+00    2.926338e+00
  8.656344e+00    2.894158e+00
  8.688095e+00    2.961238e+00
  8.719846e+00    2.926713e+00
  8.751598e+00    2.864758e+00
  8.783349e+00    2.867651e+00
  8.815100e+00    2.905866e+00
  8.846851e+00    2.897032e+00
  8.878602e+00    2.923674e+00
  8.910353e+00    2.872039e+00
  8.942104e+00    2.851919e+00
  8.973856e+00    2.842716e+00
  9.005607e+00    2.927561e+00
  9.037358e+00    2.825117e+00
  9.069109e+00    2.826859e+00
  9.100860e+00    2.846651e+00
  9.132611e+00    2.831894e+00
  9.164362e+00    2.888631e+00
  9.196114e+00    2.813140e+00
  9.227865e+00    2.823418e+00
  9.259616e+00    2.842276e+00
  9.291367e+00    2.831141e+00
  9.323118e+00    2.843319e+00
  9.354869e+00    2.844237e+00
  9.386620e+00    2.875201e+00
  9.418372e+00    2.799854e+00
  9.450123e+00    2.842649e+00
  9.481874e+00    2.775903e+00
  9.513625e+00    2.819358e+00
  9.545376e+00    2.866214e+00
  9.577127e+00    2.820121e+00
  9.608878e+00    2.762340e+00
  9.640630e+00    2.855396e+00
  9.672381e+00    2.800629e+00
  9.704132e+00    2.769206e+00
  9.735883e+00    2.717694e+00
  9.767634e+00    2.708225e+00
  9.799385e+00    2.753902e+00
  9.831137e+00    2.759799e+00
  9.862888e+00    2.776572e+00
  9.894639e+00    2.736049e+00
  9.926390e+00    2.775139e+00
  9.958141e+00    2.736704e+00
  9.989892e+00    2.716920e+00
  1.002164e+01    2.692610e+00
  1.005339e+01    2.728326e+00
  1.008515e+01    2.632968e+00
  1.011690e+01    2.725079e+00
  1.014865e+01    2.671983e+00
  1.018040e+01    2.718739e+00
  1.021215e+01    2.706378e+00
  1.024390e+01    2.660753e+00
  1.027565e+01    2.635492e+00
  1.030740e+01    2.658524e+00
  1.033915e+01    2.655556e+00
  1.037091e+01    2.676747e+00
  1.040266e+01    2.652016e+00
  1.043441e+01    2.679960e+00
  1.046616e+01    2.627391e+00
  1.049791e+01    2.614495e+00
  1.052966e+01    2.642475e+00
  1.056141e+01    2.617418e+00
  1.059316e+01    2.576072e+00
  1.062492e+01    2.612092e+00
  1.065667e+01    2.599953e+00
  1.068842e+01    2.602454e+00
  1.072017e+01    2.596630e+00
  1.075192e+01    2.562503e+00
  1.078367e+01    2.629327e+00
  1.081542e+01    2.613805e+00
  1.084717e+01    2.542497e+00
  1.087892e+01    2.535991e+00
  1.091068e+01    2.488204e+00
  1.094243e+01    2.562543e+00
  1.097418e+01    2.497690e+00
  1.100593e+01    2.496671e+00
  1.103768e+01    2.502109e+00
  1.106943e+01    2.520408e+00
  1.110118e+01    2.485870e+00
  1.113293e+01    2.507900e+00
  1.116468e+01    2.517863e+00
  1.119644e+01    2.517689e+00
  1.122819e+01    2.480131e+00
  1.125994e+01    2.469803e+00
  1.129169e+01    2.479150e+00
  1.132344e+01    2.507179e+00
  1.135519e+01    2.456340e+00
  1.138694e+01    2.425906e+00
  1.141869e+01    2.479328e+00
  1.145045e+01    2.436722e+00
  1.148220e+01    2.470642e+00
  1.151395e+01    2.424876e+00
  1.154570e+01    2.449203e+00
  1.157745e+01    2.412496e+00
  1.160920e+01    2.412975e+00
  1.164095e+01    2.406605e+00
  1.167270e+01    2.477546e+00
  1.170445e+01    2.385401e+00
  1.173621e+01    2.388397e+00
  1.176796e+01    2.373892e+00
  1.179971e+01    2.371238e+00
  1.183146e+01    2.426609e+00
  1.186321e+01    2.382451e+00
  1.189496e+01    2.391237e+00
  1.192671e+01    2.410531e+00
  1.195846e+01    2.399794e+00
  1.199021e+01    2.371003e+00
  1.202197e+01    2.371448e+00
  1.205372e+01    2.332022e+00
  1.208547e+01    2.339209e+00
  1.211722e+01    2.350174e+00
  1.214897e+01    2.358284e+00
  1.218072e+01    2.364040e+00
  1.221247e+01    2.392736e+00
  1.224422e+01    2.344472e+00
  1.227597e+01    2.327437e+00
  1.230773e+01    2.360560e+00
  1.233948e+01    2.351929e+00
  1.237123e+01    2.356343e+00
  1.240298e+01    2.395460e+00
  1.243473e+01    2.369718e+00
  1.246648e+01    2.401839e+00
  1.249823e+01    2.346480e+00
  1.252998e+01    2.419960e+00
  1.256174e+01    2.416508e+00
  1.259349e+01    2.456669e+00
  1.262524e+01    2.431025e+00
  1.265699e+01    2.474908e+00
  1.268874e+01    2.441874e+00
  1.272049e+01    2.542069e+00
  1.275224e+01    2.597684e+00
  1.278399e+01    2.656241e+00
  1.281574e+01    2.787050e+00
  1.284750e+01    2.929571e+00
  1.287925e+01    3.040211e+00
  1.291100e+01    3.272234e+00
  1.294275e+01    3.673426e+00
  1.297450e+01    4.241153e+00
  1.300625e+01    5.161777e+00
  1.303800e+01    6.598574e+00
  1.306975e+01    8.929766e+00
  1.310150e+01    1.183627e+01
  1.313326e+01    1.501012e+01
  1.316501e+01    1.792425e+01
  1.319676e+01    2.002581e+01
  1.322851e+01    1.884608e+01
  1.326026e+01    1.445687e+01
  1.329201e+01    1.017395e+01
  1.332376e+01    7.303264e+00
  1.335551e+01    5.628582e+00
  1.338727e+01    4.567971e+00
  1.341902e+01    3.930039e+00
  1.345077e+01    3.403187e+00
  1.348252e+01    3.091870e+00
  1.351427e+01    2.964080e+00
  1.354602e+01    2.792203e+00
  1.357777e+01    2.576073e+00
  1.360952e+01    2.546041e+00
  1.364127e+01    2.480495e+00
  1.367303e+01    2.380840e+00
  1.370478e+01    2.322794e+00
  1.373653e+01    2.302959e+00
  1.376828e+01    2.262403e+00
  1.380003e+01    2.223692e+00
  1.383178e+01    2.190189e+00
  1.386353e+01    2.171997e+00
  1.389528e+01    2.172156e+00
  1.392703e+01    2.081257e+00
  1.395879e+01    2.199658e+00
  1.399054e+01    2.143574e+00
  1.402229e+01    2.087364e+00
  1.405404e+01    2.098504e+00
  1.408579e+01    2.054037e+00
  1.411754e+01    2.025898e+00
  1.414929e+01    2.041022e+00
  1.418104e+01    2.038172e+00
  1.421279e+01    2.036480e+00
  1.424455e+01    2.048684e+00
  1.427630e+01    2.027616e+00
  1.430805e+01    1.968058e+00
  1.433980e+01    2.005030e+00
  1.437155e+01    1.996404e+00
  1.440330e+01    1.980951e+00
  1.443505e+01    1.940144e+00
  1.446680e+01    1.956588e+00
  1.449856e+01    1.960135e+00
  1.453031e+01    1.969306e+00
  1.456206e+01    1.931853e+00
  1.459381e+01    1.945576e+00
  1.462556e+01    1.942199e+00
  1.465731e+01    1.991432e+00
  1.468906e+01    1.912499e+00
  1.472081e+01    1.931595e+00
  1.475256e+01    1.966320e+00
  1.478432e+01    1.960895e+00
  1.481607e+01    1.993847e+00
  1.484782e+01    1.936433e+00
  1.487957e+01    1.977003e+00
  1.491132e+01    1.969249e+00
  1.494307e+01    2.062430e+00
  1.497482e+01    2.076743e+00
  1.500657e+01    2.171659e+00
  1.503832e+01    2.269243e+00
  1.507008e+01    2.452703e+00
  1.510183e+01    2.699291e+00
  1.513358e+01    3.199850e+00
  1.516533e+01    3.963183e+00
  1.519708e+01    4.848931e+00
  1.522883e+01    5.664435e+00
  1.526058e+01    6.339315e+00
  1.529233e+01    6.645147e+00
  1.532409e+01    6.318223e+00
  1.535584e+01    5.223788e+00
  1.538759e+01    4.011306e+00
  1.541934e+01    3.226687e+00
  1.545109e+01    2.730221e+00
  1.548284e+01    2.405500e+00
  1.551459e+01    2.232230e+00
  1.554634e+01    2.069191e+00
  1.557809e+01    2.016438e+00
  1.560985e+01    1.885266e+00
  1.564160e+01    1.898605e+00
  1.567335e+01    1.838190e+00
  1.570510e+01    1.804225e+00
  1.573685e+01    1.756295e+00
  1.576860e+01    1.765118e+00
  1.580035e+01    1.715656e+00
  1.583210e+01    1.755144e+00
  1.586385e+01    1.706991e+00
  1.589561e+01    1.697926e+00
  1.592736e+01    1.708553e+00
  1.595911e+01    1.668167e+00
  1.599086e+01    1.660376e+00
  1.602261e+01    1.655594e+00
  1.605436e+01    1.657081e+00
  1.608611e+01    1.655698e+00
  1.611786e+01    1.630678e+00
  1.614961e+01    1.575609e+00
  1.618137e+01    1.605458e+00
  1.621312e+01    1.581691e+00
  1.624487e+01    1.558443e+00
  1.627662e+01    1.564828e+00
  1.630837e+01    1.572000e+00
  1.634012e+01    1.568442e+00
  1.637187e+01    1.558336e+00
  1.640362e+01    1.536393e+00
  1.643538e+01    1.542664e+00
  1.646713e+01    1.558675e+00
  1.649888e+01    1.570367e+00
  1.653063e+01    1.507830e+00
  1.656238e+01    1.510208e+00
  1.659413e+01    1.496257e+00
  1.662588e+01    1.509870e+00
  1.665763e+01    1.503421e+00
  1.668938e+01    1.518129e+00
  1.672114e+01    1.477495e+00
  1.675289e+01    1.471099e+00
  1.678464e+01    1.498946e+00
  1.681639e+01    1.485932e+00
  1.684814e+01    1.465256e+00
  1.687989e+01    1.461124e+00
  1.691164e+01    1.497602e+00
  1.694339e+01    1.469220e+00
  1.697514e+01    1.460875e+00
  1.700690e+01    1.442740e+00
  1.703865e+01    1.483442e+00
  1.707040e+01    1.478461e+00
  1.710215e+01    1.439440e+00
  1.713390e+01    1.455299e+00
  1.716565e+01    1.420461e+00
  1.719740e+01    1.427354e+00
  1.722915e+01    1.423002e+00
  1.726091e+01    1.430385e+00
  1.729266e+01    1.428217e+00
  1.732441e+01    1.406155e+00
  1.735616e+01    1.418514e+00
  1.738791e+01    1.396598e+00
  1.741966e+01    1.392051e+00
  1.745141e+01    1.427666e+00
  1.748316e+01    1.388168e+00
  1.751491e+01    1.388774e+00
  1.754667e+01    1.393606e+00
  1.757842e+01    1.380037e+00
  1.761017e+01    1.380125e+00
  1.764192e+01    1.386565e+00
  1.767367e+01    1.371971e+00
  1.770542e+01    1.353873e+00
  1.773717e+01    1.344011e+00
  1.776892e+01    1.358988e+00
  1.780067e+01    1.377545e+00
  1.783243e+01    1.342713e+00
  1.786418e+01    1.346548e+00
  1.789593e+01    1.362740e+00
  1.792768e+01    1.324875e+00
  1.795943e+01    1.335885e+00
  1.799118e+01    1.336656e+00
  1.802293e+01    1.344744e+00
  1.805468e+01    1.344224e+00
  1.808643e+01    1.329454e+00
  1.811819e+01    1.323317e+00
  1.814994e+01    1.295849e+00
  1.818169e+01    1.310065e+00
  1.821344e+01    1.333454e+00
  1.824519e+01    1.286379e+00
  1.827694e+01    1.279500e+00
  1.830869e+01    1.298594e+00
  1.834044e+01    1.297330e+00
  1.837220e+01    1.267109e+00
  1.840395e+01    1.302536e+00
  1.843570e+01    1.315356e+00
  1.846745e+01    1.290970e+00
  1.849920e+01    1.274741e+00
  1.853095e+01    1.266602e+00
  1.856270e+01    1.283052e+00
  1.859445e+01    1.285607e+00
  1.862620e+01    1.252548e+00
  1.865796e+01    1.246353e+00
  1.868971e+01    1.277231e+00
  1.872146e+01    1.266920e+00
  1.875321e+01    1.262155e+00
  1.878496e+01    1.257190e+00
  1.881671e+01    1.247426e+00
  1.884846e+01    1.247723e+00
  1.888021e+01    1.241312e+00
  1.891196e+01    1.216268e+00
  1.894372e+01    1.244956e+00
  1.897547e+01    1.218339e+00
  1.900722e+01    1.222977e+00
  1.903897e+01    1.234692e+00
  1.907072e+01    1.204598e+00
  1.910247e+01    1.222971e+00
  1.913422e+01    1.221000e+00
  1.916597e+01    1.218830e+00
  1.919773e+01    1.198933e+00
  1.922948e+01    1.210475e+00
  1.926123e+01    1.213511e+00
  1.929298e+01    1.189354e+00
  1.932473e+01    1.203266e+00
  1.935648e+01    1.204524e+00
  1.938823e+01    1.229442e+00
  1.941998e+01    1.204916e+00
  1.945173e+01    1.197528e+00
  1.948349e+01    1.205927e+00
  1.951524e+01    1.165211e+00
  1.954699e+01    1.184105e+00
  1.957874e+01    1.193693e+00
  1.961049e+01    1.170982e+00
  1.964224e+01    1.207306e+00
  1.967399e+01    1.167961e+00
  1.970574e+01    1.172979e+00
  1.973749e+01    1.162663e+00
  1.976925e+01    1.157310e+00
  1.980100e+01    1.165170e+00
  1.983275e+01    1.163976e+00
  1.986450e+01    1.125093e+00
  1.989625e+01    1.148524e+00
  1.992800e+01    1.136068e+00
  1.995975e+01    1.135804e+00
  1.999150e+01    1.165586e+00
  2.002325e+01    1.154546e+00
  2.005501e+01    1.122001e+00
  2.008676e+01    1.144313e+00
  2.011851e+01    1.137560e+00
  2.015026e+01    1.158034e+00
  2.018201e+01    1.124130e+00
  2.021376e+01    1.136416e+00
  2.024551e+01    1.101375e+00
  2.027726e+01    1.122836e+00
  2.030902e+01    1.126642e+00
  2.034077e+01    1.143198e+00
  2.037252e+01    1.104076e+00
  2.040427e+01    1.109298e+00
  2.043602e+01    1.153959e+00
  2.046777e+01    1.116869e+00
  2.049952e+01    1.106011e+00
  2.053127e+01    1.114022e+00
  2.056302e+01    1.112893e+00
  2.059478e+01    1.129606e+00
  2.062653e+01    1.102785e+00
  2.065828e+01    1.101640e+00
  2.069003e+01    1.094590e+00
  2.072178e+01    1.086470e+00
  2.075353e+01    1.101896e+00
  2.078528e+01    1.083364e+00
  2.081703e+01    1.131793e+00
  2.084878e+01    1.110287e+00
  2.088054e+01    1.096882e+00
  2.091229e+01    1.123658e+00
  2.094404e+01    1.120827e+00
  2.097579e+01    1.107938e+00
  2.100754e+01    1.137455e+00
  2.103929e+01    1.113289e+00
  2.107104e+01    1.129940e+00
  2.110279e+01    1.103347e+00
  2.113455e+01    1.107365e+00
  2.116630e+01    1.103184e+00
  2.119805e+01    1.138866e+00
  2.122980e+01    1.096217e+00
  2.126155e+01    1.143915e+00
  2.129330e+01    1.146878e+00
  2.132505e+01    1.136868e+00
  2.135680e+01    1.177068e+00
  2.138855e+01    1.200466e+00
  2.142031e+01    1.191468e+00
  2.145206e+01    1.210636e+00
  2.148381e+01    1.291778e+00
  2.151556e+01    1.337580e+00
  2.154731e+01    1.373968e+00
  2.157906e+01    1.434080e+00
  2.161081e+01    1.555920e+00
  2.164256e+01    1.693865e+00
  2.167431e+01    1.937384e+00
  2.170607e+01    2.237090e+00
  2.173782e+01    2.768749e+00
  2.176957e+01    3.540567e+00
  2.180132e+01    4.706538e+00
  2.183307e+01    6.275702e+00
  2.186482e+01    7.979650e+00
  2.189657e+01    9.825225e+00
  2.192832e+01    1.108238e+01
  2.196007e+01    1.086977e+01
  2.199183e+01    8.902762e+00
  2.202358e+01    6.472025e+00
  2.205533e+01    4.640997e+00
  2.208708e+01    3.451735e+00
  2.211883e+01    2.682887e+00
  2.215058e+01    2.217969e+00
  2.218233e+01    1.903636e+00
  2.221408e+01    1.681717e+00
  2.224584e+01    1.496501e+00
  2.227759e+01    1.409293e+00
  2.230934e+01    1.313364e+00
  2.234109e+01    1.260741e+00
  2.237284e+01    1.191519e+00
  2.240459e+01    1.164561e+00
  2.243634e+01    1.126687e+00
  2.246809e+01    1.114980e+00
  2.249984e+01    1.100528e+00
  2.253160e+01    1.065451e+00
  2.256335e+01    1.040020e+00
  2.259510e+01    1.055408e+00
  2.262685e+01    1.002562e+00
  2.265860e+01    1.002498e+00
  2.269035e+01    1.011386e+00
  2.272210e+01    9.812176e-01
  2.275385e+01    9.704334e-01
  2.278560e+01    9.591466e-01
  2.281736e+01    9.647520e-01
  2.284911e+01    9.590551e-01
  2.288086e+01    9.694429e-01
  2.291261e+01    9.318280e-01
  2.294436e+01    9.614230e-01
  2.297611e+01    9.372901e-01
  2.300786e+01    9.191045e-01
  2.303961e+01    9.035736e-01
  2.307137e+01    9.198558e-01
  2.310312e+01    9.227182e-01
  2.313487e+01    9.177810e-01
  2.316662e+01    9.239883e-01
  2.319837e+01    8.972547e-01
  2.323012e+01    8.980901e-01
  2.326187e+01    8.994397e-01
  2.329362e+01    8.828499e-01
  2.332537e+01    8.823389e-01
  2.335713e+01    8.580604e-01
  2.338888e+01    8.731955e-01
  2.342063e+01    8.742036e-01
  2.345238e+01    8.946088e-01
  2.348413e+01    8.613271e-01
  2.351588e+01    8.585539e-01
  2.354763e+01    8.591174e-01
  2.357938e+01    8.711404e-01
  2.361113e+01    8.623648e-01
  2.364289e+01    8.598294e-01
  2.367464e+01    8.325924e-01
  2.370639e+01    8.515556e-01
  2.373814e+01    8.250364e-01
  2.376989e+01    8.597060e-01
  2.380164e+01    8.240495e-01
  2.383339e+01    8.191915e-01
  2.386514e+01    8.306676e-01
  2.389689e+01    8.074450e-01
  2.392865e+01    8.158867e-01
  2.396040e+01    8.156326e-01
  2.399215e+01    8.183588e-01
  2.402390e+01    8.050967e-01
  2.405565e+01    8.121884e-01
  2.408740e+01    8.144460e-01
  2.411915e+01    8.040896e-01
  2.415090e+01    8.094840e-01
  2.418266e+01    7.935636e-01
  2.421441e+01    8.139607e-01
  2.424616e+01    7.847180e-01
  2.427791e+01    7.935508e-01
  2.430966e+01    8.013768e-01
  2.434141e+01    8.148969e-01
  2.437316e+01    7.910624e-01
  2.440491e+01    7.878663e-01
  2.443666e+01    8.074307e-01
  2.446842e+01    8.135991e-01
  2.450017e+01    7.933238e-01
  2.453192e+01    8.183574e-01
  2.456367e+01    8.271484e-01
  2.459542e+01    8.115576e-01
  2.462717e+01    8.131056e-01
  2.465892e+01    8.085241e-01
  2.469067e+01    8.058160e-01
  2.472242e+01    8.172447e-01
  2.475418e+01    8.207023e-01
  2.478593e+01    7.934849e-01
  2.481768e+01    8.096539e-01
  2.484943e+01    8.136345e-01
  2.488118e+01    7.947965e-01
  2.491293e+01    8.143394e-01
  2.494468e+01    8.004983e-01
  2.497643e+01    8.068761e-01
  2.500819e+01    8.112199e-01
  2.503994e+01    8.290938e-01
  2.507169e+01    8.290738e-01
  2.510344e+01    8.212185e-01
  2.513519e+01    8.346171e-01
  2.516694e+01    8.534781e-01
  2.519869e+01    8.463531e-01
  2.523044e+01    8.607867e-01
  2.526219e+01    8.625404e-01
  2.529395e+01    8.944955e-01
  2.532570e+01    8.906649e-01
  2.535745e+01    8.911961e-01
  2.538920e+01    9.172592e-01
  2.542095e+01    9.279068e-01
  2.545270e+01    9.541597e-01
  2.548445e+01    9.525691e-01
  2.551620e+01    9.820816e-01
  2.554795e+01    1.029049e+00
  2.557971e+01    1.065972e+00
  2.561146e+01    1.115716e+00
  2.564321e+01    1.191770e+00
  2.567496e+01    1.277730e+00
  2.570671e+01    1.371512e+00
  2.573846e+01    1.539554e+00
  2.577021e+01    1.790458e+00
  2.580196e+01    2.152836e+00
  2.583371e+01    2.707880e+00
  2.586547e+01    3.519280e+00
  2.589722e+01    4.640063e+00
  2.592897e+01    6.135749e+00
  2.596072e+01    7.754859e+00
  2.599247e+01    9.082743e+00
  2.602422e+01    9.277407e+00
  2.605597e+01    7.992216e+00
  2.608772e+01    6.152562e+00
  2.611948e+01    4.522224e+00
  2.615123e+01    3.284774e+00
  2.618298e+01    2.543457e+00
  2.621473e+01    2.082005e+00
  2.624648e+01    1.744288e+00
  2.627823e+01    1.545274e+00
  2.630998e+01    1.382648e+00
  2.634173e+01    1.239204e+00
  2.637348e+01    1.164587e+00
  2.640524e+01    1.118005e+00
  2.643699e+01    1.071079e+00
  2.646874e+01    1.049712e+00
  2.650049e+01    1.013123e+00
  2.653224e+01    9.899865e-01
  2.656399e+01    9.916477e-01
  2.659574e+01    9.787355e-01
  2.662749e+01    9.657385e-01
  2.665924e+01    9.262077e-01
  2.669100e+01    9.474759e-01
  2.672275e+01    9.351429e-01
  2.675450e+01    9.378207e-01
  2.678625e+01    9.326364e-01
  2.681800e+01    9.448861e-01
  2.684975e+01    9.558430e-01
  2.688150e+01    9.395446e-01
  2.691325e+01    9.577607e-01
  2.694501e+01    9.702513e-01
  2.697676e+01    1.003714e+00
  2.700851e+01    1.015302e+00
  2.704026e+01    1.061596e+00
  2.707201e+01    1.151715e+00
  2.710376e+01    1.267623e+00
  2.713551e+01    1.449253e+00
  2.716726e+01    1.674554e+00
  2.719901e+01    1.994501e+00
  2.723077e+01    2.354158e+00
  2.726252e+01    2.637853e+00
  2.729427e+01    2.599751e+00
  2.732602e+01    2.270766e+00
  2.735777e+01    1.884693e+00
  2.738952e+01    1.545168e+00
  2.742127e+01    1.334205e+00
  2.745302e+01    1.178358e+00
  2.748477e+01    1.079463e+00
  2.751653e+01    1.031966e+00
  2.754828e+01    9.742556e-01
  2.758003e+01    9.267468e-01
  2.761178e+01    9.487678e-01
  2.764353e+01    9.155743e-01
  2.767528e+01    8.739542e-01
  2.770703e+01    8.467313e-01
  2.773878e+01    8.772525e-01
  2.777054e+01    8.449015e-01
  2.780229e+01    8.506780e-01
  2.783404e+01    8.514287e-01
  2.786579e+01    8.399445e-01
  2.789754e+01    8.175913e-01
  2.792929e+01    8.167900e-01
  2.796104e+01    8.140476e-01
  2.799279e+01    8.224688e-01
  2.802454e+01    8.101704e-01
  2.805630e+01    8.052601e-01
  2.808805e+01    8.278656e-01
  2.811980e+01    8.091657e-01
  2.815155e+01    8.095781e-01
  2.818330e+01    8.017245e-01
  2.821505e+01    7.948155e-01
  2.824680e+01    7.935258e-01
  2.827855e+01    7.952094e-01
  2.831030e+01    7.972043e-01
  2.834206e+01    7.598022e-01
  2.837381e+01    8.111994e-01
  2.840556e+01    7.982770e-01
  2.843731e+01    7.651998e-01
  2.846906e+01    7.598407e-01
  2.850081e+01    7.697451e-01
  2.853256e+01    7.682166e-01
  2.856431e+01    7.861753e-01
  2.859606e+01    7.959559e-01
  2.862782e+01    7.837849e-01
  2.865957e+01    7.828061e-01
  2.869132e+01    7.629467e-01
  2.872307e+01    7.773088e-01
  2.875482e+01    7.749953e-01
  2.878657e+01    7.679969e-01
  2.881832e+01    7.771429e-01
  2.885007e+01    7.811255e-01
  2.888183e+01    7.657813e-01
  2.891358e+01    7.681793e-01
  2.894533e+01    7.587685e-01
  2.897708e+01    7.497875e-01
  2.900883e+01    7.642022e-01
  2.904058e+01    7.522982e-01
  2.907233e+01    7.538039e-01
  2.910408e+01    7.528123e-01
  2.913583e+01    7.516672e-01
  2.916759e+01    7.432938e-01
  2.919934e+01    7.758750e-01
  2.923109e+01    7.520432e-01
  2.926284e+01    7.403540e-01
  2.929459e+01    7.377517e-01
  2.932634e+01    7.223232e-01
  2.935809e+01    7.792342e-01
  2.938984e+01    7.722290e-01
  2.942159e+01    7.221941e-01
  2.945335e+01    7.331197e-01
  2.948510e+01    7.433571e-01
  2.951685e+01    7.407625e-01
  2.954860e+01    7.398936e-01
  2.958035e+01    7.291408e-01
  2.961210e+01    7.419185e-01
  2.964385e+01    7.357725e-01
  2.967560e+01    7.370206e-01
  2.970736e+01    7.533786e-01
  2.973911e+01    7.317182e-01
  2.977086e+01    7.500721e-01
  2.980261e+01    7.309133e-01
  2.983436e+01    7.311072e-01
  2.986611e+01    7.237510e-01
  2.989786e+01    7.347729e-01
  2.992961e+01    7.405430e-01
  2.996136e+01    7.347055e-01
  2.999312e+01    7.474672e-01
  3.002487e+01    7.435151e-01
  3.005662e+01    7.588950e-01
  3.008837e+01    7.581886e-01
  3.012012e+01    7.453954e-01
  3.015187e+01    7.268565e-01
  3.018362e+01    7.281957e-01
  3.021537e+01    7.154044e-01
  3.024712e+01    7.364444e-01
  3.027888e+01    7.367750e-01
  3.031063e+01    7.538564e-01
  3.034238e+01    7.175969e-01
  3.037413e+01    7.390078e-01
  3.040588e+01    7.380207e-01
  3.043763e+01    7.327268e-01
  3.046938e+01    7.236964e-01
  3.050113e+01    7.281230e-01
  3.053288e+01    7.162867e-01
  3.056464e+01    7.227021e-01
  3.059639e+01    7.173455e-01
  3.062814e+01    7.302321e-01
  3.065989e+01    7.116233e-01
  3.069164e+01    7.155181e-01
  3.072339e+01    7.090084e-01
  3.075514e+01    7.294641e-01
  3.078689e+01    7.306217e-01
  3.081865e+01    7.243636e-01
  3.085040e+01    7.181654e-01
  3.088215e+01    7.296852e-01
  3.091390e+01    7.377340e-01
  3.094565e+01    7.368537e-01
  3.097740e+01    7.243962e-01
  3.100915e+01    7.392231e-01
  3.104090e+01    7.642084e-01
  3.107265e+01    7.313077e-01
  3.110441e+01    7.269213e-01
  3.113616e+01    7.411796e-01
  3.116791e+01    7.587080e-01
  3.119966e+01    7.383480e-01
  3.123141e+01    7.494568e-01
  3.126316e+01    7.535526e-01
  3.129491e+01    7.403691e-01
  3.132666e+01    7.317070e-01
  3.135841e+01    7.404199e-01
  3.139017e+01    7.505111e-01
  3.142192e+01    7.848203e-01
  3.145367e+01    7.502899e-01
  3.148542e+01    7.727621e-01
  3.151717e+01    7.864785e-01
  3.154892e+01    7.922545e-01
  3.158067e+01    8.070726e-01
  3.161242e+01    8.333321e-01
  3.164418e+01    8.424482e-01
  3.167593e+01    8.726568e-01
  3.170768e+01    9.242122e-01
  3.173943e+01    9.895558e-01
  3.177118e+01    1.036344e+00
  3.180293e+01    1.184971e+00
  3.183468e+01    1.331712e+00
  3.186643e+01    1.651727e+00
  3.189818e+01    1.987016e+00
  3.192994e+01    2.393713e+00
  3.196169e+01    2.630781e+00
  3.199344e+01    2.516284e+00
  3.202519e+01    2.272082e+00
  3.205694e+01    1.866923e+00
  3.208869e+01    1.475381e+00
  3.212044e+01    1.258638e+00
  3.215219e+01    1.103552e+00
  3.218394e+01    9.789455e-01
  3.221570e+01    9.091090e-01
  3.224745e+01    8.633550e-01
  3.227920e+01    8.478687e-01
  3.231095e+01    8.157222e-01
  3.234270e+01    7.875651e-01
  3.237445e+01    7.650100e-01
  3.240620e+01    7.810825e-01
  3.243795e+01    7.858942e-01
  3.246970e+01    7.811329e-01
  3.250146e+01    7.330669e-01
  3.253321e+01    7.578334e-01
  3.254908e+01    7.584661e-01