File: XRD/2024-07-27_002_Ru-CGO-ex_Activtation_ramp_000002_data_000187.dat
# == pyFAI calibration ==
# Distance Sample to Detector: 0.4 m
# PONI: 9.750e-02, 1.135e-01 m
# Rotations: -0.000175 0.000000 -0.000000 rad
#
# == Fit2d calibration ==
# Distance Sample-beamCenter: 400.000 mm
# Center: x=1514.000, y=1300.000 pix
# Tilt: 0.010 deg  TiltPlanRot: 0.010 deg
#
# Detector Detector	 Spline= None	 PixelSize= 7.500e-05, 7.500e-05 m
#    Detector has a mask: False
#    Detector has a dark current: False
#    detector has a flat field: False
#
# Wavelength: 6.888e-11 m
# Mask applied: user provided
# Dark current applied: False
# Flat field applied: False
# Polarization factor: 0.99
# Normalization factor: 1.0
# --> /home/myspot/data/2024_07_Rosario/Ru-CGO-ex/2024-07-27_002_Ru-CGO-ex_Activtation_ramp_000002_data_000187.dat
#       q_nm^-1             I
  2.003187e-02    0.000000e+00
  5.178302e-02    1.421731e-01
  8.353417e-02    0.000000e+00
  1.152853e-01    5.131172e-02
  1.470365e-01    1.847498e-02
  1.787876e-01    2.626620e-02
  2.105388e-01    4.319469e-02
  2.422899e-01    3.009386e-02
  2.740411e-01    5.321180e-02
  3.057922e-01    2.354949e-02
  3.375433e-01    2.818705e-02
  3.692945e-01    4.645989e-02
  4.010456e-01    2.236248e-02
  4.327968e-01    2.534462e-02
  4.645479e-01    5.843154e-02
  4.962991e-01    8.065324e-03
  5.280502e-01    3.379409e-02
  5.598014e-01    5.201813e-02
  5.915525e-01    1.535049e-02
  6.233037e-01    2.133251e-02
  6.550548e-01    2.697701e-02
  6.868060e-01    3.168431e-02
  7.185571e-01    3.552496e-02
  7.503083e-01    6.503930e-02
  7.820594e-01    9.929653e-02
  8.138106e-01    1.695750e-01
  8.455617e-01    3.426746e-01
  8.773129e-01    4.611385e-01
  9.090640e-01    6.112446e-01
  9.408152e-01    7.561287e-01
  9.725663e-01    7.983548e-01
  1.004317e+00    1.132932e+00
  1.036069e+00    1.107608e+00
  1.067820e+00    1.340237e+00
  1.099571e+00    1.460371e+00
  1.131322e+00    1.476916e+00
  1.163073e+00    1.541309e+00
  1.194824e+00    1.486305e+00
  1.226575e+00    1.970484e+00
  1.258327e+00    2.167223e+00
  1.290078e+00    2.241217e+00
  1.321829e+00    2.448653e+00
  1.353580e+00    2.321509e+00
  1.385331e+00    2.514194e+00
  1.417082e+00    2.474791e+00
  1.448834e+00    2.720574e+00
  1.480585e+00    2.651558e+00
  1.512336e+00    2.811886e+00
  1.544087e+00    2.779298e+00
  1.575838e+00    2.917389e+00
  1.607589e+00    2.865140e+00
  1.639340e+00    2.748515e+00
  1.671092e+00    2.685619e+00
  1.702843e+00    2.761538e+00
  1.734594e+00    2.779150e+00
  1.766345e+00    2.623264e+00
  1.798096e+00    2.726311e+00
  1.829847e+00    2.732100e+00
  1.861598e+00    2.681211e+00
  1.893350e+00    2.632638e+00
  1.925101e+00    2.656312e+00
  1.956852e+00    2.705392e+00
  1.988603e+00    2.691740e+00
  2.020354e+00    2.683722e+00
  2.052105e+00    2.561897e+00
  2.083856e+00    2.765479e+00
  2.115608e+00    2.743917e+00
  2.147359e+00    2.792872e+00
  2.179110e+00    2.791424e+00
  2.210861e+00    2.698860e+00
  2.242612e+00    2.823999e+00
  2.274363e+00    2.683423e+00
  2.306115e+00    2.712640e+00
  2.337866e+00    2.639757e+00
  2.369617e+00    2.827214e+00
  2.401368e+00    2.815047e+00
  2.433119e+00    2.795329e+00
  2.464870e+00    2.717433e+00
  2.496621e+00    2.744651e+00
  2.528373e+00    2.717171e+00
  2.560124e+00    2.750162e+00
  2.591875e+00    2.717272e+00
  2.623626e+00    2.703738e+00
  2.655377e+00    2.630801e+00
  2.687128e+00    2.814912e+00
  2.718879e+00    2.776915e+00
  2.750631e+00    2.840271e+00
  2.782382e+00    2.819043e+00
  2.814133e+00    2.839652e+00
  2.845884e+00    2.812694e+00
  2.877635e+00    2.769635e+00
  2.909386e+00    2.908065e+00
  2.941137e+00    2.952089e+00
  2.972889e+00    2.886381e+00
  3.004640e+00    2.915526e+00
  3.036391e+00    2.900159e+00
  3.068142e+00    2.900670e+00
  3.099893e+00    2.863526e+00
  3.131644e+00    2.900655e+00
  3.163395e+00    2.855224e+00
  3.195147e+00    2.841958e+00
  3.226898e+00    2.939122e+00
  3.258649e+00    3.015197e+00
  3.290400e+00    2.857116e+00
  3.322151e+00    2.971842e+00
  3.353902e+00    2.929828e+00
  3.385654e+00    2.947762e+00
  3.417405e+00    2.928422e+00
  3.449156e+00    2.893624e+00
  3.480907e+00    2.971934e+00
  3.512658e+00    2.915912e+00
  3.544409e+00    2.945950e+00
  3.576160e+00    2.932387e+00
  3.607912e+00    2.950295e+00
  3.639663e+00    3.021930e+00
  3.671414e+00    2.985013e+00
  3.703165e+00    2.984640e+00
  3.734916e+00    3.044424e+00
  3.766667e+00    3.019674e+00
  3.798418e+00    3.034321e+00
  3.830170e+00    2.925416e+00
  3.861921e+00    3.062041e+00
  3.893672e+00    2.999397e+00
  3.925423e+00    2.920031e+00
  3.957174e+00    3.032007e+00
  3.988925e+00    3.083912e+00
  4.020676e+00    3.011934e+00
  4.052428e+00    3.072494e+00
  4.084179e+00    3.028914e+00
  4.115930e+00    3.007837e+00
  4.147681e+00    3.056608e+00
  4.179432e+00    3.073661e+00
  4.211183e+00    3.007253e+00
  4.242935e+00    3.037393e+00
  4.274686e+00    3.022641e+00
  4.306437e+00    3.079310e+00
  4.338188e+00    3.082764e+00
  4.369939e+00    3.094797e+00
  4.401690e+00    3.092343e+00
  4.433441e+00    3.022640e+00
  4.465193e+00    3.038824e+00
  4.496944e+00    3.057430e+00
  4.528695e+00    3.093472e+00
  4.560446e+00    3.096162e+00
  4.592197e+00    3.056343e+00
  4.623948e+00    3.100341e+00
  4.655699e+00    3.084347e+00
  4.687451e+00    3.149489e+00
  4.719202e+00    3.133864e+00
  4.750953e+00    3.076097e+00
  4.782704e+00    3.043411e+00
  4.814455e+00    3.081239e+00
  4.846206e+00    3.155639e+00
  4.877957e+00    3.082182e+00
  4.909709e+00    3.057181e+00
  4.941460e+00    3.142890e+00
  4.973211e+00    3.091094e+00
  5.004962e+00    3.075014e+00
  5.036713e+00    3.097010e+00
  5.068464e+00    3.072685e+00
  5.100216e+00    3.139213e+00
  5.131967e+00    3.206322e+00
  5.163718e+00    3.288307e+00
  5.195469e+00    3.210563e+00
  5.227220e+00    3.145311e+00
  5.258971e+00    3.133769e+00
  5.290722e+00    3.099960e+00
  5.322474e+00    3.164535e+00
  5.354225e+00    3.108444e+00
  5.385976e+00    3.212759e+00
  5.417727e+00    3.098014e+00
  5.449478e+00    3.129635e+00
  5.481229e+00    3.108019e+00
  5.512980e+00    3.131194e+00
  5.544732e+00    3.096619e+00
  5.576483e+00    3.081760e+00
  5.608234e+00    3.070036e+00
  5.639985e+00    2.964757e+00
  5.671736e+00    3.069600e+00
  5.703487e+00    3.095536e+00
  5.735238e+00    3.092783e+00
  5.766990e+00    3.056653e+00
  5.798741e+00    3.058714e+00
  5.830492e+00    3.083567e+00
  5.862243e+00    3.059958e+00
  5.893994e+00    3.120183e+00
  5.925745e+00    2.985429e+00
  5.957497e+00    3.105482e+00
  5.989248e+00    3.021713e+00
  6.020999e+00    2.984018e+00
  6.052750e+00    3.032389e+00
  6.084501e+00    3.022345e+00
  6.116252e+00    3.193119e+00
  6.148003e+00    3.052451e+00
  6.179755e+00    3.041557e+00
  6.211506e+00    3.092616e+00
  6.243257e+00    2.988506e+00
  6.275008e+00    3.112985e+00
  6.306759e+00    3.092422e+00
  6.338510e+00    3.129056e+00
  6.370261e+00    3.077203e+00
  6.402013e+00    3.087096e+00
  6.433764e+00    3.023951e+00
  6.465515e+00    3.045123e+00
  6.497266e+00    3.049817e+00
  6.529017e+00    3.030701e+00
  6.560768e+00    3.018943e+00
  6.592519e+00    3.075758e+00
  6.624271e+00    3.079138e+00
  6.656022e+00    3.127809e+00
  6.687773e+00    3.088275e+00
  6.719524e+00    3.124996e+00
  6.751275e+00    3.081908e+00
  6.783026e+00    3.016016e+00
  6.814777e+00    3.018569e+00
  6.846529e+00    3.050518e+00
  6.878280e+00    3.073230e+00
  6.910031e+00    3.020127e+00
  6.941782e+00    3.096764e+00
  6.973533e+00    3.010683e+00
  7.005284e+00    3.018510e+00
  7.037036e+00    3.037351e+00
  7.068787e+00    2.985336e+00
  7.100538e+00    3.048916e+00
  7.132289e+00    2.994534e+00
  7.164040e+00    2.955534e+00
  7.195791e+00    3.063426e+00
  7.227542e+00    2.988128e+00
  7.259294e+00    3.002293e+00
  7.291045e+00    3.031994e+00
  7.322796e+00    3.066983e+00
  7.354547e+00    2.998288e+00
  7.386298e+00    3.036120e+00
  7.418049e+00    2.994212e+00
  7.449800e+00    2.988928e+00
  7.481552e+00    2.952915e+00
  7.513303e+00    2.960043e+00
  7.545054e+00    2.972965e+00
  7.576805e+00    2.945526e+00
  7.608556e+00    2.979588e+00
  7.640307e+00    3.066647e+00
  7.672058e+00    2.967277e+00
  7.703810e+00    2.999634e+00
  7.735561e+00    2.994171e+00
  7.767312e+00    2.979902e+00
  7.799063e+00    2.893621e+00
  7.830814e+00    2.949017e+00
  7.862565e+00    2.923535e+00
  7.894317e+00    2.910831e+00
  7.926068e+00    2.997373e+00
  7.957819e+00    2.984413e+00
  7.989570e+00    3.000212e+00
  8.021321e+00    2.964916e+00
  8.053072e+00    2.895814e+00
  8.084823e+00    2.919685e+00
  8.116575e+00    2.982731e+00
  8.148326e+00    2.970243e+00
  8.180077e+00    2.909962e+00
  8.211828e+00    2.959024e+00
  8.243579e+00    2.998965e+00
  8.275330e+00    2.893117e+00
  8.307081e+00    2.915546e+00
  8.338833e+00    2.959815e+00
  8.370584e+00    2.927234e+00
  8.402335e+00    2.862490e+00
  8.434086e+00    2.909993e+00
  8.465837e+00    2.929395e+00
  8.497588e+00    2.923222e+00
  8.529339e+00    2.884292e+00
  8.561091e+00    2.830191e+00
  8.592842e+00    2.873868e+00
  8.624593e+00    2.829011e+00
  8.656344e+00    2.982089e+00
  8.688095e+00    2.888307e+00
  8.719846e+00    2.839171e+00
  8.751598e+00    2.871095e+00
  8.783349e+00    2.875300e+00
  8.815100e+00    2.902102e+00
  8.846851e+00    2.816076e+00
  8.878602e+00    2.779785e+00
  8.910353e+00    2.971234e+00
  8.942104e+00    2.858870e+00
  8.973856e+00    2.856584e+00
  9.005607e+00    2.737466e+00
  9.037358e+00    2.808557e+00
  9.069109e+00    2.835182e+00
  9.100860e+00    2.814079e+00
  9.132611e+00    2.809346e+00
  9.164362e+00    2.797669e+00
  9.196114e+00    2.763911e+00
  9.227865e+00    2.817561e+00
  9.259616e+00    2.799798e+00
  9.291367e+00    2.821635e+00
  9.323118e+00    2.803580e+00
  9.354869e+00    2.763796e+00
  9.386620e+00    2.774383e+00
  9.418372e+00    2.761451e+00
  9.450123e+00    2.761248e+00
  9.481874e+00    2.806337e+00
  9.513625e+00    2.814520e+00
  9.545376e+00    2.756620e+00
  9.577127e+00    2.811209e+00
  9.608878e+00    2.766317e+00
  9.640630e+00    2.771593e+00
  9.672381e+00    2.763682e+00
  9.704132e+00    2.682812e+00
  9.735883e+00    2.657937e+00
  9.767634e+00    2.755139e+00
  9.799385e+00    2.736546e+00
  9.831137e+00    2.644589e+00
  9.862888e+00    2.693407e+00
  9.894639e+00    2.651188e+00
  9.926390e+00    2.726837e+00
  9.958141e+00    2.731039e+00
  9.989892e+00    2.695436e+00
  1.002164e+01    2.697348e+00
  1.005339e+01    2.659876e+00
  1.008515e+01    2.710850e+00
  1.011690e+01    2.597805e+00
  1.014865e+01    2.663511e+00
  1.018040e+01    2.621754e+00
  1.021215e+01    2.650707e+00
  1.024390e+01    2.656600e+00
  1.027565e+01    2.584850e+00
  1.030740e+01    2.646306e+00
  1.033915e+01    2.583037e+00
  1.037091e+01    2.631351e+00
  1.040266e+01    2.642238e+00
  1.043441e+01    2.569894e+00
  1.046616e+01    2.603262e+00
  1.049791e+01    2.636992e+00
  1.052966e+01    2.563688e+00
  1.056141e+01    2.610350e+00
  1.059316e+01    2.545727e+00
  1.062492e+01    2.606231e+00
  1.065667e+01    2.582899e+00
  1.068842e+01    2.582702e+00
  1.072017e+01    2.598444e+00
  1.075192e+01    2.545171e+00
  1.078367e+01    2.531478e+00
  1.081542e+01    2.517924e+00
  1.084717e+01    2.531771e+00
  1.087892e+01    2.505943e+00
  1.091068e+01    2.515814e+00
  1.094243e+01    2.489317e+00
  1.097418e+01    2.499164e+00
  1.100593e+01    2.525208e+00
  1.103768e+01    2.523046e+00
  1.106943e+01    2.452929e+00
  1.110118e+01    2.493133e+00
  1.113293e+01    2.472692e+00
  1.116468e+01    2.492275e+00
  1.119644e+01    2.433996e+00
  1.122819e+01    2.481590e+00
  1.125994e+01    2.480421e+00
  1.129169e+01    2.435102e+00
  1.132344e+01    2.443901e+00
  1.135519e+01    2.413854e+00
  1.138694e+01    2.505354e+00
  1.141869e+01    2.443885e+00
  1.145045e+01    2.453514e+00
  1.148220e+01    2.408293e+00
  1.151395e+01    2.380215e+00
  1.154570e+01    2.389176e+00
  1.157745e+01    2.383889e+00
  1.160920e+01    2.436503e+00
  1.164095e+01    2.385591e+00
  1.167270e+01    2.394613e+00
  1.170445e+01    2.355546e+00
  1.173621e+01    2.417786e+00
  1.176796e+01    2.392647e+00
  1.179971e+01    2.370850e+00
  1.183146e+01    2.311116e+00
  1.186321e+01    2.363485e+00
  1.189496e+01    2.337168e+00
  1.192671e+01    2.285321e+00
  1.195846e+01    2.388627e+00
  1.199021e+01    2.395353e+00
  1.202197e+01    2.344182e+00
  1.205372e+01    2.297503e+00
  1.208547e+01    2.334754e+00
  1.211722e+01    2.327505e+00
  1.214897e+01    2.345906e+00
  1.218072e+01    2.294616e+00
  1.221247e+01    2.292402e+00
  1.224422e+01    2.326483e+00
  1.227597e+01    2.333864e+00
  1.230773e+01    2.342792e+00
  1.233948e+01    2.339852e+00
  1.237123e+01    2.350593e+00
  1.240298e+01    2.338958e+00
  1.243473e+01    2.329325e+00
  1.246648e+01    2.363616e+00
  1.249823e+01    2.356867e+00
  1.252998e+01    2.352677e+00
  1.256174e+01    2.339294e+00
  1.259349e+01    2.386398e+00
  1.262524e+01    2.399931e+00
  1.265699e+01    2.417954e+00
  1.268874e+01    2.432491e+00
  1.272049e+01    2.448071e+00
  1.275224e+01    2.539451e+00
  1.278399e+01    2.583871e+00
  1.281574e+01    2.727734e+00
  1.284750e+01    2.808047e+00
  1.287925e+01    2.994037e+00
  1.291100e+01    3.261403e+00
  1.294275e+01    3.713580e+00
  1.297450e+01    4.325388e+00
  1.300625e+01    5.407923e+00
  1.303800e+01    7.121259e+00
  1.306975e+01    9.511084e+00
  1.310150e+01    1.180043e+01
  1.313326e+01    1.405960e+01
  1.316501e+01    1.565169e+01
  1.319676e+01    1.514764e+01
  1.322851e+01    1.208305e+01
  1.326026e+01    8.622218e+00
  1.329201e+01    6.296540e+00
  1.332376e+01    4.882849e+00
  1.335551e+01    4.008149e+00
  1.338727e+01    3.436018e+00
  1.341902e+01    3.199806e+00
  1.345077e+01    2.814669e+00
  1.348252e+01    2.691825e+00
  1.351427e+01    2.564772e+00
  1.354602e+01    2.429959e+00
  1.357777e+01    2.448391e+00
  1.360952e+01    2.293328e+00
  1.364127e+01    2.273439e+00
  1.367303e+01    2.246070e+00
  1.370478e+01    2.209765e+00
  1.373653e+01    2.212054e+00
  1.376828e+01    2.176986e+00
  1.380003e+01    2.080961e+00
  1.383178e+01    2.109060e+00
  1.386353e+01    2.108650e+00
  1.389528e+01    2.095055e+00
  1.392703e+01    2.043733e+00
  1.395879e+01    2.115645e+00
  1.399054e+01    2.090232e+00
  1.402229e+01    2.024150e+00
  1.405404e+01    2.013516e+00
  1.408579e+01    2.046926e+00
  1.411754e+01    2.020718e+00
  1.414929e+01    1.960661e+00
  1.418104e+01    1.969010e+00
  1.421279e+01    1.988082e+00
  1.424455e+01    1.994491e+00
  1.427630e+01    1.927333e+00
  1.430805e+01    1.932075e+00
  1.433980e+01    1.940344e+00
  1.437155e+01    1.964433e+00
  1.440330e+01    1.903372e+00
  1.443505e+01    1.949501e+00
  1.446680e+01    1.927818e+00
  1.449856e+01    1.913883e+00
  1.453031e+01    1.914384e+00
  1.456206e+01    1.911013e+00
  1.459381e+01    1.907655e+00
  1.462556e+01    1.909490e+00
  1.465731e+01    1.920860e+00
  1.468906e+01    1.930436e+00
  1.472081e+01    1.939031e+00
  1.475256e+01    1.930048e+00
  1.478432e+01    1.889201e+00
  1.481607e+01    1.893271e+00
  1.484782e+01    1.931455e+00
  1.487957e+01    1.968917e+00
  1.491132e+01    1.967784e+00
  1.494307e+01    1.997638e+00
  1.497482e+01    2.055706e+00
  1.500657e+01    2.181917e+00
  1.503832e+01    2.302168e+00
  1.507008e+01    2.490379e+00
  1.510183e+01    2.960900e+00
  1.513358e+01    3.435829e+00
  1.516533e+01    4.159739e+00
  1.519708e+01    4.737377e+00
  1.522883e+01    5.230574e+00
  1.526058e+01    5.435957e+00
  1.529233e+01    5.186049e+00
  1.532409e+01    4.412677e+00
  1.535584e+01    3.520346e+00
  1.538759e+01    2.849566e+00
  1.541934e+01    2.445837e+00
  1.545109e+01    2.223435e+00
  1.548284e+01    2.103151e+00
  1.551459e+01    2.009045e+00
  1.554634e+01    1.901826e+00
  1.557809e+01    1.841370e+00
  1.560985e+01    1.806471e+00
  1.564160e+01    1.797846e+00
  1.567335e+01    1.738895e+00
  1.570510e+01    1.721121e+00
  1.573685e+01    1.721152e+00
  1.576860e+01    1.661008e+00
  1.580035e+01    1.698507e+00
  1.583210e+01    1.661861e+00
  1.586385e+01    1.677198e+00
  1.589561e+01    1.664738e+00
  1.592736e+01    1.641069e+00
  1.595911e+01    1.611136e+00
  1.599086e+01    1.622730e+00
  1.602261e+01    1.621263e+00
  1.605436e+01    1.595037e+00
  1.608611e+01    1.586140e+00
  1.611786e+01    1.611704e+00
  1.614961e+01    1.559485e+00
  1.618137e+01    1.583374e+00
  1.621312e+01    1.617694e+00
  1.624487e+01    1.603212e+00
  1.627662e+01    1.568319e+00
  1.630837e+01    1.554112e+00
  1.634012e+01    1.522955e+00
  1.637187e+01    1.542276e+00
  1.640362e+01    1.540608e+00
  1.643538e+01    1.541182e+00
  1.646713e+01    1.524544e+00
  1.649888e+01    1.506928e+00
  1.653063e+01    1.515221e+00
  1.656238e+01    1.494673e+00
  1.659413e+01    1.490831e+00
  1.662588e+01    1.500987e+00
  1.665763e+01    1.468317e+00
  1.668938e+01    1.477974e+00
  1.672114e+01    1.473104e+00
  1.675289e+01    1.479755e+00
  1.678464e+01    1.459188e+00
  1.681639e+01    1.444555e+00
  1.684814e+01    1.449815e+00
  1.687989e+01    1.441469e+00
  1.691164e+01    1.464187e+00
  1.694339e+01    1.428592e+00
  1.697514e+01    1.451884e+00
  1.700690e+01    1.469954e+00
  1.703865e+01    1.446862e+00
  1.707040e+01    1.445678e+00
  1.710215e+01    1.402381e+00
  1.713390e+01    1.417513e+00
  1.716565e+01    1.386119e+00
  1.719740e+01    1.412373e+00
  1.722915e+01    1.411673e+00
  1.726091e+01    1.398298e+00
  1.729266e+01    1.408153e+00
  1.732441e+01    1.386307e+00
  1.735616e+01    1.382031e+00
  1.738791e+01    1.376444e+00
  1.741966e+01    1.373897e+00
  1.745141e+01    1.383926e+00
  1.748316e+01    1.350491e+00
  1.751491e+01    1.402130e+00
  1.754667e+01    1.388013e+00
  1.757842e+01    1.362983e+00
  1.761017e+01    1.362581e+00
  1.764192e+01    1.355950e+00
  1.767367e+01    1.367893e+00
  1.770542e+01    1.331130e+00
  1.773717e+01    1.343538e+00
  1.776892e+01    1.317839e+00
  1.780067e+01    1.324469e+00
  1.783243e+01    1.319925e+00
  1.786418e+01    1.302950e+00
  1.789593e+01    1.314150e+00
  1.792768e+01    1.334327e+00
  1.795943e+01    1.316998e+00
  1.799118e+01    1.316431e+00
  1.802293e+01    1.281794e+00
  1.805468e+01    1.297048e+00
  1.808643e+01    1.299205e+00
  1.811819e+01    1.322749e+00
  1.814994e+01    1.304507e+00
  1.818169e+01    1.264142e+00
  1.821344e+01    1.292331e+00
  1.824519e+01    1.304147e+00
  1.827694e+01    1.277459e+00
  1.830869e+01    1.266357e+00
  1.834044e+01    1.256723e+00
  1.837220e+01    1.300308e+00
  1.840395e+01    1.245318e+00
  1.843570e+01    1.269011e+00
  1.846745e+01    1.232238e+00
  1.849920e+01    1.257359e+00
  1.853095e+01    1.237428e+00
  1.856270e+01    1.240355e+00
  1.859445e+01    1.262373e+00
  1.862620e+01    1.246217e+00
  1.865796e+01    1.241867e+00
  1.868971e+01    1.241579e+00
  1.872146e+01    1.219882e+00
  1.875321e+01    1.186957e+00
  1.878496e+01    1.236740e+00
  1.881671e+01    1.240126e+00
  1.884846e+01    1.228896e+00
  1.888021e+01    1.214316e+00
  1.891196e+01    1.201904e+00
  1.894372e+01    1.210450e+00
  1.897547e+01    1.199240e+00
  1.900722e+01    1.210324e+00
  1.903897e+01    1.197684e+00
  1.907072e+01    1.191311e+00
  1.910247e+01    1.187493e+00
  1.913422e+01    1.176723e+00
  1.916597e+01    1.200302e+00
  1.919773e+01    1.188615e+00
  1.922948e+01    1.150009e+00
  1.926123e+01    1.200499e+00
  1.929298e+01    1.184527e+00
  1.932473e+01    1.186082e+00
  1.935648e+01    1.171370e+00
  1.938823e+01    1.188961e+00
  1.941998e+01    1.159011e+00
  1.945173e+01    1.188095e+00
  1.948349e+01    1.194261e+00
  1.951524e+01    1.188458e+00
  1.954699e+01    1.152956e+00
  1.957874e+01    1.177059e+00
  1.961049e+01    1.158752e+00
  1.964224e+01    1.161309e+00
  1.967399e+01    1.121830e+00
  1.970574e+01    1.144894e+00
  1.973749e+01    1.158708e+00
  1.976925e+01    1.178538e+00
  1.980100e+01    1.126475e+00
  1.983275e+01    1.111493e+00
  1.986450e+01    1.124672e+00
  1.989625e+01    1.125588e+00
  1.992800e+01    1.115319e+00
  1.995975e+01    1.135471e+00
  1.999150e+01    1.118324e+00
  2.002325e+01    1.104115e+00
  2.005501e+01    1.089006e+00
  2.008676e+01    1.108118e+00
  2.011851e+01    1.103465e+00
  2.015026e+01    1.122855e+00
  2.018201e+01    1.126123e+00
  2.021376e+01    1.110688e+00
  2.024551e+01    1.109508e+00
  2.027726e+01    1.101881e+00
  2.030902e+01    1.092335e+00
  2.034077e+01    1.112997e+00
  2.037252e+01    1.114737e+00
  2.040427e+01    1.072337e+00
  2.043602e+01    1.082833e+00
  2.046777e+01    1.074658e+00
  2.049952e+01    1.061423e+00
  2.053127e+01    1.099977e+00
  2.056302e+01    1.075124e+00
  2.059478e+01    1.079397e+00
  2.062653e+01    1.101575e+00
  2.065828e+01    1.092870e+00
  2.069003e+01    1.073553e+00
  2.072178e+01    1.080061e+00
  2.075353e+01    1.075184e+00
  2.078528e+01    1.102536e+00
  2.081703e+01    1.072728e+00
  2.084878e+01    1.069214e+00
  2.088054e+01    1.079420e+00
  2.091229e+01    1.062431e+00
  2.094404e+01    1.078120e+00
  2.097579e+01    1.059331e+00
  2.100754e+01    1.058823e+00
  2.103929e+01    1.090928e+00
  2.107104e+01    1.076833e+00
  2.110279e+01    1.086063e+00
  2.113455e+01    1.087253e+00
  2.116630e+01    1.098328e+00
  2.119805e+01    1.083922e+00
  2.122980e+01    1.094764e+00
  2.126155e+01    1.128774e+00
  2.129330e+01    1.120561e+00
  2.132505e+01    1.133637e+00
  2.135680e+01    1.130193e+00
  2.138855e+01    1.180055e+00
  2.142031e+01    1.185919e+00
  2.145206e+01    1.209778e+00
  2.148381e+01    1.243338e+00
  2.151556e+01    1.307438e+00
  2.154731e+01    1.370796e+00
  2.157906e+01    1.498816e+00
  2.161081e+01    1.623537e+00
  2.164256e+01    1.822369e+00
  2.167431e+01    2.160208e+00
  2.170607e+01    2.628995e+00
  2.173782e+01    3.348676e+00
  2.176957e+01    4.330564e+00
  2.180132e+01    5.612379e+00
  2.183307e+01    6.849199e+00
  2.186482e+01    8.132412e+00
  2.189657e+01    8.673653e+00
  2.192832e+01    8.025134e+00
  2.196007e+01    6.401349e+00
  2.199183e+01    4.565183e+00
  2.202358e+01    3.360452e+00
  2.205533e+01    2.590310e+00
  2.208708e+01    2.155215e+00
  2.211883e+01    1.779413e+00
  2.215058e+01    1.583187e+00
  2.218233e+01    1.450555e+00
  2.221408e+01    1.328712e+00
  2.224584e+01    1.240182e+00
  2.227759e+01    1.181011e+00
  2.230934e+01    1.179292e+00
  2.234109e+01    1.111993e+00
  2.237284e+01    1.096242e+00
  2.240459e+01    1.076634e+00
  2.243634e+01    1.051324e+00
  2.246809e+01    1.011536e+00
  2.249984e+01    1.007954e+00
  2.253160e+01    9.877632e-01
  2.256335e+01    9.809518e-01
  2.259510e+01    9.738846e-01
  2.262685e+01    9.660718e-01
  2.265860e+01    9.604130e-01
  2.269035e+01    9.638343e-01
  2.272210e+01    9.386693e-01
  2.275385e+01    9.182103e-01
  2.278560e+01    9.427741e-01
  2.281736e+01    9.284800e-01
  2.284911e+01    9.285697e-01
  2.288086e+01    9.179504e-01
  2.291261e+01    9.202331e-01
  2.294436e+01    8.914233e-01
  2.297611e+01    8.742012e-01
  2.300786e+01    8.917165e-01
  2.303961e+01    8.853908e-01
  2.307137e+01    8.954945e-01
  2.310312e+01    8.689003e-01
  2.313487e+01    8.786309e-01
  2.316662e+01    8.841060e-01
  2.319837e+01    8.625224e-01
  2.323012e+01    8.634539e-01
  2.326187e+01    8.727635e-01
  2.329362e+01    8.485932e-01
  2.332537e+01    8.762816e-01
  2.335713e+01    8.591030e-01
  2.338888e+01    8.741845e-01
  2.342063e+01    8.321924e-01
  2.345238e+01    8.688556e-01
  2.348413e+01    8.523859e-01
  2.351588e+01    8.473054e-01
  2.354763e+01    8.478623e-01
  2.357938e+01    8.725560e-01
  2.361113e+01    8.247864e-01
  2.364289e+01    8.346780e-01
  2.367464e+01    8.329893e-01
  2.370639e+01    8.435374e-01
  2.373814e+01    8.161707e-01
  2.376989e+01    7.989903e-01
  2.380164e+01    8.005735e-01
  2.383339e+01    8.290694e-01
  2.386514e+01    7.939444e-01
  2.389689e+01    7.679644e-01
  2.392865e+01    8.083741e-01
  2.396040e+01    7.885949e-01
  2.399215e+01    8.163990e-01
  2.402390e+01    7.822071e-01
  2.405565e+01    7.576327e-01
  2.408740e+01    7.570596e-01
  2.411915e+01    8.034071e-01
  2.415090e+01    7.696273e-01
  2.418266e+01    7.711201e-01
  2.421441e+01    7.829785e-01
  2.424616e+01    7.886007e-01
  2.427791e+01    7.892193e-01
  2.430966e+01    7.748588e-01
  2.434141e+01    7.818593e-01
  2.437316e+01    7.849943e-01
  2.440491e+01    7.878886e-01
  2.443666e+01    7.815871e-01
  2.446842e+01    8.027570e-01
  2.450017e+01    7.703233e-01
  2.453192e+01    7.957369e-01
  2.456367e+01    8.109862e-01
  2.459542e+01    7.986838e-01
  2.462717e+01    7.803451e-01
  2.465892e+01    7.565333e-01
  2.469067e+01    7.998669e-01
  2.472242e+01    7.831675e-01
  2.475418e+01    7.764214e-01
  2.478593e+01    8.012272e-01
  2.481768e+01    7.842001e-01
  2.484943e+01    7.952795e-01
  2.488118e+01    7.943630e-01
  2.491293e+01    7.878354e-01
  2.494468e+01    8.026110e-01
  2.497643e+01    8.116695e-01
  2.500819e+01    7.931376e-01
  2.503994e+01    7.901386e-01
  2.507169e+01    7.938120e-01
  2.510344e+01    7.988309e-01
  2.513519e+01    8.107895e-01
  2.516694e+01    8.231075e-01
  2.519869e+01    8.323162e-01
  2.523044e+01    8.262680e-01
  2.526219e+01    8.629834e-01
  2.529395e+01    8.500666e-01
  2.532570e+01    8.852458e-01
  2.535745e+01    8.690817e-01
  2.538920e+01    8.952985e-01
  2.542095e+01    9.097153e-01
  2.545270e+01    9.234786e-01
  2.548445e+01    9.427257e-01
  2.551620e+01    9.830956e-01
  2.554795e+01    1.011080e+00
  2.557971e+01    1.065686e+00
  2.561146e+01    1.138331e+00
  2.564321e+01    1.229123e+00
  2.567496e+01    1.327865e+00
  2.570671e+01    1.519416e+00
  2.573846e+01    1.771052e+00
  2.577021e+01    2.146853e+00
  2.580196e+01    2.704133e+00
  2.583371e+01    3.527662e+00
  2.586547e+01    4.537556e+00
  2.589722e+01    5.649853e+00
  2.592897e+01    6.674780e+00
  2.596072e+01    7.048781e+00
  2.599247e+01    6.473717e+00
  2.602422e+01    5.182729e+00
  2.605597e+01    3.849004e+00
  2.608772e+01    2.847919e+00
  2.611948e+01    2.237259e+00
  2.615123e+01    1.817395e+00
  2.618298e+01    1.522605e+00
  2.621473e+01    1.350233e+00
  2.624648e+01    1.234714e+00
  2.627823e+01    1.142480e+00
  2.630998e+01    1.076419e+00
  2.634173e+01    1.028072e+00
  2.637348e+01    1.007803e+00
  2.640524e+01    9.713899e-01
  2.643699e+01    9.450315e-01
  2.646874e+01    9.364745e-01
  2.650049e+01    9.227222e-01
  2.653224e+01    8.912528e-01
  2.656399e+01    9.000098e-01
  2.659574e+01    8.801454e-01
  2.662749e+01    8.638448e-01
  2.665924e+01    8.664960e-01
  2.669100e+01    8.882884e-01
  2.672275e+01    8.794965e-01
  2.675450e+01    8.625900e-01
  2.678625e+01    8.710936e-01
  2.681800e+01    8.803106e-01
  2.684975e+01    9.027864e-01
  2.688150e+01    9.015092e-01
  2.691325e+01    9.174225e-01
  2.694501e+01    9.165258e-01
  2.697676e+01    9.699837e-01
  2.700851e+01    1.014393e+00
  2.704026e+01    1.077599e+00
  2.707201e+01    1.226743e+00
  2.710376e+01    1.403639e+00
  2.713551e+01    1.630136e+00
  2.716726e+01    1.884740e+00
  2.719901e+01    2.061947e+00
  2.723077e+01    2.096497e+00
  2.726252e+01    1.857657e+00
  2.729427e+01    1.604059e+00
  2.732602e+01    1.342805e+00
  2.735777e+01    1.201449e+00
  2.738952e+01    1.079183e+00
  2.742127e+01    1.006032e+00
  2.745302e+01    9.233460e-01
  2.748477e+01    9.178410e-01
  2.751653e+01    8.840095e-01
  2.754828e+01    8.702071e-01
  2.758003e+01    8.315781e-01
  2.761178e+01    8.584292e-01
  2.764353e+01    8.276709e-01
  2.767528e+01    8.257570e-01
  2.770703e+01    7.869009e-01
  2.773878e+01    7.945547e-01
  2.777054e+01    8.009444e-01
  2.780229e+01    7.880526e-01
  2.783404e+01    7.775862e-01
  2.786579e+01    7.559570e-01
  2.789754e+01    7.888591e-01
  2.792929e+01    7.859141e-01
  2.796104e+01    7.739641e-01
  2.799279e+01    7.856990e-01
  2.802454e+01    7.777219e-01
  2.805630e+01    7.720370e-01
  2.808805e+01    7.514872e-01
  2.811980e+01    7.747592e-01
  2.815155e+01    7.852497e-01
  2.818330e+01    7.828399e-01
  2.821505e+01    7.622964e-01
  2.824680e+01    7.667980e-01
  2.827855e+01    7.629023e-01
  2.831030e+01    7.641999e-01
  2.834206e+01    7.510267e-01
  2.837381e+01    7.568951e-01
  2.840556e+01    7.658633e-01
  2.843731e+01    7.414864e-01
  2.846906e+01    7.601441e-01
  2.850081e+01    7.421947e-01
  2.853256e+01    7.406786e-01
  2.856431e+01    7.496681e-01
  2.859606e+01    7.511065e-01
  2.862782e+01    7.724870e-01
  2.865957e+01    7.526227e-01
  2.869132e+01    7.233930e-01
  2.872307e+01    7.442806e-01
  2.875482e+01    7.479684e-01
  2.878657e+01    7.410386e-01
  2.881832e+01    7.277769e-01
  2.885007e+01    7.489845e-01
  2.888183e+01    7.354851e-01
  2.891358e+01    7.314206e-01
  2.894533e+01    7.236210e-01
  2.897708e+01    7.503240e-01
  2.900883e+01    7.225232e-01
  2.904058e+01    7.338341e-01
  2.907233e+01    7.322464e-01
  2.910408e+01    7.257518e-01
  2.913583e+01    7.184287e-01
  2.916759e+01    7.256310e-01
  2.919934e+01    7.490382e-01
  2.923109e+01    7.117085e-01
  2.926284e+01    7.352962e-01
  2.929459e+01    7.291284e-01
  2.932634e+01    7.188089e-01
  2.935809e+01    7.090912e-01
  2.938984e+01    7.289665e-01
  2.942159e+01    7.211634e-01
  2.945335e+01    7.142732e-01
  2.948510e+01    7.025595e-01
  2.951685e+01    7.065621e-01
  2.954860e+01    7.124842e-01
  2.958035e+01    7.134395e-01
  2.961210e+01    7.082432e-01
  2.964385e+01    6.902587e-01
  2.967560e+01    7.058917e-01
  2.970736e+01    7.167097e-01
  2.973911e+01    7.225571e-01
  2.977086e+01    7.058084e-01
  2.980261e+01    7.170880e-01
  2.983436e+01    7.144650e-01
  2.986611e+01    7.077456e-01
  2.989786e+01    7.072597e-01
  2.992961e+01    6.944560e-01
  2.996136e+01    7.066658e-01
  2.999312e+01    7.221320e-01
  3.002487e+01    7.293441e-01
  3.005662e+01    7.325141e-01
  3.008837e+01    7.295583e-01
  3.012012e+01    7.198885e-01
  3.015187e+01    7.289923e-01
  3.018362e+01    6.955052e-01
  3.021537e+01    7.180374e-01
  3.024712e+01    7.067491e-01
  3.027888e+01    6.757746e-01
  3.031063e+01    7.086713e-01
  3.034238e+01    7.057492e-01
  3.037413e+01    7.191711e-01
  3.040588e+01    7.048452e-01
  3.043763e+01    6.933804e-01
  3.046938e+01    7.153625e-01
  3.050113e+01    7.106870e-01
  3.053288e+01    7.130868e-01
  3.056464e+01    7.104738e-01
  3.059639e+01    7.104686e-01
  3.062814e+01    6.978648e-01
  3.065989e+01    7.025595e-01
  3.069164e+01    7.088043e-01
  3.072339e+01    7.060494e-01
  3.075514e+01    7.021208e-01
  3.078689e+01    7.013287e-01
  3.081865e+01    6.978932e-01
  3.085040e+01    7.023525e-01
  3.088215e+01    7.199439e-01
  3.091390e+01    7.114674e-01
  3.094565e+01    7.151256e-01
  3.097740e+01    7.065111e-01
  3.100915e+01    7.126179e-01
  3.104090e+01    6.946809e-01
  3.107265e+01    7.080811e-01
  3.110441e+01    7.105629e-01
  3.113616e+01    6.979815e-01
  3.116791e+01    7.234393e-01
  3.119966e+01    7.310516e-01
  3.123141e+01    7.239069e-01
  3.126316e+01    7.341632e-01
  3.129491e+01    7.253078e-01
  3.132666e+01    7.409857e-01
  3.135841e+01    7.334685e-01
  3.139017e+01    7.374220e-01
  3.142192e+01    7.450212e-01
  3.145367e+01    7.303120e-01
  3.148542e+01    7.589222e-01
  3.151717e+01    7.774113e-01
  3.154892e+01    7.696341e-01
  3.158067e+01    7.787855e-01
  3.161242e+01    8.053331e-01
  3.164418e+01    8.401048e-01
  3.167593e+01    9.053783e-01
  3.170768e+01    9.763474e-01
  3.173943e+01    1.061686e+00
  3.177118e+01    1.203845e+00
  3.180293e+01    1.397848e+00
  3.183468e+01    1.648491e+00
  3.186643e+01    1.917692e+00
  3.189818e+01    2.065047e+00
  3.192994e+01    2.024715e+00
  3.196169e+01    1.791849e+00
  3.199344e+01    1.479524e+00
  3.202519e+01    1.247349e+00
  3.205694e+01    1.107640e+00
  3.208869e+01    9.946437e-01
  3.212044e+01    9.059874e-01
  3.215219e+01    8.632610e-01
  3.218394e+01    8.231335e-01
  3.221570e+01    8.165889e-01
  3.224745e+01    7.848974e-01
  3.227920e+01    7.218497e-01
  3.231095e+01    7.477555e-01
  3.234270e+01    7.542306e-01
  3.237445e+01    7.264574e-01
  3.240620e+01    7.096505e-01
  3.243795e+01    7.321191e-01
  3.246970e+01    7.179861e-01
  3.250146e+01    7.156667e-01
  3.253321e+01    7.213566e-01
  3.254908e+01    7.233856e-01