File: XRD/2024-07-27_002_Ru-CGO-ex_Activtation_ramp_000002_data_000042.dat
# == pyFAI calibration ==
# Distance Sample to Detector: 0.4 m
# PONI: 9.750e-02, 1.135e-01 m
# Rotations: -0.000175 0.000000 -0.000000 rad
#
# == Fit2d calibration ==
# Distance Sample-beamCenter: 400.000 mm
# Center: x=1514.000, y=1300.000 pix
# Tilt: 0.010 deg  TiltPlanRot: 0.010 deg
#
# Detector Detector	 Spline= None	 PixelSize= 7.500e-05, 7.500e-05 m
#    Detector has a mask: False
#    Detector has a dark current: False
#    detector has a flat field: False
#
# Wavelength: 6.888e-11 m
# Mask applied: user provided
# Dark current applied: False
# Flat field applied: False
# Polarization factor: 0.99
# Normalization factor: 1.0
# --> /home/myspot/data/2024_07_Rosario/Ru-CGO-ex/2024-07-27_002_Ru-CGO-ex_Activtation_ramp_000002_data_000042.dat
#       q_nm^-1             I
  2.003187e-02    0.000000e+00
  5.178302e-02    6.857615e-02
  8.353417e-02    3.908882e-02
  1.152853e-01    2.107581e-02
  1.470365e-01    1.056270e-02
  1.787876e-01    4.674629e-02
  2.105388e-01    1.678853e-02
  2.422899e-01    5.650008e-02
  2.740411e-01    4.307024e-02
  3.057922e-01    4.384867e-02
  3.375433e-01    5.710485e-02
  3.692945e-01    1.667299e-02
  4.010456e-01    3.209322e-02
  4.327968e-01    3.364473e-02
  4.645479e-01    2.258256e-02
  4.962991e-01    2.846787e-02
  5.280502e-01    6.825136e-02
  5.598014e-01    4.881264e-02
  5.915525e-01    2.648757e-02
  6.233037e-01    1.897157e-02
  6.550548e-01    5.103679e-02
  6.868060e-01    7.067320e-03
  7.185571e-01    3.582151e-02
  7.503083e-01    4.152765e-02
  7.820594e-01    1.220923e-01
  8.138106e-01    2.174992e-01
  8.455617e-01    2.826315e-01
  8.773129e-01    4.153718e-01
  9.090640e-01    5.859202e-01
  9.408152e-01    7.034707e-01
  9.725663e-01    8.230063e-01
  1.004317e+00    1.004500e+00
  1.036069e+00    1.134221e+00
  1.067820e+00    1.305794e+00
  1.099571e+00    1.297641e+00
  1.131322e+00    1.349529e+00
  1.163073e+00    1.482847e+00
  1.194824e+00    1.682353e+00
  1.226575e+00    1.956317e+00
  1.258327e+00    2.357945e+00
  1.290078e+00    2.494046e+00
  1.321829e+00    2.603640e+00
  1.353580e+00    2.625830e+00
  1.385331e+00    2.685171e+00
  1.417082e+00    2.665856e+00
  1.448834e+00    2.743317e+00
  1.480585e+00    2.958698e+00
  1.512336e+00    2.957681e+00
  1.544087e+00    3.055088e+00
  1.575838e+00    3.086290e+00
  1.607589e+00    3.026633e+00
  1.639340e+00    2.919636e+00
  1.671092e+00    2.972480e+00
  1.702843e+00    2.978530e+00
  1.734594e+00    2.992477e+00
  1.766345e+00    2.764433e+00
  1.798096e+00    2.761384e+00
  1.829847e+00    2.819342e+00
  1.861598e+00    2.928957e+00
  1.893350e+00    2.760396e+00
  1.925101e+00    2.786710e+00
  1.956852e+00    2.918721e+00
  1.988603e+00    2.805047e+00
  2.020354e+00    2.801170e+00
  2.052105e+00    2.750715e+00
  2.083856e+00    2.797679e+00
  2.115608e+00    2.857912e+00
  2.147359e+00    2.767833e+00
  2.179110e+00    2.749283e+00
  2.210861e+00    2.728591e+00
  2.242612e+00    2.714528e+00
  2.274363e+00    2.802337e+00
  2.306115e+00    2.652217e+00
  2.337866e+00    2.905077e+00
  2.369617e+00    2.802152e+00
  2.401368e+00    2.772927e+00
  2.433119e+00    2.781108e+00
  2.464870e+00    2.719866e+00
  2.496621e+00    2.763918e+00
  2.528373e+00    2.798583e+00
  2.560124e+00    2.830824e+00
  2.591875e+00    2.762601e+00
  2.623626e+00    2.841813e+00
  2.655377e+00    2.812091e+00
  2.687128e+00    2.883855e+00
  2.718879e+00    2.841089e+00
  2.750631e+00    2.912323e+00
  2.782382e+00    2.846979e+00
  2.814133e+00    2.839981e+00
  2.845884e+00    2.916280e+00
  2.877635e+00    2.894554e+00
  2.909386e+00    2.874867e+00
  2.941137e+00    2.939940e+00
  2.972889e+00    2.797750e+00
  3.004640e+00    2.846456e+00
  3.036391e+00    2.955413e+00
  3.068142e+00    2.837801e+00
  3.099893e+00    2.897915e+00
  3.131644e+00    2.902023e+00
  3.163395e+00    2.865305e+00
  3.195147e+00    2.874130e+00
  3.226898e+00    2.997240e+00
  3.258649e+00    2.842812e+00
  3.290400e+00    2.985973e+00
  3.322151e+00    2.966365e+00
  3.353902e+00    2.981158e+00
  3.385654e+00    2.951488e+00
  3.417405e+00    3.036118e+00
  3.449156e+00    2.912889e+00
  3.480907e+00    2.998510e+00
  3.512658e+00    3.019572e+00
  3.544409e+00    3.027644e+00
  3.576160e+00    2.992161e+00
  3.607912e+00    2.917273e+00
  3.639663e+00    2.916063e+00
  3.671414e+00    2.911669e+00
  3.703165e+00    2.919849e+00
  3.734916e+00    3.101325e+00
  3.766667e+00    3.018785e+00
  3.798418e+00    2.988491e+00
  3.830170e+00    3.010856e+00
  3.861921e+00    3.014895e+00
  3.893672e+00    3.058224e+00
  3.925423e+00    2.979603e+00
  3.957174e+00    2.935256e+00
  3.988925e+00    3.124899e+00
  4.020676e+00    3.044359e+00
  4.052428e+00    3.000768e+00
  4.084179e+00    2.951144e+00
  4.115930e+00    3.032920e+00
  4.147681e+00    3.068347e+00
  4.179432e+00    2.996477e+00
  4.211183e+00    3.013854e+00
  4.242935e+00    3.121795e+00
  4.274686e+00    3.147325e+00
  4.306437e+00    3.011879e+00
  4.338188e+00    3.066715e+00
  4.369939e+00    3.033282e+00
  4.401690e+00    3.130327e+00
  4.433441e+00    3.012446e+00
  4.465193e+00    3.083339e+00
  4.496944e+00    3.081280e+00
  4.528695e+00    3.144366e+00
  4.560446e+00    3.127726e+00
  4.592197e+00    3.118280e+00
  4.623948e+00    3.067004e+00
  4.655699e+00    3.132790e+00
  4.687451e+00    3.114929e+00
  4.719202e+00    3.121771e+00
  4.750953e+00    3.185077e+00
  4.782704e+00    3.159756e+00
  4.814455e+00    3.146595e+00
  4.846206e+00    3.028268e+00
  4.877957e+00    3.122091e+00
  4.909709e+00    3.047473e+00
  4.941460e+00    3.114169e+00
  4.973211e+00    3.144956e+00
  5.004962e+00    3.120878e+00
  5.036713e+00    3.087357e+00
  5.068464e+00    3.193051e+00
  5.100216e+00    3.090559e+00
  5.131967e+00    3.087604e+00
  5.163718e+00    3.199852e+00
  5.195469e+00    3.063248e+00
  5.227220e+00    3.098938e+00
  5.258971e+00    3.016509e+00
  5.290722e+00    3.077070e+00
  5.322474e+00    3.151699e+00
  5.354225e+00    3.144491e+00
  5.385976e+00    3.103868e+00
  5.417727e+00    3.124419e+00
  5.449478e+00    3.107062e+00
  5.481229e+00    3.106827e+00
  5.512980e+00    3.010037e+00
  5.544732e+00    3.075706e+00
  5.576483e+00    3.027849e+00
  5.608234e+00    3.097111e+00
  5.639985e+00    3.097237e+00
  5.671736e+00    3.031758e+00
  5.703487e+00    3.056654e+00
  5.735238e+00    2.992142e+00
  5.766990e+00    3.065904e+00
  5.798741e+00    3.053339e+00
  5.830492e+00    3.039764e+00
  5.862243e+00    2.971241e+00
  5.893994e+00    3.065141e+00
  5.925745e+00    3.057689e+00
  5.957497e+00    3.014560e+00
  5.989248e+00    3.058668e+00
  6.020999e+00    2.976917e+00
  6.052750e+00    3.093091e+00
  6.084501e+00    3.014907e+00
  6.116252e+00    3.096201e+00
  6.148003e+00    3.060014e+00
  6.179755e+00    3.104268e+00
  6.211506e+00    3.101903e+00
  6.243257e+00    3.008975e+00
  6.275008e+00    3.064689e+00
  6.306759e+00    3.054802e+00
  6.338510e+00    3.004559e+00
  6.370261e+00    3.000534e+00
  6.402013e+00    2.998948e+00
  6.433764e+00    3.130922e+00
  6.465515e+00    3.021429e+00
  6.497266e+00    3.027463e+00
  6.529017e+00    3.012546e+00
  6.560768e+00    3.058477e+00
  6.592519e+00    3.064394e+00
  6.624271e+00    2.999795e+00
  6.656022e+00    2.973001e+00
  6.687773e+00    2.971114e+00
  6.719524e+00    3.023021e+00
  6.751275e+00    3.071459e+00
  6.783026e+00    3.060593e+00
  6.814777e+00    2.965488e+00
  6.846529e+00    2.884094e+00
  6.878280e+00    3.025182e+00
  6.910031e+00    3.057882e+00
  6.941782e+00    3.065953e+00
  6.973533e+00    3.036930e+00
  7.005284e+00    3.116931e+00
  7.037036e+00    3.106517e+00
  7.068787e+00    3.091807e+00
  7.100538e+00    3.082920e+00
  7.132289e+00    2.992957e+00
  7.164040e+00    3.072826e+00
  7.195791e+00    2.963220e+00
  7.227542e+00    3.030411e+00
  7.259294e+00    2.962318e+00
  7.291045e+00    3.060900e+00
  7.322796e+00    3.034026e+00
  7.354547e+00    2.971675e+00
  7.386298e+00    2.997623e+00
  7.418049e+00    2.974972e+00
  7.449800e+00    2.983243e+00
  7.481552e+00    3.017141e+00
  7.513303e+00    3.062282e+00
  7.545054e+00    3.023963e+00
  7.576805e+00    2.890972e+00
  7.608556e+00    2.978753e+00
  7.640307e+00    2.998970e+00
  7.672058e+00    2.894114e+00
  7.703810e+00    2.914876e+00
  7.735561e+00    2.946149e+00
  7.767312e+00    2.983227e+00
  7.799063e+00    2.988308e+00
  7.830814e+00    2.926953e+00
  7.862565e+00    2.975045e+00
  7.894317e+00    2.911146e+00
  7.926068e+00    2.975687e+00
  7.957819e+00    2.981852e+00
  7.989570e+00    2.875927e+00
  8.021321e+00    2.903283e+00
  8.053072e+00    2.925519e+00
  8.084823e+00    2.904983e+00
  8.116575e+00    2.936022e+00
  8.148326e+00    2.974611e+00
  8.180077e+00    2.954034e+00
  8.211828e+00    2.976978e+00
  8.243579e+00    2.845572e+00
  8.275330e+00    2.914209e+00
  8.307081e+00    2.879691e+00
  8.338833e+00    2.911857e+00
  8.370584e+00    2.915867e+00
  8.402335e+00    2.925557e+00
  8.434086e+00    2.916221e+00
  8.465837e+00    2.874987e+00
  8.497588e+00    2.885398e+00
  8.529339e+00    2.912602e+00
  8.561091e+00    2.926318e+00
  8.592842e+00    2.921391e+00
  8.624593e+00    2.859205e+00
  8.656344e+00    2.896502e+00
  8.688095e+00    2.865074e+00
  8.719846e+00    2.879627e+00
  8.751598e+00    2.840963e+00
  8.783349e+00    2.888047e+00
  8.815100e+00    2.860540e+00
  8.846851e+00    2.863843e+00
  8.878602e+00    2.824332e+00
  8.910353e+00    2.898987e+00
  8.942104e+00    2.855695e+00
  8.973856e+00    2.770406e+00
  9.005607e+00    2.899766e+00
  9.037358e+00    2.855213e+00
  9.069109e+00    2.809287e+00
  9.100860e+00    2.852196e+00
  9.132611e+00    2.799516e+00
  9.164362e+00    2.801646e+00
  9.196114e+00    2.851583e+00
  9.227865e+00    2.742274e+00
  9.259616e+00    2.775351e+00
  9.291367e+00    2.720275e+00
  9.323118e+00    2.782716e+00
  9.354869e+00    2.760674e+00
  9.386620e+00    2.847781e+00
  9.418372e+00    2.809640e+00
  9.450123e+00    2.742408e+00
  9.481874e+00    2.811010e+00
  9.513625e+00    2.837002e+00
  9.545376e+00    2.780297e+00
  9.577127e+00    2.771221e+00
  9.608878e+00    2.830774e+00
  9.640630e+00    2.771029e+00
  9.672381e+00    2.700381e+00
  9.704132e+00    2.720557e+00
  9.735883e+00    2.715148e+00
  9.767634e+00    2.782558e+00
  9.799385e+00    2.709478e+00
  9.831137e+00    2.704459e+00
  9.862888e+00    2.649099e+00
  9.894639e+00    2.729722e+00
  9.926390e+00    2.683829e+00
  9.958141e+00    2.736498e+00
  9.989892e+00    2.702702e+00
  1.002164e+01    2.709746e+00
  1.005339e+01    2.606735e+00
  1.008515e+01    2.652311e+00
  1.011690e+01    2.655687e+00
  1.014865e+01    2.659307e+00
  1.018040e+01    2.673108e+00
  1.021215e+01    2.639281e+00
  1.024390e+01    2.664869e+00
  1.027565e+01    2.607480e+00
  1.030740e+01    2.664627e+00
  1.033915e+01    2.599137e+00
  1.037091e+01    2.644295e+00
  1.040266e+01    2.586529e+00
  1.043441e+01    2.675774e+00
  1.046616e+01    2.575427e+00
  1.049791e+01    2.579224e+00
  1.052966e+01    2.588333e+00
  1.056141e+01    2.556939e+00
  1.059316e+01    2.554871e+00
  1.062492e+01    2.614029e+00
  1.065667e+01    2.551481e+00
  1.068842e+01    2.572499e+00
  1.072017e+01    2.564899e+00
  1.075192e+01    2.582837e+00
  1.078367e+01    2.538073e+00
  1.081542e+01    2.587128e+00
  1.084717e+01    2.551598e+00
  1.087892e+01    2.517021e+00
  1.091068e+01    2.536623e+00
  1.094243e+01    2.468948e+00
  1.097418e+01    2.504447e+00
  1.100593e+01    2.486041e+00
  1.103768e+01    2.441567e+00
  1.106943e+01    2.449912e+00
  1.110118e+01    2.517279e+00
  1.113293e+01    2.447061e+00
  1.116468e+01    2.495758e+00
  1.119644e+01    2.463301e+00
  1.122819e+01    2.468897e+00
  1.125994e+01    2.473833e+00
  1.129169e+01    2.442876e+00
  1.132344e+01    2.424762e+00
  1.135519e+01    2.417630e+00
  1.138694e+01    2.426698e+00
  1.141869e+01    2.402030e+00
  1.145045e+01    2.387952e+00
  1.148220e+01    2.396832e+00
  1.151395e+01    2.441279e+00
  1.154570e+01    2.342521e+00
  1.157745e+01    2.398579e+00
  1.160920e+01    2.383793e+00
  1.164095e+01    2.377553e+00
  1.167270e+01    2.342182e+00
  1.170445e+01    2.376325e+00
  1.173621e+01    2.400718e+00
  1.176796e+01    2.449604e+00
  1.179971e+01    2.376297e+00
  1.183146e+01    2.412132e+00
  1.186321e+01    2.371922e+00
  1.189496e+01    2.353967e+00
  1.192671e+01    2.365159e+00
  1.195846e+01    2.380648e+00
  1.199021e+01    2.340466e+00
  1.202197e+01    2.322188e+00
  1.205372e+01    2.318973e+00
  1.208547e+01    2.334177e+00
  1.211722e+01    2.322942e+00
  1.214897e+01    2.358063e+00
  1.218072e+01    2.307671e+00
  1.221247e+01    2.322223e+00
  1.224422e+01    2.344554e+00
  1.227597e+01    2.340271e+00
  1.230773e+01    2.369196e+00
  1.233948e+01    2.353942e+00
  1.237123e+01    2.336781e+00
  1.240298e+01    2.340663e+00
  1.243473e+01    2.346055e+00
  1.246648e+01    2.332210e+00
  1.249823e+01    2.368096e+00
  1.252998e+01    2.388510e+00
  1.256174e+01    2.335629e+00
  1.259349e+01    2.382989e+00
  1.262524e+01    2.398765e+00
  1.265699e+01    2.438613e+00
  1.268874e+01    2.439639e+00
  1.272049e+01    2.533257e+00
  1.275224e+01    2.572364e+00
  1.278399e+01    2.644992e+00
  1.281574e+01    2.731194e+00
  1.284750e+01    2.848452e+00
  1.287925e+01    3.079063e+00
  1.291100e+01    3.302445e+00
  1.294275e+01    3.683786e+00
  1.297450e+01    4.303814e+00
  1.300625e+01    5.232211e+00
  1.303800e+01    6.857218e+00
  1.306975e+01    9.144177e+00
  1.310150e+01    1.212146e+01
  1.313326e+01    1.508559e+01
  1.316501e+01    1.791256e+01
  1.319676e+01    1.942487e+01
  1.322851e+01    1.750248e+01
  1.326026e+01    1.319224e+01
  1.329201e+01    9.241834e+00
  1.332376e+01    6.795676e+00
  1.335551e+01    5.185513e+00
  1.338727e+01    4.282431e+00
  1.341902e+01    3.717176e+00
  1.345077e+01    3.309517e+00
  1.348252e+01    3.027540e+00
  1.351427e+01    2.797159e+00
  1.354602e+01    2.659177e+00
  1.357777e+01    2.578770e+00
  1.360952e+01    2.469088e+00
  1.364127e+01    2.424963e+00
  1.367303e+01    2.398143e+00
  1.370478e+01    2.281167e+00
  1.373653e+01    2.244280e+00
  1.376828e+01    2.216395e+00
  1.380003e+01    2.171286e+00
  1.383178e+01    2.175972e+00
  1.386353e+01    2.191107e+00
  1.389528e+01    2.134209e+00
  1.392703e+01    2.115943e+00
  1.395879e+01    2.094678e+00
  1.399054e+01    2.076176e+00
  1.402229e+01    2.072782e+00
  1.405404e+01    2.100558e+00
  1.408579e+01    2.064115e+00
  1.411754e+01    2.015375e+00
  1.414929e+01    2.011313e+00
  1.418104e+01    2.019338e+00
  1.421279e+01    2.013333e+00
  1.424455e+01    2.019705e+00
  1.427630e+01    1.992719e+00
  1.430805e+01    1.969915e+00
  1.433980e+01    1.970919e+00
  1.437155e+01    2.010920e+00
  1.440330e+01    1.974333e+00
  1.443505e+01    1.986264e+00
  1.446680e+01    1.936764e+00
  1.449856e+01    1.948720e+00
  1.453031e+01    1.931503e+00
  1.456206e+01    1.953788e+00
  1.459381e+01    1.899172e+00
  1.462556e+01    1.963540e+00
  1.465731e+01    1.942301e+00
  1.468906e+01    1.925423e+00
  1.472081e+01    1.905461e+00
  1.475256e+01    1.928586e+00
  1.478432e+01    1.929670e+00
  1.481607e+01    1.963260e+00
  1.484782e+01    1.941547e+00
  1.487957e+01    1.964470e+00
  1.491132e+01    1.974212e+00
  1.494307e+01    2.005003e+00
  1.497482e+01    2.065686e+00
  1.500657e+01    2.153189e+00
  1.503832e+01    2.277738e+00
  1.507008e+01    2.472282e+00
  1.510183e+01    2.773499e+00
  1.513358e+01    3.295452e+00
  1.516533e+01    4.015967e+00
  1.519708e+01    4.923002e+00
  1.522883e+01    5.613818e+00
  1.526058e+01    6.269993e+00
  1.529233e+01    6.447114e+00
  1.532409e+01    6.011908e+00
  1.535584e+01    4.738666e+00
  1.538759e+01    3.648514e+00
  1.541934e+01    3.002398e+00
  1.545109e+01    2.564465e+00
  1.548284e+01    2.296576e+00
  1.551459e+01    2.132286e+00
  1.554634e+01    2.020119e+00
  1.557809e+01    1.936926e+00
  1.560985e+01    1.912945e+00
  1.564160e+01    1.871199e+00
  1.567335e+01    1.817276e+00
  1.570510e+01    1.765242e+00
  1.573685e+01    1.748794e+00
  1.576860e+01    1.738648e+00
  1.580035e+01    1.704367e+00
  1.583210e+01    1.673076e+00
  1.586385e+01    1.671078e+00
  1.589561e+01    1.634390e+00
  1.592736e+01    1.638244e+00
  1.595911e+01    1.660357e+00
  1.599086e+01    1.632481e+00
  1.602261e+01    1.601151e+00
  1.605436e+01    1.622546e+00
  1.608611e+01    1.617026e+00
  1.611786e+01    1.611625e+00
  1.614961e+01    1.624337e+00
  1.618137e+01    1.561673e+00
  1.621312e+01    1.582829e+00
  1.624487e+01    1.570273e+00
  1.627662e+01    1.584137e+00
  1.630837e+01    1.554717e+00
  1.634012e+01    1.566895e+00
  1.637187e+01    1.528828e+00
  1.640362e+01    1.533401e+00
  1.643538e+01    1.546232e+00
  1.646713e+01    1.535363e+00
  1.649888e+01    1.534165e+00
  1.653063e+01    1.528538e+00
  1.656238e+01    1.511949e+00
  1.659413e+01    1.503082e+00
  1.662588e+01    1.510839e+00
  1.665763e+01    1.526417e+00
  1.668938e+01    1.495729e+00
  1.672114e+01    1.532720e+00
  1.675289e+01    1.490251e+00
  1.678464e+01    1.460651e+00
  1.681639e+01    1.474036e+00
  1.684814e+01    1.467417e+00
  1.687989e+01    1.460564e+00
  1.691164e+01    1.474571e+00
  1.694339e+01    1.454187e+00
  1.697514e+01    1.450335e+00
  1.700690e+01    1.476168e+00
  1.703865e+01    1.454742e+00
  1.707040e+01    1.430512e+00
  1.710215e+01    1.436856e+00
  1.713390e+01    1.436187e+00
  1.716565e+01    1.427526e+00
  1.719740e+01    1.389759e+00
  1.722915e+01    1.391229e+00
  1.726091e+01    1.413704e+00
  1.729266e+01    1.399279e+00
  1.732441e+01    1.372464e+00
  1.735616e+01    1.339556e+00
  1.738791e+01    1.381499e+00
  1.741966e+01    1.372642e+00
  1.745141e+01    1.375847e+00
  1.748316e+01    1.369109e+00
  1.751491e+01    1.379383e+00
  1.754667e+01    1.346192e+00
  1.757842e+01    1.399703e+00
  1.761017e+01    1.340532e+00
  1.764192e+01    1.342613e+00
  1.767367e+01    1.356019e+00
  1.770542e+01    1.346232e+00
  1.773717e+01    1.360588e+00
  1.776892e+01    1.354975e+00
  1.780067e+01    1.335115e+00
  1.783243e+01    1.344021e+00
  1.786418e+01    1.322301e+00
  1.789593e+01    1.298304e+00
  1.792768e+01    1.332893e+00
  1.795943e+01    1.313468e+00
  1.799118e+01    1.303238e+00
  1.802293e+01    1.305502e+00
  1.805468e+01    1.308736e+00
  1.808643e+01    1.288506e+00
  1.811819e+01    1.290747e+00
  1.814994e+01    1.281077e+00
  1.818169e+01    1.267858e+00
  1.821344e+01    1.304919e+00
  1.824519e+01    1.304525e+00
  1.827694e+01    1.279997e+00
  1.830869e+01    1.246814e+00
  1.834044e+01    1.274817e+00
  1.837220e+01    1.313768e+00
  1.840395e+01    1.273286e+00
  1.843570e+01    1.273778e+00
  1.846745e+01    1.261941e+00
  1.849920e+01    1.289680e+00
  1.853095e+01    1.254426e+00
  1.856270e+01    1.254118e+00
  1.859445e+01    1.252834e+00
  1.862620e+01    1.271194e+00
  1.865796e+01    1.212649e+00
  1.868971e+01    1.221397e+00
  1.872146e+01    1.232766e+00
  1.875321e+01    1.218867e+00
  1.878496e+01    1.240865e+00
  1.881671e+01    1.229195e+00
  1.884846e+01    1.236355e+00
  1.888021e+01    1.216231e+00
  1.891196e+01    1.215362e+00
  1.894372e+01    1.224338e+00
  1.897547e+01    1.194727e+00
  1.900722e+01    1.214820e+00
  1.903897e+01    1.184251e+00
  1.907072e+01    1.214196e+00
  1.910247e+01    1.205461e+00
  1.913422e+01    1.195893e+00
  1.916597e+01    1.234236e+00
  1.919773e+01    1.178389e+00
  1.922948e+01    1.184728e+00
  1.926123e+01    1.180199e+00
  1.929298e+01    1.188608e+00
  1.932473e+01    1.192527e+00
  1.935648e+01    1.180316e+00
  1.938823e+01    1.202074e+00
  1.941998e+01    1.177000e+00
  1.945173e+01    1.160794e+00
  1.948349e+01    1.177488e+00
  1.951524e+01    1.137847e+00
  1.954699e+01    1.171755e+00
  1.957874e+01    1.148953e+00
  1.961049e+01    1.158362e+00
  1.964224e+01    1.178519e+00
  1.967399e+01    1.167817e+00
  1.970574e+01    1.143886e+00
  1.973749e+01    1.146654e+00
  1.976925e+01    1.129035e+00
  1.980100e+01    1.121649e+00
  1.983275e+01    1.147568e+00
  1.986450e+01    1.143525e+00
  1.989625e+01    1.136909e+00
  1.992800e+01    1.135323e+00
  1.995975e+01    1.160038e+00
  1.999150e+01    1.151956e+00
  2.002325e+01    1.147076e+00
  2.005501e+01    1.137105e+00
  2.008676e+01    1.134507e+00
  2.011851e+01    1.114879e+00
  2.015026e+01    1.084532e+00
  2.018201e+01    1.109714e+00
  2.021376e+01    1.144197e+00
  2.024551e+01    1.117419e+00
  2.027726e+01    1.119456e+00
  2.030902e+01    1.146471e+00
  2.034077e+01    1.110810e+00
  2.037252e+01    1.126660e+00
  2.040427e+01    1.106028e+00
  2.043602e+01    1.104042e+00
  2.046777e+01    1.099363e+00
  2.049952e+01    1.104490e+00
  2.053127e+01    1.080058e+00
  2.056302e+01    1.084251e+00
  2.059478e+01    1.096150e+00
  2.062653e+01    1.088805e+00
  2.065828e+01    1.093982e+00
  2.069003e+01    1.107432e+00
  2.072178e+01    1.104551e+00
  2.075353e+01    1.108064e+00
  2.078528e+01    1.088376e+00
  2.081703e+01    1.099425e+00
  2.084878e+01    1.104938e+00
  2.088054e+01    1.076474e+00
  2.091229e+01    1.097117e+00
  2.094404e+01    1.069738e+00
  2.097579e+01    1.094948e+00
  2.100754e+01    1.073731e+00
  2.103929e+01    1.096997e+00
  2.107104e+01    1.096916e+00
  2.110279e+01    1.099610e+00
  2.113455e+01    1.091869e+00
  2.116630e+01    1.089215e+00
  2.119805e+01    1.115379e+00
  2.122980e+01    1.120802e+00
  2.126155e+01    1.107942e+00
  2.129330e+01    1.140392e+00
  2.132505e+01    1.140454e+00
  2.135680e+01    1.146761e+00
  2.138855e+01    1.171262e+00
  2.142031e+01    1.185318e+00
  2.145206e+01    1.236660e+00
  2.148381e+01    1.255315e+00
  2.151556e+01    1.304144e+00
  2.154731e+01    1.378582e+00
  2.157906e+01    1.443502e+00
  2.161081e+01    1.561322e+00
  2.164256e+01    1.742718e+00
  2.167431e+01    2.025044e+00
  2.170607e+01    2.348187e+00
  2.173782e+01    2.893375e+00
  2.176957e+01    3.793992e+00
  2.180132e+01    4.995306e+00
  2.183307e+01    6.486430e+00
  2.186482e+01    8.177154e+00
  2.189657e+01    9.838596e+00
  2.192832e+01    1.079074e+01
  2.196007e+01    9.963452e+00
  2.199183e+01    7.862226e+00
  2.202358e+01    5.631514e+00
  2.205533e+01    4.043823e+00
  2.208708e+01    3.071975e+00
  2.211883e+01    2.428542e+00
  2.215058e+01    2.017381e+00
  2.218233e+01    1.749496e+00
  2.221408e+01    1.593744e+00
  2.224584e+01    1.449924e+00
  2.227759e+01    1.351168e+00
  2.230934e+01    1.294668e+00
  2.234109e+01    1.228389e+00
  2.237284e+01    1.163444e+00
  2.240459e+01    1.130753e+00
  2.243634e+01    1.104807e+00
  2.246809e+01    1.088111e+00
  2.249984e+01    1.068413e+00
  2.253160e+01    1.049990e+00
  2.256335e+01    1.025911e+00
  2.259510e+01    1.005491e+00
  2.262685e+01    1.014551e+00
  2.265860e+01    9.984500e-01
  2.269035e+01    9.937145e-01
  2.272210e+01    9.906411e-01
  2.275385e+01    9.574355e-01
  2.278560e+01    9.499920e-01
  2.281736e+01    9.608349e-01
  2.284911e+01    9.422616e-01
  2.288086e+01    9.344636e-01
  2.291261e+01    9.161882e-01
  2.294436e+01    9.379988e-01
  2.297611e+01    9.170880e-01
  2.300786e+01    9.077767e-01
  2.303961e+01    9.092337e-01
  2.307137e+01    9.045724e-01
  2.310312e+01    9.128586e-01
  2.313487e+01    9.114013e-01
  2.316662e+01    9.194507e-01
  2.319837e+01    8.970225e-01
  2.323012e+01    8.826059e-01
  2.326187e+01    8.840877e-01
  2.329362e+01    8.881955e-01
  2.332537e+01    8.460686e-01
  2.335713e+01    8.853720e-01
  2.338888e+01    8.707979e-01
  2.342063e+01    8.737069e-01
  2.345238e+01    8.635476e-01
  2.348413e+01    8.733163e-01
  2.351588e+01    8.648292e-01
  2.354763e+01    8.573974e-01
  2.357938e+01    8.561073e-01
  2.361113e+01    8.575507e-01
  2.364289e+01    8.642216e-01
  2.367464e+01    8.332855e-01
  2.370639e+01    8.274407e-01
  2.373814e+01    8.408078e-01
  2.376989e+01    8.573294e-01
  2.380164e+01    8.383899e-01
  2.383339e+01    8.153496e-01
  2.386514e+01    7.986921e-01
  2.389689e+01    8.028725e-01
  2.392865e+01    8.106432e-01
  2.396040e+01    7.992741e-01
  2.399215e+01    7.888392e-01
  2.402390e+01    7.868282e-01
  2.405565e+01    8.132208e-01
  2.408740e+01    8.014328e-01
  2.411915e+01    7.845412e-01
  2.415090e+01    7.905349e-01
  2.418266e+01    8.204466e-01
  2.421441e+01    8.017176e-01
  2.424616e+01    7.704911e-01
  2.427791e+01    7.950451e-01
  2.430966e+01    8.031247e-01
  2.434141e+01    7.853828e-01
  2.437316e+01    7.906831e-01
  2.440491e+01    7.930783e-01
  2.443666e+01    8.029010e-01
  2.446842e+01    8.010020e-01
  2.450017e+01    8.018090e-01
  2.453192e+01    8.071942e-01
  2.456367e+01    7.965161e-01
  2.459542e+01    7.800702e-01
  2.462717e+01    7.748516e-01
  2.465892e+01    8.132056e-01
  2.469067e+01    7.915173e-01
  2.472242e+01    7.869294e-01
  2.475418e+01    7.920478e-01
  2.478593e+01    8.074562e-01
  2.481768e+01    8.148082e-01
  2.484943e+01    8.153997e-01
  2.488118e+01    8.112872e-01
  2.491293e+01    8.162135e-01
  2.494468e+01    8.166812e-01
  2.497643e+01    8.146511e-01
  2.500819e+01    7.964493e-01
  2.503994e+01    7.984989e-01
  2.507169e+01    8.077093e-01
  2.510344e+01    8.047661e-01
  2.513519e+01    8.249422e-01
  2.516694e+01    8.359005e-01
  2.519869e+01    8.539897e-01
  2.523044e+01    8.512422e-01
  2.526219e+01    8.532953e-01
  2.529395e+01    8.822132e-01
  2.532570e+01    8.614024e-01
  2.535745e+01    9.037000e-01
  2.538920e+01    9.019791e-01
  2.542095e+01    9.149169e-01
  2.545270e+01    9.444980e-01
  2.548445e+01    9.644730e-01
  2.551620e+01    9.861513e-01
  2.554795e+01    1.049649e+00
  2.557971e+01    1.081847e+00
  2.561146e+01    1.103367e+00
  2.564321e+01    1.143060e+00
  2.567496e+01    1.272572e+00
  2.570671e+01    1.409566e+00
  2.573846e+01    1.601384e+00
  2.577021e+01    1.880183e+00
  2.580196e+01    2.273575e+00
  2.583371e+01    2.917021e+00
  2.586547e+01    3.794448e+00
  2.589722e+01    4.996016e+00
  2.592897e+01    6.471148e+00
  2.596072e+01    8.022331e+00
  2.599247e+01    8.887403e+00
  2.602422e+01    8.465962e+00
  2.605597e+01    6.983335e+00
  2.608772e+01    5.222086e+00
  2.611948e+01    3.813606e+00
  2.615123e+01    2.838308e+00
  2.618298e+01    2.266285e+00
  2.621473e+01    1.903541e+00
  2.624648e+01    1.609405e+00
  2.627823e+01    1.427651e+00
  2.630998e+01    1.292388e+00
  2.634173e+01    1.179798e+00
  2.637348e+01    1.147955e+00
  2.640524e+01    1.096237e+00
  2.643699e+01    1.022438e+00
  2.646874e+01    1.007795e+00
  2.650049e+01    9.809983e-01
  2.653224e+01    9.870773e-01
  2.656399e+01    9.653076e-01
  2.659574e+01    9.400605e-01
  2.662749e+01    9.383640e-01
  2.665924e+01    9.211076e-01
  2.669100e+01    9.383630e-01
  2.672275e+01    9.349357e-01
  2.675450e+01    9.257393e-01
  2.678625e+01    9.260076e-01
  2.681800e+01    9.231709e-01
  2.684975e+01    9.189686e-01
  2.688150e+01    9.599965e-01
  2.691325e+01    9.482969e-01
  2.694501e+01    9.540262e-01
  2.697676e+01    9.671776e-01
  2.700851e+01    1.016379e+00
  2.704026e+01    1.078736e+00
  2.707201e+01    1.161208e+00
  2.710376e+01    1.298238e+00
  2.713551e+01    1.483151e+00
  2.716726e+01    1.753091e+00
  2.719901e+01    2.113632e+00
  2.723077e+01    2.442406e+00
  2.726252e+01    2.569898e+00
  2.729427e+01    2.417175e+00
  2.732602e+01    2.060937e+00
  2.735777e+01    1.691316e+00
  2.738952e+01    1.398511e+00
  2.742127e+01    1.246228e+00
  2.745302e+01    1.102452e+00
  2.748477e+01    1.051364e+00
  2.751653e+01    9.950515e-01
  2.754828e+01    9.549550e-01
  2.758003e+01    9.065013e-01
  2.761178e+01    9.047409e-01
  2.764353e+01    8.878348e-01
  2.767528e+01    8.534923e-01
  2.770703e+01    8.366960e-01
  2.773878e+01    8.752106e-01
  2.777054e+01    8.212391e-01
  2.780229e+01    8.288054e-01
  2.783404e+01    8.424190e-01
  2.786579e+01    8.296794e-01
  2.789754e+01    8.128670e-01
  2.792929e+01    8.392770e-01
  2.796104e+01    7.916765e-01
  2.799279e+01    8.165746e-01
  2.802454e+01    7.936087e-01
  2.805630e+01    7.982600e-01
  2.808805e+01    8.207175e-01
  2.811980e+01    7.747726e-01
  2.815155e+01    7.801574e-01
  2.818330e+01    8.043171e-01
  2.821505e+01    7.850713e-01
  2.824680e+01    7.688102e-01
  2.827855e+01    7.771828e-01
  2.831030e+01    7.830641e-01
  2.834206e+01    7.998229e-01
  2.837381e+01    7.827104e-01
  2.840556e+01    7.860508e-01
  2.843731e+01    7.751418e-01
  2.846906e+01    7.597333e-01
  2.850081e+01    7.721992e-01
  2.853256e+01    7.741384e-01
  2.856431e+01    7.661071e-01
  2.859606e+01    7.663227e-01
  2.862782e+01    7.795655e-01
  2.865957e+01    7.562045e-01
  2.869132e+01    7.678229e-01
  2.872307e+01    7.479681e-01
  2.875482e+01    7.612838e-01
  2.878657e+01    7.579128e-01
  2.881832e+01    7.534916e-01
  2.885007e+01    7.394145e-01
  2.888183e+01    7.499223e-01
  2.891358e+01    7.589800e-01
  2.894533e+01    7.398814e-01
  2.897708e+01    7.594576e-01
  2.900883e+01    7.443591e-01
  2.904058e+01    7.358108e-01
  2.907233e+01    7.428017e-01
  2.910408e+01    7.559894e-01
  2.913583e+01    7.574599e-01
  2.916759e+01    7.440764e-01
  2.919934e+01    7.280405e-01
  2.923109e+01    7.542059e-01
  2.926284e+01    7.304093e-01
  2.929459e+01    7.574348e-01
  2.932634e+01    7.465200e-01
  2.935809e+01    7.515900e-01
  2.938984e+01    7.490314e-01
  2.942159e+01    7.385123e-01
  2.945335e+01    7.408428e-01
  2.948510e+01    7.488708e-01
  2.951685e+01    7.346023e-01
  2.954860e+01    7.325897e-01
  2.958035e+01    7.197933e-01
  2.961210e+01    7.265425e-01
  2.964385e+01    7.189906e-01
  2.967560e+01    7.307958e-01
  2.970736e+01    7.170042e-01
  2.973911e+01    7.333149e-01
  2.977086e+01    7.457880e-01
  2.980261e+01    7.255284e-01
  2.983436e+01    7.452322e-01
  2.986611e+01    6.990632e-01
  2.989786e+01    7.299137e-01
  2.992961e+01    7.398232e-01
  2.996136e+01    7.280427e-01
  2.999312e+01    7.495313e-01
  3.002487e+01    7.566457e-01
  3.005662e+01    7.594305e-01
  3.008837e+01    7.432241e-01
  3.012012e+01    7.543973e-01
  3.015187e+01    7.318988e-01
  3.018362e+01    7.215558e-01
  3.021537e+01    7.362920e-01
  3.024712e+01    7.165028e-01
  3.027888e+01    7.201953e-01
  3.031063e+01    7.089437e-01
  3.034238e+01    7.193657e-01
  3.037413e+01    7.427945e-01
  3.040588e+01    7.134100e-01
  3.043763e+01    7.409948e-01
  3.046938e+01    7.075680e-01
  3.050113e+01    7.219312e-01
  3.053288e+01    7.331517e-01
  3.056464e+01    7.194175e-01
  3.059639e+01    7.140275e-01
  3.062814e+01    7.192472e-01
  3.065989e+01    7.196183e-01
  3.069164e+01    7.327758e-01
  3.072339e+01    7.107233e-01
  3.075514e+01    7.355478e-01
  3.078689e+01    7.245838e-01
  3.081865e+01    6.929424e-01
  3.085040e+01    7.213060e-01
  3.088215e+01    7.165998e-01
  3.091390e+01    7.250602e-01
  3.094565e+01    7.289313e-01
  3.097740e+01    7.163081e-01
  3.100915e+01    7.549546e-01
  3.104090e+01    7.200451e-01
  3.107265e+01    7.344167e-01
  3.110441e+01    7.036744e-01
  3.113616e+01    7.393565e-01
  3.116791e+01    7.172602e-01
  3.119966e+01    7.259927e-01
  3.123141e+01    7.227900e-01
  3.126316e+01    7.400691e-01
  3.129491e+01    7.447190e-01
  3.132666e+01    7.270945e-01
  3.135841e+01    7.546298e-01
  3.139017e+01    7.254612e-01
  3.142192e+01    7.461699e-01
  3.145367e+01    7.692666e-01
  3.148542e+01    7.567973e-01
  3.151717e+01    7.736511e-01
  3.154892e+01    7.856068e-01
  3.158067e+01    8.131089e-01
  3.161242e+01    8.324174e-01
  3.164418e+01    8.486760e-01
  3.167593e+01    8.794743e-01
  3.170768e+01    9.258569e-01
  3.173943e+01    9.993047e-01
  3.177118e+01    1.079888e+00
  3.180293e+01    1.227972e+00
  3.183468e+01    1.434438e+00
  3.186643e+01    1.730012e+00
  3.189818e+01    2.127922e+00
  3.192994e+01    2.421662e+00
  3.196169e+01    2.559782e+00
  3.199344e+01    2.386459e+00
  3.202519e+01    2.015548e+00
  3.205694e+01    1.619823e+00
  3.208869e+01    1.313300e+00
  3.212044e+01    1.156634e+00
  3.215219e+01    1.006273e+00
  3.218394e+01    9.453411e-01
  3.221570e+01    8.594515e-01
  3.224745e+01    8.451988e-01
  3.227920e+01    8.113554e-01
  3.231095e+01    7.926586e-01
  3.234270e+01    7.838627e-01
  3.237445e+01    7.922972e-01
  3.240620e+01    7.759600e-01
  3.243795e+01    7.595762e-01
  3.246970e+01    7.671195e-01
  3.250146e+01    7.292562e-01
  3.253321e+01    7.428243e-01
  3.254908e+01    7.293032e-01