File: XRD/2024-07-27_002_Ru-CGO-ex_Activtation_ramp_000002_data_000110.dat
# == pyFAI calibration ==
# Distance Sample to Detector: 0.4 m
# PONI: 9.750e-02, 1.135e-01 m
# Rotations: -0.000175 0.000000 -0.000000 rad
#
# == Fit2d calibration ==
# Distance Sample-beamCenter: 400.000 mm
# Center: x=1514.000, y=1300.000 pix
# Tilt: 0.010 deg  TiltPlanRot: 0.010 deg
#
# Detector Detector	 Spline= None	 PixelSize= 7.500e-05, 7.500e-05 m
#    Detector has a mask: False
#    Detector has a dark current: False
#    detector has a flat field: False
#
# Wavelength: 6.888e-11 m
# Mask applied: user provided
# Dark current applied: False
# Flat field applied: False
# Polarization factor: 0.99
# Normalization factor: 1.0
# --> /home/myspot/data/2024_07_Rosario/Ru-CGO-ex/2024-07-27_002_Ru-CGO-ex_Activtation_ramp_000002_data_000110.dat
#       q_nm^-1             I
  2.003187e-02    1.647344e-01
  5.178302e-02    8.768985e-02
  8.353417e-02    8.431942e-02
  1.152853e-01    7.406245e-02
  1.470365e-01    0.000000e+00
  1.787876e-01    0.000000e+00
  2.105388e-01    4.507859e-02
  2.422899e-01    3.209206e-02
  2.740411e-01    1.670911e-02
  3.057922e-01    4.358960e-02
  3.375433e-01    2.487759e-02
  3.692945e-01    8.394553e-03
  4.010456e-01    1.825567e-02
  4.327968e-01    2.139193e-02
  4.645479e-01    3.513635e-02
  4.962991e-01    3.420366e-02
  5.280502e-01    1.761739e-02
  5.598014e-01    4.910782e-02
  5.915525e-01    4.536130e-02
  6.233037e-01    2.981179e-02
  6.550548e-01    4.052315e-02
  6.868060e-01    4.417037e-02
  7.185571e-01    5.063513e-02
  7.503083e-01    4.130057e-02
  7.820594e-01    1.247345e-01
  8.138106e-01    1.556527e-01
  8.455617e-01    2.825908e-01
  8.773129e-01    3.727663e-01
  9.090640e-01    5.292295e-01
  9.408152e-01    7.001370e-01
  9.725663e-01    8.649374e-01
  1.004317e+00    1.070354e+00
  1.036069e+00    1.189289e+00
  1.067820e+00    1.372935e+00
  1.099571e+00    1.308672e+00
  1.131322e+00    1.472990e+00
  1.163073e+00    1.467686e+00
  1.194824e+00    1.650876e+00
  1.226575e+00    2.003864e+00
  1.258327e+00    2.205589e+00
  1.290078e+00    2.476625e+00
  1.321829e+00    2.354656e+00
  1.353580e+00    2.511965e+00
  1.385331e+00    2.529345e+00
  1.417082e+00    2.704118e+00
  1.448834e+00    2.816012e+00
  1.480585e+00    2.774575e+00
  1.512336e+00    2.840989e+00
  1.544087e+00    3.037915e+00
  1.575838e+00    2.881287e+00
  1.607589e+00    2.847439e+00
  1.639340e+00    2.887212e+00
  1.671092e+00    2.737866e+00
  1.702843e+00    2.819016e+00
  1.734594e+00    2.734115e+00
  1.766345e+00    2.679476e+00
  1.798096e+00    2.838388e+00
  1.829847e+00    2.858095e+00
  1.861598e+00    2.696770e+00
  1.893350e+00    2.584749e+00
  1.925101e+00    2.730300e+00
  1.956852e+00    2.748750e+00
  1.988603e+00    2.625325e+00
  2.020354e+00    2.778924e+00
  2.052105e+00    2.705985e+00
  2.083856e+00    2.589533e+00
  2.115608e+00    2.767395e+00
  2.147359e+00    2.774374e+00
  2.179110e+00    2.694067e+00
  2.210861e+00    2.669336e+00
  2.242612e+00    2.699488e+00
  2.274363e+00    2.681635e+00
  2.306115e+00    2.668333e+00
  2.337866e+00    2.595400e+00
  2.369617e+00    2.724611e+00
  2.401368e+00    2.752167e+00
  2.433119e+00    2.687043e+00
  2.464870e+00    2.709861e+00
  2.496621e+00    2.761519e+00
  2.528373e+00    2.676889e+00
  2.560124e+00    2.797552e+00
  2.591875e+00    2.734231e+00
  2.623626e+00    2.631685e+00
  2.655377e+00    2.740635e+00
  2.687128e+00    2.719452e+00
  2.718879e+00    2.826568e+00
  2.750631e+00    2.797069e+00
  2.782382e+00    2.756063e+00
  2.814133e+00    2.827378e+00
  2.845884e+00    2.755607e+00
  2.877635e+00    2.844700e+00
  2.909386e+00    2.742858e+00
  2.941137e+00    2.865657e+00
  2.972889e+00    2.811689e+00
  3.004640e+00    2.812051e+00
  3.036391e+00    2.846591e+00
  3.068142e+00    2.898754e+00
  3.099893e+00    2.805692e+00
  3.131644e+00    2.860077e+00
  3.163395e+00    2.937747e+00
  3.195147e+00    2.804443e+00
  3.226898e+00    2.814413e+00
  3.258649e+00    2.826797e+00
  3.290400e+00    2.949608e+00
  3.322151e+00    2.843974e+00
  3.353902e+00    2.819267e+00
  3.385654e+00    2.900485e+00
  3.417405e+00    2.871148e+00
  3.449156e+00    2.872067e+00
  3.480907e+00    2.882044e+00
  3.512658e+00    3.040892e+00
  3.544409e+00    2.943888e+00
  3.576160e+00    2.855491e+00
  3.607912e+00    2.880524e+00
  3.639663e+00    2.966453e+00
  3.671414e+00    2.971051e+00
  3.703165e+00    2.983091e+00
  3.734916e+00    2.962542e+00
  3.766667e+00    2.946170e+00
  3.798418e+00    2.822361e+00
  3.830170e+00    2.907969e+00
  3.861921e+00    2.838976e+00
  3.893672e+00    2.947742e+00
  3.925423e+00    2.917706e+00
  3.957174e+00    2.947263e+00
  3.988925e+00    2.969522e+00
  4.020676e+00    3.051634e+00
  4.052428e+00    2.890107e+00
  4.084179e+00    3.042291e+00
  4.115930e+00    2.938314e+00
  4.147681e+00    2.990463e+00
  4.179432e+00    2.955396e+00
  4.211183e+00    2.943815e+00
  4.242935e+00    3.005920e+00
  4.274686e+00    2.990119e+00
  4.306437e+00    3.017962e+00
  4.338188e+00    2.996633e+00
  4.369939e+00    3.049672e+00
  4.401690e+00    2.957492e+00
  4.433441e+00    3.034285e+00
  4.465193e+00    3.042502e+00
  4.496944e+00    3.007729e+00
  4.528695e+00    2.916044e+00
  4.560446e+00    3.038308e+00
  4.592197e+00    3.093611e+00
  4.623948e+00    3.059879e+00
  4.655699e+00    3.112992e+00
  4.687451e+00    3.017004e+00
  4.719202e+00    3.138132e+00
  4.750953e+00    3.140663e+00
  4.782704e+00    2.995623e+00
  4.814455e+00    3.000921e+00
  4.846206e+00    3.054253e+00
  4.877957e+00    3.048401e+00
  4.909709e+00    3.019719e+00
  4.941460e+00    3.019508e+00
  4.973211e+00    3.071476e+00
  5.004962e+00    3.071517e+00
  5.036713e+00    3.120953e+00
  5.068464e+00    3.042949e+00
  5.100216e+00    3.134954e+00
  5.131967e+00    3.064348e+00
  5.163718e+00    3.051768e+00
  5.195469e+00    3.088551e+00
  5.227220e+00    3.045815e+00
  5.258971e+00    3.095202e+00
  5.290722e+00    2.982872e+00
  5.322474e+00    3.018390e+00
  5.354225e+00    3.036327e+00
  5.385976e+00    3.103581e+00
  5.417727e+00    2.986191e+00
  5.449478e+00    3.083584e+00
  5.481229e+00    3.098365e+00
  5.512980e+00    2.999501e+00
  5.544732e+00    3.073744e+00
  5.576483e+00    3.019746e+00
  5.608234e+00    3.100286e+00
  5.639985e+00    2.991551e+00
  5.671736e+00    3.091153e+00
  5.703487e+00    2.965888e+00
  5.735238e+00    2.987431e+00
  5.766990e+00    3.054671e+00
  5.798741e+00    3.033391e+00
  5.830492e+00    2.974960e+00
  5.862243e+00    2.977310e+00
  5.893994e+00    2.970822e+00
  5.925745e+00    3.009864e+00
  5.957497e+00    2.934437e+00
  5.989248e+00    2.959381e+00
  6.020999e+00    2.982812e+00
  6.052750e+00    2.946482e+00
  6.084501e+00    2.961085e+00
  6.116252e+00    3.011347e+00
  6.148003e+00    2.989340e+00
  6.179755e+00    3.131112e+00
  6.211506e+00    2.996834e+00
  6.243257e+00    2.956055e+00
  6.275008e+00    2.927971e+00
  6.306759e+00    3.000859e+00
  6.338510e+00    2.981433e+00
  6.370261e+00    2.973677e+00
  6.402013e+00    3.064371e+00
  6.433764e+00    2.974984e+00
  6.465515e+00    2.922538e+00
  6.497266e+00    2.961877e+00
  6.529017e+00    2.987017e+00
  6.560768e+00    2.933247e+00
  6.592519e+00    2.942432e+00
  6.624271e+00    3.024060e+00
  6.656022e+00    3.013875e+00
  6.687773e+00    3.051802e+00
  6.719524e+00    2.952861e+00
  6.751275e+00    3.011975e+00
  6.783026e+00    3.047436e+00
  6.814777e+00    3.008319e+00
  6.846529e+00    2.967445e+00
  6.878280e+00    2.992306e+00
  6.910031e+00    2.931273e+00
  6.941782e+00    2.964966e+00
  6.973533e+00    2.983196e+00
  7.005284e+00    2.928253e+00
  7.037036e+00    2.941944e+00
  7.068787e+00    2.976366e+00
  7.100538e+00    2.953339e+00
  7.132289e+00    3.001813e+00
  7.164040e+00    2.993351e+00
  7.195791e+00    2.982337e+00
  7.227542e+00    2.962396e+00
  7.259294e+00    2.930498e+00
  7.291045e+00    2.986991e+00
  7.322796e+00    2.940912e+00
  7.354547e+00    2.943574e+00
  7.386298e+00    2.905970e+00
  7.418049e+00    2.954577e+00
  7.449800e+00    2.910686e+00
  7.481552e+00    2.929312e+00
  7.513303e+00    2.901015e+00
  7.545054e+00    2.919810e+00
  7.576805e+00    2.970872e+00
  7.608556e+00    2.966584e+00
  7.640307e+00    2.902415e+00
  7.672058e+00    2.885191e+00
  7.703810e+00    2.916236e+00
  7.735561e+00    2.941173e+00
  7.767312e+00    2.910518e+00
  7.799063e+00    2.872792e+00
  7.830814e+00    2.948301e+00
  7.862565e+00    2.841214e+00
  7.894317e+00    2.900731e+00
  7.926068e+00    2.860084e+00
  7.957819e+00    2.820688e+00
  7.989570e+00    2.847449e+00
  8.021321e+00    2.896303e+00
  8.053072e+00    2.908431e+00
  8.084823e+00    2.862308e+00
  8.116575e+00    2.933668e+00
  8.148326e+00    2.936193e+00
  8.180077e+00    2.857389e+00
  8.211828e+00    2.974140e+00
  8.243579e+00    2.871634e+00
  8.275330e+00    2.895559e+00
  8.307081e+00    2.917284e+00
  8.338833e+00    2.881895e+00
  8.370584e+00    2.849681e+00
  8.402335e+00    2.857039e+00
  8.434086e+00    2.842174e+00
  8.465837e+00    2.789229e+00
  8.497588e+00    2.789422e+00
  8.529339e+00    2.795727e+00
  8.561091e+00    2.832819e+00
  8.592842e+00    2.819803e+00
  8.624593e+00    2.729626e+00
  8.656344e+00    2.831510e+00
  8.688095e+00    2.820313e+00
  8.719846e+00    2.848088e+00
  8.751598e+00    2.817238e+00
  8.783349e+00    2.828497e+00
  8.815100e+00    2.803268e+00
  8.846851e+00    2.821239e+00
  8.878602e+00    2.749476e+00
  8.910353e+00    2.792041e+00
  8.942104e+00    2.767645e+00
  8.973856e+00    2.805770e+00
  9.005607e+00    2.745337e+00
  9.037358e+00    2.778648e+00
  9.069109e+00    2.782469e+00
  9.100860e+00    2.725525e+00
  9.132611e+00    2.762117e+00
  9.164362e+00    2.696567e+00
  9.196114e+00    2.782138e+00
  9.227865e+00    2.744011e+00
  9.259616e+00    2.695263e+00
  9.291367e+00    2.750810e+00
  9.323118e+00    2.672668e+00
  9.354869e+00    2.727629e+00
  9.386620e+00    2.748942e+00
  9.418372e+00    2.679411e+00
  9.450123e+00    2.708336e+00
  9.481874e+00    2.739697e+00
  9.513625e+00    2.767162e+00
  9.545376e+00    2.718289e+00
  9.577127e+00    2.740302e+00
  9.608878e+00    2.718153e+00
  9.640630e+00    2.722787e+00
  9.672381e+00    2.700388e+00
  9.704132e+00    2.691871e+00
  9.735883e+00    2.657925e+00
  9.767634e+00    2.665141e+00
  9.799385e+00    2.695751e+00
  9.831137e+00    2.670567e+00
  9.862888e+00    2.655082e+00
  9.894639e+00    2.656559e+00
  9.926390e+00    2.651064e+00
  9.958141e+00    2.614053e+00
  9.989892e+00    2.650832e+00
  1.002164e+01    2.615613e+00
  1.005339e+01    2.616236e+00
  1.008515e+01    2.594271e+00
  1.011690e+01    2.577820e+00
  1.014865e+01    2.652594e+00
  1.018040e+01    2.587754e+00
  1.021215e+01    2.594402e+00
  1.024390e+01    2.563361e+00
  1.027565e+01    2.558500e+00
  1.030740e+01    2.570531e+00
  1.033915e+01    2.583679e+00
  1.037091e+01    2.569981e+00
  1.040266e+01    2.583405e+00
  1.043441e+01    2.562883e+00
  1.046616e+01    2.529208e+00
  1.049791e+01    2.564471e+00
  1.052966e+01    2.552658e+00
  1.056141e+01    2.524674e+00
  1.059316e+01    2.534369e+00
  1.062492e+01    2.510935e+00
  1.065667e+01    2.476238e+00
  1.068842e+01    2.541223e+00
  1.072017e+01    2.536535e+00
  1.075192e+01    2.552828e+00
  1.078367e+01    2.511760e+00
  1.081542e+01    2.505991e+00
  1.084717e+01    2.485639e+00
  1.087892e+01    2.468185e+00
  1.091068e+01    2.461563e+00
  1.094243e+01    2.460592e+00
  1.097418e+01    2.425094e+00
  1.100593e+01    2.471371e+00
  1.103768e+01    2.414777e+00
  1.106943e+01    2.419391e+00
  1.110118e+01    2.441292e+00
  1.113293e+01    2.446262e+00
  1.116468e+01    2.387928e+00
  1.119644e+01    2.390296e+00
  1.122819e+01    2.397176e+00
  1.125994e+01    2.421855e+00
  1.129169e+01    2.384722e+00
  1.132344e+01    2.404255e+00
  1.135519e+01    2.365537e+00
  1.138694e+01    2.426905e+00
  1.141869e+01    2.427931e+00
  1.145045e+01    2.356157e+00
  1.148220e+01    2.320727e+00
  1.151395e+01    2.406580e+00
  1.154570e+01    2.357333e+00
  1.157745e+01    2.372046e+00
  1.160920e+01    2.351483e+00
  1.164095e+01    2.371468e+00
  1.167270e+01    2.334492e+00
  1.170445e+01    2.324547e+00
  1.173621e+01    2.322471e+00
  1.176796e+01    2.350438e+00
  1.179971e+01    2.269229e+00
  1.183146e+01    2.292508e+00
  1.186321e+01    2.316069e+00
  1.189496e+01    2.284524e+00
  1.192671e+01    2.303199e+00
  1.195846e+01    2.275091e+00
  1.199021e+01    2.254283e+00
  1.202197e+01    2.321106e+00
  1.205372e+01    2.307521e+00
  1.208547e+01    2.265472e+00
  1.211722e+01    2.299270e+00
  1.214897e+01    2.323337e+00
  1.218072e+01    2.299679e+00
  1.221247e+01    2.299926e+00
  1.224422e+01    2.227168e+00
  1.227597e+01    2.276802e+00
  1.230773e+01    2.275502e+00
  1.233948e+01    2.294178e+00
  1.237123e+01    2.272073e+00
  1.240298e+01    2.287870e+00
  1.243473e+01    2.300393e+00
  1.246648e+01    2.285817e+00
  1.249823e+01    2.331839e+00
  1.252998e+01    2.311775e+00
  1.256174e+01    2.295362e+00
  1.259349e+01    2.388610e+00
  1.262524e+01    2.378589e+00
  1.265699e+01    2.390502e+00
  1.268874e+01    2.417623e+00
  1.272049e+01    2.501051e+00
  1.275224e+01    2.495558e+00
  1.278399e+01    2.561369e+00
  1.281574e+01    2.643167e+00
  1.284750e+01    2.837061e+00
  1.287925e+01    2.979092e+00
  1.291100e+01    3.244471e+00
  1.294275e+01    3.696545e+00
  1.297450e+01    4.293103e+00
  1.300625e+01    5.343839e+00
  1.303800e+01    6.930389e+00
  1.306975e+01    9.353389e+00
  1.310150e+01    1.197519e+01
  1.313326e+01    1.464624e+01
  1.316501e+01    1.679494e+01
  1.319676e+01    1.735545e+01
  1.322851e+01    1.465727e+01
  1.326026e+01    1.056091e+01
  1.329201e+01    7.446774e+00
  1.332376e+01    5.675432e+00
  1.335551e+01    4.457732e+00
  1.338727e+01    3.790098e+00
  1.341902e+01    3.322319e+00
  1.345077e+01    2.948257e+00
  1.348252e+01    2.800865e+00
  1.351427e+01    2.616673e+00
  1.354602e+01    2.472429e+00
  1.357777e+01    2.394101e+00
  1.360952e+01    2.323545e+00
  1.364127e+01    2.326329e+00
  1.367303e+01    2.250427e+00
  1.370478e+01    2.232300e+00
  1.373653e+01    2.161233e+00
  1.376828e+01    2.180411e+00
  1.380003e+01    2.095093e+00
  1.383178e+01    2.112939e+00
  1.386353e+01    2.070194e+00
  1.389528e+01    2.106424e+00
  1.392703e+01    2.044948e+00
  1.395879e+01    2.068189e+00
  1.399054e+01    2.036405e+00
  1.402229e+01    2.011317e+00
  1.405404e+01    2.000183e+00
  1.408579e+01    2.002867e+00
  1.411754e+01    1.958081e+00
  1.414929e+01    1.975020e+00
  1.418104e+01    1.968583e+00
  1.421279e+01    1.935731e+00
  1.424455e+01    1.975626e+00
  1.427630e+01    1.937468e+00
  1.430805e+01    1.954307e+00
  1.433980e+01    1.927899e+00
  1.437155e+01    1.916359e+00
  1.440330e+01    1.913443e+00
  1.443505e+01    1.951497e+00
  1.446680e+01    1.867134e+00
  1.449856e+01    1.873841e+00
  1.453031e+01    1.888382e+00
  1.456206e+01    1.870971e+00
  1.459381e+01    1.907045e+00
  1.462556e+01    1.880959e+00
  1.465731e+01    1.861204e+00
  1.468906e+01    1.879043e+00
  1.472081e+01    1.888605e+00
  1.475256e+01    1.847726e+00
  1.478432e+01    1.896353e+00
  1.481607e+01    1.909477e+00
  1.484782e+01    1.917879e+00
  1.487957e+01    1.891006e+00
  1.491132e+01    1.929478e+00
  1.494307e+01    2.022213e+00
  1.497482e+01    2.058849e+00
  1.500657e+01    2.101525e+00
  1.503832e+01    2.279928e+00
  1.507008e+01    2.500568e+00
  1.510183e+01    2.849483e+00
  1.513358e+01    3.395658e+00
  1.516533e+01    4.098584e+00
  1.519708e+01    4.879037e+00
  1.522883e+01    5.555496e+00
  1.526058e+01    5.928193e+00
  1.529233e+01    5.797146e+00
  1.532409e+01    5.089540e+00
  1.535584e+01    3.992386e+00
  1.538759e+01    3.140908e+00
  1.541934e+01    2.651458e+00
  1.545109e+01    2.353178e+00
  1.548284e+01    2.139587e+00
  1.551459e+01    2.000441e+00
  1.554634e+01    1.895709e+00
  1.557809e+01    1.891570e+00
  1.560985e+01    1.830905e+00
  1.564160e+01    1.750453e+00
  1.567335e+01    1.753423e+00
  1.570510e+01    1.705968e+00
  1.573685e+01    1.686461e+00
  1.576860e+01    1.673002e+00
  1.580035e+01    1.671813e+00
  1.583210e+01    1.665462e+00
  1.586385e+01    1.641470e+00
  1.589561e+01    1.628572e+00
  1.592736e+01    1.604774e+00
  1.595911e+01    1.607406e+00
  1.599086e+01    1.619097e+00
  1.602261e+01    1.606771e+00
  1.605436e+01    1.587987e+00
  1.608611e+01    1.578784e+00
  1.611786e+01    1.552675e+00
  1.614961e+01    1.551290e+00
  1.618137e+01    1.554460e+00
  1.621312e+01    1.515944e+00
  1.624487e+01    1.535464e+00
  1.627662e+01    1.519738e+00
  1.630837e+01    1.562970e+00
  1.634012e+01    1.522791e+00
  1.637187e+01    1.530113e+00
  1.640362e+01    1.501999e+00
  1.643538e+01    1.520897e+00
  1.646713e+01    1.501866e+00
  1.649888e+01    1.484730e+00
  1.653063e+01    1.488632e+00
  1.656238e+01    1.466978e+00
  1.659413e+01    1.496177e+00
  1.662588e+01    1.456571e+00
  1.665763e+01    1.470359e+00
  1.668938e+01    1.460472e+00
  1.672114e+01    1.434363e+00
  1.675289e+01    1.451664e+00
  1.678464e+01    1.443314e+00
  1.681639e+01    1.417300e+00
  1.684814e+01    1.443614e+00
  1.687989e+01    1.424629e+00
  1.691164e+01    1.431925e+00
  1.694339e+01    1.412060e+00
  1.697514e+01    1.424799e+00
  1.700690e+01    1.424766e+00
  1.703865e+01    1.420026e+00
  1.707040e+01    1.419225e+00
  1.710215e+01    1.436798e+00
  1.713390e+01    1.390059e+00
  1.716565e+01    1.374723e+00
  1.719740e+01    1.385715e+00
  1.722915e+01    1.380037e+00
  1.726091e+01    1.374619e+00
  1.729266e+01    1.332450e+00
  1.732441e+01    1.346996e+00
  1.735616e+01    1.373111e+00
  1.738791e+01    1.387959e+00
  1.741966e+01    1.341115e+00
  1.745141e+01    1.348324e+00
  1.748316e+01    1.334944e+00
  1.751491e+01    1.320926e+00
  1.754667e+01    1.372903e+00
  1.757842e+01    1.334874e+00
  1.761017e+01    1.321458e+00
  1.764192e+01    1.319464e+00
  1.767367e+01    1.327789e+00
  1.770542e+01    1.319950e+00
  1.773717e+01    1.310358e+00
  1.776892e+01    1.301696e+00
  1.780067e+01    1.312316e+00
  1.783243e+01    1.315676e+00
  1.786418e+01    1.298661e+00
  1.789593e+01    1.320014e+00
  1.792768e+01    1.308791e+00
  1.795943e+01    1.282224e+00
  1.799118e+01    1.259478e+00
  1.802293e+01    1.302284e+00
  1.805468e+01    1.259960e+00
  1.808643e+01    1.271272e+00
  1.811819e+01    1.272372e+00
  1.814994e+01    1.279204e+00
  1.818169e+01    1.264197e+00
  1.821344e+01    1.246817e+00
  1.824519e+01    1.251496e+00
  1.827694e+01    1.269350e+00
  1.830869e+01    1.294797e+00
  1.834044e+01    1.232739e+00
  1.837220e+01    1.241032e+00
  1.840395e+01    1.249324e+00
  1.843570e+01    1.246959e+00
  1.846745e+01    1.246765e+00
  1.849920e+01    1.244118e+00
  1.853095e+01    1.229866e+00
  1.856270e+01    1.247238e+00
  1.859445e+01    1.200898e+00
  1.862620e+01    1.227254e+00
  1.865796e+01    1.217058e+00
  1.868971e+01    1.191818e+00
  1.872146e+01    1.200469e+00
  1.875321e+01    1.198954e+00
  1.878496e+01    1.222939e+00
  1.881671e+01    1.177235e+00
  1.884846e+01    1.190788e+00
  1.888021e+01    1.211666e+00
  1.891196e+01    1.190862e+00
  1.894372e+01    1.195676e+00
  1.897547e+01    1.158834e+00
  1.900722e+01    1.156676e+00
  1.903897e+01    1.184936e+00
  1.907072e+01    1.160400e+00
  1.910247e+01    1.167619e+00
  1.913422e+01    1.155442e+00
  1.916597e+01    1.166135e+00
  1.919773e+01    1.156032e+00
  1.922948e+01    1.157767e+00
  1.926123e+01    1.169641e+00
  1.929298e+01    1.194393e+00
  1.932473e+01    1.159971e+00
  1.935648e+01    1.145498e+00
  1.938823e+01    1.148372e+00
  1.941998e+01    1.121940e+00
  1.945173e+01    1.146777e+00
  1.948349e+01    1.137992e+00
  1.951524e+01    1.151292e+00
  1.954699e+01    1.149906e+00
  1.957874e+01    1.124994e+00
  1.961049e+01    1.112002e+00
  1.964224e+01    1.122589e+00
  1.967399e+01    1.138940e+00
  1.970574e+01    1.091314e+00
  1.973749e+01    1.095330e+00
  1.976925e+01    1.104085e+00
  1.980100e+01    1.113817e+00
  1.983275e+01    1.099578e+00
  1.986450e+01    1.118383e+00
  1.989625e+01    1.124895e+00
  1.992800e+01    1.100556e+00
  1.995975e+01    1.093183e+00
  1.999150e+01    1.113333e+00
  2.002325e+01    1.105771e+00
  2.005501e+01    1.088672e+00
  2.008676e+01    1.076912e+00
  2.011851e+01    1.108232e+00
  2.015026e+01    1.060037e+00
  2.018201e+01    1.095711e+00
  2.021376e+01    1.080617e+00
  2.024551e+01    1.105964e+00
  2.027726e+01    1.108957e+00
  2.030902e+01    1.060069e+00
  2.034077e+01    1.086336e+00
  2.037252e+01    1.058643e+00
  2.040427e+01    1.072117e+00
  2.043602e+01    1.083617e+00
  2.046777e+01    1.089907e+00
  2.049952e+01    1.065616e+00
  2.053127e+01    1.071672e+00
  2.056302e+01    1.073972e+00
  2.059478e+01    1.077463e+00
  2.062653e+01    1.070389e+00
  2.065828e+01    1.063428e+00
  2.069003e+01    1.051313e+00
  2.072178e+01    1.051565e+00
  2.075353e+01    1.038532e+00
  2.078528e+01    1.087702e+00
  2.081703e+01    1.078170e+00
  2.084878e+01    1.094580e+00
  2.088054e+01    1.053607e+00
  2.091229e+01    1.075515e+00
  2.094404e+01    1.077970e+00
  2.097579e+01    1.092114e+00
  2.100754e+01    1.049420e+00
  2.103929e+01    1.055707e+00
  2.107104e+01    1.072230e+00
  2.110279e+01    1.065295e+00
  2.113455e+01    1.062315e+00
  2.116630e+01    1.092881e+00
  2.119805e+01    1.072767e+00
  2.122980e+01    1.060560e+00
  2.126155e+01    1.095997e+00
  2.129330e+01    1.109893e+00
  2.132505e+01    1.104834e+00
  2.135680e+01    1.123607e+00
  2.138855e+01    1.147665e+00
  2.142031e+01    1.173644e+00
  2.145206e+01    1.208784e+00
  2.148381e+01    1.221376e+00
  2.151556e+01    1.302743e+00
  2.154731e+01    1.362415e+00
  2.157906e+01    1.459608e+00
  2.161081e+01    1.572903e+00
  2.164256e+01    1.743141e+00
  2.167431e+01    2.034878e+00
  2.170607e+01    2.464308e+00
  2.173782e+01    3.117323e+00
  2.176957e+01    4.092751e+00
  2.180132e+01    5.303219e+00
  2.183307e+01    6.802518e+00
  2.186482e+01    8.190300e+00
  2.189657e+01    9.528430e+00
  2.192832e+01    9.468246e+00
  2.196007e+01    7.916652e+00
  2.199183e+01    5.845838e+00
  2.202358e+01    4.185865e+00
  2.205533e+01    3.126092e+00
  2.208708e+01    2.471486e+00
  2.211883e+01    2.046841e+00
  2.215058e+01    1.770018e+00
  2.218233e+01    1.576081e+00
  2.221408e+01    1.410941e+00
  2.224584e+01    1.313195e+00
  2.227759e+01    1.241389e+00
  2.230934e+01    1.173895e+00
  2.234109e+01    1.149998e+00
  2.237284e+01    1.124974e+00
  2.240459e+01    1.075485e+00
  2.243634e+01    1.036544e+00
  2.246809e+01    1.018475e+00
  2.249984e+01    9.836620e-01
  2.253160e+01    1.021350e+00
  2.256335e+01    9.930166e-01
  2.259510e+01    9.669645e-01
  2.262685e+01    9.749597e-01
  2.265860e+01    9.502043e-01
  2.269035e+01    9.468920e-01
  2.272210e+01    9.537517e-01
  2.275385e+01    9.257764e-01
  2.278560e+01    9.087465e-01
  2.281736e+01    9.287395e-01
  2.284911e+01    8.989823e-01
  2.288086e+01    9.004228e-01
  2.291261e+01    9.008022e-01
  2.294436e+01    8.925461e-01
  2.297611e+01    9.063651e-01
  2.300786e+01    9.127654e-01
  2.303961e+01    9.090211e-01
  2.307137e+01    8.844742e-01
  2.310312e+01    8.691812e-01
  2.313487e+01    8.501322e-01
  2.316662e+01    8.745268e-01
  2.319837e+01    8.735216e-01
  2.323012e+01    8.397616e-01
  2.326187e+01    8.572548e-01
  2.329362e+01    8.582746e-01
  2.332537e+01    8.604736e-01
  2.335713e+01    8.520134e-01
  2.338888e+01    8.324153e-01
  2.342063e+01    8.467318e-01
  2.345238e+01    8.460079e-01
  2.348413e+01    8.358939e-01
  2.351588e+01    8.357124e-01
  2.354763e+01    8.304179e-01
  2.357938e+01    8.467608e-01
  2.361113e+01    8.271452e-01
  2.364289e+01    8.287750e-01
  2.367464e+01    8.494658e-01
  2.370639e+01    8.183030e-01
  2.373814e+01    8.308621e-01
  2.376989e+01    8.111067e-01
  2.380164e+01    8.018165e-01
  2.383339e+01    7.919441e-01
  2.386514e+01    7.962627e-01
  2.389689e+01    7.773811e-01
  2.392865e+01    7.764215e-01
  2.396040e+01    7.673203e-01
  2.399215e+01    7.795182e-01
  2.402390e+01    7.779593e-01
  2.405565e+01    7.795838e-01
  2.408740e+01    7.963536e-01
  2.411915e+01    7.726235e-01
  2.415090e+01    7.781578e-01
  2.418266e+01    7.727660e-01
  2.421441e+01    7.975469e-01
  2.424616e+01    7.718812e-01
  2.427791e+01    7.796655e-01
  2.430966e+01    7.666302e-01
  2.434141e+01    7.873696e-01
  2.437316e+01    7.720904e-01
  2.440491e+01    7.730098e-01
  2.443666e+01    7.732344e-01
  2.446842e+01    7.862858e-01
  2.450017e+01    7.829419e-01
  2.453192e+01    7.680380e-01
  2.456367e+01    7.694578e-01
  2.459542e+01    7.817753e-01
  2.462717e+01    7.848885e-01
  2.465892e+01    7.791162e-01
  2.469067e+01    7.856559e-01
  2.472242e+01    7.749094e-01
  2.475418e+01    7.851031e-01
  2.478593e+01    7.844558e-01
  2.481768e+01    7.979757e-01
  2.484943e+01    7.857615e-01
  2.488118e+01    7.839877e-01
  2.491293e+01    7.971837e-01
  2.494468e+01    7.904052e-01
  2.497643e+01    7.993677e-01
  2.500819e+01    7.846400e-01
  2.503994e+01    7.886279e-01
  2.507169e+01    8.141140e-01
  2.510344e+01    7.822070e-01
  2.513519e+01    8.036257e-01
  2.516694e+01    7.918714e-01
  2.519869e+01    8.153936e-01
  2.523044e+01    8.190184e-01
  2.526219e+01    8.432954e-01
  2.529395e+01    8.554231e-01
  2.532570e+01    8.681401e-01
  2.535745e+01    8.772201e-01
  2.538920e+01    8.839371e-01
  2.542095e+01    8.909439e-01
  2.545270e+01    9.362820e-01
  2.548445e+01    9.525315e-01
  2.551620e+01    9.927751e-01
  2.554795e+01    1.005494e+00
  2.557971e+01    1.050557e+00
  2.561146e+01    1.093365e+00
  2.564321e+01    1.210597e+00
  2.567496e+01    1.315382e+00
  2.570671e+01    1.445726e+00
  2.573846e+01    1.667790e+00
  2.577021e+01    2.014298e+00
  2.580196e+01    2.485754e+00
  2.583371e+01    3.197792e+00
  2.586547e+01    4.225395e+00
  2.589722e+01    5.503757e+00
  2.592897e+01    6.798297e+00
  2.596072e+01    7.771831e+00
  2.599247e+01    7.778784e+00
  2.602422e+01    6.761628e+00
  2.605597e+01    5.094766e+00
  2.608772e+01    3.727591e+00
  2.611948e+01    2.791363e+00
  2.615123e+01    2.205250e+00
  2.618298e+01    1.797216e+00
  2.621473e+01    1.589278e+00
  2.624648e+01    1.401155e+00
  2.627823e+01    1.247822e+00
  2.630998e+01    1.167646e+00
  2.634173e+01    1.073354e+00
  2.637348e+01    1.035297e+00
  2.640524e+01    9.993465e-01
  2.643699e+01    9.908483e-01
  2.646874e+01    9.545569e-01
  2.650049e+01    9.360853e-01
  2.653224e+01    9.256160e-01
  2.656399e+01    9.212634e-01
  2.659574e+01    9.075422e-01
  2.662749e+01    8.663806e-01
  2.665924e+01    8.771788e-01
  2.669100e+01    8.699803e-01
  2.672275e+01    8.838119e-01
  2.675450e+01    8.878855e-01
  2.678625e+01    8.760214e-01
  2.681800e+01    9.170778e-01
  2.684975e+01    8.907271e-01
  2.688150e+01    8.886204e-01
  2.691325e+01    9.165022e-01
  2.694501e+01    9.325883e-01
  2.697676e+01    9.495964e-01
  2.700851e+01    1.006745e+00
  2.704026e+01    1.095900e+00
  2.707201e+01    1.180001e+00
  2.710376e+01    1.330350e+00
  2.713551e+01    1.589095e+00
  2.716726e+01    1.837721e+00
  2.719901e+01    2.143424e+00
  2.723077e+01    2.320473e+00
  2.726252e+01    2.252062e+00
  2.729427e+01    1.981929e+00
  2.732602e+01    1.614590e+00
  2.735777e+01    1.325347e+00
  2.738952e+01    1.215580e+00
  2.742127e+01    1.095224e+00
  2.745302e+01    9.869788e-01
  2.748477e+01    9.618770e-01
  2.751653e+01    8.950031e-01
  2.754828e+01    8.741363e-01
  2.758003e+01    8.598042e-01
  2.761178e+01    8.345481e-01
  2.764353e+01    8.432559e-01
  2.767528e+01    8.430269e-01
  2.770703e+01    8.166494e-01
  2.773878e+01    8.197481e-01
  2.777054e+01    8.151391e-01
  2.780229e+01    7.929626e-01
  2.783404e+01    7.773532e-01
  2.786579e+01    7.979573e-01
  2.789754e+01    7.762460e-01
  2.792929e+01    7.954090e-01
  2.796104e+01    7.797760e-01
  2.799279e+01    7.741656e-01
  2.802454e+01    7.802567e-01
  2.805630e+01    7.698191e-01
  2.808805e+01    7.701406e-01
  2.811980e+01    7.808418e-01
  2.815155e+01    7.830092e-01
  2.818330e+01    7.650640e-01
  2.821505e+01    7.669895e-01
  2.824680e+01    7.648845e-01
  2.827855e+01    7.834539e-01
  2.831030e+01    7.697838e-01
  2.834206e+01    7.629734e-01
  2.837381e+01    7.529575e-01
  2.840556e+01    7.364170e-01
  2.843731e+01    7.407060e-01
  2.846906e+01    7.484300e-01
  2.850081e+01    7.582569e-01
  2.853256e+01    7.560126e-01
  2.856431e+01    7.571755e-01
  2.859606e+01    7.599248e-01
  2.862782e+01    7.527559e-01
  2.865957e+01    7.458413e-01
  2.869132e+01    7.533173e-01
  2.872307e+01    7.459670e-01
  2.875482e+01    7.283145e-01
  2.878657e+01    7.605154e-01
  2.881832e+01    7.473794e-01
  2.885007e+01    7.093285e-01
  2.888183e+01    7.190802e-01
  2.891358e+01    7.229261e-01
  2.894533e+01    7.224811e-01
  2.897708e+01    7.385436e-01
  2.900883e+01    7.458515e-01
  2.904058e+01    7.445992e-01
  2.907233e+01    7.376266e-01
  2.910408e+01    7.463024e-01
  2.913583e+01    7.279978e-01
  2.916759e+01    7.462439e-01
  2.919934e+01    7.469296e-01
  2.923109e+01    7.355555e-01
  2.926284e+01    7.145264e-01
  2.929459e+01    7.147702e-01
  2.932634e+01    7.285277e-01
  2.935809e+01    7.311848e-01
  2.938984e+01    7.168084e-01
  2.942159e+01    7.302571e-01
  2.945335e+01    7.058730e-01
  2.948510e+01    7.270558e-01
  2.951685e+01    7.199617e-01
  2.954860e+01    7.425023e-01
  2.958035e+01    6.987655e-01
  2.961210e+01    7.174719e-01
  2.964385e+01    7.048030e-01
  2.967560e+01    7.180010e-01
  2.970736e+01    7.004521e-01
  2.973911e+01    7.012337e-01
  2.977086e+01    7.182876e-01
  2.980261e+01    7.074334e-01
  2.983436e+01    7.020233e-01
  2.986611e+01    7.157289e-01
  2.989786e+01    7.349833e-01
  2.992961e+01    7.228815e-01
  2.996136e+01    6.952327e-01
  2.999312e+01    7.132335e-01
  3.002487e+01    7.360003e-01
  3.005662e+01    7.247298e-01
  3.008837e+01    7.262763e-01
  3.012012e+01    7.316939e-01
  3.015187e+01    7.176477e-01
  3.018362e+01    7.089495e-01
  3.021537e+01    7.189873e-01
  3.024712e+01    6.984217e-01
  3.027888e+01    6.839140e-01
  3.031063e+01    7.013947e-01
  3.034238e+01    7.020599e-01
  3.037413e+01    7.105374e-01
  3.040588e+01    7.023085e-01
  3.043763e+01    6.824645e-01
  3.046938e+01    7.079651e-01
  3.050113e+01    6.804085e-01
  3.053288e+01    7.007518e-01
  3.056464e+01    7.151666e-01
  3.059639e+01    6.958844e-01
  3.062814e+01    7.138416e-01
  3.065989e+01    6.856740e-01
  3.069164e+01    7.246140e-01
  3.072339e+01    7.062145e-01
  3.075514e+01    7.148658e-01
  3.078689e+01    7.272993e-01
  3.081865e+01    6.945896e-01
  3.085040e+01    6.834663e-01
  3.088215e+01    7.189460e-01
  3.091390e+01    7.238980e-01
  3.094565e+01    6.947406e-01
  3.097740e+01    7.179590e-01
  3.100915e+01    7.141746e-01
  3.104090e+01    7.141088e-01
  3.107265e+01    7.047241e-01
  3.110441e+01    7.124853e-01
  3.113616e+01    7.233871e-01
  3.116791e+01    6.910751e-01
  3.119966e+01    7.235200e-01
  3.123141e+01    7.254766e-01
  3.126316e+01    7.370785e-01
  3.129491e+01    7.190842e-01
  3.132666e+01    7.474865e-01
  3.135841e+01    7.173735e-01
  3.139017e+01    7.575463e-01
  3.142192e+01    7.512228e-01
  3.145367e+01    7.433354e-01
  3.148542e+01    7.393973e-01
  3.151717e+01    7.627853e-01
  3.154892e+01    7.640123e-01
  3.158067e+01    7.970181e-01
  3.161242e+01    8.321645e-01
  3.164418e+01    8.447375e-01
  3.167593e+01    8.835645e-01
  3.170768e+01    9.344746e-01
  3.173943e+01    1.031461e+00
  3.177118e+01    1.132751e+00
  3.180293e+01    1.300974e+00
  3.183468e+01    1.596725e+00
  3.186643e+01    1.904356e+00
  3.189818e+01    2.178155e+00
  3.192994e+01    2.296704e+00
  3.196169e+01    2.174076e+00
  3.199344e+01    1.841233e+00
  3.202519e+01    1.521850e+00
  3.205694e+01    1.245054e+00
  3.208869e+01    1.091520e+00
  3.212044e+01    9.850480e-01
  3.215219e+01    9.174597e-01
  3.218394e+01    8.599845e-01
  3.221570e+01    8.255529e-01
  3.224745e+01    8.076921e-01
  3.227920e+01    7.654653e-01
  3.231095e+01    7.712115e-01
  3.234270e+01    7.480775e-01
  3.237445e+01    7.394399e-01
  3.240620e+01    7.363709e-01
  3.243795e+01    7.408442e-01
  3.246970e+01    7.301890e-01
  3.250146e+01    7.169197e-01
  3.253321e+01    7.136135e-01
  3.254908e+01    7.176669e-01