File: XRD/2024-07-27_002_Ru-CGO-ex_Activtation_ramp_000002_data_000028.dat
# == pyFAI calibration ==
# Distance Sample to Detector: 0.4 m
# PONI: 9.750e-02, 1.135e-01 m
# Rotations: -0.000175 0.000000 -0.000000 rad
#
# == Fit2d calibration ==
# Distance Sample-beamCenter: 400.000 mm
# Center: x=1514.000, y=1300.000 pix
# Tilt: 0.010 deg  TiltPlanRot: 0.010 deg
#
# Detector Detector	 Spline= None	 PixelSize= 7.500e-05, 7.500e-05 m
#    Detector has a mask: False
#    Detector has a dark current: False
#    detector has a flat field: False
#
# Wavelength: 6.888e-11 m
# Mask applied: user provided
# Dark current applied: False
# Flat field applied: False
# Polarization factor: 0.99
# Normalization factor: 1.0
# --> /home/myspot/data/2024_07_Rosario/Ru-CGO-ex/2024-07-27_002_Ru-CGO-ex_Activtation_ramp_000002_data_000028.dat
#       q_nm^-1             I
  2.003187e-02    7.712624e-02
  5.178302e-02    1.655917e-01
  8.353417e-02    1.588857e-01
  1.152853e-01    4.589840e-02
  1.470365e-01    7.935643e-02
  1.787876e-01    5.259149e-02
  2.105388e-01    1.789436e-02
  2.422899e-01    2.013729e-02
  2.740411e-01    6.856096e-02
  3.057922e-01    3.892915e-02
  3.375433e-01    4.052189e-02
  3.692945e-01    4.155929e-02
  4.010456e-01    3.047105e-02
  4.327968e-01    3.455271e-02
  4.645479e-01    3.901177e-02
  4.962991e-01    4.114846e-02
  5.280502e-01    3.770371e-02
  5.598014e-01    1.952285e-02
  5.915525e-01    1.291919e-02
  6.233037e-01    2.913841e-02
  6.550548e-01    7.375233e-02
  6.868060e-01    4.927269e-02
  7.185571e-01    2.002038e-02
  7.503083e-01    3.132864e-02
  7.820594e-01    9.338849e-02
  8.138106e-01    2.190495e-01
  8.455617e-01    3.377369e-01
  8.773129e-01    5.240747e-01
  9.090640e-01    5.797788e-01
  9.408152e-01    7.400246e-01
  9.725663e-01    9.056305e-01
  1.004317e+00    9.950843e-01
  1.036069e+00    1.224618e+00
  1.067820e+00    1.321354e+00
  1.099571e+00    1.295629e+00
  1.131322e+00    1.520564e+00
  1.163073e+00    1.515418e+00
  1.194824e+00    1.659764e+00
  1.226575e+00    2.131644e+00
  1.258327e+00    2.359070e+00
  1.290078e+00    2.519739e+00
  1.321829e+00    2.555499e+00
  1.353580e+00    2.670545e+00
  1.385331e+00    2.744804e+00
  1.417082e+00    2.772923e+00
  1.448834e+00    2.752195e+00
  1.480585e+00    3.000130e+00
  1.512336e+00    2.825860e+00
  1.544087e+00    3.133837e+00
  1.575838e+00    2.937535e+00
  1.607589e+00    3.091819e+00
  1.639340e+00    3.011657e+00
  1.671092e+00    2.899090e+00
  1.702843e+00    3.025698e+00
  1.734594e+00    2.958210e+00
  1.766345e+00    2.817916e+00
  1.798096e+00    2.924240e+00
  1.829847e+00    2.883829e+00
  1.861598e+00    2.836845e+00
  1.893350e+00    2.731555e+00
  1.925101e+00    2.667078e+00
  1.956852e+00    2.817092e+00
  1.988603e+00    2.835951e+00
  2.020354e+00    2.829524e+00
  2.052105e+00    2.846239e+00
  2.083856e+00    2.810910e+00
  2.115608e+00    2.729017e+00
  2.147359e+00    2.683961e+00
  2.179110e+00    2.751575e+00
  2.210861e+00    2.714765e+00
  2.242612e+00    2.785713e+00
  2.274363e+00    2.817598e+00
  2.306115e+00    2.806578e+00
  2.337866e+00    2.726177e+00
  2.369617e+00    2.776625e+00
  2.401368e+00    2.783488e+00
  2.433119e+00    2.612664e+00
  2.464870e+00    2.776354e+00
  2.496621e+00    2.744953e+00
  2.528373e+00    2.860257e+00
  2.560124e+00    2.833086e+00
  2.591875e+00    2.934647e+00
  2.623626e+00    2.834762e+00
  2.655377e+00    2.930245e+00
  2.687128e+00    2.852265e+00
  2.718879e+00    2.820933e+00
  2.750631e+00    2.911012e+00
  2.782382e+00    2.733576e+00
  2.814133e+00    2.810059e+00
  2.845884e+00    2.962480e+00
  2.877635e+00    2.920450e+00
  2.909386e+00    2.835376e+00
  2.941137e+00    2.895445e+00
  2.972889e+00    2.857995e+00
  3.004640e+00    2.939477e+00
  3.036391e+00    2.956748e+00
  3.068142e+00    2.926332e+00
  3.099893e+00    2.902601e+00
  3.131644e+00    2.855033e+00
  3.163395e+00    2.923023e+00
  3.195147e+00    2.966596e+00
  3.226898e+00    2.983457e+00
  3.258649e+00    2.838596e+00
  3.290400e+00    2.926503e+00
  3.322151e+00    3.041366e+00
  3.353902e+00    3.007983e+00
  3.385654e+00    2.982041e+00
  3.417405e+00    2.969719e+00
  3.449156e+00    3.026447e+00
  3.480907e+00    2.944510e+00
  3.512658e+00    2.948642e+00
  3.544409e+00    2.938027e+00
  3.576160e+00    3.075414e+00
  3.607912e+00    2.900252e+00
  3.639663e+00    2.975880e+00
  3.671414e+00    3.057891e+00
  3.703165e+00    2.980237e+00
  3.734916e+00    2.943872e+00
  3.766667e+00    3.113314e+00
  3.798418e+00    3.006684e+00
  3.830170e+00    3.027647e+00
  3.861921e+00    3.018191e+00
  3.893672e+00    3.071761e+00
  3.925423e+00    3.025718e+00
  3.957174e+00    3.065354e+00
  3.988925e+00    2.961217e+00
  4.020676e+00    3.026502e+00
  4.052428e+00    2.964947e+00
  4.084179e+00    3.014316e+00
  4.115930e+00    2.943409e+00
  4.147681e+00    3.011080e+00
  4.179432e+00    3.048469e+00
  4.211183e+00    3.001882e+00
  4.242935e+00    3.074858e+00
  4.274686e+00    3.062188e+00
  4.306437e+00    3.072355e+00
  4.338188e+00    3.067111e+00
  4.369939e+00    3.023714e+00
  4.401690e+00    3.167546e+00
  4.433441e+00    3.102957e+00
  4.465193e+00    3.004915e+00
  4.496944e+00    3.056002e+00
  4.528695e+00    3.101218e+00
  4.560446e+00    3.157278e+00
  4.592197e+00    3.194750e+00
  4.623948e+00    3.206778e+00
  4.655699e+00    3.022727e+00
  4.687451e+00    3.128004e+00
  4.719202e+00    3.107347e+00
  4.750953e+00    3.291690e+00
  4.782704e+00    3.060943e+00
  4.814455e+00    3.152694e+00
  4.846206e+00    3.073936e+00
  4.877957e+00    3.179741e+00
  4.909709e+00    3.080352e+00
  4.941460e+00    3.086455e+00
  4.973211e+00    3.121387e+00
  5.004962e+00    3.107894e+00
  5.036713e+00    3.143655e+00
  5.068464e+00    3.166501e+00
  5.100216e+00    3.119089e+00
  5.131967e+00    3.203365e+00
  5.163718e+00    3.126440e+00
  5.195469e+00    3.125052e+00
  5.227220e+00    3.142728e+00
  5.258971e+00    3.153924e+00
  5.290722e+00    3.233345e+00
  5.322474e+00    3.124789e+00
  5.354225e+00    3.170424e+00
  5.385976e+00    3.165567e+00
  5.417727e+00    3.052743e+00
  5.449478e+00    3.087137e+00
  5.481229e+00    3.013375e+00
  5.512980e+00    3.093360e+00
  5.544732e+00    3.079317e+00
  5.576483e+00    3.097629e+00
  5.608234e+00    3.075215e+00
  5.639985e+00    3.054786e+00
  5.671736e+00    3.033020e+00
  5.703487e+00    3.010494e+00
  5.735238e+00    3.069151e+00
  5.766990e+00    3.125593e+00
  5.798741e+00    3.095823e+00
  5.830492e+00    2.987379e+00
  5.862243e+00    3.109166e+00
  5.893994e+00    3.032995e+00
  5.925745e+00    3.065251e+00
  5.957497e+00    2.977702e+00
  5.989248e+00    3.128597e+00
  6.020999e+00    2.969287e+00
  6.052750e+00    3.097250e+00
  6.084501e+00    3.112068e+00
  6.116252e+00    3.038119e+00
  6.148003e+00    3.066690e+00
  6.179755e+00    3.080703e+00
  6.211506e+00    3.029214e+00
  6.243257e+00    3.042155e+00
  6.275008e+00    2.992227e+00
  6.306759e+00    3.066485e+00
  6.338510e+00    3.043925e+00
  6.370261e+00    3.034300e+00
  6.402013e+00    3.030465e+00
  6.433764e+00    3.026958e+00
  6.465515e+00    3.101832e+00
  6.497266e+00    3.094369e+00
  6.529017e+00    2.969167e+00
  6.560768e+00    2.997752e+00
  6.592519e+00    3.039314e+00
  6.624271e+00    3.010191e+00
  6.656022e+00    3.062721e+00
  6.687773e+00    3.064085e+00
  6.719524e+00    3.059748e+00
  6.751275e+00    3.095759e+00
  6.783026e+00    2.995826e+00
  6.814777e+00    3.063185e+00
  6.846529e+00    2.978333e+00
  6.878280e+00    3.028569e+00
  6.910031e+00    3.059013e+00
  6.941782e+00    3.084144e+00
  6.973533e+00    3.116200e+00
  7.005284e+00    2.986651e+00
  7.037036e+00    3.022999e+00
  7.068787e+00    3.059878e+00
  7.100538e+00    3.034253e+00
  7.132289e+00    2.999736e+00
  7.164040e+00    2.984327e+00
  7.195791e+00    2.992059e+00
  7.227542e+00    3.041286e+00
  7.259294e+00    2.947585e+00
  7.291045e+00    3.020797e+00
  7.322796e+00    2.977167e+00
  7.354547e+00    3.078329e+00
  7.386298e+00    3.021320e+00
  7.418049e+00    2.986507e+00
  7.449800e+00    3.031716e+00
  7.481552e+00    2.962203e+00
  7.513303e+00    2.943936e+00
  7.545054e+00    2.998394e+00
  7.576805e+00    2.897186e+00
  7.608556e+00    3.027782e+00
  7.640307e+00    2.922599e+00
  7.672058e+00    3.001275e+00
  7.703810e+00    2.963959e+00
  7.735561e+00    2.929441e+00
  7.767312e+00    2.964987e+00
  7.799063e+00    2.877563e+00
  7.830814e+00    3.005822e+00
  7.862565e+00    2.879886e+00
  7.894317e+00    2.950070e+00
  7.926068e+00    2.952337e+00
  7.957819e+00    2.978740e+00
  7.989570e+00    2.967013e+00
  8.021321e+00    2.915349e+00
  8.053072e+00    2.901777e+00
  8.084823e+00    2.954393e+00
  8.116575e+00    2.930169e+00
  8.148326e+00    3.010326e+00
  8.180077e+00    2.963106e+00
  8.211828e+00    2.980794e+00
  8.243579e+00    2.983786e+00
  8.275330e+00    2.838401e+00
  8.307081e+00    2.889473e+00
  8.338833e+00    2.913419e+00
  8.370584e+00    2.907780e+00
  8.402335e+00    2.885734e+00
  8.434086e+00    2.926075e+00
  8.465837e+00    2.881661e+00
  8.497588e+00    2.864133e+00
  8.529339e+00    2.855364e+00
  8.561091e+00    2.868948e+00
  8.592842e+00    2.845295e+00
  8.624593e+00    2.885022e+00
  8.656344e+00    2.914138e+00
  8.688095e+00    2.821684e+00
  8.719846e+00    2.851124e+00
  8.751598e+00    2.909721e+00
  8.783349e+00    2.858963e+00
  8.815100e+00    2.874171e+00
  8.846851e+00    2.890545e+00
  8.878602e+00    2.795503e+00
  8.910353e+00    2.814031e+00
  8.942104e+00    2.861536e+00
  8.973856e+00    2.838784e+00
  9.005607e+00    2.848362e+00
  9.037358e+00    2.835118e+00
  9.069109e+00    2.816614e+00
  9.100860e+00    2.822139e+00
  9.132611e+00    2.852107e+00
  9.164362e+00    2.825145e+00
  9.196114e+00    2.839092e+00
  9.227865e+00    2.851471e+00
  9.259616e+00    2.877830e+00
  9.291367e+00    2.818009e+00
  9.323118e+00    2.779897e+00
  9.354869e+00    2.810409e+00
  9.386620e+00    2.792234e+00
  9.418372e+00    2.827700e+00
  9.450123e+00    2.759869e+00
  9.481874e+00    2.797988e+00
  9.513625e+00    2.773148e+00
  9.545376e+00    2.850300e+00
  9.577127e+00    2.801519e+00
  9.608878e+00    2.800179e+00
  9.640630e+00    2.797238e+00
  9.672381e+00    2.722178e+00
  9.704132e+00    2.745348e+00
  9.735883e+00    2.691689e+00
  9.767634e+00    2.745938e+00
  9.799385e+00    2.703618e+00
  9.831137e+00    2.752216e+00
  9.862888e+00    2.707275e+00
  9.894639e+00    2.685530e+00
  9.926390e+00    2.709212e+00
  9.958141e+00    2.701348e+00
  9.989892e+00    2.701823e+00
  1.002164e+01    2.706949e+00
  1.005339e+01    2.686273e+00
  1.008515e+01    2.643561e+00
  1.011690e+01    2.674965e+00
  1.014865e+01    2.655917e+00
  1.018040e+01    2.681837e+00
  1.021215e+01    2.689880e+00
  1.024390e+01    2.691249e+00
  1.027565e+01    2.712941e+00
  1.030740e+01    2.636403e+00
  1.033915e+01    2.629136e+00
  1.037091e+01    2.662942e+00
  1.040266e+01    2.669735e+00
  1.043441e+01    2.587576e+00
  1.046616e+01    2.605206e+00
  1.049791e+01    2.589146e+00
  1.052966e+01    2.623784e+00
  1.056141e+01    2.611768e+00
  1.059316e+01    2.589992e+00
  1.062492e+01    2.578283e+00
  1.065667e+01    2.549419e+00
  1.068842e+01    2.582320e+00
  1.072017e+01    2.543943e+00
  1.075192e+01    2.543786e+00
  1.078367e+01    2.568794e+00
  1.081542e+01    2.548739e+00
  1.084717e+01    2.570446e+00
  1.087892e+01    2.527762e+00
  1.091068e+01    2.501079e+00
  1.094243e+01    2.535467e+00
  1.097418e+01    2.480696e+00
  1.100593e+01    2.486057e+00
  1.103768e+01    2.504519e+00
  1.106943e+01    2.537246e+00
  1.110118e+01    2.487722e+00
  1.113293e+01    2.494642e+00
  1.116468e+01    2.488121e+00
  1.119644e+01    2.488605e+00
  1.122819e+01    2.464087e+00
  1.125994e+01    2.502326e+00
  1.129169e+01    2.415440e+00
  1.132344e+01    2.472439e+00
  1.135519e+01    2.435426e+00
  1.138694e+01    2.462310e+00
  1.141869e+01    2.446741e+00
  1.145045e+01    2.441382e+00
  1.148220e+01    2.406947e+00
  1.151395e+01    2.392561e+00
  1.154570e+01    2.413491e+00
  1.157745e+01    2.391999e+00
  1.160920e+01    2.431993e+00
  1.164095e+01    2.420606e+00
  1.167270e+01    2.395131e+00
  1.170445e+01    2.354582e+00
  1.173621e+01    2.362756e+00
  1.176796e+01    2.346027e+00
  1.179971e+01    2.400042e+00
  1.183146e+01    2.421475e+00
  1.186321e+01    2.393841e+00
  1.189496e+01    2.407526e+00
  1.192671e+01    2.367398e+00
  1.195846e+01    2.322308e+00
  1.199021e+01    2.382799e+00
  1.202197e+01    2.301230e+00
  1.205372e+01    2.353755e+00
  1.208547e+01    2.320493e+00
  1.211722e+01    2.320482e+00
  1.214897e+01    2.334062e+00
  1.218072e+01    2.290536e+00
  1.221247e+01    2.343132e+00
  1.224422e+01    2.318628e+00
  1.227597e+01    2.323708e+00
  1.230773e+01    2.369848e+00
  1.233948e+01    2.330933e+00
  1.237123e+01    2.347765e+00
  1.240298e+01    2.372009e+00
  1.243473e+01    2.349824e+00
  1.246648e+01    2.373483e+00
  1.249823e+01    2.392351e+00
  1.252998e+01    2.376685e+00
  1.256174e+01    2.386822e+00
  1.259349e+01    2.427181e+00
  1.262524e+01    2.499132e+00
  1.265699e+01    2.467294e+00
  1.268874e+01    2.435427e+00
  1.272049e+01    2.570010e+00
  1.275224e+01    2.562002e+00
  1.278399e+01    2.652829e+00
  1.281574e+01    2.826292e+00
  1.284750e+01    2.864069e+00
  1.287925e+01    3.077613e+00
  1.291100e+01    3.305382e+00
  1.294275e+01    3.716969e+00
  1.297450e+01    4.219687e+00
  1.300625e+01    5.207858e+00
  1.303800e+01    6.696349e+00
  1.306975e+01    9.050161e+00
  1.310150e+01    1.210012e+01
  1.313326e+01    1.500435e+01
  1.316501e+01    1.789529e+01
  1.319676e+01    1.981611e+01
  1.322851e+01    1.812033e+01
  1.326026e+01    1.379430e+01
  1.329201e+01    9.657301e+00
  1.332376e+01    7.048831e+00
  1.335551e+01    5.405695e+00
  1.338727e+01    4.449902e+00
  1.341902e+01    3.771025e+00
  1.345077e+01    3.320640e+00
  1.348252e+01    3.059028e+00
  1.351427e+01    2.803113e+00
  1.354602e+01    2.706824e+00
  1.357777e+01    2.533910e+00
  1.360952e+01    2.484618e+00
  1.364127e+01    2.395212e+00
  1.367303e+01    2.355317e+00
  1.370478e+01    2.307076e+00
  1.373653e+01    2.296461e+00
  1.376828e+01    2.267956e+00
  1.380003e+01    2.261588e+00
  1.383178e+01    2.200730e+00
  1.386353e+01    2.151690e+00
  1.389528e+01    2.149086e+00
  1.392703e+01    2.145573e+00
  1.395879e+01    2.117920e+00
  1.399054e+01    2.077365e+00
  1.402229e+01    2.111087e+00
  1.405404e+01    2.037166e+00
  1.408579e+01    2.055254e+00
  1.411754e+01    2.046604e+00
  1.414929e+01    2.008443e+00
  1.418104e+01    2.011385e+00
  1.421279e+01    2.005193e+00
  1.424455e+01    2.030128e+00
  1.427630e+01    2.004926e+00
  1.430805e+01    2.025762e+00
  1.433980e+01    1.980661e+00
  1.437155e+01    1.956894e+00
  1.440330e+01    1.933295e+00
  1.443505e+01    1.950881e+00
  1.446680e+01    1.950845e+00
  1.449856e+01    1.929559e+00
  1.453031e+01    1.951058e+00
  1.456206e+01    1.975657e+00
  1.459381e+01    1.959277e+00
  1.462556e+01    1.932809e+00
  1.465731e+01    1.947866e+00
  1.468906e+01    1.925554e+00
  1.472081e+01    1.927511e+00
  1.475256e+01    1.937020e+00
  1.478432e+01    1.883485e+00
  1.481607e+01    1.947431e+00
  1.484782e+01    1.948975e+00
  1.487957e+01    1.982680e+00
  1.491132e+01    1.981354e+00
  1.494307e+01    2.022749e+00
  1.497482e+01    2.054799e+00
  1.500657e+01    2.151389e+00
  1.503832e+01    2.254429e+00
  1.507008e+01    2.461991e+00
  1.510183e+01    2.815815e+00
  1.513358e+01    3.222954e+00
  1.516533e+01    3.998064e+00
  1.519708e+01    4.875054e+00
  1.522883e+01    5.675655e+00
  1.526058e+01    6.275483e+00
  1.529233e+01    6.590958e+00
  1.532409e+01    6.185249e+00
  1.535584e+01    4.929648e+00
  1.538759e+01    3.858946e+00
  1.541934e+01    3.096549e+00
  1.545109e+01    2.641260e+00
  1.548284e+01    2.370525e+00
  1.551459e+01    2.170400e+00
  1.554634e+01    2.067452e+00
  1.557809e+01    1.942387e+00
  1.560985e+01    1.926300e+00
  1.564160e+01    1.855622e+00
  1.567335e+01    1.823810e+00
  1.570510e+01    1.770092e+00
  1.573685e+01    1.795807e+00
  1.576860e+01    1.748705e+00
  1.580035e+01    1.726680e+00
  1.583210e+01    1.676261e+00
  1.586385e+01    1.650423e+00
  1.589561e+01    1.686879e+00
  1.592736e+01    1.660238e+00
  1.595911e+01    1.606819e+00
  1.599086e+01    1.621373e+00
  1.602261e+01    1.653498e+00
  1.605436e+01    1.616105e+00
  1.608611e+01    1.611285e+00
  1.611786e+01    1.619856e+00
  1.614961e+01    1.606780e+00
  1.618137e+01    1.600511e+00
  1.621312e+01    1.594454e+00
  1.624487e+01    1.559076e+00
  1.627662e+01    1.559037e+00
  1.630837e+01    1.565323e+00
  1.634012e+01    1.590864e+00
  1.637187e+01    1.576558e+00
  1.640362e+01    1.566249e+00
  1.643538e+01    1.533620e+00
  1.646713e+01    1.524021e+00
  1.649888e+01    1.511698e+00
  1.653063e+01    1.503711e+00
  1.656238e+01    1.479584e+00
  1.659413e+01    1.533732e+00
  1.662588e+01    1.516695e+00
  1.665763e+01    1.513200e+00
  1.668938e+01    1.466828e+00
  1.672114e+01    1.515759e+00
  1.675289e+01    1.515894e+00
  1.678464e+01    1.470493e+00
  1.681639e+01    1.489643e+00
  1.684814e+01    1.461424e+00
  1.687989e+01    1.441145e+00
  1.691164e+01    1.447817e+00
  1.694339e+01    1.436617e+00
  1.697514e+01    1.446184e+00
  1.700690e+01    1.472526e+00
  1.703865e+01    1.443914e+00
  1.707040e+01    1.435099e+00
  1.710215e+01    1.416900e+00
  1.713390e+01    1.445770e+00
  1.716565e+01    1.431350e+00
  1.719740e+01    1.426302e+00
  1.722915e+01    1.421825e+00
  1.726091e+01    1.432048e+00
  1.729266e+01    1.401348e+00
  1.732441e+01    1.389086e+00
  1.735616e+01    1.408956e+00
  1.738791e+01    1.412452e+00
  1.741966e+01    1.382217e+00
  1.745141e+01    1.355008e+00
  1.748316e+01    1.414998e+00
  1.751491e+01    1.377842e+00
  1.754667e+01    1.360805e+00
  1.757842e+01    1.363349e+00
  1.761017e+01    1.411800e+00
  1.764192e+01    1.369678e+00
  1.767367e+01    1.349572e+00
  1.770542e+01    1.351578e+00
  1.773717e+01    1.362962e+00
  1.776892e+01    1.343947e+00
  1.780067e+01    1.363491e+00
  1.783243e+01    1.346738e+00
  1.786418e+01    1.314534e+00
  1.789593e+01    1.334867e+00
  1.792768e+01    1.342854e+00
  1.795943e+01    1.343473e+00
  1.799118e+01    1.338674e+00
  1.802293e+01    1.307501e+00
  1.805468e+01    1.300694e+00
  1.808643e+01    1.314930e+00
  1.811819e+01    1.336510e+00
  1.814994e+01    1.330810e+00
  1.818169e+01    1.297080e+00
  1.821344e+01    1.291572e+00
  1.824519e+01    1.284594e+00
  1.827694e+01    1.299135e+00
  1.830869e+01    1.289735e+00
  1.834044e+01    1.300265e+00
  1.837220e+01    1.294938e+00
  1.840395e+01    1.281445e+00
  1.843570e+01    1.265195e+00
  1.846745e+01    1.257149e+00
  1.849920e+01    1.268924e+00
  1.853095e+01    1.265988e+00
  1.856270e+01    1.245994e+00
  1.859445e+01    1.249426e+00
  1.862620e+01    1.263046e+00
  1.865796e+01    1.259198e+00
  1.868971e+01    1.240147e+00
  1.872146e+01    1.251089e+00
  1.875321e+01    1.240696e+00
  1.878496e+01    1.257793e+00
  1.881671e+01    1.245359e+00
  1.884846e+01    1.229773e+00
  1.888021e+01    1.259928e+00
  1.891196e+01    1.223337e+00
  1.894372e+01    1.239986e+00
  1.897547e+01    1.234247e+00
  1.900722e+01    1.211363e+00
  1.903897e+01    1.221568e+00
  1.907072e+01    1.218498e+00
  1.910247e+01    1.191014e+00
  1.913422e+01    1.209027e+00
  1.916597e+01    1.222416e+00
  1.919773e+01    1.226626e+00
  1.922948e+01    1.205851e+00
  1.926123e+01    1.208566e+00
  1.929298e+01    1.182430e+00
  1.932473e+01    1.171903e+00
  1.935648e+01    1.163759e+00
  1.938823e+01    1.183507e+00
  1.941998e+01    1.178455e+00
  1.945173e+01    1.205877e+00
  1.948349e+01    1.191292e+00
  1.951524e+01    1.167144e+00
  1.954699e+01    1.147229e+00
  1.957874e+01    1.201507e+00
  1.961049e+01    1.176916e+00
  1.964224e+01    1.182383e+00
  1.967399e+01    1.155335e+00
  1.970574e+01    1.138870e+00
  1.973749e+01    1.193451e+00
  1.976925e+01    1.173907e+00
  1.980100e+01    1.147437e+00
  1.983275e+01    1.142512e+00
  1.986450e+01    1.142860e+00
  1.989625e+01    1.147547e+00
  1.992800e+01    1.141051e+00
  1.995975e+01    1.150688e+00
  1.999150e+01    1.129667e+00
  2.002325e+01    1.137669e+00
  2.005501e+01    1.137681e+00
  2.008676e+01    1.152033e+00
  2.011851e+01    1.110886e+00
  2.015026e+01    1.135591e+00
  2.018201e+01    1.116791e+00
  2.021376e+01    1.139343e+00
  2.024551e+01    1.128050e+00
  2.027726e+01    1.119013e+00
  2.030902e+01    1.113961e+00
  2.034077e+01    1.089413e+00
  2.037252e+01    1.111714e+00
  2.040427e+01    1.106445e+00
  2.043602e+01    1.123401e+00
  2.046777e+01    1.102739e+00
  2.049952e+01    1.117578e+00
  2.053127e+01    1.109830e+00
  2.056302e+01    1.098091e+00
  2.059478e+01    1.079774e+00
  2.062653e+01    1.102203e+00
  2.065828e+01    1.057820e+00
  2.069003e+01    1.095553e+00
  2.072178e+01    1.098914e+00
  2.075353e+01    1.107268e+00
  2.078528e+01    1.099475e+00
  2.081703e+01    1.101349e+00
  2.084878e+01    1.107352e+00
  2.088054e+01    1.115620e+00
  2.091229e+01    1.110267e+00
  2.094404e+01    1.090435e+00
  2.097579e+01    1.106757e+00
  2.100754e+01    1.084024e+00
  2.103929e+01    1.109079e+00
  2.107104e+01    1.097569e+00
  2.110279e+01    1.125905e+00
  2.113455e+01    1.132273e+00
  2.116630e+01    1.097295e+00
  2.119805e+01    1.105221e+00
  2.122980e+01    1.133360e+00
  2.126155e+01    1.130976e+00
  2.129330e+01    1.163744e+00
  2.132505e+01    1.155052e+00
  2.135680e+01    1.160860e+00
  2.138855e+01    1.176838e+00
  2.142031e+01    1.209556e+00
  2.145206e+01    1.240659e+00
  2.148381e+01    1.245372e+00
  2.151556e+01    1.298682e+00
  2.154731e+01    1.384878e+00
  2.157906e+01    1.445040e+00
  2.161081e+01    1.578403e+00
  2.164256e+01    1.737009e+00
  2.167431e+01    1.966074e+00
  2.170607e+01    2.332344e+00
  2.173782e+01    2.827175e+00
  2.176957e+01    3.662641e+00
  2.180132e+01    4.896222e+00
  2.183307e+01    6.345330e+00
  2.186482e+01    8.071585e+00
  2.189657e+01    9.788519e+00
  2.192832e+01    1.088368e+01
  2.196007e+01    1.033381e+01
  2.199183e+01    8.349902e+00
  2.202358e+01    5.952634e+00
  2.205533e+01    4.310503e+00
  2.208708e+01    3.244868e+00
  2.211883e+01    2.567728e+00
  2.215058e+01    2.145259e+00
  2.218233e+01    1.870214e+00
  2.221408e+01    1.621513e+00
  2.224584e+01    1.476231e+00
  2.227759e+01    1.368167e+00
  2.230934e+01    1.289101e+00
  2.234109e+01    1.264398e+00
  2.237284e+01    1.212637e+00
  2.240459e+01    1.128173e+00
  2.243634e+01    1.124547e+00
  2.246809e+01    1.087170e+00
  2.249984e+01    1.065133e+00
  2.253160e+01    1.060941e+00
  2.256335e+01    1.035257e+00
  2.259510e+01    1.016229e+00
  2.262685e+01    9.956646e-01
  2.265860e+01    9.958668e-01
  2.269035e+01    9.836073e-01
  2.272210e+01    9.750875e-01
  2.275385e+01    9.768212e-01
  2.278560e+01    9.707162e-01
  2.281736e+01    9.730415e-01
  2.284911e+01    9.675615e-01
  2.288086e+01    9.285669e-01
  2.291261e+01    9.393278e-01
  2.294436e+01    9.217308e-01
  2.297611e+01    9.211841e-01
  2.300786e+01    9.101986e-01
  2.303961e+01    8.968201e-01
  2.307137e+01    9.335774e-01
  2.310312e+01    8.972308e-01
  2.313487e+01    9.044378e-01
  2.316662e+01    8.991767e-01
  2.319837e+01    8.748670e-01
  2.323012e+01    9.021134e-01
  2.326187e+01    8.931773e-01
  2.329362e+01    8.926168e-01
  2.332537e+01    8.872718e-01
  2.335713e+01    8.807998e-01
  2.338888e+01    8.789247e-01
  2.342063e+01    8.418184e-01
  2.345238e+01    8.744429e-01
  2.348413e+01    8.692810e-01
  2.351588e+01    8.570780e-01
  2.354763e+01    8.622409e-01
  2.357938e+01    8.663560e-01
  2.361113e+01    8.550831e-01
  2.364289e+01    8.648354e-01
  2.367464e+01    8.479102e-01
  2.370639e+01    8.320764e-01
  2.373814e+01    8.523267e-01
  2.376989e+01    8.421364e-01
  2.380164e+01    8.374172e-01
  2.383339e+01    8.366516e-01
  2.386514e+01    8.052173e-01
  2.389689e+01    8.171626e-01
  2.392865e+01    8.025125e-01
  2.396040e+01    8.212104e-01
  2.399215e+01    8.097304e-01
  2.402390e+01    8.227057e-01
  2.405565e+01    7.850618e-01
  2.408740e+01    7.896669e-01
  2.411915e+01    8.152096e-01
  2.415090e+01    7.938013e-01
  2.418266e+01    7.903109e-01
  2.421441e+01    7.897798e-01
  2.424616e+01    7.923021e-01
  2.427791e+01    7.904953e-01
  2.430966e+01    8.066403e-01
  2.434141e+01    8.156126e-01
  2.437316e+01    8.057638e-01
  2.440491e+01    8.008196e-01
  2.443666e+01    8.016882e-01
  2.446842e+01    8.117930e-01
  2.450017e+01    8.009778e-01
  2.453192e+01    8.038571e-01
  2.456367e+01    7.971346e-01
  2.459542e+01    8.062691e-01
  2.462717e+01    8.009012e-01
  2.465892e+01    7.939435e-01
  2.469067e+01    7.760490e-01
  2.472242e+01    7.957354e-01
  2.475418e+01    8.069591e-01
  2.478593e+01    8.244072e-01
  2.481768e+01    7.917103e-01
  2.484943e+01    8.190454e-01
  2.488118e+01    7.869321e-01
  2.491293e+01    8.102348e-01
  2.494468e+01    7.865484e-01
  2.497643e+01    8.274794e-01
  2.500819e+01    8.061003e-01
  2.503994e+01    8.363935e-01
  2.507169e+01    8.352896e-01
  2.510344e+01    8.280272e-01
  2.513519e+01    8.236632e-01
  2.516694e+01    8.308883e-01
  2.519869e+01    8.628488e-01
  2.523044e+01    8.507884e-01
  2.526219e+01    8.475015e-01
  2.529395e+01    8.497630e-01
  2.532570e+01    8.927817e-01
  2.535745e+01    8.749133e-01
  2.538920e+01    9.193489e-01
  2.542095e+01    9.242177e-01
  2.545270e+01    9.577003e-01
  2.548445e+01    9.669279e-01
  2.551620e+01    9.964989e-01
  2.554795e+01    1.033320e+00
  2.557971e+01    1.069533e+00
  2.561146e+01    1.128274e+00
  2.564321e+01    1.188965e+00
  2.567496e+01    1.277926e+00
  2.570671e+01    1.377061e+00
  2.573846e+01    1.571298e+00
  2.577021e+01    1.862480e+00
  2.580196e+01    2.211286e+00
  2.583371e+01    2.796815e+00
  2.586547e+01    3.691659e+00
  2.589722e+01    4.894324e+00
  2.592897e+01    6.333753e+00
  2.596072e+01    7.875000e+00
  2.599247e+01    9.001566e+00
  2.602422e+01    8.855139e+00
  2.605597e+01    7.460774e+00
  2.608772e+01    5.536337e+00
  2.611948e+01    4.063808e+00
  2.615123e+01    3.075512e+00
  2.618298e+01    2.438348e+00
  2.621473e+01    1.947664e+00
  2.624648e+01    1.666434e+00
  2.627823e+01    1.478708e+00
  2.630998e+01    1.334633e+00
  2.634173e+01    1.218894e+00
  2.637348e+01    1.144909e+00
  2.640524e+01    1.081662e+00
  2.643699e+01    1.050728e+00
  2.646874e+01    1.055359e+00
  2.650049e+01    1.000197e+00
  2.653224e+01    1.003143e+00
  2.656399e+01    9.554929e-01
  2.659574e+01    9.384831e-01
  2.662749e+01    9.530762e-01
  2.665924e+01    9.427202e-01
  2.669100e+01    9.348118e-01
  2.672275e+01    9.097344e-01
  2.675450e+01    9.367278e-01
  2.678625e+01    9.192524e-01
  2.681800e+01    9.208151e-01
  2.684975e+01    9.195168e-01
  2.688150e+01    9.289478e-01
  2.691325e+01    9.450312e-01
  2.694501e+01    9.658605e-01
  2.697676e+01    9.577751e-01
  2.700851e+01    1.016126e+00
  2.704026e+01    1.056926e+00
  2.707201e+01    1.113202e+00
  2.710376e+01    1.264865e+00
  2.713551e+01    1.443973e+00
  2.716726e+01    1.718297e+00
  2.719901e+01    2.058152e+00
  2.723077e+01    2.389821e+00
  2.726252e+01    2.599416e+00
  2.729427e+01    2.471976e+00
  2.732602e+01    2.144247e+00
  2.735777e+01    1.808295e+00
  2.738952e+01    1.468801e+00
  2.742127e+01    1.275570e+00
  2.745302e+01    1.148694e+00
  2.748477e+01    1.078920e+00
  2.751653e+01    1.004927e+00
  2.754828e+01    9.584386e-01
  2.758003e+01    9.376474e-01
  2.761178e+01    9.008656e-01
  2.764353e+01    8.857716e-01
  2.767528e+01    8.814548e-01
  2.770703e+01    8.632199e-01
  2.773878e+01    8.367855e-01
  2.777054e+01    8.666993e-01
  2.780229e+01    8.375097e-01
  2.783404e+01    8.207990e-01
  2.786579e+01    8.348809e-01
  2.789754e+01    8.377743e-01
  2.792929e+01    8.323127e-01
  2.796104e+01    8.076203e-01
  2.799279e+01    8.282335e-01
  2.802454e+01    8.485764e-01
  2.805630e+01    8.065807e-01
  2.808805e+01    7.832903e-01
  2.811980e+01    8.009517e-01
  2.815155e+01    8.120193e-01
  2.818330e+01    7.761431e-01
  2.821505e+01    7.821516e-01
  2.824680e+01    7.910035e-01
  2.827855e+01    7.783784e-01
  2.831030e+01    7.956416e-01
  2.834206e+01    7.820757e-01
  2.837381e+01    7.773511e-01
  2.840556e+01    7.698337e-01
  2.843731e+01    7.906811e-01
  2.846906e+01    7.817979e-01
  2.850081e+01    7.601511e-01
  2.853256e+01    7.808836e-01
  2.856431e+01    7.782497e-01
  2.859606e+01    7.885666e-01
  2.862782e+01    7.608429e-01
  2.865957e+01    7.584430e-01
  2.869132e+01    7.992105e-01
  2.872307e+01    7.539144e-01
  2.875482e+01    7.642678e-01
  2.878657e+01    7.377511e-01
  2.881832e+01    7.555790e-01
  2.885007e+01    7.779240e-01
  2.888183e+01    7.468991e-01
  2.891358e+01    7.572092e-01
  2.894533e+01    7.502314e-01
  2.897708e+01    7.627892e-01
  2.900883e+01    7.583715e-01
  2.904058e+01    7.616036e-01
  2.907233e+01    7.412826e-01
  2.910408e+01    7.525693e-01
  2.913583e+01    7.535394e-01
  2.916759e+01    7.486010e-01
  2.919934e+01    7.526790e-01
  2.923109e+01    7.482534e-01
  2.926284e+01    7.426974e-01
  2.929459e+01    7.414125e-01
  2.932634e+01    7.360731e-01
  2.935809e+01    7.340989e-01
  2.938984e+01    7.372275e-01
  2.942159e+01    7.471479e-01
  2.945335e+01    7.418340e-01
  2.948510e+01    7.463866e-01
  2.951685e+01    7.465227e-01
  2.954860e+01    7.372457e-01
  2.958035e+01    7.381621e-01
  2.961210e+01    7.270118e-01
  2.964385e+01    7.419506e-01
  2.967560e+01    7.393937e-01
  2.970736e+01    7.517819e-01
  2.973911e+01    7.456359e-01
  2.977086e+01    7.331935e-01
  2.980261e+01    7.224386e-01
  2.983436e+01    7.479656e-01
  2.986611e+01    7.537934e-01
  2.989786e+01    7.180762e-01
  2.992961e+01    7.120964e-01
  2.996136e+01    7.501513e-01
  2.999312e+01    7.349142e-01
  3.002487e+01    7.520026e-01
  3.005662e+01    7.375710e-01
  3.008837e+01    7.374911e-01
  3.012012e+01    7.364153e-01
  3.015187e+01    7.463119e-01
  3.018362e+01    7.132542e-01
  3.021537e+01    7.211256e-01
  3.024712e+01    7.438906e-01
  3.027888e+01    7.370915e-01
  3.031063e+01    7.280377e-01
  3.034238e+01    7.395100e-01
  3.037413e+01    7.471624e-01
  3.040588e+01    7.379330e-01
  3.043763e+01    7.255931e-01
  3.046938e+01    7.297426e-01
  3.050113e+01    7.161619e-01
  3.053288e+01    7.090435e-01
  3.056464e+01    7.137872e-01
  3.059639e+01    7.202409e-01
  3.062814e+01    7.256257e-01
  3.065989e+01    7.223418e-01
  3.069164e+01    7.242122e-01
  3.072339e+01    7.292722e-01
  3.075514e+01    7.226282e-01
  3.078689e+01    7.196427e-01
  3.081865e+01    7.312264e-01
  3.085040e+01    7.163592e-01
  3.088215e+01    7.384229e-01
  3.091390e+01    7.219559e-01
  3.094565e+01    7.156960e-01
  3.097740e+01    7.328643e-01
  3.100915e+01    7.327149e-01
  3.104090e+01    7.419598e-01
  3.107265e+01    7.160004e-01
  3.110441e+01    7.235750e-01
  3.113616e+01    7.387675e-01
  3.116791e+01    7.428833e-01
  3.119966e+01    7.319385e-01
  3.123141e+01    7.135754e-01
  3.126316e+01    7.443120e-01
  3.129491e+01    7.318063e-01
  3.132666e+01    7.237712e-01
  3.135841e+01    7.630425e-01
  3.139017e+01    7.555730e-01
  3.142192e+01    7.467649e-01
  3.145367e+01    7.730947e-01
  3.148542e+01    7.557138e-01
  3.151717e+01    7.746649e-01
  3.154892e+01    8.010177e-01
  3.158067e+01    7.888197e-01
  3.161242e+01    8.297300e-01
  3.164418e+01    8.459243e-01
  3.167593e+01    8.761083e-01
  3.170768e+01    8.982406e-01
  3.173943e+01    9.746583e-01
  3.177118e+01    1.068779e+00
  3.180293e+01    1.195137e+00
  3.183468e+01    1.405565e+00
  3.186643e+01    1.671171e+00
  3.189818e+01    2.069715e+00
  3.192994e+01    2.387140e+00
  3.196169e+01    2.589049e+00
  3.199344e+01    2.442005e+00
  3.202519e+01    2.138939e+00
  3.205694e+01    1.725738e+00
  3.208869e+01    1.375924e+00
  3.212044e+01    1.191307e+00
  3.215219e+01    1.042983e+00
  3.218394e+01    9.532418e-01
  3.221570e+01    8.575655e-01
  3.224745e+01    8.612783e-01
  3.227920e+01    8.576977e-01
  3.231095e+01    8.108668e-01
  3.234270e+01    7.871077e-01
  3.237445e+01    7.905632e-01
  3.240620e+01    7.465569e-01
  3.243795e+01    7.676591e-01
  3.246970e+01    7.791960e-01
  3.250146e+01    7.458969e-01
  3.253321e+01    7.498534e-01
  3.254908e+01    7.338275e-01