File: XRD/2024-07-27_002_Ru-CGO-ex_Activtation_ramp_000002_data_000045.dat
# == pyFAI calibration ==
# Distance Sample to Detector: 0.4 m
# PONI: 9.750e-02, 1.135e-01 m
# Rotations: -0.000175 0.000000 -0.000000 rad
#
# == Fit2d calibration ==
# Distance Sample-beamCenter: 400.000 mm
# Center: x=1514.000, y=1300.000 pix
# Tilt: 0.010 deg  TiltPlanRot: 0.010 deg
#
# Detector Detector	 Spline= None	 PixelSize= 7.500e-05, 7.500e-05 m
#    Detector has a mask: False
#    Detector has a dark current: False
#    detector has a flat field: False
#
# Wavelength: 6.888e-11 m
# Mask applied: user provided
# Dark current applied: False
# Flat field applied: False
# Polarization factor: 0.99
# Normalization factor: 1.0
# --> /home/myspot/data/2024_07_Rosario/Ru-CGO-ex/2024-07-27_002_Ru-CGO-ex_Activtation_ramp_000002_data_000045.dat
#       q_nm^-1             I
  2.003187e-02    0.000000e+00
  5.178302e-02    2.671064e-02
  8.353417e-02    8.786213e-02
  1.152853e-01    0.000000e+00
  1.470365e-01    6.479705e-03
  1.787876e-01    2.980956e-02
  2.105388e-01    1.683456e-02
  2.422899e-01    5.581893e-02
  2.740411e-01    2.461749e-02
  3.057922e-01    6.177456e-02
  3.375433e-01    4.488191e-02
  3.692945e-01    3.645118e-02
  4.010456e-01    1.926538e-02
  4.327968e-01    4.849964e-02
  4.645479e-01    6.533485e-02
  4.962991e-01    2.666263e-02
  5.280502e-01    3.297081e-02
  5.598014e-01    5.310164e-02
  5.915525e-01    4.376932e-02
  6.233037e-01    3.613400e-02
  6.550548e-01    4.168747e-02
  6.868060e-01    3.355957e-02
  7.185571e-01    3.773423e-02
  7.503083e-01    4.770475e-02
  7.820594e-01    1.333584e-01
  8.138106e-01    1.525073e-01
  8.455617e-01    2.836428e-01
  8.773129e-01    4.362643e-01
  9.090640e-01    5.693221e-01
  9.408152e-01    7.909999e-01
  9.725663e-01    8.208354e-01
  1.004317e+00    1.030767e+00
  1.036069e+00    1.128309e+00
  1.067820e+00    1.208851e+00
  1.099571e+00    1.342835e+00
  1.131322e+00    1.402986e+00
  1.163073e+00    1.544802e+00
  1.194824e+00    1.628433e+00
  1.226575e+00    2.047627e+00
  1.258327e+00    2.340747e+00
  1.290078e+00    2.483308e+00
  1.321829e+00    2.648299e+00
  1.353580e+00    2.696750e+00
  1.385331e+00    2.691528e+00
  1.417082e+00    2.689341e+00
  1.448834e+00    2.626512e+00
  1.480585e+00    2.953785e+00
  1.512336e+00    2.877344e+00
  1.544087e+00    2.935614e+00
  1.575838e+00    3.060327e+00
  1.607589e+00    2.995869e+00
  1.639340e+00    2.968369e+00
  1.671092e+00    2.931997e+00
  1.702843e+00    2.838194e+00
  1.734594e+00    2.771303e+00
  1.766345e+00    2.869725e+00
  1.798096e+00    2.888363e+00
  1.829847e+00    2.765244e+00
  1.861598e+00    2.889191e+00
  1.893350e+00    2.716510e+00
  1.925101e+00    2.779567e+00
  1.956852e+00    2.841183e+00
  1.988603e+00    2.759167e+00
  2.020354e+00    2.760399e+00
  2.052105e+00    2.785072e+00
  2.083856e+00    2.795680e+00
  2.115608e+00    2.676289e+00
  2.147359e+00    2.731069e+00
  2.179110e+00    2.734216e+00
  2.210861e+00    2.745683e+00
  2.242612e+00    2.717645e+00
  2.274363e+00    2.735877e+00
  2.306115e+00    2.758303e+00
  2.337866e+00    2.686426e+00
  2.369617e+00    2.728290e+00
  2.401368e+00    2.918196e+00
  2.433119e+00    2.841771e+00
  2.464870e+00    2.819991e+00
  2.496621e+00    2.735463e+00
  2.528373e+00    2.808512e+00
  2.560124e+00    2.828415e+00
  2.591875e+00    2.847872e+00
  2.623626e+00    2.804140e+00
  2.655377e+00    2.767120e+00
  2.687128e+00    2.873949e+00
  2.718879e+00    2.793086e+00
  2.750631e+00    2.794419e+00
  2.782382e+00    2.845329e+00
  2.814133e+00    2.716525e+00
  2.845884e+00    2.910974e+00
  2.877635e+00    2.857200e+00
  2.909386e+00    2.911301e+00
  2.941137e+00    2.948714e+00
  2.972889e+00    2.897544e+00
  3.004640e+00    2.872893e+00
  3.036391e+00    2.965580e+00
  3.068142e+00    2.834991e+00
  3.099893e+00    2.747768e+00
  3.131644e+00    2.845819e+00
  3.163395e+00    3.006588e+00
  3.195147e+00    2.916053e+00
  3.226898e+00    2.937804e+00
  3.258649e+00    2.845394e+00
  3.290400e+00    2.909566e+00
  3.322151e+00    2.936217e+00
  3.353902e+00    2.868574e+00
  3.385654e+00    2.916568e+00
  3.417405e+00    2.889932e+00
  3.449156e+00    2.871643e+00
  3.480907e+00    2.875554e+00
  3.512658e+00    2.957688e+00
  3.544409e+00    2.975864e+00
  3.576160e+00    2.874460e+00
  3.607912e+00    2.962319e+00
  3.639663e+00    3.004088e+00
  3.671414e+00    2.949409e+00
  3.703165e+00    3.013092e+00
  3.734916e+00    2.976389e+00
  3.766667e+00    2.988789e+00
  3.798418e+00    2.963889e+00
  3.830170e+00    3.020723e+00
  3.861921e+00    2.969412e+00
  3.893672e+00    3.025894e+00
  3.925423e+00    2.993322e+00
  3.957174e+00    3.072924e+00
  3.988925e+00    3.027809e+00
  4.020676e+00    3.004081e+00
  4.052428e+00    2.993910e+00
  4.084179e+00    3.046600e+00
  4.115930e+00    3.014557e+00
  4.147681e+00    3.018967e+00
  4.179432e+00    3.120181e+00
  4.211183e+00    3.078763e+00
  4.242935e+00    3.019668e+00
  4.274686e+00    3.031264e+00
  4.306437e+00    2.965272e+00
  4.338188e+00    3.051384e+00
  4.369939e+00    2.978956e+00
  4.401690e+00    3.040113e+00
  4.433441e+00    3.036903e+00
  4.465193e+00    3.133190e+00
  4.496944e+00    3.032357e+00
  4.528695e+00    3.053358e+00
  4.560446e+00    3.090245e+00
  4.592197e+00    3.092796e+00
  4.623948e+00    3.053380e+00
  4.655699e+00    3.047220e+00
  4.687451e+00    3.067135e+00
  4.719202e+00    3.057862e+00
  4.750953e+00    3.135417e+00
  4.782704e+00    3.150306e+00
  4.814455e+00    3.117934e+00
  4.846206e+00    3.118091e+00
  4.877957e+00    3.112193e+00
  4.909709e+00    3.101364e+00
  4.941460e+00    3.057313e+00
  4.973211e+00    3.050440e+00
  5.004962e+00    3.150214e+00
  5.036713e+00    3.120974e+00
  5.068464e+00    3.108821e+00
  5.100216e+00    3.045952e+00
  5.131967e+00    3.102418e+00
  5.163718e+00    3.091680e+00
  5.195469e+00    3.121399e+00
  5.227220e+00    3.159859e+00
  5.258971e+00    3.189926e+00
  5.290722e+00    3.075826e+00
  5.322474e+00    3.125136e+00
  5.354225e+00    3.104450e+00
  5.385976e+00    3.123403e+00
  5.417727e+00    3.157605e+00
  5.449478e+00    3.159666e+00
  5.481229e+00    3.025800e+00
  5.512980e+00    3.118228e+00
  5.544732e+00    3.101715e+00
  5.576483e+00    3.070238e+00
  5.608234e+00    3.033271e+00
  5.639985e+00    3.026149e+00
  5.671736e+00    3.079692e+00
  5.703487e+00    3.035630e+00
  5.735238e+00    3.080915e+00
  5.766990e+00    2.972653e+00
  5.798741e+00    3.185734e+00
  5.830492e+00    3.011873e+00
  5.862243e+00    3.122047e+00
  5.893994e+00    3.080739e+00
  5.925745e+00    2.976412e+00
  5.957497e+00    2.992928e+00
  5.989248e+00    3.022528e+00
  6.020999e+00    2.986212e+00
  6.052750e+00    2.987083e+00
  6.084501e+00    3.113472e+00
  6.116252e+00    3.066177e+00
  6.148003e+00    3.067294e+00
  6.179755e+00    3.098252e+00
  6.211506e+00    3.061829e+00
  6.243257e+00    3.018203e+00
  6.275008e+00    3.005693e+00
  6.306759e+00    3.102052e+00
  6.338510e+00    3.016982e+00
  6.370261e+00    3.007898e+00
  6.402013e+00    3.054075e+00
  6.433764e+00    2.969969e+00
  6.465515e+00    3.057348e+00
  6.497266e+00    3.027711e+00
  6.529017e+00    3.101591e+00
  6.560768e+00    3.026839e+00
  6.592519e+00    3.070637e+00
  6.624271e+00    3.054681e+00
  6.656022e+00    3.040463e+00
  6.687773e+00    3.050078e+00
  6.719524e+00    2.954868e+00
  6.751275e+00    2.969206e+00
  6.783026e+00    3.029328e+00
  6.814777e+00    2.971658e+00
  6.846529e+00    3.026725e+00
  6.878280e+00    2.970379e+00
  6.910031e+00    3.045305e+00
  6.941782e+00    3.079765e+00
  6.973533e+00    3.022413e+00
  7.005284e+00    3.031475e+00
  7.037036e+00    2.991618e+00
  7.068787e+00    2.961981e+00
  7.100538e+00    2.969189e+00
  7.132289e+00    3.004774e+00
  7.164040e+00    2.957063e+00
  7.195791e+00    2.929451e+00
  7.227542e+00    2.958458e+00
  7.259294e+00    3.019449e+00
  7.291045e+00    2.948473e+00
  7.322796e+00    2.958869e+00
  7.354547e+00    2.974384e+00
  7.386298e+00    3.059542e+00
  7.418049e+00    3.016852e+00
  7.449800e+00    3.002137e+00
  7.481552e+00    2.982618e+00
  7.513303e+00    2.962376e+00
  7.545054e+00    2.963068e+00
  7.576805e+00    2.939965e+00
  7.608556e+00    2.959958e+00
  7.640307e+00    2.931682e+00
  7.672058e+00    2.902817e+00
  7.703810e+00    2.957757e+00
  7.735561e+00    2.927221e+00
  7.767312e+00    2.962842e+00
  7.799063e+00    2.952670e+00
  7.830814e+00    2.938712e+00
  7.862565e+00    2.913893e+00
  7.894317e+00    2.920796e+00
  7.926068e+00    2.981649e+00
  7.957819e+00    2.901934e+00
  7.989570e+00    2.983000e+00
  8.021321e+00    2.940844e+00
  8.053072e+00    2.913195e+00
  8.084823e+00    2.939826e+00
  8.116575e+00    2.972769e+00
  8.148326e+00    2.962752e+00
  8.180077e+00    2.937434e+00
  8.211828e+00    2.946908e+00
  8.243579e+00    2.920974e+00
  8.275330e+00    2.888716e+00
  8.307081e+00    2.868527e+00
  8.338833e+00    2.963639e+00
  8.370584e+00    2.967856e+00
  8.402335e+00    2.955809e+00
  8.434086e+00    2.896557e+00
  8.465837e+00    2.931349e+00
  8.497588e+00    2.911979e+00
  8.529339e+00    2.856252e+00
  8.561091e+00    2.867413e+00
  8.592842e+00    2.888587e+00
  8.624593e+00    2.833924e+00
  8.656344e+00    2.841112e+00
  8.688095e+00    2.806591e+00
  8.719846e+00    2.869764e+00
  8.751598e+00    2.840481e+00
  8.783349e+00    2.894864e+00
  8.815100e+00    2.812522e+00
  8.846851e+00    2.875082e+00
  8.878602e+00    2.879949e+00
  8.910353e+00    2.833858e+00
  8.942104e+00    2.843549e+00
  8.973856e+00    2.833731e+00
  9.005607e+00    2.800836e+00
  9.037358e+00    2.833648e+00
  9.069109e+00    2.806468e+00
  9.100860e+00    2.842359e+00
  9.132611e+00    2.819656e+00
  9.164362e+00    2.795394e+00
  9.196114e+00    2.836057e+00
  9.227865e+00    2.792869e+00
  9.259616e+00    2.801636e+00
  9.291367e+00    2.809569e+00
  9.323118e+00    2.789118e+00
  9.354869e+00    2.808843e+00
  9.386620e+00    2.743293e+00
  9.418372e+00    2.777705e+00
  9.450123e+00    2.721217e+00
  9.481874e+00    2.782264e+00
  9.513625e+00    2.748331e+00
  9.545376e+00    2.746323e+00
  9.577127e+00    2.784830e+00
  9.608878e+00    2.777502e+00
  9.640630e+00    2.751367e+00
  9.672381e+00    2.725941e+00
  9.704132e+00    2.746369e+00
  9.735883e+00    2.777953e+00
  9.767634e+00    2.734738e+00
  9.799385e+00    2.728197e+00
  9.831137e+00    2.716376e+00
  9.862888e+00    2.664049e+00
  9.894639e+00    2.704958e+00
  9.926390e+00    2.652174e+00
  9.958141e+00    2.715383e+00
  9.989892e+00    2.669957e+00
  1.002164e+01    2.693970e+00
  1.005339e+01    2.686696e+00
  1.008515e+01    2.665649e+00
  1.011690e+01    2.675669e+00
  1.014865e+01    2.654238e+00
  1.018040e+01    2.684170e+00
  1.021215e+01    2.621877e+00
  1.024390e+01    2.657434e+00
  1.027565e+01    2.611440e+00
  1.030740e+01    2.599847e+00
  1.033915e+01    2.591486e+00
  1.037091e+01    2.650575e+00
  1.040266e+01    2.628162e+00
  1.043441e+01    2.595834e+00
  1.046616e+01    2.531852e+00
  1.049791e+01    2.611475e+00
  1.052966e+01    2.596809e+00
  1.056141e+01    2.554843e+00
  1.059316e+01    2.576238e+00
  1.062492e+01    2.618790e+00
  1.065667e+01    2.551659e+00
  1.068842e+01    2.547023e+00
  1.072017e+01    2.548347e+00
  1.075192e+01    2.536093e+00
  1.078367e+01    2.572248e+00
  1.081542e+01    2.514754e+00
  1.084717e+01    2.580654e+00
  1.087892e+01    2.451081e+00
  1.091068e+01    2.550116e+00
  1.094243e+01    2.500688e+00
  1.097418e+01    2.516057e+00
  1.100593e+01    2.472799e+00
  1.103768e+01    2.498811e+00
  1.106943e+01    2.464357e+00
  1.110118e+01    2.422363e+00
  1.113293e+01    2.470871e+00
  1.116468e+01    2.410588e+00
  1.119644e+01    2.451424e+00
  1.122819e+01    2.473301e+00
  1.125994e+01    2.445873e+00
  1.129169e+01    2.423489e+00
  1.132344e+01    2.453546e+00
  1.135519e+01    2.493550e+00
  1.138694e+01    2.383359e+00
  1.141869e+01    2.417873e+00
  1.145045e+01    2.408952e+00
  1.148220e+01    2.396889e+00
  1.151395e+01    2.418610e+00
  1.154570e+01    2.408254e+00
  1.157745e+01    2.350059e+00
  1.160920e+01    2.357859e+00
  1.164095e+01    2.362339e+00
  1.167270e+01    2.382754e+00
  1.170445e+01    2.300875e+00
  1.173621e+01    2.353561e+00
  1.176796e+01    2.380205e+00
  1.179971e+01    2.325279e+00
  1.183146e+01    2.325780e+00
  1.186321e+01    2.326590e+00
  1.189496e+01    2.324978e+00
  1.192671e+01    2.316224e+00
  1.195846e+01    2.326507e+00
  1.199021e+01    2.330966e+00
  1.202197e+01    2.322414e+00
  1.205372e+01    2.342283e+00
  1.208547e+01    2.347288e+00
  1.211722e+01    2.302945e+00
  1.214897e+01    2.316353e+00
  1.218072e+01    2.332350e+00
  1.221247e+01    2.307332e+00
  1.224422e+01    2.331201e+00
  1.227597e+01    2.287434e+00
  1.230773e+01    2.319775e+00
  1.233948e+01    2.307417e+00
  1.237123e+01    2.357194e+00
  1.240298e+01    2.340585e+00
  1.243473e+01    2.321760e+00
  1.246648e+01    2.373236e+00
  1.249823e+01    2.338502e+00
  1.252998e+01    2.382929e+00
  1.256174e+01    2.364709e+00
  1.259349e+01    2.419016e+00
  1.262524e+01    2.401041e+00
  1.265699e+01    2.412434e+00
  1.268874e+01    2.492586e+00
  1.272049e+01    2.514870e+00
  1.275224e+01    2.568252e+00
  1.278399e+01    2.668925e+00
  1.281574e+01    2.724791e+00
  1.284750e+01    2.841082e+00
  1.287925e+01    3.032609e+00
  1.291100e+01    3.329997e+00
  1.294275e+01    3.686056e+00
  1.297450e+01    4.360056e+00
  1.300625e+01    5.313463e+00
  1.303800e+01    6.772539e+00
  1.306975e+01    9.047806e+00
  1.310150e+01    1.206304e+01
  1.313326e+01    1.495514e+01
  1.316501e+01    1.780658e+01
  1.319676e+01    1.925381e+01
  1.322851e+01    1.750064e+01
  1.326026e+01    1.307080e+01
  1.329201e+01    9.095965e+00
  1.332376e+01    6.684359e+00
  1.335551e+01    5.181632e+00
  1.338727e+01    4.346209e+00
  1.341902e+01    3.663588e+00
  1.345077e+01    3.239189e+00
  1.348252e+01    2.927205e+00
  1.351427e+01    2.757952e+00
  1.354602e+01    2.619877e+00
  1.357777e+01    2.530866e+00
  1.360952e+01    2.433023e+00
  1.364127e+01    2.373978e+00
  1.367303e+01    2.330306e+00
  1.370478e+01    2.284531e+00
  1.373653e+01    2.216034e+00
  1.376828e+01    2.219667e+00
  1.380003e+01    2.202675e+00
  1.383178e+01    2.148670e+00
  1.386353e+01    2.166656e+00
  1.389528e+01    2.150204e+00
  1.392703e+01    2.113021e+00
  1.395879e+01    2.092414e+00
  1.399054e+01    2.090015e+00
  1.402229e+01    2.082906e+00
  1.405404e+01    2.082377e+00
  1.408579e+01    2.039763e+00
  1.411754e+01    2.032093e+00
  1.414929e+01    2.063697e+00
  1.418104e+01    1.981318e+00
  1.421279e+01    2.048367e+00
  1.424455e+01    1.975746e+00
  1.427630e+01    1.966158e+00
  1.430805e+01    2.008389e+00
  1.433980e+01    1.964564e+00
  1.437155e+01    1.930379e+00
  1.440330e+01    1.932204e+00
  1.443505e+01    1.942362e+00
  1.446680e+01    1.928912e+00
  1.449856e+01    1.932964e+00
  1.453031e+01    1.931630e+00
  1.456206e+01    1.904576e+00
  1.459381e+01    1.927243e+00
  1.462556e+01    1.916535e+00
  1.465731e+01    1.887734e+00
  1.468906e+01    1.928363e+00
  1.472081e+01    1.882776e+00
  1.475256e+01    1.917381e+00
  1.478432e+01    1.901199e+00
  1.481607e+01    1.925084e+00
  1.484782e+01    1.912254e+00
  1.487957e+01    1.950167e+00
  1.491132e+01    1.986900e+00
  1.494307e+01    1.991938e+00
  1.497482e+01    2.056290e+00
  1.500657e+01    2.146314e+00
  1.503832e+01    2.251699e+00
  1.507008e+01    2.499150e+00
  1.510183e+01    2.818155e+00
  1.513358e+01    3.260205e+00
  1.516533e+01    4.068149e+00
  1.519708e+01    4.823573e+00
  1.522883e+01    5.613276e+00
  1.526058e+01    6.191747e+00
  1.529233e+01    6.424850e+00
  1.532409e+01    5.899295e+00
  1.535584e+01    4.684215e+00
  1.538759e+01    3.657838e+00
  1.541934e+01    2.983446e+00
  1.545109e+01    2.597178e+00
  1.548284e+01    2.312685e+00
  1.551459e+01    2.157999e+00
  1.554634e+01    1.982987e+00
  1.557809e+01    1.947418e+00
  1.560985e+01    1.879740e+00
  1.564160e+01    1.849269e+00
  1.567335e+01    1.776800e+00
  1.570510e+01    1.765494e+00
  1.573685e+01    1.713177e+00
  1.576860e+01    1.737918e+00
  1.580035e+01    1.688971e+00
  1.583210e+01    1.689819e+00
  1.586385e+01    1.678675e+00
  1.589561e+01    1.663047e+00
  1.592736e+01    1.685676e+00
  1.595911e+01    1.615051e+00
  1.599086e+01    1.633881e+00
  1.602261e+01    1.616040e+00
  1.605436e+01    1.634882e+00
  1.608611e+01    1.621163e+00
  1.611786e+01    1.598128e+00
  1.614961e+01    1.614671e+00
  1.618137e+01    1.552864e+00
  1.621312e+01    1.559863e+00
  1.624487e+01    1.567411e+00
  1.627662e+01    1.579328e+00
  1.630837e+01    1.558907e+00
  1.634012e+01    1.533727e+00
  1.637187e+01    1.562505e+00
  1.640362e+01    1.542507e+00
  1.643538e+01    1.518167e+00
  1.646713e+01    1.539294e+00
  1.649888e+01    1.527739e+00
  1.653063e+01    1.535488e+00
  1.656238e+01    1.507227e+00
  1.659413e+01    1.506311e+00
  1.662588e+01    1.473674e+00
  1.665763e+01    1.527558e+00
  1.668938e+01    1.498935e+00
  1.672114e+01    1.483733e+00
  1.675289e+01    1.446340e+00
  1.678464e+01    1.448880e+00
  1.681639e+01    1.458589e+00
  1.684814e+01    1.477855e+00
  1.687989e+01    1.449889e+00
  1.691164e+01    1.467066e+00
  1.694339e+01    1.453526e+00
  1.697514e+01    1.447847e+00
  1.700690e+01    1.440213e+00
  1.703865e+01    1.440043e+00
  1.707040e+01    1.421694e+00
  1.710215e+01    1.444203e+00
  1.713390e+01    1.440056e+00
  1.716565e+01    1.397515e+00
  1.719740e+01    1.374552e+00
  1.722915e+01    1.381524e+00
  1.726091e+01    1.412086e+00
  1.729266e+01    1.422701e+00
  1.732441e+01    1.376944e+00
  1.735616e+01    1.374191e+00
  1.738791e+01    1.391813e+00
  1.741966e+01    1.356414e+00
  1.745141e+01    1.399366e+00
  1.748316e+01    1.354883e+00
  1.751491e+01    1.364501e+00
  1.754667e+01    1.357419e+00
  1.757842e+01    1.363928e+00
  1.761017e+01    1.371589e+00
  1.764192e+01    1.363928e+00
  1.767367e+01    1.329661e+00
  1.770542e+01    1.348794e+00
  1.773717e+01    1.324568e+00
  1.776892e+01    1.334460e+00
  1.780067e+01    1.304962e+00
  1.783243e+01    1.331014e+00
  1.786418e+01    1.334254e+00
  1.789593e+01    1.312379e+00
  1.792768e+01    1.299319e+00
  1.795943e+01    1.319045e+00
  1.799118e+01    1.287484e+00
  1.802293e+01    1.304640e+00
  1.805468e+01    1.292512e+00
  1.808643e+01    1.283564e+00
  1.811819e+01    1.308128e+00
  1.814994e+01    1.268737e+00
  1.818169e+01    1.319298e+00
  1.821344e+01    1.295481e+00
  1.824519e+01    1.317790e+00
  1.827694e+01    1.290132e+00
  1.830869e+01    1.264013e+00
  1.834044e+01    1.269588e+00
  1.837220e+01    1.281913e+00
  1.840395e+01    1.244004e+00
  1.843570e+01    1.261991e+00
  1.846745e+01    1.284693e+00
  1.849920e+01    1.238271e+00
  1.853095e+01    1.264629e+00
  1.856270e+01    1.270019e+00
  1.859445e+01    1.266858e+00
  1.862620e+01    1.234678e+00
  1.865796e+01    1.239101e+00
  1.868971e+01    1.254971e+00
  1.872146e+01    1.236825e+00
  1.875321e+01    1.232423e+00
  1.878496e+01    1.247538e+00
  1.881671e+01    1.220441e+00
  1.884846e+01    1.229624e+00
  1.888021e+01    1.231852e+00
  1.891196e+01    1.195379e+00
  1.894372e+01    1.211423e+00
  1.897547e+01    1.242666e+00
  1.900722e+01    1.207181e+00
  1.903897e+01    1.227658e+00
  1.907072e+01    1.233848e+00
  1.910247e+01    1.204937e+00
  1.913422e+01    1.199699e+00
  1.916597e+01    1.185537e+00
  1.919773e+01    1.189798e+00
  1.922948e+01    1.217844e+00
  1.926123e+01    1.195096e+00
  1.929298e+01    1.155278e+00
  1.932473e+01    1.175148e+00
  1.935648e+01    1.191239e+00
  1.938823e+01    1.205365e+00
  1.941998e+01    1.163530e+00
  1.945173e+01    1.176465e+00
  1.948349e+01    1.156498e+00
  1.951524e+01    1.165303e+00
  1.954699e+01    1.170402e+00
  1.957874e+01    1.185589e+00
  1.961049e+01    1.174963e+00
  1.964224e+01    1.138398e+00
  1.967399e+01    1.118346e+00
  1.970574e+01    1.139457e+00
  1.973749e+01    1.151621e+00
  1.976925e+01    1.130556e+00
  1.980100e+01    1.124401e+00
  1.983275e+01    1.136161e+00
  1.986450e+01    1.137059e+00
  1.989625e+01    1.132829e+00
  1.992800e+01    1.123786e+00
  1.995975e+01    1.148699e+00
  1.999150e+01    1.120490e+00
  2.002325e+01    1.109195e+00
  2.005501e+01    1.111024e+00
  2.008676e+01    1.129451e+00
  2.011851e+01    1.144543e+00
  2.015026e+01    1.111276e+00
  2.018201e+01    1.116750e+00
  2.021376e+01    1.131257e+00
  2.024551e+01    1.126597e+00
  2.027726e+01    1.109430e+00
  2.030902e+01    1.125373e+00
  2.034077e+01    1.089138e+00
  2.037252e+01    1.076303e+00
  2.040427e+01    1.097738e+00
  2.043602e+01    1.110767e+00
  2.046777e+01    1.100854e+00
  2.049952e+01    1.105216e+00
  2.053127e+01    1.098183e+00
  2.056302e+01    1.097294e+00
  2.059478e+01    1.102594e+00
  2.062653e+01    1.111436e+00
  2.065828e+01    1.074031e+00
  2.069003e+01    1.082326e+00
  2.072178e+01    1.082129e+00
  2.075353e+01    1.088319e+00
  2.078528e+01    1.076287e+00
  2.081703e+01    1.095642e+00
  2.084878e+01    1.106901e+00
  2.088054e+01    1.102795e+00
  2.091229e+01    1.096644e+00
  2.094404e+01    1.092088e+00
  2.097579e+01    1.087692e+00
  2.100754e+01    1.060671e+00
  2.103929e+01    1.095883e+00
  2.107104e+01    1.103871e+00
  2.110279e+01    1.094820e+00
  2.113455e+01    1.081320e+00
  2.116630e+01    1.095237e+00
  2.119805e+01    1.073443e+00
  2.122980e+01    1.093144e+00
  2.126155e+01    1.134987e+00
  2.129330e+01    1.140435e+00
  2.132505e+01    1.131509e+00
  2.135680e+01    1.163270e+00
  2.138855e+01    1.190428e+00
  2.142031e+01    1.188022e+00
  2.145206e+01    1.216526e+00
  2.148381e+01    1.261533e+00
  2.151556e+01    1.281708e+00
  2.154731e+01    1.354833e+00
  2.157906e+01    1.458844e+00
  2.161081e+01    1.574331e+00
  2.164256e+01    1.736452e+00
  2.167431e+01    1.974476e+00
  2.170607e+01    2.334636e+00
  2.173782e+01    2.910672e+00
  2.176957e+01    3.763303e+00
  2.180132e+01    4.963738e+00
  2.183307e+01    6.467134e+00
  2.186482e+01    8.138783e+00
  2.189657e+01    9.828478e+00
  2.192832e+01    1.070624e+01
  2.196007e+01    9.898607e+00
  2.199183e+01    7.765268e+00
  2.202358e+01    5.571673e+00
  2.205533e+01    4.008541e+00
  2.208708e+01    3.051411e+00
  2.211883e+01    2.447340e+00
  2.215058e+01    2.045197e+00
  2.218233e+01    1.769702e+00
  2.221408e+01    1.562266e+00
  2.224584e+01    1.436479e+00
  2.227759e+01    1.349415e+00
  2.230934e+01    1.269976e+00
  2.234109e+01    1.186274e+00
  2.237284e+01    1.156870e+00
  2.240459e+01    1.133069e+00
  2.243634e+01    1.112842e+00
  2.246809e+01    1.085891e+00
  2.249984e+01    1.049656e+00
  2.253160e+01    1.044293e+00
  2.256335e+01    1.008252e+00
  2.259510e+01    1.045843e+00
  2.262685e+01    1.009280e+00
  2.265860e+01    9.769287e-01
  2.269035e+01    9.572177e-01
  2.272210e+01    9.619640e-01
  2.275385e+01    9.638273e-01
  2.278560e+01    9.554424e-01
  2.281736e+01    9.380166e-01
  2.284911e+01    9.578395e-01
  2.288086e+01    9.359065e-01
  2.291261e+01    9.317276e-01
  2.294436e+01    9.384052e-01
  2.297611e+01    9.136442e-01
  2.300786e+01    9.196755e-01
  2.303961e+01    9.030121e-01
  2.307137e+01    8.919706e-01
  2.310312e+01    8.980125e-01
  2.313487e+01    9.011277e-01
  2.316662e+01    8.867858e-01
  2.319837e+01    9.000692e-01
  2.323012e+01    8.616747e-01
  2.326187e+01    8.605455e-01
  2.329362e+01    8.853803e-01
  2.332537e+01    8.739124e-01
  2.335713e+01    8.705536e-01
  2.338888e+01    8.695037e-01
  2.342063e+01    8.819389e-01
  2.345238e+01    8.534455e-01
  2.348413e+01    8.379313e-01
  2.351588e+01    8.384003e-01
  2.354763e+01    8.735104e-01
  2.357938e+01    8.677915e-01
  2.361113e+01    8.522599e-01
  2.364289e+01    8.719334e-01
  2.367464e+01    8.266857e-01
  2.370639e+01    8.385599e-01
  2.373814e+01    8.152642e-01
  2.376989e+01    8.268211e-01
  2.380164e+01    8.399694e-01
  2.383339e+01    8.226633e-01
  2.386514e+01    8.097718e-01
  2.389689e+01    8.153989e-01
  2.392865e+01    8.222444e-01
  2.396040e+01    8.062336e-01
  2.399215e+01    8.127359e-01
  2.402390e+01    8.008174e-01
  2.405565e+01    7.780582e-01
  2.408740e+01    8.028051e-01
  2.411915e+01    8.084307e-01
  2.415090e+01    7.740781e-01
  2.418266e+01    7.927381e-01
  2.421441e+01    7.637075e-01
  2.424616e+01    8.015960e-01
  2.427791e+01    7.777477e-01
  2.430966e+01    8.064758e-01
  2.434141e+01    8.136088e-01
  2.437316e+01    8.021272e-01
  2.440491e+01    7.916205e-01
  2.443666e+01    8.120824e-01
  2.446842e+01    7.973077e-01
  2.450017e+01    8.099564e-01
  2.453192e+01    7.718807e-01
  2.456367e+01    7.812279e-01
  2.459542e+01    8.159010e-01
  2.462717e+01    8.000255e-01
  2.465892e+01    8.160848e-01
  2.469067e+01    8.174185e-01
  2.472242e+01    8.106978e-01
  2.475418e+01    7.948489e-01
  2.478593e+01    7.943406e-01
  2.481768e+01    7.855881e-01
  2.484943e+01    7.892500e-01
  2.488118e+01    8.031082e-01
  2.491293e+01    8.040224e-01
  2.494468e+01    8.116874e-01
  2.497643e+01    8.359663e-01
  2.500819e+01    8.201687e-01
  2.503994e+01    8.288875e-01
  2.507169e+01    8.099015e-01
  2.510344e+01    8.241645e-01
  2.513519e+01    8.363259e-01
  2.516694e+01    8.378008e-01
  2.519869e+01    8.472063e-01
  2.523044e+01    8.518990e-01
  2.526219e+01    8.648146e-01
  2.529395e+01    8.667144e-01
  2.532570e+01    8.887565e-01
  2.535745e+01    8.869463e-01
  2.538920e+01    8.856959e-01
  2.542095e+01    9.192880e-01
  2.545270e+01    9.489046e-01
  2.548445e+01    9.578287e-01
  2.551620e+01    9.798500e-01
  2.554795e+01    1.010931e+00
  2.557971e+01    1.057904e+00
  2.561146e+01    1.101783e+00
  2.564321e+01    1.172808e+00
  2.567496e+01    1.275063e+00
  2.570671e+01    1.408469e+00
  2.573846e+01    1.594842e+00
  2.577021e+01    1.851305e+00
  2.580196e+01    2.281524e+00
  2.583371e+01    2.842391e+00
  2.586547e+01    3.759091e+00
  2.589722e+01    4.995513e+00
  2.592897e+01    6.505085e+00
  2.596072e+01    7.984706e+00
  2.599247e+01    8.788433e+00
  2.602422e+01    8.463566e+00
  2.605597e+01    6.922497e+00
  2.608772e+01    5.197036e+00
  2.611948e+01    3.702458e+00
  2.615123e+01    2.852640e+00
  2.618298e+01    2.184830e+00
  2.621473e+01    1.847786e+00
  2.624648e+01    1.601819e+00
  2.627823e+01    1.411949e+00
  2.630998e+01    1.297065e+00
  2.634173e+01    1.190622e+00
  2.637348e+01    1.126737e+00
  2.640524e+01    1.060274e+00
  2.643699e+01    1.036225e+00
  2.646874e+01    1.003594e+00
  2.650049e+01    1.009741e+00
  2.653224e+01    9.645870e-01
  2.656399e+01    9.550000e-01
  2.659574e+01    9.396687e-01
  2.662749e+01    9.331094e-01
  2.665924e+01    9.454960e-01
  2.669100e+01    9.147826e-01
  2.672275e+01    9.052730e-01
  2.675450e+01    9.133603e-01
  2.678625e+01    8.952741e-01
  2.681800e+01    8.893175e-01
  2.684975e+01    9.292346e-01
  2.688150e+01    9.554871e-01
  2.691325e+01    9.230807e-01
  2.694501e+01    9.426128e-01
  2.697676e+01    9.793532e-01
  2.700851e+01    1.007020e+00
  2.704026e+01    1.047733e+00
  2.707201e+01    1.142490e+00
  2.710376e+01    1.291952e+00
  2.713551e+01    1.468540e+00
  2.716726e+01    1.748852e+00
  2.719901e+01    2.110306e+00
  2.723077e+01    2.388987e+00
  2.726252e+01    2.545816e+00
  2.729427e+01    2.412297e+00
  2.732602e+01    2.035600e+00
  2.735777e+01    1.646607e+00
  2.738952e+01    1.421122e+00
  2.742127e+01    1.243689e+00
  2.745302e+01    1.109855e+00
  2.748477e+01    1.014472e+00
  2.751653e+01    9.792264e-01
  2.754828e+01    9.363846e-01
  2.758003e+01    9.115196e-01
  2.761178e+01    8.923537e-01
  2.764353e+01    8.475677e-01
  2.767528e+01    8.410006e-01
  2.770703e+01    8.326328e-01
  2.773878e+01    8.558467e-01
  2.777054e+01    8.183082e-01
  2.780229e+01    8.322747e-01
  2.783404e+01    7.987248e-01
  2.786579e+01    8.273857e-01
  2.789754e+01    8.161275e-01
  2.792929e+01    7.891296e-01
  2.796104e+01    8.029520e-01
  2.799279e+01    8.061120e-01
  2.802454e+01    7.920198e-01
  2.805630e+01    7.683865e-01
  2.808805e+01    7.963008e-01
  2.811980e+01    7.921574e-01
  2.815155e+01    7.747858e-01
  2.818330e+01    7.916443e-01
  2.821505e+01    7.890063e-01
  2.824680e+01    8.034021e-01
  2.827855e+01    7.890382e-01
  2.831030e+01    7.893406e-01
  2.834206e+01    7.843088e-01
  2.837381e+01    7.913998e-01
  2.840556e+01    7.833143e-01
  2.843731e+01    7.672756e-01
  2.846906e+01    7.826245e-01
  2.850081e+01    7.759920e-01
  2.853256e+01    7.617910e-01
  2.856431e+01    7.554722e-01
  2.859606e+01    7.536218e-01
  2.862782e+01    7.739212e-01
  2.865957e+01    7.676563e-01
  2.869132e+01    7.594376e-01
  2.872307e+01    7.720973e-01
  2.875482e+01    7.635775e-01
  2.878657e+01    7.715734e-01
  2.881832e+01    7.386633e-01
  2.885007e+01    7.653700e-01
  2.888183e+01    7.536751e-01
  2.891358e+01    7.424843e-01
  2.894533e+01    7.465164e-01
  2.897708e+01    7.461571e-01
  2.900883e+01    7.495452e-01
  2.904058e+01    7.415009e-01
  2.907233e+01    7.519486e-01
  2.910408e+01    7.354605e-01
  2.913583e+01    7.464793e-01
  2.916759e+01    7.407500e-01
  2.919934e+01    7.289142e-01
  2.923109e+01    7.304313e-01
  2.926284e+01    7.315231e-01
  2.929459e+01    7.372843e-01
  2.932634e+01    7.034060e-01
  2.935809e+01    7.479166e-01
  2.938984e+01    7.336404e-01
  2.942159e+01    7.192231e-01
  2.945335e+01    7.321962e-01
  2.948510e+01    7.204431e-01
  2.951685e+01    7.323091e-01
  2.954860e+01    7.463986e-01
  2.958035e+01    7.353551e-01
  2.961210e+01    7.375445e-01
  2.964385e+01    7.123823e-01
  2.967560e+01    7.251453e-01
  2.970736e+01    7.343656e-01
  2.973911e+01    7.422489e-01
  2.977086e+01    7.286749e-01
  2.980261e+01    7.248466e-01
  2.983436e+01    7.354895e-01
  2.986611e+01    7.136078e-01
  2.989786e+01    7.221999e-01
  2.992961e+01    7.151247e-01
  2.996136e+01    7.213365e-01
  2.999312e+01    7.382794e-01
  3.002487e+01    7.238814e-01
  3.005662e+01    7.419751e-01
  3.008837e+01    7.285346e-01
  3.012012e+01    7.306965e-01
  3.015187e+01    7.254032e-01
  3.018362e+01    7.102877e-01
  3.021537e+01    7.065231e-01
  3.024712e+01    7.238963e-01
  3.027888e+01    7.062818e-01
  3.031063e+01    7.363051e-01
  3.034238e+01    7.334694e-01
  3.037413e+01    7.043818e-01
  3.040588e+01    7.049599e-01
  3.043763e+01    7.294167e-01
  3.046938e+01    7.227125e-01
  3.050113e+01    7.321296e-01
  3.053288e+01    7.117674e-01
  3.056464e+01    7.333830e-01
  3.059639e+01    7.184177e-01
  3.062814e+01    7.287090e-01
  3.065989e+01    7.308452e-01
  3.069164e+01    7.364275e-01
  3.072339e+01    7.273000e-01
  3.075514e+01    7.157024e-01
  3.078689e+01    7.289708e-01
  3.081865e+01    7.047268e-01
  3.085040e+01    7.242563e-01
  3.088215e+01    7.353128e-01
  3.091390e+01    7.311672e-01
  3.094565e+01    7.278248e-01
  3.097740e+01    7.208796e-01
  3.100915e+01    7.209492e-01
  3.104090e+01    7.013983e-01
  3.107265e+01    7.143744e-01
  3.110441e+01    7.350348e-01
  3.113616e+01    7.386581e-01
  3.116791e+01    7.270413e-01
  3.119966e+01    7.265979e-01
  3.123141e+01    7.278799e-01
  3.126316e+01    7.305228e-01
  3.129491e+01    7.332222e-01
  3.132666e+01    7.339544e-01
  3.135841e+01    7.436475e-01
  3.139017e+01    7.486870e-01
  3.142192e+01    7.377776e-01
  3.145367e+01    7.530438e-01
  3.148542e+01    7.725143e-01
  3.151717e+01    7.814882e-01
  3.154892e+01    8.010288e-01
  3.158067e+01    8.095408e-01
  3.161242e+01    8.096191e-01
  3.164418e+01    8.338473e-01
  3.167593e+01    8.795279e-01
  3.170768e+01    8.987973e-01
  3.173943e+01    1.000428e+00
  3.177118e+01    1.062933e+00
  3.180293e+01    1.216163e+00
  3.183468e+01    1.447304e+00
  3.186643e+01    1.757371e+00
  3.189818e+01    2.091046e+00
  3.192994e+01    2.429568e+00
  3.196169e+01    2.550690e+00
  3.199344e+01    2.379109e+00
  3.202519e+01    1.958091e+00
  3.205694e+01    1.576514e+00
  3.208869e+01    1.290231e+00
  3.212044e+01    1.120314e+00
  3.215219e+01    9.847408e-01
  3.218394e+01    9.606782e-01
  3.221570e+01    8.787436e-01
  3.224745e+01    8.724243e-01
  3.227920e+01    8.223329e-01
  3.231095e+01    8.071335e-01
  3.234270e+01    7.835499e-01
  3.237445e+01    7.667244e-01
  3.240620e+01    7.528629e-01
  3.243795e+01    7.608436e-01
  3.246970e+01    7.558406e-01
  3.250146e+01    7.538796e-01
  3.253321e+01    7.017720e-01
  3.254908e+01    7.364316e-01