File: XRD/2024-07-27_002_Ru-CGO-ex_Activtation_ramp_000002_data_000079.dat
# == pyFAI calibration ==
# Distance Sample to Detector: 0.4 m
# PONI: 9.750e-02, 1.135e-01 m
# Rotations: -0.000175 0.000000 -0.000000 rad
#
# == Fit2d calibration ==
# Distance Sample-beamCenter: 400.000 mm
# Center: x=1514.000, y=1300.000 pix
# Tilt: 0.010 deg  TiltPlanRot: 0.010 deg
#
# Detector Detector	 Spline= None	 PixelSize= 7.500e-05, 7.500e-05 m
#    Detector has a mask: False
#    Detector has a dark current: False
#    detector has a flat field: False
#
# Wavelength: 6.888e-11 m
# Mask applied: user provided
# Dark current applied: False
# Flat field applied: False
# Polarization factor: 0.99
# Normalization factor: 1.0
# --> /home/myspot/data/2024_07_Rosario/Ru-CGO-ex/2024-07-27_002_Ru-CGO-ex_Activtation_ramp_000002_data_000079.dat
#       q_nm^-1             I
  2.003187e-02    0.000000e+00
  5.178302e-02    8.011755e-02
  8.353417e-02    1.967408e-01
  1.152853e-01    3.768301e-03
  1.470365e-01    1.322128e-02
  1.787876e-01    6.673298e-02
  2.105388e-01    1.789436e-02
  2.422899e-01    5.657835e-02
  2.740411e-01    4.575654e-02
  3.057922e-01    5.395014e-02
  3.375433e-01    6.235392e-02
  3.692945e-01    2.767986e-02
  4.010456e-01    3.354529e-02
  4.327968e-01    2.993504e-02
  4.645479e-01    4.975404e-02
  4.962991e-01    5.905646e-02
  5.280502e-01    1.143684e-02
  5.598014e-01    4.153084e-02
  5.915525e-01    3.617452e-02
  6.233037e-01    3.205939e-02
  6.550548e-01    2.674349e-02
  6.868060e-01    3.074068e-02
  7.185571e-01    3.544200e-02
  7.503083e-01    4.520755e-02
  7.820594e-01    8.498780e-02
  8.138106e-01    1.940125e-01
  8.455617e-01    3.120231e-01
  8.773129e-01    4.874081e-01
  9.090640e-01    5.188215e-01
  9.408152e-01    6.880432e-01
  9.725663e-01    8.075723e-01
  1.004317e+00    1.053643e+00
  1.036069e+00    1.205718e+00
  1.067820e+00    1.293934e+00
  1.099571e+00    1.292061e+00
  1.131322e+00    1.396134e+00
  1.163073e+00    1.464921e+00
  1.194824e+00    1.583181e+00
  1.226575e+00    2.008446e+00
  1.258327e+00    2.294190e+00
  1.290078e+00    2.579073e+00
  1.321829e+00    2.550720e+00
  1.353580e+00    2.516001e+00
  1.385331e+00    2.635820e+00
  1.417082e+00    2.635948e+00
  1.448834e+00    2.820116e+00
  1.480585e+00    2.960926e+00
  1.512336e+00    2.860147e+00
  1.544087e+00    3.062085e+00
  1.575838e+00    3.013281e+00
  1.607589e+00    3.073320e+00
  1.639340e+00    3.053269e+00
  1.671092e+00    2.841386e+00
  1.702843e+00    2.744853e+00
  1.734594e+00    2.823443e+00
  1.766345e+00    2.702920e+00
  1.798096e+00    2.784428e+00
  1.829847e+00    2.833108e+00
  1.861598e+00    2.783312e+00
  1.893350e+00    2.771974e+00
  1.925101e+00    2.848036e+00
  1.956852e+00    2.762653e+00
  1.988603e+00    2.810463e+00
  2.020354e+00    2.747370e+00
  2.052105e+00    2.606460e+00
  2.083856e+00    2.756285e+00
  2.115608e+00    2.750497e+00
  2.147359e+00    2.741096e+00
  2.179110e+00    2.722517e+00
  2.210861e+00    2.828883e+00
  2.242612e+00    2.742970e+00
  2.274363e+00    2.724638e+00
  2.306115e+00    2.698808e+00
  2.337866e+00    2.831713e+00
  2.369617e+00    2.657797e+00
  2.401368e+00    2.763527e+00
  2.433119e+00    2.846116e+00
  2.464870e+00    2.753178e+00
  2.496621e+00    2.846642e+00
  2.528373e+00    2.828723e+00
  2.560124e+00    2.905227e+00
  2.591875e+00    2.831773e+00
  2.623626e+00    2.853787e+00
  2.655377e+00    2.757460e+00
  2.687128e+00    2.803732e+00
  2.718879e+00    2.796099e+00
  2.750631e+00    2.764148e+00
  2.782382e+00    2.791910e+00
  2.814133e+00    2.729553e+00
  2.845884e+00    2.890414e+00
  2.877635e+00    2.823611e+00
  2.909386e+00    2.806662e+00
  2.941137e+00    2.832422e+00
  2.972889e+00    2.857248e+00
  3.004640e+00    2.814405e+00
  3.036391e+00    2.905820e+00
  3.068142e+00    2.938977e+00
  3.099893e+00    2.990915e+00
  3.131644e+00    2.860124e+00
  3.163395e+00    2.990518e+00
  3.195147e+00    2.870186e+00
  3.226898e+00    2.849425e+00
  3.258649e+00    3.034972e+00
  3.290400e+00    2.901739e+00
  3.322151e+00    2.906036e+00
  3.353902e+00    2.981086e+00
  3.385654e+00    2.983431e+00
  3.417405e+00    2.882468e+00
  3.449156e+00    2.856701e+00
  3.480907e+00    2.990746e+00
  3.512658e+00    2.910780e+00
  3.544409e+00    2.921217e+00
  3.576160e+00    3.020778e+00
  3.607912e+00    2.997154e+00
  3.639663e+00    2.919058e+00
  3.671414e+00    2.953725e+00
  3.703165e+00    2.989958e+00
  3.734916e+00    2.919569e+00
  3.766667e+00    3.029961e+00
  3.798418e+00    2.893847e+00
  3.830170e+00    3.014586e+00
  3.861921e+00    2.999012e+00
  3.893672e+00    2.912483e+00
  3.925423e+00    3.017697e+00
  3.957174e+00    2.932508e+00
  3.988925e+00    2.958430e+00
  4.020676e+00    3.015886e+00
  4.052428e+00    2.987408e+00
  4.084179e+00    3.054625e+00
  4.115930e+00    2.981098e+00
  4.147681e+00    3.141629e+00
  4.179432e+00    3.030965e+00
  4.211183e+00    3.073605e+00
  4.242935e+00    2.990374e+00
  4.274686e+00    2.998120e+00
  4.306437e+00    3.127836e+00
  4.338188e+00    3.106182e+00
  4.369939e+00    3.099529e+00
  4.401690e+00    3.013967e+00
  4.433441e+00    3.066922e+00
  4.465193e+00    2.985843e+00
  4.496944e+00    3.048240e+00
  4.528695e+00    3.005006e+00
  4.560446e+00    3.085085e+00
  4.592197e+00    3.081763e+00
  4.623948e+00    3.019253e+00
  4.655699e+00    3.053745e+00
  4.687451e+00    3.094322e+00
  4.719202e+00    2.996752e+00
  4.750953e+00    3.095344e+00
  4.782704e+00    3.047763e+00
  4.814455e+00    3.075131e+00
  4.846206e+00    3.091184e+00
  4.877957e+00    3.157978e+00
  4.909709e+00    3.157186e+00
  4.941460e+00    3.105572e+00
  4.973211e+00    3.121306e+00
  5.004962e+00    3.124719e+00
  5.036713e+00    3.137693e+00
  5.068464e+00    3.096547e+00
  5.100216e+00    3.096270e+00
  5.131967e+00    3.073464e+00
  5.163718e+00    3.173500e+00
  5.195469e+00    3.091092e+00
  5.227220e+00    3.125950e+00
  5.258971e+00    3.101635e+00
  5.290722e+00    3.075524e+00
  5.322474e+00    3.139523e+00
  5.354225e+00    3.067655e+00
  5.385976e+00    3.092695e+00
  5.417727e+00    3.133764e+00
  5.449478e+00    3.078102e+00
  5.481229e+00    2.980932e+00
  5.512980e+00    3.053216e+00
  5.544732e+00    3.005685e+00
  5.576483e+00    3.072097e+00
  5.608234e+00    2.978575e+00
  5.639985e+00    3.053271e+00
  5.671736e+00    3.061512e+00
  5.703487e+00    3.133264e+00
  5.735238e+00    2.930108e+00
  5.766990e+00    2.896815e+00
  5.798741e+00    3.032411e+00
  5.830492e+00    3.067299e+00
  5.862243e+00    2.963089e+00
  5.893994e+00    3.073668e+00
  5.925745e+00    2.914980e+00
  5.957497e+00    2.961835e+00
  5.989248e+00    2.977331e+00
  6.020999e+00    2.970705e+00
  6.052750e+00    2.991758e+00
  6.084501e+00    3.047840e+00
  6.116252e+00    3.059071e+00
  6.148003e+00    3.091266e+00
  6.179755e+00    3.019795e+00
  6.211506e+00    3.073079e+00
  6.243257e+00    3.064030e+00
  6.275008e+00    2.990085e+00
  6.306759e+00    2.929457e+00
  6.338510e+00    3.001535e+00
  6.370261e+00    3.038165e+00
  6.402013e+00    2.970863e+00
  6.433764e+00    2.978901e+00
  6.465515e+00    3.018066e+00
  6.497266e+00    3.034906e+00
  6.529017e+00    3.019824e+00
  6.560768e+00    3.022434e+00
  6.592519e+00    2.982064e+00
  6.624271e+00    2.993843e+00
  6.656022e+00    3.046077e+00
  6.687773e+00    3.003729e+00
  6.719524e+00    2.933024e+00
  6.751275e+00    3.042351e+00
  6.783026e+00    2.991381e+00
  6.814777e+00    3.061434e+00
  6.846529e+00    3.004292e+00
  6.878280e+00    2.962882e+00
  6.910031e+00    2.963866e+00
  6.941782e+00    3.049560e+00
  6.973533e+00    2.941727e+00
  7.005284e+00    2.977645e+00
  7.037036e+00    3.012694e+00
  7.068787e+00    3.004937e+00
  7.100538e+00    3.036517e+00
  7.132289e+00    2.918558e+00
  7.164040e+00    2.966993e+00
  7.195791e+00    2.956978e+00
  7.227542e+00    2.932997e+00
  7.259294e+00    3.014247e+00
  7.291045e+00    2.986486e+00
  7.322796e+00    2.980411e+00
  7.354547e+00    2.946429e+00
  7.386298e+00    2.955613e+00
  7.418049e+00    3.002748e+00
  7.449800e+00    3.034049e+00
  7.481552e+00    2.916510e+00
  7.513303e+00    3.055580e+00
  7.545054e+00    2.975811e+00
  7.576805e+00    2.912238e+00
  7.608556e+00    2.983358e+00
  7.640307e+00    2.939048e+00
  7.672058e+00    2.953213e+00
  7.703810e+00    2.921299e+00
  7.735561e+00    2.913806e+00
  7.767312e+00    2.941189e+00
  7.799063e+00    2.863320e+00
  7.830814e+00    2.903542e+00
  7.862565e+00    2.933601e+00
  7.894317e+00    2.856221e+00
  7.926068e+00    3.006740e+00
  7.957819e+00    2.934354e+00
  7.989570e+00    2.910059e+00
  8.021321e+00    2.963369e+00
  8.053072e+00    2.875705e+00
  8.084823e+00    2.896668e+00
  8.116575e+00    2.848980e+00
  8.148326e+00    2.953950e+00
  8.180077e+00    2.963943e+00
  8.211828e+00    2.953477e+00
  8.243579e+00    2.915773e+00
  8.275330e+00    2.928973e+00
  8.307081e+00    2.921873e+00
  8.338833e+00    2.824159e+00
  8.370584e+00    2.887305e+00
  8.402335e+00    2.883734e+00
  8.434086e+00    2.786472e+00
  8.465837e+00    2.840755e+00
  8.497588e+00    2.876157e+00
  8.529339e+00    2.823065e+00
  8.561091e+00    2.885955e+00
  8.592842e+00    2.831423e+00
  8.624593e+00    2.865734e+00
  8.656344e+00    2.878919e+00
  8.688095e+00    2.873561e+00
  8.719846e+00    2.853609e+00
  8.751598e+00    2.807488e+00
  8.783349e+00    2.783820e+00
  8.815100e+00    2.869990e+00
  8.846851e+00    2.816481e+00
  8.878602e+00    2.856094e+00
  8.910353e+00    2.799103e+00
  8.942104e+00    2.826766e+00
  8.973856e+00    2.835599e+00
  9.005607e+00    2.820641e+00
  9.037358e+00    2.784903e+00
  9.069109e+00    2.820822e+00
  9.100860e+00    2.801893e+00
  9.132611e+00    2.835279e+00
  9.164362e+00    2.766349e+00
  9.196114e+00    2.696776e+00
  9.227865e+00    2.777734e+00
  9.259616e+00    2.818001e+00
  9.291367e+00    2.799551e+00
  9.323118e+00    2.746069e+00
  9.354869e+00    2.761823e+00
  9.386620e+00    2.735032e+00
  9.418372e+00    2.743116e+00
  9.450123e+00    2.755721e+00
  9.481874e+00    2.767792e+00
  9.513625e+00    2.769825e+00
  9.545376e+00    2.700350e+00
  9.577127e+00    2.747156e+00
  9.608878e+00    2.705101e+00
  9.640630e+00    2.708487e+00
  9.672381e+00    2.716284e+00
  9.704132e+00    2.771240e+00
  9.735883e+00    2.679673e+00
  9.767634e+00    2.749925e+00
  9.799385e+00    2.690066e+00
  9.831137e+00    2.741809e+00
  9.862888e+00    2.671032e+00
  9.894639e+00    2.650669e+00
  9.926390e+00    2.660832e+00
  9.958141e+00    2.667559e+00
  9.989892e+00    2.618420e+00
  1.002164e+01    2.680618e+00
  1.005339e+01    2.639330e+00
  1.008515e+01    2.608874e+00
  1.011690e+01    2.628573e+00
  1.014865e+01    2.678761e+00
  1.018040e+01    2.587492e+00
  1.021215e+01    2.664981e+00
  1.024390e+01    2.626576e+00
  1.027565e+01    2.648249e+00
  1.030740e+01    2.580172e+00
  1.033915e+01    2.580564e+00
  1.037091e+01    2.626920e+00
  1.040266e+01    2.628639e+00
  1.043441e+01    2.582220e+00
  1.046616e+01    2.547493e+00
  1.049791e+01    2.591681e+00
  1.052966e+01    2.611701e+00
  1.056141e+01    2.546266e+00
  1.059316e+01    2.536125e+00
  1.062492e+01    2.543396e+00
  1.065667e+01    2.508119e+00
  1.068842e+01    2.543643e+00
  1.072017e+01    2.471434e+00
  1.075192e+01    2.535502e+00
  1.078367e+01    2.475920e+00
  1.081542e+01    2.565748e+00
  1.084717e+01    2.512012e+00
  1.087892e+01    2.523610e+00
  1.091068e+01    2.549271e+00
  1.094243e+01    2.537703e+00
  1.097418e+01    2.476424e+00
  1.100593e+01    2.454522e+00
  1.103768e+01    2.478274e+00
  1.106943e+01    2.440022e+00
  1.110118e+01    2.444535e+00
  1.113293e+01    2.481461e+00
  1.116468e+01    2.471387e+00
  1.119644e+01    2.485563e+00
  1.122819e+01    2.491111e+00
  1.125994e+01    2.445395e+00
  1.129169e+01    2.412749e+00
  1.132344e+01    2.422138e+00
  1.135519e+01    2.413784e+00
  1.138694e+01    2.386432e+00
  1.141869e+01    2.396705e+00
  1.145045e+01    2.378138e+00
  1.148220e+01    2.358221e+00
  1.151395e+01    2.367275e+00
  1.154570e+01    2.409683e+00
  1.157745e+01    2.365322e+00
  1.160920e+01    2.367565e+00
  1.164095e+01    2.356425e+00
  1.167270e+01    2.360595e+00
  1.170445e+01    2.348716e+00
  1.173621e+01    2.385036e+00
  1.176796e+01    2.320160e+00
  1.179971e+01    2.377863e+00
  1.183146e+01    2.357827e+00
  1.186321e+01    2.354023e+00
  1.189496e+01    2.349884e+00
  1.192671e+01    2.334808e+00
  1.195846e+01    2.323353e+00
  1.199021e+01    2.310534e+00
  1.202197e+01    2.295135e+00
  1.205372e+01    2.320240e+00
  1.208547e+01    2.355764e+00
  1.211722e+01    2.330904e+00
  1.214897e+01    2.329823e+00
  1.218072e+01    2.332653e+00
  1.221247e+01    2.346172e+00
  1.224422e+01    2.364954e+00
  1.227597e+01    2.295255e+00
  1.230773e+01    2.243975e+00
  1.233948e+01    2.295161e+00
  1.237123e+01    2.346260e+00
  1.240298e+01    2.337463e+00
  1.243473e+01    2.319041e+00
  1.246648e+01    2.316692e+00
  1.249823e+01    2.348262e+00
  1.252998e+01    2.343939e+00
  1.256174e+01    2.373280e+00
  1.259349e+01    2.388435e+00
  1.262524e+01    2.397955e+00
  1.265699e+01    2.432598e+00
  1.268874e+01    2.438061e+00
  1.272049e+01    2.480619e+00
  1.275224e+01    2.604290e+00
  1.278399e+01    2.591901e+00
  1.281574e+01    2.708015e+00
  1.284750e+01    2.816260e+00
  1.287925e+01    3.055634e+00
  1.291100e+01    3.291158e+00
  1.294275e+01    3.666225e+00
  1.297450e+01    4.293581e+00
  1.300625e+01    5.300813e+00
  1.303800e+01    6.833658e+00
  1.306975e+01    9.299343e+00
  1.310150e+01    1.228542e+01
  1.313326e+01    1.493447e+01
  1.316501e+01    1.737325e+01
  1.319676e+01    1.832215e+01
  1.322851e+01    1.613989e+01
  1.326026e+01    1.177483e+01
  1.329201e+01    8.275383e+00
  1.332376e+01    6.162500e+00
  1.335551e+01    4.851339e+00
  1.338727e+01    4.029649e+00
  1.341902e+01    3.470015e+00
  1.345077e+01    3.170482e+00
  1.348252e+01    2.888848e+00
  1.351427e+01    2.759449e+00
  1.354602e+01    2.567478e+00
  1.357777e+01    2.461805e+00
  1.360952e+01    2.396168e+00
  1.364127e+01    2.356379e+00
  1.367303e+01    2.335653e+00
  1.370478e+01    2.282060e+00
  1.373653e+01    2.222550e+00
  1.376828e+01    2.253203e+00
  1.380003e+01    2.137293e+00
  1.383178e+01    2.128320e+00
  1.386353e+01    2.118452e+00
  1.389528e+01    2.118567e+00
  1.392703e+01    2.082840e+00
  1.395879e+01    2.077319e+00
  1.399054e+01    2.076110e+00
  1.402229e+01    1.997125e+00
  1.405404e+01    2.053865e+00
  1.408579e+01    2.010915e+00
  1.411754e+01    2.006542e+00
  1.414929e+01    2.037081e+00
  1.418104e+01    1.979517e+00
  1.421279e+01    1.993327e+00
  1.424455e+01    2.031581e+00
  1.427630e+01    1.952959e+00
  1.430805e+01    1.958199e+00
  1.433980e+01    1.930109e+00
  1.437155e+01    1.964055e+00
  1.440330e+01    1.915846e+00
  1.443505e+01    1.940705e+00
  1.446680e+01    1.918232e+00
  1.449856e+01    1.940939e+00
  1.453031e+01    1.911795e+00
  1.456206e+01    1.915625e+00
  1.459381e+01    1.910633e+00
  1.462556e+01    1.914372e+00
  1.465731e+01    1.897204e+00
  1.468906e+01    1.932754e+00
  1.472081e+01    1.861001e+00
  1.475256e+01    1.927297e+00
  1.478432e+01    1.921720e+00
  1.481607e+01    1.947850e+00
  1.484782e+01    1.932137e+00
  1.487957e+01    1.950166e+00
  1.491132e+01    1.931397e+00
  1.494307e+01    1.949512e+00
  1.497482e+01    2.020087e+00
  1.500657e+01    2.092048e+00
  1.503832e+01    2.245562e+00
  1.507008e+01    2.482779e+00
  1.510183e+01    2.788019e+00
  1.513358e+01    3.357454e+00
  1.516533e+01    4.069149e+00
  1.519708e+01    4.860336e+00
  1.522883e+01    5.521526e+00
  1.526058e+01    6.066746e+00
  1.529233e+01    6.185065e+00
  1.532409e+01    5.512442e+00
  1.535584e+01    4.346054e+00
  1.538759e+01    3.441645e+00
  1.541934e+01    2.796965e+00
  1.545109e+01    2.446509e+00
  1.548284e+01    2.256670e+00
  1.551459e+01    2.084192e+00
  1.554634e+01    2.000520e+00
  1.557809e+01    1.918153e+00
  1.560985e+01    1.853675e+00
  1.564160e+01    1.767664e+00
  1.567335e+01    1.820581e+00
  1.570510e+01    1.762693e+00
  1.573685e+01    1.689880e+00
  1.576860e+01    1.664250e+00
  1.580035e+01    1.676693e+00
  1.583210e+01    1.677308e+00
  1.586385e+01    1.651276e+00
  1.589561e+01    1.653846e+00
  1.592736e+01    1.632655e+00
  1.595911e+01    1.601067e+00
  1.599086e+01    1.630379e+00
  1.602261e+01    1.606645e+00
  1.605436e+01    1.616423e+00
  1.608611e+01    1.585075e+00
  1.611786e+01    1.572801e+00
  1.614961e+01    1.586654e+00
  1.618137e+01    1.565601e+00
  1.621312e+01    1.571372e+00
  1.624487e+01    1.543744e+00
  1.627662e+01    1.558498e+00
  1.630837e+01    1.532394e+00
  1.634012e+01    1.523310e+00
  1.637187e+01    1.537862e+00
  1.640362e+01    1.525367e+00
  1.643538e+01    1.516234e+00
  1.646713e+01    1.533797e+00
  1.649888e+01    1.513238e+00
  1.653063e+01    1.480247e+00
  1.656238e+01    1.448041e+00
  1.659413e+01    1.484772e+00
  1.662588e+01    1.487499e+00
  1.665763e+01    1.468339e+00
  1.668938e+01    1.464116e+00
  1.672114e+01    1.471900e+00
  1.675289e+01    1.481963e+00
  1.678464e+01    1.465644e+00
  1.681639e+01    1.434155e+00
  1.684814e+01    1.445691e+00
  1.687989e+01    1.465337e+00
  1.691164e+01    1.428500e+00
  1.694339e+01    1.473975e+00
  1.697514e+01    1.446451e+00
  1.700690e+01    1.398879e+00
  1.703865e+01    1.420179e+00
  1.707040e+01    1.434982e+00
  1.710215e+01    1.427904e+00
  1.713390e+01    1.384090e+00
  1.716565e+01    1.393588e+00
  1.719740e+01    1.393997e+00
  1.722915e+01    1.384769e+00
  1.726091e+01    1.360087e+00
  1.729266e+01    1.404932e+00
  1.732441e+01    1.381867e+00
  1.735616e+01    1.381966e+00
  1.738791e+01    1.366753e+00
  1.741966e+01    1.360742e+00
  1.745141e+01    1.357640e+00
  1.748316e+01    1.339928e+00
  1.751491e+01    1.383382e+00
  1.754667e+01    1.368285e+00
  1.757842e+01    1.343142e+00
  1.761017e+01    1.369004e+00
  1.764192e+01    1.326011e+00
  1.767367e+01    1.336093e+00
  1.770542e+01    1.360292e+00
  1.773717e+01    1.356900e+00
  1.776892e+01    1.336316e+00
  1.780067e+01    1.333765e+00
  1.783243e+01    1.319184e+00
  1.786418e+01    1.303805e+00
  1.789593e+01    1.318127e+00
  1.792768e+01    1.326793e+00
  1.795943e+01    1.320731e+00
  1.799118e+01    1.290643e+00
  1.802293e+01    1.322979e+00
  1.805468e+01    1.291869e+00
  1.808643e+01    1.300758e+00
  1.811819e+01    1.282860e+00
  1.814994e+01    1.273795e+00
  1.818169e+01    1.273934e+00
  1.821344e+01    1.276414e+00
  1.824519e+01    1.280963e+00
  1.827694e+01    1.263654e+00
  1.830869e+01    1.254780e+00
  1.834044e+01    1.270096e+00
  1.837220e+01    1.266735e+00
  1.840395e+01    1.256309e+00
  1.843570e+01    1.255047e+00
  1.846745e+01    1.244653e+00
  1.849920e+01    1.235968e+00
  1.853095e+01    1.223439e+00
  1.856270e+01    1.232560e+00
  1.859445e+01    1.238754e+00
  1.862620e+01    1.253107e+00
  1.865796e+01    1.230279e+00
  1.868971e+01    1.230315e+00
  1.872146e+01    1.216970e+00
  1.875321e+01    1.221203e+00
  1.878496e+01    1.223258e+00
  1.881671e+01    1.220992e+00
  1.884846e+01    1.207280e+00
  1.888021e+01    1.227855e+00
  1.891196e+01    1.239260e+00
  1.894372e+01    1.218510e+00
  1.897547e+01    1.170593e+00
  1.900722e+01    1.194779e+00
  1.903897e+01    1.180552e+00
  1.907072e+01    1.186356e+00
  1.910247e+01    1.174624e+00
  1.913422e+01    1.177712e+00
  1.916597e+01    1.190914e+00
  1.919773e+01    1.172047e+00
  1.922948e+01    1.167028e+00
  1.926123e+01    1.173545e+00
  1.929298e+01    1.160741e+00
  1.932473e+01    1.154051e+00
  1.935648e+01    1.137447e+00
  1.938823e+01    1.213090e+00
  1.941998e+01    1.188050e+00
  1.945173e+01    1.137661e+00
  1.948349e+01    1.153519e+00
  1.951524e+01    1.162299e+00
  1.954699e+01    1.159304e+00
  1.957874e+01    1.162069e+00
  1.961049e+01    1.168737e+00
  1.964224e+01    1.156370e+00
  1.967399e+01    1.134044e+00
  1.970574e+01    1.142922e+00
  1.973749e+01    1.128174e+00
  1.976925e+01    1.147930e+00
  1.980100e+01    1.126815e+00
  1.983275e+01    1.128646e+00
  1.986450e+01    1.147576e+00
  1.989625e+01    1.127861e+00
  1.992800e+01    1.133181e+00
  1.995975e+01    1.135477e+00
  1.999150e+01    1.117372e+00
  2.002325e+01    1.131999e+00
  2.005501e+01    1.125703e+00
  2.008676e+01    1.107316e+00
  2.011851e+01    1.142571e+00
  2.015026e+01    1.110529e+00
  2.018201e+01    1.098851e+00
  2.021376e+01    1.108715e+00
  2.024551e+01    1.126011e+00
  2.027726e+01    1.091983e+00
  2.030902e+01    1.094647e+00
  2.034077e+01    1.077799e+00
  2.037252e+01    1.098535e+00
  2.040427e+01    1.078571e+00
  2.043602e+01    1.107935e+00
  2.046777e+01    1.059062e+00
  2.049952e+01    1.093952e+00
  2.053127e+01    1.095412e+00
  2.056302e+01    1.065609e+00
  2.059478e+01    1.077367e+00
  2.062653e+01    1.106584e+00
  2.065828e+01    1.102537e+00
  2.069003e+01    1.070088e+00
  2.072178e+01    1.079746e+00
  2.075353e+01    1.060941e+00
  2.078528e+01    1.103229e+00
  2.081703e+01    1.080535e+00
  2.084878e+01    1.081895e+00
  2.088054e+01    1.083121e+00
  2.091229e+01    1.088192e+00
  2.094404e+01    1.095943e+00
  2.097579e+01    1.075124e+00
  2.100754e+01    1.067953e+00
  2.103929e+01    1.044246e+00
  2.107104e+01    1.120174e+00
  2.110279e+01    1.069982e+00
  2.113455e+01    1.077236e+00
  2.116630e+01    1.101696e+00
  2.119805e+01    1.080760e+00
  2.122980e+01    1.077627e+00
  2.126155e+01    1.109990e+00
  2.129330e+01    1.126242e+00
  2.132505e+01    1.145887e+00
  2.135680e+01    1.141525e+00
  2.138855e+01    1.161949e+00
  2.142031e+01    1.198489e+00
  2.145206e+01    1.218577e+00
  2.148381e+01    1.265031e+00
  2.151556e+01    1.289864e+00
  2.154731e+01    1.364228e+00
  2.157906e+01    1.454903e+00
  2.161081e+01    1.568452e+00
  2.164256e+01    1.716159e+00
  2.167431e+01    2.001707e+00
  2.170607e+01    2.398589e+00
  2.173782e+01    2.989924e+00
  2.176957e+01    3.970867e+00
  2.180132e+01    5.181434e+00
  2.183307e+01    6.705354e+00
  2.186482e+01    8.272294e+00
  2.189657e+01    9.737909e+00
  2.192832e+01    1.009029e+01
  2.196007e+01    8.867176e+00
  2.199183e+01    6.693700e+00
  2.202358e+01    4.823304e+00
  2.205533e+01    3.502585e+00
  2.208708e+01    2.758728e+00
  2.211883e+01    2.199038e+00
  2.215058e+01    1.873111e+00
  2.218233e+01    1.631360e+00
  2.221408e+01    1.517125e+00
  2.224584e+01    1.362468e+00
  2.227759e+01    1.287071e+00
  2.230934e+01    1.234656e+00
  2.234109e+01    1.170843e+00
  2.237284e+01    1.154702e+00
  2.240459e+01    1.099232e+00
  2.243634e+01    1.097410e+00
  2.246809e+01    1.061885e+00
  2.249984e+01    1.040661e+00
  2.253160e+01    1.021402e+00
  2.256335e+01    1.020652e+00
  2.259510e+01    9.929532e-01
  2.262685e+01    9.665629e-01
  2.265860e+01    9.782490e-01
  2.269035e+01    9.494755e-01
  2.272210e+01    9.433619e-01
  2.275385e+01    9.406587e-01
  2.278560e+01    9.468903e-01
  2.281736e+01    9.303455e-01
  2.284911e+01    9.272224e-01
  2.288086e+01    9.225993e-01
  2.291261e+01    8.966656e-01
  2.294436e+01    9.106752e-01
  2.297611e+01    9.017226e-01
  2.300786e+01    8.773562e-01
  2.303961e+01    8.779718e-01
  2.307137e+01    9.211903e-01
  2.310312e+01    8.881782e-01
  2.313487e+01    8.937909e-01
  2.316662e+01    8.954553e-01
  2.319837e+01    8.735648e-01
  2.323012e+01    8.702145e-01
  2.326187e+01    8.644220e-01
  2.329362e+01    8.758730e-01
  2.332537e+01    8.610483e-01
  2.335713e+01    8.664036e-01
  2.338888e+01    8.650538e-01
  2.342063e+01    8.572131e-01
  2.345238e+01    8.705578e-01
  2.348413e+01    8.562177e-01
  2.351588e+01    8.583506e-01
  2.354763e+01    8.578762e-01
  2.357938e+01    8.338043e-01
  2.361113e+01    8.525837e-01
  2.364289e+01    8.549150e-01
  2.367464e+01    8.399574e-01
  2.370639e+01    8.226708e-01
  2.373814e+01    8.269309e-01
  2.376989e+01    8.161595e-01
  2.380164e+01    7.995298e-01
  2.383339e+01    7.997380e-01
  2.386514e+01    8.068672e-01
  2.389689e+01    8.002781e-01
  2.392865e+01    8.191610e-01
  2.396040e+01    7.964913e-01
  2.399215e+01    7.928613e-01
  2.402390e+01    7.882028e-01
  2.405565e+01    7.786763e-01
  2.408740e+01    7.734964e-01
  2.411915e+01    7.950665e-01
  2.415090e+01    7.883394e-01
  2.418266e+01    7.676892e-01
  2.421441e+01    7.636520e-01
  2.424616e+01    7.724068e-01
  2.427791e+01    7.821932e-01
  2.430966e+01    7.780091e-01
  2.434141e+01    7.856938e-01
  2.437316e+01    7.797188e-01
  2.440491e+01    7.838006e-01
  2.443666e+01    8.024374e-01
  2.446842e+01    7.946097e-01
  2.450017e+01    7.961108e-01
  2.453192e+01    7.708786e-01
  2.456367e+01    7.828870e-01
  2.459542e+01    7.857812e-01
  2.462717e+01    7.874658e-01
  2.465892e+01    7.907141e-01
  2.469067e+01    8.062137e-01
  2.472242e+01    7.672387e-01
  2.475418e+01    7.987879e-01
  2.478593e+01    7.671595e-01
  2.481768e+01    7.978984e-01
  2.484943e+01    7.836190e-01
  2.488118e+01    7.937532e-01
  2.491293e+01    7.617164e-01
  2.494468e+01    7.853780e-01
  2.497643e+01    8.069535e-01
  2.500819e+01    8.063291e-01
  2.503994e+01    7.964677e-01
  2.507169e+01    8.154712e-01
  2.510344e+01    8.226832e-01
  2.513519e+01    8.107879e-01
  2.516694e+01    8.228734e-01
  2.519869e+01    8.281659e-01
  2.523044e+01    8.293075e-01
  2.526219e+01    8.465413e-01
  2.529395e+01    8.555501e-01
  2.532570e+01    8.704273e-01
  2.535745e+01    8.862019e-01
  2.538920e+01    8.996093e-01
  2.542095e+01    9.217871e-01
  2.545270e+01    9.378505e-01
  2.548445e+01    9.413326e-01
  2.551620e+01    9.709828e-01
  2.554795e+01    1.001274e+00
  2.557971e+01    1.026357e+00
  2.561146e+01    1.132465e+00
  2.564321e+01    1.179214e+00
  2.567496e+01    1.277890e+00
  2.570671e+01    1.438977e+00
  2.573846e+01    1.628944e+00
  2.577021e+01    1.928638e+00
  2.580196e+01    2.374029e+00
  2.583371e+01    3.106461e+00
  2.586547e+01    3.963229e+00
  2.589722e+01    5.276188e+00
  2.592897e+01    6.699705e+00
  2.596072e+01    8.002790e+00
  2.599247e+01    8.349674e+00
  2.602422e+01    7.581463e+00
  2.605597e+01    5.937809e+00
  2.608772e+01    4.370697e+00
  2.611948e+01    3.196246e+00
  2.615123e+01    2.502559e+00
  2.618298e+01    2.026250e+00
  2.621473e+01    1.666726e+00
  2.624648e+01    1.491857e+00
  2.627823e+01    1.313184e+00
  2.630998e+01    1.199014e+00
  2.634173e+01    1.118088e+00
  2.637348e+01    1.085043e+00
  2.640524e+01    1.031108e+00
  2.643699e+01    9.974797e-01
  2.646874e+01    9.854457e-01
  2.650049e+01    9.641493e-01
  2.653224e+01    9.539486e-01
  2.656399e+01    9.333956e-01
  2.659574e+01    9.131141e-01
  2.662749e+01    9.062321e-01
  2.665924e+01    9.290969e-01
  2.669100e+01    8.997272e-01
  2.672275e+01    9.114559e-01
  2.675450e+01    8.907704e-01
  2.678625e+01    9.072047e-01
  2.681800e+01    9.349148e-01
  2.684975e+01    8.916827e-01
  2.688150e+01    8.918825e-01
  2.691325e+01    9.356275e-01
  2.694501e+01    9.495720e-01
  2.697676e+01    9.918779e-01
  2.700851e+01    1.026792e+00
  2.704026e+01    1.088906e+00
  2.707201e+01    1.174722e+00
  2.710376e+01    1.314522e+00
  2.713551e+01    1.510487e+00
  2.716726e+01    1.795762e+00
  2.719901e+01    2.137311e+00
  2.723077e+01    2.358990e+00
  2.726252e+01    2.439151e+00
  2.729427e+01    2.175895e+00
  2.732602e+01    1.823599e+00
  2.735777e+01    1.510900e+00
  2.738952e+01    1.303420e+00
  2.742127e+01    1.126330e+00
  2.745302e+01    1.065114e+00
  2.748477e+01    1.008784e+00
  2.751653e+01    9.545706e-01
  2.754828e+01    9.014245e-01
  2.758003e+01    8.729646e-01
  2.761178e+01    8.773715e-01
  2.764353e+01    8.485062e-01
  2.767528e+01    8.478521e-01
  2.770703e+01    8.341749e-01
  2.773878e+01    8.361878e-01
  2.777054e+01    8.136369e-01
  2.780229e+01    8.098204e-01
  2.783404e+01    8.055006e-01
  2.786579e+01    7.991470e-01
  2.789754e+01    7.939656e-01
  2.792929e+01    7.908446e-01
  2.796104e+01    8.071262e-01
  2.799279e+01    8.077810e-01
  2.802454e+01    7.774864e-01
  2.805630e+01    7.953538e-01
  2.808805e+01    7.823529e-01
  2.811980e+01    7.853996e-01
  2.815155e+01    7.822930e-01
  2.818330e+01    7.772179e-01
  2.821505e+01    7.723913e-01
  2.824680e+01    7.793998e-01
  2.827855e+01    7.682434e-01
  2.831030e+01    7.813491e-01
  2.834206e+01    7.651010e-01
  2.837381e+01    7.633153e-01
  2.840556e+01    7.715483e-01
  2.843731e+01    7.773485e-01
  2.846906e+01    7.829660e-01
  2.850081e+01    7.666392e-01
  2.853256e+01    7.630820e-01
  2.856431e+01    7.556356e-01
  2.859606e+01    7.510319e-01
  2.862782e+01    7.432960e-01
  2.865957e+01    7.438890e-01
  2.869132e+01    7.711468e-01
  2.872307e+01    7.630002e-01
  2.875482e+01    7.287552e-01
  2.878657e+01    7.344469e-01
  2.881832e+01    7.398463e-01
  2.885007e+01    7.612982e-01
  2.888183e+01    7.587075e-01
  2.891358e+01    7.419195e-01
  2.894533e+01    7.310923e-01
  2.897708e+01    7.546307e-01
  2.900883e+01    7.510676e-01
  2.904058e+01    7.522810e-01
  2.907233e+01    7.352048e-01
  2.910408e+01    7.390203e-01
  2.913583e+01    7.338474e-01
  2.916759e+01    7.369946e-01
  2.919934e+01    7.287488e-01
  2.923109e+01    7.111492e-01
  2.926284e+01    7.438992e-01
  2.929459e+01    7.346971e-01
  2.932634e+01    7.278154e-01
  2.935809e+01    7.224651e-01
  2.938984e+01    7.219688e-01
  2.942159e+01    7.223866e-01
  2.945335e+01    7.264983e-01
  2.948510e+01    7.307480e-01
  2.951685e+01    7.243760e-01
  2.954860e+01    7.206209e-01
  2.958035e+01    7.278894e-01
  2.961210e+01    7.286271e-01
  2.964385e+01    7.245209e-01
  2.967560e+01    7.221997e-01
  2.970736e+01    6.996997e-01
  2.973911e+01    7.170276e-01
  2.977086e+01    7.259380e-01
  2.980261e+01    6.936808e-01
  2.983436e+01    7.215849e-01
  2.986611e+01    7.210709e-01
  2.989786e+01    7.279739e-01
  2.992961e+01    7.241086e-01
  2.996136e+01    7.371605e-01
  2.999312e+01    7.064471e-01
  3.002487e+01    7.256191e-01
  3.005662e+01    7.305751e-01
  3.008837e+01    7.395257e-01
  3.012012e+01    7.257941e-01
  3.015187e+01    7.228536e-01
  3.018362e+01    7.281278e-01
  3.021537e+01    7.293385e-01
  3.024712e+01    7.107673e-01
  3.027888e+01    7.000583e-01
  3.031063e+01    7.329046e-01
  3.034238e+01    7.152064e-01
  3.037413e+01    7.188160e-01
  3.040588e+01    6.987445e-01
  3.043763e+01    6.940375e-01
  3.046938e+01    7.255086e-01
  3.050113e+01    7.160248e-01
  3.053288e+01    7.133502e-01
  3.056464e+01    7.059125e-01
  3.059639e+01    7.190449e-01
  3.062814e+01    7.376085e-01
  3.065989e+01    7.068536e-01
  3.069164e+01    7.033324e-01
  3.072339e+01    7.065397e-01
  3.075514e+01    6.993908e-01
  3.078689e+01    6.900539e-01
  3.081865e+01    7.274613e-01
  3.085040e+01    7.141578e-01
  3.088215e+01    7.326995e-01
  3.091390e+01    7.131712e-01
  3.094565e+01    7.135279e-01
  3.097740e+01    7.170683e-01
  3.100915e+01    7.244774e-01
  3.104090e+01    7.355661e-01
  3.107265e+01    7.086787e-01
  3.110441e+01    7.301406e-01
  3.113616e+01    7.321007e-01
  3.116791e+01    7.378742e-01
  3.119966e+01    7.407776e-01
  3.123141e+01    7.484305e-01
  3.126316e+01    7.525570e-01
  3.129491e+01    7.407945e-01
  3.132666e+01    7.388260e-01
  3.135841e+01    7.542448e-01
  3.139017e+01    7.390626e-01
  3.142192e+01    7.322566e-01
  3.145367e+01    7.533354e-01
  3.148542e+01    7.588335e-01
  3.151717e+01    7.753806e-01
  3.154892e+01    7.893940e-01
  3.158067e+01    7.832278e-01
  3.161242e+01    8.116807e-01
  3.164418e+01    8.528982e-01
  3.167593e+01    8.865591e-01
  3.170768e+01    9.131604e-01
  3.173943e+01    9.997336e-01
  3.177118e+01    1.106275e+00
  3.180293e+01    1.256986e+00
  3.183468e+01    1.546434e+00
  3.186643e+01    1.808247e+00
  3.189818e+01    2.115006e+00
  3.192994e+01    2.376385e+00
  3.196169e+01    2.375078e+00
  3.199344e+01    2.096106e+00
  3.202519e+01    1.673849e+00
  3.205694e+01    1.398496e+00
  3.208869e+01    1.186662e+00
  3.212044e+01    1.061246e+00
  3.215219e+01    9.620402e-01
  3.218394e+01    8.543877e-01
  3.221570e+01    8.488370e-01
  3.224745e+01    8.223704e-01
  3.227920e+01    7.974482e-01
  3.231095e+01    7.883182e-01
  3.234270e+01    7.618185e-01
  3.237445e+01    7.625536e-01
  3.240620e+01    7.421787e-01
  3.243795e+01    7.601886e-01
  3.246970e+01    7.650379e-01
  3.250146e+01    7.247548e-01
  3.253321e+01    7.189396e-01
  3.254908e+01    6.996411e-01