File: XRD/2024-07-27_002_Ru-CGO-ex_Activtation_ramp_000002_data_000109.dat
# == pyFAI calibration ==
# Distance Sample to Detector: 0.4 m
# PONI: 9.750e-02, 1.135e-01 m
# Rotations: -0.000175 0.000000 -0.000000 rad
#
# == Fit2d calibration ==
# Distance Sample-beamCenter: 400.000 mm
# Center: x=1514.000, y=1300.000 pix
# Tilt: 0.010 deg  TiltPlanRot: 0.010 deg
#
# Detector Detector	 Spline= None	 PixelSize= 7.500e-05, 7.500e-05 m
#    Detector has a mask: False
#    Detector has a dark current: False
#    detector has a flat field: False
#
# Wavelength: 6.888e-11 m
# Mask applied: user provided
# Dark current applied: False
# Flat field applied: False
# Polarization factor: 0.99
# Normalization factor: 1.0
# --> /home/myspot/data/2024_07_Rosario/Ru-CGO-ex/2024-07-27_002_Ru-CGO-ex_Activtation_ramp_000002_data_000109.dat
#       q_nm^-1             I
  2.003187e-02    7.711350e-02
  5.178302e-02    0.000000e+00
  8.353417e-02    6.201810e-02
  1.152853e-01    1.883849e-03
  1.470365e-01    3.985426e-02
  1.787876e-01    1.732352e-02
  2.105388e-01    2.783086e-02
  2.422899e-01    8.871552e-02
  2.740411e-01    4.520494e-02
  3.057922e-01    4.720661e-02
  3.375433e-01    0.000000e+00
  3.692945e-01    4.305265e-02
  4.010456e-01    5.324024e-02
  4.327968e-01    5.952557e-02
  4.645479e-01    1.848111e-02
  4.962991e-01    5.495868e-02
  5.280502e-01    5.007567e-02
  5.598014e-01    5.383583e-02
  5.915525e-01    5.121542e-02
  6.233037e-01    5.547573e-02
  6.550548e-01    6.883930e-02
  6.868060e-01    2.086115e-02
  7.185571e-01    3.285558e-02
  7.503083e-01    4.245235e-02
  7.820594e-01    1.258408e-01
  8.138106e-01    1.755286e-01
  8.455617e-01    3.360026e-01
  8.773129e-01    4.549040e-01
  9.090640e-01    6.121380e-01
  9.408152e-01    6.922848e-01
  9.725663e-01    9.410109e-01
  1.004317e+00    1.070146e+00
  1.036069e+00    1.139513e+00
  1.067820e+00    1.229134e+00
  1.099571e+00    1.388959e+00
  1.131322e+00    1.418876e+00
  1.163073e+00    1.416401e+00
  1.194824e+00    1.508952e+00
  1.226575e+00    2.082566e+00
  1.258327e+00    2.276186e+00
  1.290078e+00    2.457073e+00
  1.321829e+00    2.643093e+00
  1.353580e+00    2.506305e+00
  1.385331e+00    2.605792e+00
  1.417082e+00    2.741956e+00
  1.448834e+00    2.728193e+00
  1.480585e+00    2.891941e+00
  1.512336e+00    2.851199e+00
  1.544087e+00    2.971295e+00
  1.575838e+00    2.989955e+00
  1.607589e+00    2.876649e+00
  1.639340e+00    2.848623e+00
  1.671092e+00    2.964593e+00
  1.702843e+00    2.855323e+00
  1.734594e+00    2.802512e+00
  1.766345e+00    2.854036e+00
  1.798096e+00    2.620042e+00
  1.829847e+00    2.792621e+00
  1.861598e+00    2.699233e+00
  1.893350e+00    2.808162e+00
  1.925101e+00    2.851066e+00
  1.956852e+00    2.633597e+00
  1.988603e+00    2.817202e+00
  2.020354e+00    2.755453e+00
  2.052105e+00    2.620435e+00
  2.083856e+00    2.634129e+00
  2.115608e+00    2.633466e+00
  2.147359e+00    2.696316e+00
  2.179110e+00    2.548301e+00
  2.210861e+00    2.653748e+00
  2.242612e+00    2.640713e+00
  2.274363e+00    2.688147e+00
  2.306115e+00    2.699980e+00
  2.337866e+00    2.800864e+00
  2.369617e+00    2.741621e+00
  2.401368e+00    2.681150e+00
  2.433119e+00    2.678204e+00
  2.464870e+00    2.728188e+00
  2.496621e+00    2.718806e+00
  2.528373e+00    2.699900e+00
  2.560124e+00    2.737310e+00
  2.591875e+00    2.705098e+00
  2.623626e+00    2.825221e+00
  2.655377e+00    2.859941e+00
  2.687128e+00    2.871790e+00
  2.718879e+00    2.683094e+00
  2.750631e+00    2.765776e+00
  2.782382e+00    2.818662e+00
  2.814133e+00    2.719077e+00
  2.845884e+00    2.868953e+00
  2.877635e+00    2.689642e+00
  2.909386e+00    2.938530e+00
  2.941137e+00    2.803266e+00
  2.972889e+00    2.855402e+00
  3.004640e+00    2.787941e+00
  3.036391e+00    2.792465e+00
  3.068142e+00    2.894434e+00
  3.099893e+00    2.836351e+00
  3.131644e+00    2.911618e+00
  3.163395e+00    2.785811e+00
  3.195147e+00    2.900905e+00
  3.226898e+00    2.920431e+00
  3.258649e+00    2.783815e+00
  3.290400e+00    2.850490e+00
  3.322151e+00    2.890990e+00
  3.353902e+00    2.999812e+00
  3.385654e+00    2.845809e+00
  3.417405e+00    2.859872e+00
  3.449156e+00    2.932791e+00
  3.480907e+00    2.998879e+00
  3.512658e+00    3.028373e+00
  3.544409e+00    2.912738e+00
  3.576160e+00    2.952869e+00
  3.607912e+00    2.908366e+00
  3.639663e+00    2.986871e+00
  3.671414e+00    2.914795e+00
  3.703165e+00    2.998840e+00
  3.734916e+00    3.005366e+00
  3.766667e+00    2.981762e+00
  3.798418e+00    2.979358e+00
  3.830170e+00    2.946233e+00
  3.861921e+00    2.999544e+00
  3.893672e+00    2.928155e+00
  3.925423e+00    3.027491e+00
  3.957174e+00    2.957504e+00
  3.988925e+00    3.020654e+00
  4.020676e+00    3.057336e+00
  4.052428e+00    2.949893e+00
  4.084179e+00    2.978547e+00
  4.115930e+00    2.885126e+00
  4.147681e+00    3.039420e+00
  4.179432e+00    2.921586e+00
  4.211183e+00    2.920994e+00
  4.242935e+00    2.976545e+00
  4.274686e+00    2.942756e+00
  4.306437e+00    2.978138e+00
  4.338188e+00    2.941652e+00
  4.369939e+00    2.969620e+00
  4.401690e+00    2.967408e+00
  4.433441e+00    2.988371e+00
  4.465193e+00    3.037427e+00
  4.496944e+00    3.109253e+00
  4.528695e+00    2.932378e+00
  4.560446e+00    2.965842e+00
  4.592197e+00    2.967069e+00
  4.623948e+00    2.876476e+00
  4.655699e+00    3.136433e+00
  4.687451e+00    2.897232e+00
  4.719202e+00    3.057457e+00
  4.750953e+00    3.006465e+00
  4.782704e+00    3.051555e+00
  4.814455e+00    2.990538e+00
  4.846206e+00    2.943072e+00
  4.877957e+00    2.997884e+00
  4.909709e+00    3.030817e+00
  4.941460e+00    3.066746e+00
  4.973211e+00    3.178943e+00
  5.004962e+00    2.996184e+00
  5.036713e+00    3.004328e+00
  5.068464e+00    3.077015e+00
  5.100216e+00    3.040231e+00
  5.131967e+00    3.058863e+00
  5.163718e+00    3.042857e+00
  5.195469e+00    3.032328e+00
  5.227220e+00    3.142540e+00
  5.258971e+00    3.072940e+00
  5.290722e+00    3.026542e+00
  5.322474e+00    3.034374e+00
  5.354225e+00    3.145348e+00
  5.385976e+00    3.026845e+00
  5.417727e+00    2.960354e+00
  5.449478e+00    3.004662e+00
  5.481229e+00    3.011789e+00
  5.512980e+00    3.060711e+00
  5.544732e+00    3.035288e+00
  5.576483e+00    3.052268e+00
  5.608234e+00    3.036562e+00
  5.639985e+00    3.013856e+00
  5.671736e+00    2.964514e+00
  5.703487e+00    2.989464e+00
  5.735238e+00    3.038535e+00
  5.766990e+00    2.958241e+00
  5.798741e+00    3.044945e+00
  5.830492e+00    2.989875e+00
  5.862243e+00    2.966009e+00
  5.893994e+00    2.925367e+00
  5.925745e+00    3.000353e+00
  5.957497e+00    2.920698e+00
  5.989248e+00    2.951796e+00
  6.020999e+00    2.856632e+00
  6.052750e+00    3.010949e+00
  6.084501e+00    2.971517e+00
  6.116252e+00    3.046377e+00
  6.148003e+00    2.980878e+00
  6.179755e+00    3.045128e+00
  6.211506e+00    3.022678e+00
  6.243257e+00    2.976849e+00
  6.275008e+00    3.028229e+00
  6.306759e+00    2.990983e+00
  6.338510e+00    3.003974e+00
  6.370261e+00    2.992472e+00
  6.402013e+00    3.039907e+00
  6.433764e+00    2.991479e+00
  6.465515e+00    2.989002e+00
  6.497266e+00    3.073410e+00
  6.529017e+00    2.945564e+00
  6.560768e+00    2.974615e+00
  6.592519e+00    2.971982e+00
  6.624271e+00    3.016570e+00
  6.656022e+00    2.954270e+00
  6.687773e+00    3.053464e+00
  6.719524e+00    2.952493e+00
  6.751275e+00    2.952859e+00
  6.783026e+00    2.942931e+00
  6.814777e+00    2.979590e+00
  6.846529e+00    2.953445e+00
  6.878280e+00    2.899160e+00
  6.910031e+00    2.962291e+00
  6.941782e+00    2.898917e+00
  6.973533e+00    2.965764e+00
  7.005284e+00    2.955400e+00
  7.037036e+00    2.984663e+00
  7.068787e+00    2.872427e+00
  7.100538e+00    2.948012e+00
  7.132289e+00    3.009356e+00
  7.164040e+00    2.942960e+00
  7.195791e+00    2.911772e+00
  7.227542e+00    3.032144e+00
  7.259294e+00    2.992651e+00
  7.291045e+00    2.961452e+00
  7.322796e+00    2.927562e+00
  7.354547e+00    2.943258e+00
  7.386298e+00    2.931417e+00
  7.418049e+00    2.898074e+00
  7.449800e+00    2.974928e+00
  7.481552e+00    2.957042e+00
  7.513303e+00    3.016813e+00
  7.545054e+00    2.909595e+00
  7.576805e+00    2.900367e+00
  7.608556e+00    2.894844e+00
  7.640307e+00    2.925833e+00
  7.672058e+00    2.940370e+00
  7.703810e+00    2.925962e+00
  7.735561e+00    2.893612e+00
  7.767312e+00    2.921584e+00
  7.799063e+00    2.939468e+00
  7.830814e+00    2.899925e+00
  7.862565e+00    2.826048e+00
  7.894317e+00    2.873128e+00
  7.926068e+00    2.872385e+00
  7.957819e+00    2.851433e+00
  7.989570e+00    2.917266e+00
  8.021321e+00    2.866016e+00
  8.053072e+00    2.838352e+00
  8.084823e+00    2.881847e+00
  8.116575e+00    2.873546e+00
  8.148326e+00    2.866602e+00
  8.180077e+00    2.868664e+00
  8.211828e+00    2.873567e+00
  8.243579e+00    2.897352e+00
  8.275330e+00    2.844291e+00
  8.307081e+00    2.863131e+00
  8.338833e+00    2.832864e+00
  8.370584e+00    2.872216e+00
  8.402335e+00    2.826656e+00
  8.434086e+00    2.817299e+00
  8.465837e+00    2.788072e+00
  8.497588e+00    2.788449e+00
  8.529339e+00    2.867437e+00
  8.561091e+00    2.850936e+00
  8.592842e+00    2.806165e+00
  8.624593e+00    2.842107e+00
  8.656344e+00    2.792123e+00
  8.688095e+00    2.807952e+00
  8.719846e+00    2.788296e+00
  8.751598e+00    2.820237e+00
  8.783349e+00    2.819589e+00
  8.815100e+00    2.777806e+00
  8.846851e+00    2.760857e+00
  8.878602e+00    2.847488e+00
  8.910353e+00    2.769706e+00
  8.942104e+00    2.774002e+00
  8.973856e+00    2.782153e+00
  9.005607e+00    2.775196e+00
  9.037358e+00    2.730588e+00
  9.069109e+00    2.787288e+00
  9.100860e+00    2.775095e+00
  9.132611e+00    2.783467e+00
  9.164362e+00    2.761045e+00
  9.196114e+00    2.749218e+00
  9.227865e+00    2.704899e+00
  9.259616e+00    2.720692e+00
  9.291367e+00    2.722685e+00
  9.323118e+00    2.726336e+00
  9.354869e+00    2.721411e+00
  9.386620e+00    2.705528e+00
  9.418372e+00    2.734303e+00
  9.450123e+00    2.748296e+00
  9.481874e+00    2.727349e+00
  9.513625e+00    2.727565e+00
  9.545376e+00    2.767440e+00
  9.577127e+00    2.730699e+00
  9.608878e+00    2.737139e+00
  9.640630e+00    2.709829e+00
  9.672381e+00    2.711878e+00
  9.704132e+00    2.616500e+00
  9.735883e+00    2.705236e+00
  9.767634e+00    2.713961e+00
  9.799385e+00    2.601299e+00
  9.831137e+00    2.647044e+00
  9.862888e+00    2.647256e+00
  9.894639e+00    2.635166e+00
  9.926390e+00    2.629001e+00
  9.958141e+00    2.659233e+00
  9.989892e+00    2.581307e+00
  1.002164e+01    2.621501e+00
  1.005339e+01    2.576770e+00
  1.008515e+01    2.596075e+00
  1.011690e+01    2.639557e+00
  1.014865e+01    2.614563e+00
  1.018040e+01    2.633775e+00
  1.021215e+01    2.600106e+00
  1.024390e+01    2.562906e+00
  1.027565e+01    2.567380e+00
  1.030740e+01    2.621109e+00
  1.033915e+01    2.605560e+00
  1.037091e+01    2.572471e+00
  1.040266e+01    2.507727e+00
  1.043441e+01    2.513093e+00
  1.046616e+01    2.537193e+00
  1.049791e+01    2.493999e+00
  1.052966e+01    2.606600e+00
  1.056141e+01    2.571150e+00
  1.059316e+01    2.556902e+00
  1.062492e+01    2.466410e+00
  1.065667e+01    2.503883e+00
  1.068842e+01    2.528456e+00
  1.072017e+01    2.494031e+00
  1.075192e+01    2.499841e+00
  1.078367e+01    2.507766e+00
  1.081542e+01    2.500310e+00
  1.084717e+01    2.446803e+00
  1.087892e+01    2.445358e+00
  1.091068e+01    2.545986e+00
  1.094243e+01    2.454410e+00
  1.097418e+01    2.465208e+00
  1.100593e+01    2.446120e+00
  1.103768e+01    2.447935e+00
  1.106943e+01    2.464660e+00
  1.110118e+01    2.429095e+00
  1.113293e+01    2.434251e+00
  1.116468e+01    2.421270e+00
  1.119644e+01    2.460863e+00
  1.122819e+01    2.464629e+00
  1.125994e+01    2.402069e+00
  1.129169e+01    2.444395e+00
  1.132344e+01    2.469183e+00
  1.135519e+01    2.444045e+00
  1.138694e+01    2.339499e+00
  1.141869e+01    2.370846e+00
  1.145045e+01    2.384092e+00
  1.148220e+01    2.401059e+00
  1.151395e+01    2.324479e+00
  1.154570e+01    2.343876e+00
  1.157745e+01    2.364253e+00
  1.160920e+01    2.365959e+00
  1.164095e+01    2.363281e+00
  1.167270e+01    2.374682e+00
  1.170445e+01    2.323565e+00
  1.173621e+01    2.349905e+00
  1.176796e+01    2.309300e+00
  1.179971e+01    2.304038e+00
  1.183146e+01    2.332501e+00
  1.186321e+01    2.275548e+00
  1.189496e+01    2.308008e+00
  1.192671e+01    2.342493e+00
  1.195846e+01    2.315059e+00
  1.199021e+01    2.262328e+00
  1.202197e+01    2.287672e+00
  1.205372e+01    2.324437e+00
  1.208547e+01    2.356562e+00
  1.211722e+01    2.307147e+00
  1.214897e+01    2.296827e+00
  1.218072e+01    2.259805e+00
  1.221247e+01    2.325999e+00
  1.224422e+01    2.304618e+00
  1.227597e+01    2.251258e+00
  1.230773e+01    2.302549e+00
  1.233948e+01    2.305195e+00
  1.237123e+01    2.300811e+00
  1.240298e+01    2.264764e+00
  1.243473e+01    2.320652e+00
  1.246648e+01    2.296567e+00
  1.249823e+01    2.256464e+00
  1.252998e+01    2.356601e+00
  1.256174e+01    2.299603e+00
  1.259349e+01    2.372979e+00
  1.262524e+01    2.377546e+00
  1.265699e+01    2.391292e+00
  1.268874e+01    2.478823e+00
  1.272049e+01    2.410778e+00
  1.275224e+01    2.554097e+00
  1.278399e+01    2.601753e+00
  1.281574e+01    2.677096e+00
  1.284750e+01    2.803641e+00
  1.287925e+01    2.983253e+00
  1.291100e+01    3.300997e+00
  1.294275e+01    3.740143e+00
  1.297450e+01    4.298660e+00
  1.300625e+01    5.398607e+00
  1.303800e+01    6.982399e+00
  1.306975e+01    9.477778e+00
  1.310150e+01    1.212071e+01
  1.313326e+01    1.478906e+01
  1.316501e+01    1.699570e+01
  1.319676e+01    1.728721e+01
  1.322851e+01    1.442801e+01
  1.326026e+01    1.042492e+01
  1.329201e+01    7.358392e+00
  1.332376e+01    5.541219e+00
  1.335551e+01    4.443916e+00
  1.338727e+01    3.744736e+00
  1.341902e+01    3.264347e+00
  1.345077e+01    2.983662e+00
  1.348252e+01    2.831114e+00
  1.351427e+01    2.635808e+00
  1.354602e+01    2.495913e+00
  1.357777e+01    2.422479e+00
  1.360952e+01    2.404188e+00
  1.364127e+01    2.261728e+00
  1.367303e+01    2.274374e+00
  1.370478e+01    2.261202e+00
  1.373653e+01    2.204499e+00
  1.376828e+01    2.200871e+00
  1.380003e+01    2.124389e+00
  1.383178e+01    2.118300e+00
  1.386353e+01    2.128340e+00
  1.389528e+01    2.082497e+00
  1.392703e+01    2.056143e+00
  1.395879e+01    2.011150e+00
  1.399054e+01    2.014089e+00
  1.402229e+01    1.972923e+00
  1.405404e+01    1.978866e+00
  1.408579e+01    1.992310e+00
  1.411754e+01    1.984474e+00
  1.414929e+01    1.924843e+00
  1.418104e+01    1.953737e+00
  1.421279e+01    1.912107e+00
  1.424455e+01    1.959477e+00
  1.427630e+01    1.932971e+00
  1.430805e+01    1.908525e+00
  1.433980e+01    1.938511e+00
  1.437155e+01    1.949896e+00
  1.440330e+01    1.897235e+00
  1.443505e+01    1.872375e+00
  1.446680e+01    1.864889e+00
  1.449856e+01    1.923117e+00
  1.453031e+01    1.873083e+00
  1.456206e+01    1.902613e+00
  1.459381e+01    1.871688e+00
  1.462556e+01    1.929958e+00
  1.465731e+01    1.906380e+00
  1.468906e+01    1.889082e+00
  1.472081e+01    1.902990e+00
  1.475256e+01    1.891855e+00
  1.478432e+01    1.890264e+00
  1.481607e+01    1.874438e+00
  1.484782e+01    1.883909e+00
  1.487957e+01    1.891387e+00
  1.491132e+01    1.960229e+00
  1.494307e+01    2.000018e+00
  1.497482e+01    2.004685e+00
  1.500657e+01    2.113700e+00
  1.503832e+01    2.257049e+00
  1.507008e+01    2.485348e+00
  1.510183e+01    2.797072e+00
  1.513358e+01    3.379149e+00
  1.516533e+01    4.170411e+00
  1.519708e+01    4.871838e+00
  1.522883e+01    5.528338e+00
  1.526058e+01    5.901004e+00
  1.529233e+01    5.755541e+00
  1.532409e+01    5.074563e+00
  1.535584e+01    3.970380e+00
  1.538759e+01    3.197633e+00
  1.541934e+01    2.666714e+00
  1.545109e+01    2.343421e+00
  1.548284e+01    2.098253e+00
  1.551459e+01    2.048259e+00
  1.554634e+01    1.915441e+00
  1.557809e+01    1.900353e+00
  1.560985e+01    1.833713e+00
  1.564160e+01    1.772601e+00
  1.567335e+01    1.697810e+00
  1.570510e+01    1.760723e+00
  1.573685e+01    1.686582e+00
  1.576860e+01    1.688135e+00
  1.580035e+01    1.650105e+00
  1.583210e+01    1.622249e+00
  1.586385e+01    1.649558e+00
  1.589561e+01    1.620603e+00
  1.592736e+01    1.620628e+00
  1.595911e+01    1.631012e+00
  1.599086e+01    1.585556e+00
  1.602261e+01    1.618816e+00
  1.605436e+01    1.577335e+00
  1.608611e+01    1.547215e+00
  1.611786e+01    1.540134e+00
  1.614961e+01    1.560551e+00
  1.618137e+01    1.548198e+00
  1.621312e+01    1.542112e+00
  1.624487e+01    1.555633e+00
  1.627662e+01    1.505815e+00
  1.630837e+01    1.545192e+00
  1.634012e+01    1.530275e+00
  1.637187e+01    1.483802e+00
  1.640362e+01    1.507478e+00
  1.643538e+01    1.479824e+00
  1.646713e+01    1.495337e+00
  1.649888e+01    1.483904e+00
  1.653063e+01    1.504873e+00
  1.656238e+01    1.489814e+00
  1.659413e+01    1.474965e+00
  1.662588e+01    1.471085e+00
  1.665763e+01    1.466968e+00
  1.668938e+01    1.478515e+00
  1.672114e+01    1.440125e+00
  1.675289e+01    1.476884e+00
  1.678464e+01    1.467901e+00
  1.681639e+01    1.444793e+00
  1.684814e+01    1.444289e+00
  1.687989e+01    1.414964e+00
  1.691164e+01    1.414501e+00
  1.694339e+01    1.441884e+00
  1.697514e+01    1.419590e+00
  1.700690e+01    1.408932e+00
  1.703865e+01    1.396027e+00
  1.707040e+01    1.405230e+00
  1.710215e+01    1.366065e+00
  1.713390e+01    1.360890e+00
  1.716565e+01    1.403303e+00
  1.719740e+01    1.363442e+00
  1.722915e+01    1.366400e+00
  1.726091e+01    1.374892e+00
  1.729266e+01    1.350156e+00
  1.732441e+01    1.367050e+00
  1.735616e+01    1.370077e+00
  1.738791e+01    1.360263e+00
  1.741966e+01    1.358389e+00
  1.745141e+01    1.353988e+00
  1.748316e+01    1.321809e+00
  1.751491e+01    1.320279e+00
  1.754667e+01    1.322060e+00
  1.757842e+01    1.351611e+00
  1.761017e+01    1.337166e+00
  1.764192e+01    1.356962e+00
  1.767367e+01    1.326059e+00
  1.770542e+01    1.316831e+00
  1.773717e+01    1.318119e+00
  1.776892e+01    1.321399e+00
  1.780067e+01    1.333684e+00
  1.783243e+01    1.281687e+00
  1.786418e+01    1.296239e+00
  1.789593e+01    1.308019e+00
  1.792768e+01    1.300736e+00
  1.795943e+01    1.291033e+00
  1.799118e+01    1.291686e+00
  1.802293e+01    1.281664e+00
  1.805468e+01    1.277482e+00
  1.808643e+01    1.286913e+00
  1.811819e+01    1.262867e+00
  1.814994e+01    1.269017e+00
  1.818169e+01    1.265366e+00
  1.821344e+01    1.266521e+00
  1.824519e+01    1.271606e+00
  1.827694e+01    1.229302e+00
  1.830869e+01    1.267195e+00
  1.834044e+01    1.260602e+00
  1.837220e+01    1.276325e+00
  1.840395e+01    1.252397e+00
  1.843570e+01    1.256242e+00
  1.846745e+01    1.230858e+00
  1.849920e+01    1.196159e+00
  1.853095e+01    1.242396e+00
  1.856270e+01    1.231433e+00
  1.859445e+01    1.222798e+00
  1.862620e+01    1.203643e+00
  1.865796e+01    1.212674e+00
  1.868971e+01    1.201834e+00
  1.872146e+01    1.216723e+00
  1.875321e+01    1.235784e+00
  1.878496e+01    1.214221e+00
  1.881671e+01    1.193897e+00
  1.884846e+01    1.184807e+00
  1.888021e+01    1.188258e+00
  1.891196e+01    1.205968e+00
  1.894372e+01    1.202679e+00
  1.897547e+01    1.187463e+00
  1.900722e+01    1.205110e+00
  1.903897e+01    1.184247e+00
  1.907072e+01    1.190793e+00
  1.910247e+01    1.182179e+00
  1.913422e+01    1.192935e+00
  1.916597e+01    1.196333e+00
  1.919773e+01    1.148844e+00
  1.922948e+01    1.164575e+00
  1.926123e+01    1.135105e+00
  1.929298e+01    1.166115e+00
  1.932473e+01    1.156847e+00
  1.935648e+01    1.143679e+00
  1.938823e+01    1.146000e+00
  1.941998e+01    1.131209e+00
  1.945173e+01    1.162008e+00
  1.948349e+01    1.107763e+00
  1.951524e+01    1.158786e+00
  1.954699e+01    1.162804e+00
  1.957874e+01    1.133523e+00
  1.961049e+01    1.121366e+00
  1.964224e+01    1.128340e+00
  1.967399e+01    1.136421e+00
  1.970574e+01    1.134747e+00
  1.973749e+01    1.124453e+00
  1.976925e+01    1.129207e+00
  1.980100e+01    1.119845e+00
  1.983275e+01    1.113962e+00
  1.986450e+01    1.121282e+00
  1.989625e+01    1.108586e+00
  1.992800e+01    1.123328e+00
  1.995975e+01    1.094772e+00
  1.999150e+01    1.113336e+00
  2.002325e+01    1.083318e+00
  2.005501e+01    1.086904e+00
  2.008676e+01    1.099015e+00
  2.011851e+01    1.107372e+00
  2.015026e+01    1.106176e+00
  2.018201e+01    1.115184e+00
  2.021376e+01    1.096325e+00
  2.024551e+01    1.107076e+00
  2.027726e+01    1.079294e+00
  2.030902e+01    1.062826e+00
  2.034077e+01    1.098711e+00
  2.037252e+01    1.099875e+00
  2.040427e+01    1.103334e+00
  2.043602e+01    1.070368e+00
  2.046777e+01    1.077076e+00
  2.049952e+01    1.075685e+00
  2.053127e+01    1.065432e+00
  2.056302e+01    1.079525e+00
  2.059478e+01    1.056091e+00
  2.062653e+01    1.054440e+00
  2.065828e+01    1.066487e+00
  2.069003e+01    1.085406e+00
  2.072178e+01    1.042631e+00
  2.075353e+01    1.076518e+00
  2.078528e+01    1.052529e+00
  2.081703e+01    1.067918e+00
  2.084878e+01    1.055211e+00
  2.088054e+01    1.056224e+00
  2.091229e+01    1.063966e+00
  2.094404e+01    1.077993e+00
  2.097579e+01    1.063570e+00
  2.100754e+01    1.068907e+00
  2.103929e+01    1.062572e+00
  2.107104e+01    1.051026e+00
  2.110279e+01    1.078444e+00
  2.113455e+01    1.074777e+00
  2.116630e+01    1.089430e+00
  2.119805e+01    1.081738e+00
  2.122980e+01    1.082940e+00
  2.126155e+01    1.084929e+00
  2.129330e+01    1.115106e+00
  2.132505e+01    1.117554e+00
  2.135680e+01    1.123471e+00
  2.138855e+01    1.150006e+00
  2.142031e+01    1.190340e+00
  2.145206e+01    1.225354e+00
  2.148381e+01    1.201347e+00
  2.151556e+01    1.287091e+00
  2.154731e+01    1.384870e+00
  2.157906e+01    1.457743e+00
  2.161081e+01    1.599783e+00
  2.164256e+01    1.770050e+00
  2.167431e+01    2.079998e+00
  2.170607e+01    2.483491e+00
  2.173782e+01    3.159336e+00
  2.176957e+01    4.135199e+00
  2.180132e+01    5.432324e+00
  2.183307e+01    6.801794e+00
  2.186482e+01    8.398551e+00
  2.189657e+01    9.464795e+00
  2.192832e+01    9.422561e+00
  2.196007e+01    7.792467e+00
  2.199183e+01    5.655504e+00
  2.202358e+01    4.080575e+00
  2.205533e+01    3.086266e+00
  2.208708e+01    2.431772e+00
  2.211883e+01    2.026746e+00
  2.215058e+01    1.728958e+00
  2.218233e+01    1.555882e+00
  2.221408e+01    1.397605e+00
  2.224584e+01    1.323137e+00
  2.227759e+01    1.244183e+00
  2.230934e+01    1.194111e+00
  2.234109e+01    1.135769e+00
  2.237284e+01    1.114040e+00
  2.240459e+01    1.073995e+00
  2.243634e+01    1.047998e+00
  2.246809e+01    1.030515e+00
  2.249984e+01    1.012499e+00
  2.253160e+01    9.791706e-01
  2.256335e+01    9.849535e-01
  2.259510e+01    9.637774e-01
  2.262685e+01    9.748582e-01
  2.265860e+01    9.505339e-01
  2.269035e+01    9.547619e-01
  2.272210e+01    9.461681e-01
  2.275385e+01    9.412948e-01
  2.278560e+01    9.094321e-01
  2.281736e+01    9.177172e-01
  2.284911e+01    8.945159e-01
  2.288086e+01    9.161481e-01
  2.291261e+01    9.150361e-01
  2.294436e+01    8.928141e-01
  2.297611e+01    8.888871e-01
  2.300786e+01    8.959731e-01
  2.303961e+01    8.817967e-01
  2.307137e+01    8.674464e-01
  2.310312e+01    8.731430e-01
  2.313487e+01    8.744640e-01
  2.316662e+01    8.534269e-01
  2.319837e+01    8.839034e-01
  2.323012e+01    8.675377e-01
  2.326187e+01    8.412551e-01
  2.329362e+01    8.537950e-01
  2.332537e+01    8.381875e-01
  2.335713e+01    8.530089e-01
  2.338888e+01    8.502396e-01
  2.342063e+01    8.532761e-01
  2.345238e+01    8.440645e-01
  2.348413e+01    8.521297e-01
  2.351588e+01    8.519445e-01
  2.354763e+01    8.523824e-01
  2.357938e+01    8.131220e-01
  2.361113e+01    8.471373e-01
  2.364289e+01    8.209904e-01
  2.367464e+01    8.259450e-01
  2.370639e+01    8.212574e-01
  2.373814e+01    8.052658e-01
  2.376989e+01    8.089113e-01
  2.380164e+01    8.109092e-01
  2.383339e+01    8.302727e-01
  2.386514e+01    8.012611e-01
  2.389689e+01    8.053968e-01
  2.392865e+01    8.141391e-01
  2.396040e+01    7.707746e-01
  2.399215e+01    8.021412e-01
  2.402390e+01    7.885450e-01
  2.405565e+01    7.680238e-01
  2.408740e+01    7.683316e-01
  2.411915e+01    7.767742e-01
  2.415090e+01    7.846398e-01
  2.418266e+01    7.765789e-01
  2.421441e+01    7.743491e-01
  2.424616e+01    7.779804e-01
  2.427791e+01    7.569719e-01
  2.430966e+01    7.743888e-01
  2.434141e+01    7.721324e-01
  2.437316e+01    7.797138e-01
  2.440491e+01    7.841450e-01
  2.443666e+01    7.857603e-01
  2.446842e+01    7.782000e-01
  2.450017e+01    7.705418e-01
  2.453192e+01    7.783682e-01
  2.456367e+01    7.819780e-01
  2.459542e+01    7.934632e-01
  2.462717e+01    7.970536e-01
  2.465892e+01    7.906056e-01
  2.469067e+01    7.906237e-01
  2.472242e+01    7.897557e-01
  2.475418e+01    7.918685e-01
  2.478593e+01    7.693960e-01
  2.481768e+01    7.986430e-01
  2.484943e+01    7.839727e-01
  2.488118e+01    8.014971e-01
  2.491293e+01    7.861720e-01
  2.494468e+01    7.853768e-01
  2.497643e+01    7.639415e-01
  2.500819e+01    8.045161e-01
  2.503994e+01    7.963756e-01
  2.507169e+01    8.136931e-01
  2.510344e+01    8.067895e-01
  2.513519e+01    8.089272e-01
  2.516694e+01    8.353509e-01
  2.519869e+01    8.289509e-01
  2.523044e+01    8.299936e-01
  2.526219e+01    8.381785e-01
  2.529395e+01    8.451475e-01
  2.532570e+01    8.745819e-01
  2.535745e+01    8.772371e-01
  2.538920e+01    8.935990e-01
  2.542095e+01    8.998863e-01
  2.545270e+01    9.447051e-01
  2.548445e+01    9.477361e-01
  2.551620e+01    9.558972e-01
  2.554795e+01    1.052855e+00
  2.557971e+01    1.075239e+00
  2.561146e+01    1.106336e+00
  2.564321e+01    1.201290e+00
  2.567496e+01    1.289834e+00
  2.570671e+01    1.470347e+00
  2.573846e+01    1.680515e+00
  2.577021e+01    2.029123e+00
  2.580196e+01    2.525451e+00
  2.583371e+01    3.267184e+00
  2.586547e+01    4.262640e+00
  2.589722e+01    5.562735e+00
  2.592897e+01    6.870587e+00
  2.596072e+01    7.751591e+00
  2.599247e+01    7.792251e+00
  2.602422e+01    6.622564e+00
  2.605597e+01    4.970250e+00
  2.608772e+01    3.615462e+00
  2.611948e+01    2.752661e+00
  2.615123e+01    2.210387e+00
  2.618298e+01    1.777140e+00
  2.621473e+01    1.540469e+00
  2.624648e+01    1.382253e+00
  2.627823e+01    1.239832e+00
  2.630998e+01    1.181790e+00
  2.634173e+01    1.079113e+00
  2.637348e+01    1.033359e+00
  2.640524e+01    9.734095e-01
  2.643699e+01    9.655081e-01
  2.646874e+01    9.643249e-01
  2.650049e+01    9.315153e-01
  2.653224e+01    9.229931e-01
  2.656399e+01    9.124758e-01
  2.659574e+01    9.025413e-01
  2.662749e+01    8.880928e-01
  2.665924e+01    8.842582e-01
  2.669100e+01    9.016482e-01
  2.672275e+01    8.862358e-01
  2.675450e+01    8.711436e-01
  2.678625e+01    9.158739e-01
  2.681800e+01    9.049978e-01
  2.684975e+01    8.894592e-01
  2.688150e+01    9.056479e-01
  2.691325e+01    9.250485e-01
  2.694501e+01    9.405845e-01
  2.697676e+01    1.004368e+00
  2.700851e+01    1.045458e+00
  2.704026e+01    1.072960e+00
  2.707201e+01    1.222970e+00
  2.710376e+01    1.377729e+00
  2.713551e+01    1.587469e+00
  2.716726e+01    1.874143e+00
  2.719901e+01    2.163109e+00
  2.723077e+01    2.314867e+00
  2.726252e+01    2.244544e+00
  2.729427e+01    1.941894e+00
  2.732602e+01    1.600701e+00
  2.735777e+01    1.367281e+00
  2.738952e+01    1.176081e+00
  2.742127e+01    1.086150e+00
  2.745302e+01    9.809434e-01
  2.748477e+01    9.478357e-01
  2.751653e+01    9.081458e-01
  2.754828e+01    9.085880e-01
  2.758003e+01    8.579068e-01
  2.761178e+01    8.417833e-01
  2.764353e+01    8.391008e-01
  2.767528e+01    8.172299e-01
  2.770703e+01    8.192142e-01
  2.773878e+01    8.144753e-01
  2.777054e+01    8.029336e-01
  2.780229e+01    8.107048e-01
  2.783404e+01    7.920277e-01
  2.786579e+01    7.740117e-01
  2.789754e+01    7.801640e-01
  2.792929e+01    7.755625e-01
  2.796104e+01    7.899144e-01
  2.799279e+01    7.517161e-01
  2.802454e+01    7.878923e-01
  2.805630e+01    8.084204e-01
  2.808805e+01    7.893035e-01
  2.811980e+01    7.736895e-01
  2.815155e+01    7.608112e-01
  2.818330e+01    7.627693e-01
  2.821505e+01    7.758703e-01
  2.824680e+01    7.580821e-01
  2.827855e+01    7.622275e-01
  2.831030e+01    7.523337e-01
  2.834206e+01    7.793298e-01
  2.837381e+01    7.669128e-01
  2.840556e+01    7.717289e-01
  2.843731e+01    7.771333e-01
  2.846906e+01    7.523597e-01
  2.850081e+01    7.481499e-01
  2.853256e+01    7.610955e-01
  2.856431e+01    7.489561e-01
  2.859606e+01    7.513719e-01
  2.862782e+01    7.483051e-01
  2.865957e+01    7.566925e-01
  2.869132e+01    7.492057e-01
  2.872307e+01    7.581733e-01
  2.875482e+01    7.406998e-01
  2.878657e+01    7.226626e-01
  2.881832e+01    7.349678e-01
  2.885007e+01    7.328856e-01
  2.888183e+01    7.443521e-01
  2.891358e+01    7.259346e-01
  2.894533e+01    7.340293e-01
  2.897708e+01    7.048724e-01
  2.900883e+01    7.325677e-01
  2.904058e+01    7.373779e-01
  2.907233e+01    7.395359e-01
  2.910408e+01    7.352901e-01
  2.913583e+01    7.232071e-01
  2.916759e+01    7.364187e-01
  2.919934e+01    7.322102e-01
  2.923109e+01    7.078770e-01
  2.926284e+01    7.422003e-01
  2.929459e+01    7.128171e-01
  2.932634e+01    7.447654e-01
  2.935809e+01    7.206996e-01
  2.938984e+01    7.367563e-01
  2.942159e+01    7.270964e-01
  2.945335e+01    6.920112e-01
  2.948510e+01    7.405792e-01
  2.951685e+01    7.080217e-01
  2.954860e+01    6.927088e-01
  2.958035e+01    7.057583e-01
  2.961210e+01    7.265221e-01
  2.964385e+01    7.315254e-01
  2.967560e+01    7.264466e-01
  2.970736e+01    7.326837e-01
  2.973911e+01    7.147430e-01
  2.977086e+01    7.066134e-01
  2.980261e+01    7.372531e-01
  2.983436e+01    7.123386e-01
  2.986611e+01    7.099561e-01
  2.989786e+01    7.283093e-01
  2.992961e+01    7.144285e-01
  2.996136e+01    6.990736e-01
  2.999312e+01    7.192971e-01
  3.002487e+01    7.484322e-01
  3.005662e+01    7.320017e-01
  3.008837e+01    7.308663e-01
  3.012012e+01    7.038663e-01
  3.015187e+01    7.141617e-01
  3.018362e+01    7.035166e-01
  3.021537e+01    7.135704e-01
  3.024712e+01    6.862417e-01
  3.027888e+01    6.989736e-01
  3.031063e+01    7.137728e-01
  3.034238e+01    7.096944e-01
  3.037413e+01    7.136562e-01
  3.040588e+01    7.057319e-01
  3.043763e+01    6.962784e-01
  3.046938e+01    6.925016e-01
  3.050113e+01    7.077779e-01
  3.053288e+01    6.882482e-01
  3.056464e+01    7.129035e-01
  3.059639e+01    6.797904e-01
  3.062814e+01    7.227654e-01
  3.065989e+01    6.975520e-01
  3.069164e+01    7.189273e-01
  3.072339e+01    7.126912e-01
  3.075514e+01    7.014717e-01
  3.078689e+01    7.016362e-01
  3.081865e+01    6.772671e-01
  3.085040e+01    7.036524e-01
  3.088215e+01    7.238839e-01
  3.091390e+01    7.163562e-01
  3.094565e+01    7.087131e-01
  3.097740e+01    7.012892e-01
  3.100915e+01    7.275074e-01
  3.104090e+01    7.088969e-01
  3.107265e+01    7.018249e-01
  3.110441e+01    7.208769e-01
  3.113616e+01    7.173328e-01
  3.116791e+01    6.973456e-01
  3.119966e+01    7.332163e-01
  3.123141e+01    7.227603e-01
  3.126316e+01    7.011079e-01
  3.129491e+01    7.205002e-01
  3.132666e+01    7.232235e-01
  3.135841e+01    7.272279e-01
  3.139017e+01    7.187000e-01
  3.142192e+01    7.492526e-01
  3.145367e+01    7.515437e-01
  3.148542e+01    7.477556e-01
  3.151717e+01    7.669859e-01
  3.154892e+01    7.970407e-01
  3.158067e+01    8.001097e-01
  3.161242e+01    8.228284e-01
  3.164418e+01    8.286572e-01
  3.167593e+01    9.084808e-01
  3.170768e+01    9.486989e-01
  3.173943e+01    1.032461e+00
  3.177118e+01    1.172245e+00
  3.180293e+01    1.337686e+00
  3.183468e+01    1.581107e+00
  3.186643e+01    1.915710e+00
  3.189818e+01    2.189298e+00
  3.192994e+01    2.281819e+00
  3.196169e+01    2.200592e+00
  3.199344e+01    1.832021e+00
  3.202519e+01    1.530139e+00
  3.205694e+01    1.248916e+00
  3.208869e+01    1.062518e+00
  3.212044e+01    9.809085e-01
  3.215219e+01    9.193507e-01
  3.218394e+01    8.342211e-01
  3.221570e+01    8.253642e-01
  3.224745e+01    8.041321e-01
  3.227920e+01    7.740976e-01
  3.231095e+01    7.301772e-01
  3.234270e+01    7.478537e-01
  3.237445e+01    7.286848e-01
  3.240620e+01    7.578897e-01
  3.243795e+01    7.421895e-01
  3.246970e+01    7.283850e-01
  3.250146e+01    7.387866e-01
  3.253321e+01    7.367246e-01
  3.254908e+01    7.497249e-01