File: XRD/2024-07-27_002_Ru-CGO-ex_Activtation_ramp_000002_data_000047.dat
# == pyFAI calibration ==
# Distance Sample to Detector: 0.4 m
# PONI: 9.750e-02, 1.135e-01 m
# Rotations: -0.000175 0.000000 -0.000000 rad
#
# == Fit2d calibration ==
# Distance Sample-beamCenter: 400.000 mm
# Center: x=1514.000, y=1300.000 pix
# Tilt: 0.010 deg  TiltPlanRot: 0.010 deg
#
# Detector Detector	 Spline= None	 PixelSize= 7.500e-05, 7.500e-05 m
#    Detector has a mask: False
#    Detector has a dark current: False
#    detector has a flat field: False
#
# Wavelength: 6.888e-11 m
# Mask applied: user provided
# Dark current applied: False
# Flat field applied: False
# Polarization factor: 0.99
# Normalization factor: 1.0
# --> /home/myspot/data/2024_07_Rosario/Ru-CGO-ex/2024-07-27_002_Ru-CGO-ex_Activtation_ramp_000002_data_000047.dat
#       q_nm^-1             I
  2.003187e-02    0.000000e+00
  5.178302e-02    1.655737e-01
  8.353417e-02    8.526725e-02
  1.152853e-01    1.238894e-01
  1.470365e-01    2.848842e-02
  1.787876e-01    1.622227e-02
  2.105388e-01    6.627711e-02
  2.422899e-01    3.856357e-02
  2.740411e-01    2.863573e-02
  3.057922e-01    5.378921e-02
  3.375433e-01    2.010157e-02
  3.692945e-01    6.558279e-02
  4.010456e-01    1.954253e-02
  4.327968e-01    2.884984e-02
  4.645479e-01    2.270444e-02
  4.962991e-01    2.113359e-02
  5.280502e-01    3.321019e-02
  5.598014e-01    1.983268e-02
  5.915525e-01    4.740730e-02
  6.233037e-01    3.122544e-02
  6.550548e-01    5.380108e-02
  6.868060e-01    4.773832e-02
  7.185571e-01    4.458087e-02
  7.503083e-01    2.743571e-02
  7.820594e-01    1.248468e-01
  8.138106e-01    2.220410e-01
  8.455617e-01    2.913546e-01
  8.773129e-01    3.551927e-01
  9.090640e-01    6.115608e-01
  9.408152e-01    6.162797e-01
  9.725663e-01    9.001103e-01
  1.004317e+00    1.024969e+00
  1.036069e+00    1.153561e+00
  1.067820e+00    1.364880e+00
  1.099571e+00    1.392712e+00
  1.131322e+00    1.512403e+00
  1.163073e+00    1.547718e+00
  1.194824e+00    1.709769e+00
  1.226575e+00    2.083611e+00
  1.258327e+00    2.290075e+00
  1.290078e+00    2.638472e+00
  1.321829e+00    2.600912e+00
  1.353580e+00    2.609982e+00
  1.385331e+00    2.590581e+00
  1.417082e+00    2.757195e+00
  1.448834e+00    2.872372e+00
  1.480585e+00    2.844352e+00
  1.512336e+00    3.142168e+00
  1.544087e+00    3.068445e+00
  1.575838e+00    2.978988e+00
  1.607589e+00    3.029072e+00
  1.639340e+00    2.908825e+00
  1.671092e+00    2.912176e+00
  1.702843e+00    2.836980e+00
  1.734594e+00    2.739215e+00
  1.766345e+00    2.938394e+00
  1.798096e+00    2.922446e+00
  1.829847e+00    2.788014e+00
  1.861598e+00    2.819539e+00
  1.893350e+00    2.724559e+00
  1.925101e+00    2.852580e+00
  1.956852e+00    2.871811e+00
  1.988603e+00    2.766755e+00
  2.020354e+00    2.809535e+00
  2.052105e+00    2.804857e+00
  2.083856e+00    2.732657e+00
  2.115608e+00    2.813623e+00
  2.147359e+00    2.751215e+00
  2.179110e+00    2.835076e+00
  2.210861e+00    2.878940e+00
  2.242612e+00    2.823343e+00
  2.274363e+00    2.819682e+00
  2.306115e+00    2.812952e+00
  2.337866e+00    2.708820e+00
  2.369617e+00    2.827389e+00
  2.401368e+00    2.876048e+00
  2.433119e+00    2.726154e+00
  2.464870e+00    2.841595e+00
  2.496621e+00    2.833639e+00
  2.528373e+00    2.918141e+00
  2.560124e+00    2.832985e+00
  2.591875e+00    2.818245e+00
  2.623626e+00    2.827670e+00
  2.655377e+00    2.803699e+00
  2.687128e+00    2.884403e+00
  2.718879e+00    2.932410e+00
  2.750631e+00    2.743278e+00
  2.782382e+00    2.875027e+00
  2.814133e+00    2.840975e+00
  2.845884e+00    2.842000e+00
  2.877635e+00    2.947380e+00
  2.909386e+00    2.894214e+00
  2.941137e+00    2.893759e+00
  2.972889e+00    2.908485e+00
  3.004640e+00    2.939814e+00
  3.036391e+00    2.973706e+00
  3.068142e+00    2.894992e+00
  3.099893e+00    2.918189e+00
  3.131644e+00    2.947151e+00
  3.163395e+00    2.897263e+00
  3.195147e+00    2.935407e+00
  3.226898e+00    2.897611e+00
  3.258649e+00    2.816082e+00
  3.290400e+00    2.940606e+00
  3.322151e+00    2.969684e+00
  3.353902e+00    2.933175e+00
  3.385654e+00    2.928793e+00
  3.417405e+00    2.903333e+00
  3.449156e+00    2.945830e+00
  3.480907e+00    2.919427e+00
  3.512658e+00    2.946833e+00
  3.544409e+00    2.980644e+00
  3.576160e+00    3.125217e+00
  3.607912e+00    2.976334e+00
  3.639663e+00    2.955917e+00
  3.671414e+00    3.049001e+00
  3.703165e+00    2.971426e+00
  3.734916e+00    2.879747e+00
  3.766667e+00    2.913205e+00
  3.798418e+00    3.023263e+00
  3.830170e+00    3.031183e+00
  3.861921e+00    3.149465e+00
  3.893672e+00    3.073027e+00
  3.925423e+00    2.940481e+00
  3.957174e+00    3.053723e+00
  3.988925e+00    3.007387e+00
  4.020676e+00    2.920207e+00
  4.052428e+00    3.006483e+00
  4.084179e+00    3.005427e+00
  4.115930e+00    2.986076e+00
  4.147681e+00    3.020957e+00
  4.179432e+00    2.978176e+00
  4.211183e+00    3.042667e+00
  4.242935e+00    3.053390e+00
  4.274686e+00    3.055128e+00
  4.306437e+00    2.920066e+00
  4.338188e+00    3.059503e+00
  4.369939e+00    3.071297e+00
  4.401690e+00    3.098911e+00
  4.433441e+00    2.994166e+00
  4.465193e+00    3.018213e+00
  4.496944e+00    3.070915e+00
  4.528695e+00    3.078553e+00
  4.560446e+00    3.071415e+00
  4.592197e+00    2.979496e+00
  4.623948e+00    3.068729e+00
  4.655699e+00    3.076273e+00
  4.687451e+00    3.087459e+00
  4.719202e+00    3.109128e+00
  4.750953e+00    3.189650e+00
  4.782704e+00    3.136759e+00
  4.814455e+00    3.112279e+00
  4.846206e+00    3.094696e+00
  4.877957e+00    3.063609e+00
  4.909709e+00    3.152218e+00
  4.941460e+00    3.138069e+00
  4.973211e+00    3.125742e+00
  5.004962e+00    3.146162e+00
  5.036713e+00    3.148091e+00
  5.068464e+00    3.165955e+00
  5.100216e+00    3.113463e+00
  5.131967e+00    3.191706e+00
  5.163718e+00    3.172188e+00
  5.195469e+00    3.163855e+00
  5.227220e+00    3.174598e+00
  5.258971e+00    3.033290e+00
  5.290722e+00    3.114119e+00
  5.322474e+00    3.136893e+00
  5.354225e+00    3.197384e+00
  5.385976e+00    3.032895e+00
  5.417727e+00    3.039122e+00
  5.449478e+00    3.056313e+00
  5.481229e+00    3.076869e+00
  5.512980e+00    3.112839e+00
  5.544732e+00    3.108951e+00
  5.576483e+00    2.985208e+00
  5.608234e+00    3.009663e+00
  5.639985e+00    3.083442e+00
  5.671736e+00    3.083931e+00
  5.703487e+00    3.065267e+00
  5.735238e+00    3.048240e+00
  5.766990e+00    3.008802e+00
  5.798741e+00    2.998341e+00
  5.830492e+00    3.087942e+00
  5.862243e+00    3.025745e+00
  5.893994e+00    3.099861e+00
  5.925745e+00    3.030972e+00
  5.957497e+00    3.105163e+00
  5.989248e+00    3.066932e+00
  6.020999e+00    3.022249e+00
  6.052750e+00    3.034443e+00
  6.084501e+00    3.097636e+00
  6.116252e+00    3.093394e+00
  6.148003e+00    3.067233e+00
  6.179755e+00    3.073407e+00
  6.211506e+00    3.097024e+00
  6.243257e+00    3.083013e+00
  6.275008e+00    3.028795e+00
  6.306759e+00    3.029496e+00
  6.338510e+00    3.023051e+00
  6.370261e+00    3.091398e+00
  6.402013e+00    3.092373e+00
  6.433764e+00    2.963373e+00
  6.465515e+00    3.025948e+00
  6.497266e+00    3.016227e+00
  6.529017e+00    3.075628e+00
  6.560768e+00    3.004384e+00
  6.592519e+00    3.026663e+00
  6.624271e+00    3.051373e+00
  6.656022e+00    2.991638e+00
  6.687773e+00    3.007105e+00
  6.719524e+00    2.979063e+00
  6.751275e+00    3.062262e+00
  6.783026e+00    3.075708e+00
  6.814777e+00    3.047894e+00
  6.846529e+00    3.048024e+00
  6.878280e+00    2.992315e+00
  6.910031e+00    3.041004e+00
  6.941782e+00    3.058254e+00
  6.973533e+00    3.010713e+00
  7.005284e+00    3.066189e+00
  7.037036e+00    3.018722e+00
  7.068787e+00    3.006813e+00
  7.100538e+00    3.059814e+00
  7.132289e+00    2.993319e+00
  7.164040e+00    3.008837e+00
  7.195791e+00    3.028758e+00
  7.227542e+00    3.040320e+00
  7.259294e+00    2.989074e+00
  7.291045e+00    3.035135e+00
  7.322796e+00    2.912877e+00
  7.354547e+00    3.014524e+00
  7.386298e+00    3.024230e+00
  7.418049e+00    2.942094e+00
  7.449800e+00    2.917764e+00
  7.481552e+00    3.008879e+00
  7.513303e+00    2.994361e+00
  7.545054e+00    2.904189e+00
  7.576805e+00    2.921541e+00
  7.608556e+00    2.950942e+00
  7.640307e+00    2.943779e+00
  7.672058e+00    2.953472e+00
  7.703810e+00    2.995824e+00
  7.735561e+00    2.934728e+00
  7.767312e+00    2.955742e+00
  7.799063e+00    2.963703e+00
  7.830814e+00    2.924094e+00
  7.862565e+00    2.962422e+00
  7.894317e+00    2.915508e+00
  7.926068e+00    2.875402e+00
  7.957819e+00    2.997920e+00
  7.989570e+00    2.871788e+00
  8.021321e+00    2.957836e+00
  8.053072e+00    2.928381e+00
  8.084823e+00    2.896415e+00
  8.116575e+00    3.000539e+00
  8.148326e+00    2.979262e+00
  8.180077e+00    2.890194e+00
  8.211828e+00    2.920882e+00
  8.243579e+00    2.902312e+00
  8.275330e+00    2.891380e+00
  8.307081e+00    2.876785e+00
  8.338833e+00    2.975167e+00
  8.370584e+00    2.906520e+00
  8.402335e+00    2.847523e+00
  8.434086e+00    2.894963e+00
  8.465837e+00    2.925259e+00
  8.497588e+00    2.943093e+00
  8.529339e+00    2.886099e+00
  8.561091e+00    2.836405e+00
  8.592842e+00    2.845526e+00
  8.624593e+00    2.926071e+00
  8.656344e+00    2.805685e+00
  8.688095e+00    2.853732e+00
  8.719846e+00    2.874824e+00
  8.751598e+00    2.800062e+00
  8.783349e+00    2.861561e+00
  8.815100e+00    2.782002e+00
  8.846851e+00    2.877877e+00
  8.878602e+00    2.829183e+00
  8.910353e+00    2.828338e+00
  8.942104e+00    2.854918e+00
  8.973856e+00    2.794964e+00
  9.005607e+00    2.886471e+00
  9.037358e+00    2.857768e+00
  9.069109e+00    2.847153e+00
  9.100860e+00    2.889467e+00
  9.132611e+00    2.862166e+00
  9.164362e+00    2.758816e+00
  9.196114e+00    2.769962e+00
  9.227865e+00    2.770273e+00
  9.259616e+00    2.784938e+00
  9.291367e+00    2.746941e+00
  9.323118e+00    2.782568e+00
  9.354869e+00    2.718974e+00
  9.386620e+00    2.803058e+00
  9.418372e+00    2.785617e+00
  9.450123e+00    2.754755e+00
  9.481874e+00    2.756815e+00
  9.513625e+00    2.761917e+00
  9.545376e+00    2.708915e+00
  9.577127e+00    2.714032e+00
  9.608878e+00    2.759097e+00
  9.640630e+00    2.776469e+00
  9.672381e+00    2.734517e+00
  9.704132e+00    2.739542e+00
  9.735883e+00    2.770375e+00
  9.767634e+00    2.794211e+00
  9.799385e+00    2.716238e+00
  9.831137e+00    2.697739e+00
  9.862888e+00    2.645336e+00
  9.894639e+00    2.677492e+00
  9.926390e+00    2.690555e+00
  9.958141e+00    2.683209e+00
  9.989892e+00    2.665082e+00
  1.002164e+01    2.730844e+00
  1.005339e+01    2.651250e+00
  1.008515e+01    2.635115e+00
  1.011690e+01    2.623663e+00
  1.014865e+01    2.682916e+00
  1.018040e+01    2.648277e+00
  1.021215e+01    2.691468e+00
  1.024390e+01    2.642186e+00
  1.027565e+01    2.646318e+00
  1.030740e+01    2.628980e+00
  1.033915e+01    2.570797e+00
  1.037091e+01    2.603106e+00
  1.040266e+01    2.625997e+00
  1.043441e+01    2.612790e+00
  1.046616e+01    2.547197e+00
  1.049791e+01    2.598204e+00
  1.052966e+01    2.579535e+00
  1.056141e+01    2.534714e+00
  1.059316e+01    2.569749e+00
  1.062492e+01    2.563357e+00
  1.065667e+01    2.555871e+00
  1.068842e+01    2.549393e+00
  1.072017e+01    2.524634e+00
  1.075192e+01    2.537570e+00
  1.078367e+01    2.516336e+00
  1.081542e+01    2.543660e+00
  1.084717e+01    2.505538e+00
  1.087892e+01    2.506974e+00
  1.091068e+01    2.515530e+00
  1.094243e+01    2.514207e+00
  1.097418e+01    2.456339e+00
  1.100593e+01    2.493338e+00
  1.103768e+01    2.471526e+00
  1.106943e+01    2.499993e+00
  1.110118e+01    2.455233e+00
  1.113293e+01    2.431447e+00
  1.116468e+01    2.436179e+00
  1.119644e+01    2.422960e+00
  1.122819e+01    2.441354e+00
  1.125994e+01    2.417192e+00
  1.129169e+01    2.393177e+00
  1.132344e+01    2.396758e+00
  1.135519e+01    2.448052e+00
  1.138694e+01    2.370091e+00
  1.141869e+01    2.379225e+00
  1.145045e+01    2.446927e+00
  1.148220e+01    2.442692e+00
  1.151395e+01    2.394425e+00
  1.154570e+01    2.398716e+00
  1.157745e+01    2.366127e+00
  1.160920e+01    2.366649e+00
  1.164095e+01    2.389316e+00
  1.167270e+01    2.419158e+00
  1.170445e+01    2.341990e+00
  1.173621e+01    2.354589e+00
  1.176796e+01    2.345322e+00
  1.179971e+01    2.394474e+00
  1.183146e+01    2.415348e+00
  1.186321e+01    2.352027e+00
  1.189496e+01    2.346678e+00
  1.192671e+01    2.353218e+00
  1.195846e+01    2.352167e+00
  1.199021e+01    2.337540e+00
  1.202197e+01    2.338758e+00
  1.205372e+01    2.340328e+00
  1.208547e+01    2.365697e+00
  1.211722e+01    2.311427e+00
  1.214897e+01    2.354376e+00
  1.218072e+01    2.331018e+00
  1.221247e+01    2.293187e+00
  1.224422e+01    2.360586e+00
  1.227597e+01    2.295234e+00
  1.230773e+01    2.400692e+00
  1.233948e+01    2.314655e+00
  1.237123e+01    2.363947e+00
  1.240298e+01    2.352375e+00
  1.243473e+01    2.344688e+00
  1.246648e+01    2.348454e+00
  1.249823e+01    2.395084e+00
  1.252998e+01    2.369023e+00
  1.256174e+01    2.390009e+00
  1.259349e+01    2.405024e+00
  1.262524e+01    2.430173e+00
  1.265699e+01    2.433533e+00
  1.268874e+01    2.465145e+00
  1.272049e+01    2.525283e+00
  1.275224e+01    2.564604e+00
  1.278399e+01    2.587239e+00
  1.281574e+01    2.746406e+00
  1.284750e+01    2.883936e+00
  1.287925e+01    3.012006e+00
  1.291100e+01    3.236081e+00
  1.294275e+01    3.738916e+00
  1.297450e+01    4.358033e+00
  1.300625e+01    5.213529e+00
  1.303800e+01    6.845745e+00
  1.306975e+01    9.207647e+00
  1.310150e+01    1.212504e+01
  1.313326e+01    1.512476e+01
  1.316501e+01    1.775915e+01
  1.319676e+01    1.920767e+01
  1.322851e+01    1.729488e+01
  1.326026e+01    1.280412e+01
  1.329201e+01    9.052815e+00
  1.332376e+01    6.580394e+00
  1.335551e+01    5.183712e+00
  1.338727e+01    4.219448e+00
  1.341902e+01    3.691175e+00
  1.345077e+01    3.225669e+00
  1.348252e+01    2.945961e+00
  1.351427e+01    2.702613e+00
  1.354602e+01    2.646484e+00
  1.357777e+01    2.572874e+00
  1.360952e+01    2.491059e+00
  1.364127e+01    2.372374e+00
  1.367303e+01    2.344424e+00
  1.370478e+01    2.239705e+00
  1.373653e+01    2.232771e+00
  1.376828e+01    2.234439e+00
  1.380003e+01    2.222894e+00
  1.383178e+01    2.190405e+00
  1.386353e+01    2.114490e+00
  1.389528e+01    2.134136e+00
  1.392703e+01    2.093030e+00
  1.395879e+01    2.106656e+00
  1.399054e+01    2.051019e+00
  1.402229e+01    2.088242e+00
  1.405404e+01    2.079322e+00
  1.408579e+01    2.044099e+00
  1.411754e+01    2.049194e+00
  1.414929e+01    2.002266e+00
  1.418104e+01    2.018369e+00
  1.421279e+01    1.982155e+00
  1.424455e+01    1.996822e+00
  1.427630e+01    1.947906e+00
  1.430805e+01    1.982385e+00
  1.433980e+01    1.959902e+00
  1.437155e+01    1.967508e+00
  1.440330e+01    1.933491e+00
  1.443505e+01    1.926225e+00
  1.446680e+01    1.975660e+00
  1.449856e+01    1.959582e+00
  1.453031e+01    1.895576e+00
  1.456206e+01    1.965948e+00
  1.459381e+01    1.926091e+00
  1.462556e+01    1.950131e+00
  1.465731e+01    1.911795e+00
  1.468906e+01    1.883419e+00
  1.472081e+01    1.872222e+00
  1.475256e+01    1.909031e+00
  1.478432e+01    1.934625e+00
  1.481607e+01    1.944975e+00
  1.484782e+01    1.962561e+00
  1.487957e+01    1.960112e+00
  1.491132e+01    1.985700e+00
  1.494307e+01    1.993756e+00
  1.497482e+01    2.055074e+00
  1.500657e+01    2.099382e+00
  1.503832e+01    2.279832e+00
  1.507008e+01    2.438016e+00
  1.510183e+01    2.782435e+00
  1.513358e+01    3.333543e+00
  1.516533e+01    4.008823e+00
  1.519708e+01    4.875874e+00
  1.522883e+01    5.615428e+00
  1.526058e+01    6.225366e+00
  1.529233e+01    6.417940e+00
  1.532409e+01    5.917232e+00
  1.535584e+01    4.703541e+00
  1.538759e+01    3.641802e+00
  1.541934e+01    2.994398e+00
  1.545109e+01    2.551930e+00
  1.548284e+01    2.317119e+00
  1.551459e+01    2.105787e+00
  1.554634e+01    2.021705e+00
  1.557809e+01    1.905986e+00
  1.560985e+01    1.883591e+00
  1.564160e+01    1.848798e+00
  1.567335e+01    1.797887e+00
  1.570510e+01    1.780721e+00
  1.573685e+01    1.752196e+00
  1.576860e+01    1.738256e+00
  1.580035e+01    1.704854e+00
  1.583210e+01    1.713556e+00
  1.586385e+01    1.642654e+00
  1.589561e+01    1.676947e+00
  1.592736e+01    1.644793e+00
  1.595911e+01    1.617113e+00
  1.599086e+01    1.661917e+00
  1.602261e+01    1.604854e+00
  1.605436e+01    1.604422e+00
  1.608611e+01    1.627902e+00
  1.611786e+01    1.617948e+00
  1.614961e+01    1.621689e+00
  1.618137e+01    1.566974e+00
  1.621312e+01    1.600167e+00
  1.624487e+01    1.593672e+00
  1.627662e+01    1.556622e+00
  1.630837e+01    1.538782e+00
  1.634012e+01    1.540182e+00
  1.637187e+01    1.535600e+00
  1.640362e+01    1.543318e+00
  1.643538e+01    1.511354e+00
  1.646713e+01    1.483245e+00
  1.649888e+01    1.532955e+00
  1.653063e+01    1.518911e+00
  1.656238e+01    1.498421e+00
  1.659413e+01    1.527022e+00
  1.662588e+01    1.499208e+00
  1.665763e+01    1.486070e+00
  1.668938e+01    1.489233e+00
  1.672114e+01    1.461860e+00
  1.675289e+01    1.494431e+00
  1.678464e+01    1.514938e+00
  1.681639e+01    1.470394e+00
  1.684814e+01    1.481156e+00
  1.687989e+01    1.452219e+00
  1.691164e+01    1.440098e+00
  1.694339e+01    1.424652e+00
  1.697514e+01    1.465855e+00
  1.700690e+01    1.449813e+00
  1.703865e+01    1.450550e+00
  1.707040e+01    1.417592e+00
  1.710215e+01    1.476813e+00
  1.713390e+01    1.420651e+00
  1.716565e+01    1.397791e+00
  1.719740e+01    1.401844e+00
  1.722915e+01    1.400612e+00
  1.726091e+01    1.404970e+00
  1.729266e+01    1.410867e+00
  1.732441e+01    1.389565e+00
  1.735616e+01    1.378314e+00
  1.738791e+01    1.388324e+00
  1.741966e+01    1.367469e+00
  1.745141e+01    1.359836e+00
  1.748316e+01    1.353766e+00
  1.751491e+01    1.381015e+00
  1.754667e+01    1.350640e+00
  1.757842e+01    1.366492e+00
  1.761017e+01    1.345472e+00
  1.764192e+01    1.375442e+00
  1.767367e+01    1.359131e+00
  1.770542e+01    1.341162e+00
  1.773717e+01    1.340140e+00
  1.776892e+01    1.334842e+00
  1.780067e+01    1.322541e+00
  1.783243e+01    1.335583e+00
  1.786418e+01    1.350778e+00
  1.789593e+01    1.344073e+00
  1.792768e+01    1.322247e+00
  1.795943e+01    1.325807e+00
  1.799118e+01    1.307138e+00
  1.802293e+01    1.300573e+00
  1.805468e+01    1.277941e+00
  1.808643e+01    1.300935e+00
  1.811819e+01    1.282564e+00
  1.814994e+01    1.289236e+00
  1.818169e+01    1.289199e+00
  1.821344e+01    1.296906e+00
  1.824519e+01    1.306235e+00
  1.827694e+01    1.251450e+00
  1.830869e+01    1.289755e+00
  1.834044e+01    1.272591e+00
  1.837220e+01    1.278207e+00
  1.840395e+01    1.283885e+00
  1.843570e+01    1.278209e+00
  1.846745e+01    1.237399e+00
  1.849920e+01    1.281382e+00
  1.853095e+01    1.224254e+00
  1.856270e+01    1.255278e+00
  1.859445e+01    1.238996e+00
  1.862620e+01    1.255600e+00
  1.865796e+01    1.233718e+00
  1.868971e+01    1.247048e+00
  1.872146e+01    1.237542e+00
  1.875321e+01    1.249067e+00
  1.878496e+01    1.218145e+00
  1.881671e+01    1.240435e+00
  1.884846e+01    1.251689e+00
  1.888021e+01    1.210502e+00
  1.891196e+01    1.198432e+00
  1.894372e+01    1.203615e+00
  1.897547e+01    1.201141e+00
  1.900722e+01    1.179104e+00
  1.903897e+01    1.195399e+00
  1.907072e+01    1.189768e+00
  1.910247e+01    1.185201e+00
  1.913422e+01    1.194123e+00
  1.916597e+01    1.185078e+00
  1.919773e+01    1.195350e+00
  1.922948e+01    1.194298e+00
  1.926123e+01    1.197629e+00
  1.929298e+01    1.199822e+00
  1.932473e+01    1.177680e+00
  1.935648e+01    1.170720e+00
  1.938823e+01    1.178728e+00
  1.941998e+01    1.159852e+00
  1.945173e+01    1.181762e+00
  1.948349e+01    1.179195e+00
  1.951524e+01    1.170380e+00
  1.954699e+01    1.169047e+00
  1.957874e+01    1.150435e+00
  1.961049e+01    1.147281e+00
  1.964224e+01    1.158619e+00
  1.967399e+01    1.147298e+00
  1.970574e+01    1.136409e+00
  1.973749e+01    1.137260e+00
  1.976925e+01    1.161501e+00
  1.980100e+01    1.140008e+00
  1.983275e+01    1.150771e+00
  1.986450e+01    1.138769e+00
  1.989625e+01    1.121827e+00
  1.992800e+01    1.109661e+00
  1.995975e+01    1.147631e+00
  1.999150e+01    1.128494e+00
  2.002325e+01    1.114317e+00
  2.005501e+01    1.105630e+00
  2.008676e+01    1.110508e+00
  2.011851e+01    1.117476e+00
  2.015026e+01    1.103362e+00
  2.018201e+01    1.131207e+00
  2.021376e+01    1.110445e+00
  2.024551e+01    1.116881e+00
  2.027726e+01    1.099915e+00
  2.030902e+01    1.102616e+00
  2.034077e+01    1.116235e+00
  2.037252e+01    1.098527e+00
  2.040427e+01    1.094704e+00
  2.043602e+01    1.114773e+00
  2.046777e+01    1.101390e+00
  2.049952e+01    1.101256e+00
  2.053127e+01    1.095831e+00
  2.056302e+01    1.073643e+00
  2.059478e+01    1.122291e+00
  2.062653e+01    1.075559e+00
  2.065828e+01    1.120152e+00
  2.069003e+01    1.093875e+00
  2.072178e+01    1.096036e+00
  2.075353e+01    1.063932e+00
  2.078528e+01    1.077536e+00
  2.081703e+01    1.097830e+00
  2.084878e+01    1.072595e+00
  2.088054e+01    1.096521e+00
  2.091229e+01    1.058496e+00
  2.094404e+01    1.094685e+00
  2.097579e+01    1.124404e+00
  2.100754e+01    1.077991e+00
  2.103929e+01    1.119852e+00
  2.107104e+01    1.097312e+00
  2.110279e+01    1.080199e+00
  2.113455e+01    1.106196e+00
  2.116630e+01    1.095992e+00
  2.119805e+01    1.124147e+00
  2.122980e+01    1.130607e+00
  2.126155e+01    1.130357e+00
  2.129330e+01    1.146564e+00
  2.132505e+01    1.158569e+00
  2.135680e+01    1.131803e+00
  2.138855e+01    1.156087e+00
  2.142031e+01    1.184715e+00
  2.145206e+01    1.240516e+00
  2.148381e+01    1.250954e+00
  2.151556e+01    1.303716e+00
  2.154731e+01    1.377880e+00
  2.157906e+01    1.468544e+00
  2.161081e+01    1.551978e+00
  2.164256e+01    1.726951e+00
  2.167431e+01    1.963353e+00
  2.170607e+01    2.359803e+00
  2.173782e+01    2.955241e+00
  2.176957e+01    3.816593e+00
  2.180132e+01    4.961360e+00
  2.183307e+01    6.496428e+00
  2.186482e+01    8.252737e+00
  2.189657e+01    9.872977e+00
  2.192832e+01    1.062450e+01
  2.196007e+01    9.678648e+00
  2.199183e+01    7.624600e+00
  2.202358e+01    5.429799e+00
  2.205533e+01    3.923837e+00
  2.208708e+01    3.032424e+00
  2.211883e+01    2.412860e+00
  2.215058e+01    2.020975e+00
  2.218233e+01    1.774698e+00
  2.221408e+01    1.567757e+00
  2.224584e+01    1.440604e+00
  2.227759e+01    1.358906e+00
  2.230934e+01    1.268689e+00
  2.234109e+01    1.204191e+00
  2.237284e+01    1.165275e+00
  2.240459e+01    1.149653e+00
  2.243634e+01    1.090233e+00
  2.246809e+01    1.061542e+00
  2.249984e+01    1.043342e+00
  2.253160e+01    1.036851e+00
  2.256335e+01    1.002810e+00
  2.259510e+01    1.017483e+00
  2.262685e+01    9.986661e-01
  2.265860e+01    9.785274e-01
  2.269035e+01    9.741129e-01
  2.272210e+01    9.791187e-01
  2.275385e+01    9.442016e-01
  2.278560e+01    9.395744e-01
  2.281736e+01    9.611183e-01
  2.284911e+01    9.302596e-01
  2.288086e+01    9.351631e-01
  2.291261e+01    9.032821e-01
  2.294436e+01    9.424612e-01
  2.297611e+01    9.038712e-01
  2.300786e+01    9.061660e-01
  2.303961e+01    8.895510e-01
  2.307137e+01    9.179747e-01
  2.310312e+01    8.777955e-01
  2.313487e+01    8.719543e-01
  2.316662e+01    8.962342e-01
  2.319837e+01    9.006935e-01
  2.323012e+01    8.791495e-01
  2.326187e+01    8.793634e-01
  2.329362e+01    8.772895e-01
  2.332537e+01    8.651847e-01
  2.335713e+01    8.897589e-01
  2.338888e+01    8.725612e-01
  2.342063e+01    8.731354e-01
  2.345238e+01    8.454278e-01
  2.348413e+01    8.757482e-01
  2.351588e+01    8.475503e-01
  2.354763e+01    8.527900e-01
  2.357938e+01    8.456581e-01
  2.361113e+01    8.703386e-01
  2.364289e+01    8.644271e-01
  2.367464e+01    8.337581e-01
  2.370639e+01    8.281482e-01
  2.373814e+01    8.186293e-01
  2.376989e+01    8.190135e-01
  2.380164e+01    8.123803e-01
  2.383339e+01    8.028435e-01
  2.386514e+01    8.046185e-01
  2.389689e+01    8.020287e-01
  2.392865e+01    7.906964e-01
  2.396040e+01    7.993960e-01
  2.399215e+01    8.247669e-01
  2.402390e+01    7.954500e-01
  2.405565e+01    7.935001e-01
  2.408740e+01    7.733017e-01
  2.411915e+01    8.096598e-01
  2.415090e+01    7.702453e-01
  2.418266e+01    7.826191e-01
  2.421441e+01    8.057784e-01
  2.424616e+01    7.819819e-01
  2.427791e+01    7.870550e-01
  2.430966e+01    7.919685e-01
  2.434141e+01    7.738602e-01
  2.437316e+01    8.206740e-01
  2.440491e+01    7.975623e-01
  2.443666e+01    7.909302e-01
  2.446842e+01    8.337043e-01
  2.450017e+01    8.016270e-01
  2.453192e+01    7.819869e-01
  2.456367e+01    7.977921e-01
  2.459542e+01    8.100495e-01
  2.462717e+01    7.923418e-01
  2.465892e+01    8.061989e-01
  2.469067e+01    7.839321e-01
  2.472242e+01    7.978313e-01
  2.475418e+01    7.984715e-01
  2.478593e+01    7.978621e-01
  2.481768e+01    8.066181e-01
  2.484943e+01    8.014063e-01
  2.488118e+01    8.007047e-01
  2.491293e+01    8.113652e-01
  2.494468e+01    8.127381e-01
  2.497643e+01    8.075737e-01
  2.500819e+01    8.011999e-01
  2.503994e+01    7.926980e-01
  2.507169e+01    8.163486e-01
  2.510344e+01    8.316112e-01
  2.513519e+01    8.133255e-01
  2.516694e+01    8.273343e-01
  2.519869e+01    8.560601e-01
  2.523044e+01    8.419391e-01
  2.526219e+01    8.643402e-01
  2.529395e+01    8.471655e-01
  2.532570e+01    8.849161e-01
  2.535745e+01    9.145580e-01
  2.538920e+01    9.099593e-01
  2.542095e+01    8.957303e-01
  2.545270e+01    9.218407e-01
  2.548445e+01    9.669273e-01
  2.551620e+01    9.910964e-01
  2.554795e+01    1.039810e+00
  2.557971e+01    1.054739e+00
  2.561146e+01    1.102074e+00
  2.564321e+01    1.179030e+00
  2.567496e+01    1.273182e+00
  2.570671e+01    1.409338e+00
  2.573846e+01    1.602656e+00
  2.577021e+01    1.870665e+00
  2.580196e+01    2.275797e+00
  2.583371e+01    2.899641e+00
  2.586547e+01    3.844168e+00
  2.589722e+01    5.082223e+00
  2.592897e+01    6.555587e+00
  2.596072e+01    8.000225e+00
  2.599247e+01    8.758455e+00
  2.602422e+01    8.396234e+00
  2.605597e+01    6.752982e+00
  2.608772e+01    4.978903e+00
  2.611948e+01    3.653040e+00
  2.615123e+01    2.780319e+00
  2.618298e+01    2.214491e+00
  2.621473e+01    1.859634e+00
  2.624648e+01    1.567323e+00
  2.627823e+01    1.418674e+00
  2.630998e+01    1.295094e+00
  2.634173e+01    1.189135e+00
  2.637348e+01    1.100045e+00
  2.640524e+01    1.079002e+00
  2.643699e+01    1.040326e+00
  2.646874e+01    9.996857e-01
  2.650049e+01    9.990306e-01
  2.653224e+01    9.733502e-01
  2.656399e+01    9.633337e-01
  2.659574e+01    9.244147e-01
  2.662749e+01    9.389452e-01
  2.665924e+01    9.193335e-01
  2.669100e+01    9.261651e-01
  2.672275e+01    8.996544e-01
  2.675450e+01    9.485002e-01
  2.678625e+01    9.046814e-01
  2.681800e+01    9.223053e-01
  2.684975e+01    9.163134e-01
  2.688150e+01    9.337736e-01
  2.691325e+01    9.603581e-01
  2.694501e+01    9.578063e-01
  2.697676e+01    9.609917e-01
  2.700851e+01    1.011833e+00
  2.704026e+01    1.076168e+00
  2.707201e+01    1.149000e+00
  2.710376e+01    1.301847e+00
  2.713551e+01    1.490803e+00
  2.716726e+01    1.739738e+00
  2.719901e+01    2.109929e+00
  2.723077e+01    2.404554e+00
  2.726252e+01    2.512240e+00
  2.729427e+01    2.357688e+00
  2.732602e+01    1.993462e+00
  2.735777e+01    1.657461e+00
  2.738952e+01    1.359726e+00
  2.742127e+01    1.210239e+00
  2.745302e+01    1.111357e+00
  2.748477e+01    1.036446e+00
  2.751653e+01    9.964691e-01
  2.754828e+01    9.490526e-01
  2.758003e+01    9.309422e-01
  2.761178e+01    8.813298e-01
  2.764353e+01    8.487452e-01
  2.767528e+01    8.469251e-01
  2.770703e+01    8.414364e-01
  2.773878e+01    8.347898e-01
  2.777054e+01    8.725064e-01
  2.780229e+01    8.386756e-01
  2.783404e+01    8.178957e-01
  2.786579e+01    8.163949e-01
  2.789754e+01    8.248855e-01
  2.792929e+01    8.188648e-01
  2.796104e+01    8.094274e-01
  2.799279e+01    8.056589e-01
  2.802454e+01    8.070948e-01
  2.805630e+01    7.878425e-01
  2.808805e+01    8.050078e-01
  2.811980e+01    7.750487e-01
  2.815155e+01    7.890376e-01
  2.818330e+01    7.833807e-01
  2.821505e+01    7.892831e-01
  2.824680e+01    8.086151e-01
  2.827855e+01    7.720494e-01
  2.831030e+01    7.878814e-01
  2.834206e+01    7.897533e-01
  2.837381e+01    7.630002e-01
  2.840556e+01    7.609763e-01
  2.843731e+01    7.693927e-01
  2.846906e+01    7.831095e-01
  2.850081e+01    7.778813e-01
  2.853256e+01    7.773743e-01
  2.856431e+01    7.841884e-01
  2.859606e+01    7.554597e-01
  2.862782e+01    7.675368e-01
  2.865957e+01    7.397956e-01
  2.869132e+01    7.500760e-01
  2.872307e+01    7.501710e-01
  2.875482e+01    7.606046e-01
  2.878657e+01    7.606261e-01
  2.881832e+01    7.595407e-01
  2.885007e+01    7.442757e-01
  2.888183e+01    7.607138e-01
  2.891358e+01    7.363725e-01
  2.894533e+01    7.591195e-01
  2.897708e+01    7.356078e-01
  2.900883e+01    7.545907e-01
  2.904058e+01    7.547312e-01
  2.907233e+01    7.531857e-01
  2.910408e+01    7.713658e-01
  2.913583e+01    7.351659e-01
  2.916759e+01    7.390418e-01
  2.919934e+01    7.314274e-01
  2.923109e+01    7.383279e-01
  2.926284e+01    7.482571e-01
  2.929459e+01    7.519942e-01
  2.932634e+01    7.444586e-01
  2.935809e+01    7.560488e-01
  2.938984e+01    7.302598e-01
  2.942159e+01    7.346905e-01
  2.945335e+01    7.238465e-01
  2.948510e+01    7.329753e-01
  2.951685e+01    7.129775e-01
  2.954860e+01    7.312582e-01
  2.958035e+01    7.120905e-01
  2.961210e+01    7.490756e-01
  2.964385e+01    7.205333e-01
  2.967560e+01    7.197530e-01
  2.970736e+01    7.306854e-01
  2.973911e+01    7.299860e-01
  2.977086e+01    7.140037e-01
  2.980261e+01    7.404871e-01
  2.983436e+01    7.213330e-01
  2.986611e+01    7.369223e-01
  2.989786e+01    7.152868e-01
  2.992961e+01    7.483519e-01
  2.996136e+01    7.393271e-01
  2.999312e+01    7.500464e-01
  3.002487e+01    7.655231e-01
  3.005662e+01    7.319810e-01
  3.008837e+01    7.374758e-01
  3.012012e+01    7.363061e-01
  3.015187e+01    7.263362e-01
  3.018362e+01    7.131879e-01
  3.021537e+01    7.244266e-01
  3.024712e+01    7.341852e-01
  3.027888e+01    7.180552e-01
  3.031063e+01    7.213880e-01
  3.034238e+01    7.109339e-01
  3.037413e+01    7.169057e-01
  3.040588e+01    7.218735e-01
  3.043763e+01    7.318723e-01
  3.046938e+01    7.206426e-01
  3.050113e+01    7.126009e-01
  3.053288e+01    7.225506e-01
  3.056464e+01    7.159479e-01
  3.059639e+01    7.179196e-01
  3.062814e+01    7.274137e-01
  3.065989e+01    7.141741e-01
  3.069164e+01    7.102811e-01
  3.072339e+01    7.140417e-01
  3.075514e+01    7.017900e-01
  3.078689e+01    7.038875e-01
  3.081865e+01    6.980938e-01
  3.085040e+01    7.218456e-01
  3.088215e+01    7.269604e-01
  3.091390e+01    7.179599e-01
  3.094565e+01    7.103031e-01
  3.097740e+01    7.400794e-01
  3.100915e+01    7.462757e-01
  3.104090e+01    7.311407e-01
  3.107265e+01    7.283599e-01
  3.110441e+01    7.220984e-01
  3.113616e+01    7.238370e-01
  3.116791e+01    7.239293e-01
  3.119966e+01    7.177061e-01
  3.123141e+01    7.089283e-01
  3.126316e+01    7.471668e-01
  3.129491e+01    7.197661e-01
  3.132666e+01    7.324788e-01
  3.135841e+01    7.475466e-01
  3.139017e+01    7.461197e-01
  3.142192e+01    7.518429e-01
  3.145367e+01    7.644609e-01
  3.148542e+01    7.967378e-01
  3.151717e+01    7.815551e-01
  3.154892e+01    7.919267e-01
  3.158067e+01    7.886150e-01
  3.161242e+01    8.017853e-01
  3.164418e+01    8.479900e-01
  3.167593e+01    8.889039e-01
  3.170768e+01    8.983557e-01
  3.173943e+01    9.803813e-01
  3.177118e+01    1.110512e+00
  3.180293e+01    1.244821e+00
  3.183468e+01    1.427896e+00
  3.186643e+01    1.729438e+00
  3.189818e+01    2.069104e+00
  3.192994e+01    2.416402e+00
  3.196169e+01    2.535048e+00
  3.199344e+01    2.325788e+00
  3.202519e+01    1.952005e+00
  3.205694e+01    1.559224e+00
  3.208869e+01    1.308524e+00
  3.212044e+01    1.099099e+00
  3.215219e+01    1.016139e+00
  3.218394e+01    8.945989e-01
  3.221570e+01    9.051329e-01
  3.224745e+01    8.398436e-01
  3.227920e+01    8.059163e-01
  3.231095e+01    7.982042e-01
  3.234270e+01    7.558043e-01
  3.237445e+01    7.673442e-01
  3.240620e+01    7.281147e-01
  3.243795e+01    7.571361e-01
  3.246970e+01    7.494482e-01
  3.250146e+01    7.365108e-01
  3.253321e+01    7.427735e-01
  3.254908e+01    7.415301e-01