File: XRD/2024-07-27_002_Ru-CGO-ex_Activtation_ramp_000002_data_000186.dat
# == pyFAI calibration ==
# Distance Sample to Detector: 0.4 m
# PONI: 9.750e-02, 1.135e-01 m
# Rotations: -0.000175 0.000000 -0.000000 rad
#
# == Fit2d calibration ==
# Distance Sample-beamCenter: 400.000 mm
# Center: x=1514.000, y=1300.000 pix
# Tilt: 0.010 deg  TiltPlanRot: 0.010 deg
#
# Detector Detector	 Spline= None	 PixelSize= 7.500e-05, 7.500e-05 m
#    Detector has a mask: False
#    Detector has a dark current: False
#    detector has a flat field: False
#
# Wavelength: 6.888e-11 m
# Mask applied: user provided
# Dark current applied: False
# Flat field applied: False
# Polarization factor: 0.99
# Normalization factor: 1.0
# --> /home/myspot/data/2024_07_Rosario/Ru-CGO-ex/2024-07-27_002_Ru-CGO-ex_Activtation_ramp_000002_data_000186.dat
#       q_nm^-1             I
  2.003187e-02    0.000000e+00
  5.178302e-02    1.629360e-01
  8.353417e-02    1.405548e-01
  1.152853e-01    3.895709e-02
  1.470365e-01    3.390466e-02
  1.787876e-01    5.237325e-02
  2.105388e-01    4.099061e-02
  2.422899e-01    2.767542e-02
  2.740411e-01    2.687073e-02
  3.057922e-01    5.654119e-02
  3.375433e-01    5.832879e-02
  3.692945e-01    3.513383e-02
  4.010456e-01    4.618417e-02
  4.327968e-01    4.101352e-02
  4.645479e-01    5.852387e-02
  4.962991e-01    1.396217e-02
  5.280502e-01    4.573936e-02
  5.598014e-01    6.094103e-02
  5.915525e-01    3.945146e-02
  6.233037e-01    4.388868e-02
  6.550548e-01    3.175318e-02
  6.868060e-01    3.778511e-02
  7.185571e-01    4.191983e-02
  7.503083e-01    3.450490e-02
  7.820594e-01    1.100189e-01
  8.138106e-01    2.154706e-01
  8.455617e-01    2.691899e-01
  8.773129e-01    4.111411e-01
  9.090640e-01    6.102558e-01
  9.408152e-01    7.470763e-01
  9.725663e-01    8.927196e-01
  1.004317e+00    1.004483e+00
  1.036069e+00    1.138146e+00
  1.067820e+00    1.286719e+00
  1.099571e+00    1.384027e+00
  1.131322e+00    1.361770e+00
  1.163073e+00    1.454860e+00
  1.194824e+00    1.651049e+00
  1.226575e+00    1.956492e+00
  1.258327e+00    2.248458e+00
  1.290078e+00    2.385504e+00
  1.321829e+00    2.601477e+00
  1.353580e+00    2.576537e+00
  1.385331e+00    2.495812e+00
  1.417082e+00    2.594755e+00
  1.448834e+00    2.698437e+00
  1.480585e+00    2.829072e+00
  1.512336e+00    2.888104e+00
  1.544087e+00    2.819710e+00
  1.575838e+00    2.862515e+00
  1.607589e+00    2.862973e+00
  1.639340e+00    2.708787e+00
  1.671092e+00    2.873697e+00
  1.702843e+00    2.650887e+00
  1.734594e+00    2.679276e+00
  1.766345e+00    2.683722e+00
  1.798096e+00    2.723256e+00
  1.829847e+00    2.677961e+00
  1.861598e+00    2.695095e+00
  1.893350e+00    2.571115e+00
  1.925101e+00    2.679657e+00
  1.956852e+00    2.625301e+00
  1.988603e+00    2.724886e+00
  2.020354e+00    2.720557e+00
  2.052105e+00    2.680048e+00
  2.083856e+00    2.758740e+00
  2.115608e+00    2.767943e+00
  2.147359e+00    2.742968e+00
  2.179110e+00    2.704419e+00
  2.210861e+00    2.639588e+00
  2.242612e+00    2.638955e+00
  2.274363e+00    2.744148e+00
  2.306115e+00    2.603265e+00
  2.337866e+00    2.759649e+00
  2.369617e+00    2.829610e+00
  2.401368e+00    2.811741e+00
  2.433119e+00    2.882532e+00
  2.464870e+00    2.850926e+00
  2.496621e+00    2.773181e+00
  2.528373e+00    2.807361e+00
  2.560124e+00    2.737303e+00
  2.591875e+00    2.698025e+00
  2.623626e+00    2.745994e+00
  2.655377e+00    2.879356e+00
  2.687128e+00    2.786375e+00
  2.718879e+00    2.713068e+00
  2.750631e+00    2.800715e+00
  2.782382e+00    2.781603e+00
  2.814133e+00    2.885704e+00
  2.845884e+00    2.823953e+00
  2.877635e+00    2.871727e+00
  2.909386e+00    2.896015e+00
  2.941137e+00    2.895860e+00
  2.972889e+00    2.842745e+00
  3.004640e+00    2.868669e+00
  3.036391e+00    2.862887e+00
  3.068142e+00    2.777796e+00
  3.099893e+00    2.729270e+00
  3.131644e+00    2.939632e+00
  3.163395e+00    2.920265e+00
  3.195147e+00    2.934302e+00
  3.226898e+00    2.926234e+00
  3.258649e+00    2.873024e+00
  3.290400e+00    2.890369e+00
  3.322151e+00    2.932365e+00
  3.353902e+00    2.875953e+00
  3.385654e+00    2.911215e+00
  3.417405e+00    2.983478e+00
  3.449156e+00    3.041411e+00
  3.480907e+00    2.983930e+00
  3.512658e+00    2.989091e+00
  3.544409e+00    2.860565e+00
  3.576160e+00    2.973133e+00
  3.607912e+00    2.986334e+00
  3.639663e+00    2.961284e+00
  3.671414e+00    3.008517e+00
  3.703165e+00    3.018457e+00
  3.734916e+00    2.991589e+00
  3.766667e+00    2.985210e+00
  3.798418e+00    2.979809e+00
  3.830170e+00    2.957742e+00
  3.861921e+00    3.092878e+00
  3.893672e+00    2.904937e+00
  3.925423e+00    3.027851e+00
  3.957174e+00    2.982445e+00
  3.988925e+00    2.953285e+00
  4.020676e+00    3.065187e+00
  4.052428e+00    3.049925e+00
  4.084179e+00    2.985838e+00
  4.115930e+00    3.024567e+00
  4.147681e+00    3.076561e+00
  4.179432e+00    3.044902e+00
  4.211183e+00    3.074258e+00
  4.242935e+00    2.938401e+00
  4.274686e+00    2.996792e+00
  4.306437e+00    3.042424e+00
  4.338188e+00    3.132408e+00
  4.369939e+00    2.966830e+00
  4.401690e+00    3.076133e+00
  4.433441e+00    3.146082e+00
  4.465193e+00    3.066131e+00
  4.496944e+00    3.106684e+00
  4.528695e+00    3.133086e+00
  4.560446e+00    3.112150e+00
  4.592197e+00    3.170378e+00
  4.623948e+00    3.081303e+00
  4.655699e+00    3.070771e+00
  4.687451e+00    3.109208e+00
  4.719202e+00    3.148354e+00
  4.750953e+00    3.055872e+00
  4.782704e+00    3.121366e+00
  4.814455e+00    3.068457e+00
  4.846206e+00    3.165060e+00
  4.877957e+00    3.103022e+00
  4.909709e+00    3.114963e+00
  4.941460e+00    3.110611e+00
  4.973211e+00    3.078992e+00
  5.004962e+00    3.198807e+00
  5.036713e+00    3.187894e+00
  5.068464e+00    3.187715e+00
  5.100216e+00    3.133100e+00
  5.131967e+00    3.160872e+00
  5.163718e+00    3.161108e+00
  5.195469e+00    3.152822e+00
  5.227220e+00    3.033241e+00
  5.258971e+00    3.129982e+00
  5.290722e+00    3.051658e+00
  5.322474e+00    3.101397e+00
  5.354225e+00    3.260293e+00
  5.385976e+00    3.143779e+00
  5.417727e+00    3.110789e+00
  5.449478e+00    3.148873e+00
  5.481229e+00    3.143260e+00
  5.512980e+00    3.017936e+00
  5.544732e+00    3.056211e+00
  5.576483e+00    3.126204e+00
  5.608234e+00    3.120862e+00
  5.639985e+00    3.136861e+00
  5.671736e+00    3.138686e+00
  5.703487e+00    3.090391e+00
  5.735238e+00    3.154654e+00
  5.766990e+00    3.002480e+00
  5.798741e+00    3.058407e+00
  5.830492e+00    3.082040e+00
  5.862243e+00    3.019116e+00
  5.893994e+00    3.043271e+00
  5.925745e+00    3.037901e+00
  5.957497e+00    2.985303e+00
  5.989248e+00    2.997871e+00
  6.020999e+00    3.004967e+00
  6.052750e+00    3.043641e+00
  6.084501e+00    3.038493e+00
  6.116252e+00    3.060746e+00
  6.148003e+00    3.072090e+00
  6.179755e+00    3.048002e+00
  6.211506e+00    3.070795e+00
  6.243257e+00    3.039100e+00
  6.275008e+00    2.983636e+00
  6.306759e+00    3.051483e+00
  6.338510e+00    3.111815e+00
  6.370261e+00    2.986101e+00
  6.402013e+00    3.070700e+00
  6.433764e+00    3.106729e+00
  6.465515e+00    3.130402e+00
  6.497266e+00    3.024782e+00
  6.529017e+00    3.030453e+00
  6.560768e+00    3.071646e+00
  6.592519e+00    2.992072e+00
  6.624271e+00    3.022960e+00
  6.656022e+00    3.029280e+00
  6.687773e+00    3.105179e+00
  6.719524e+00    3.097604e+00
  6.751275e+00    3.141369e+00
  6.783026e+00    3.053490e+00
  6.814777e+00    3.011538e+00
  6.846529e+00    3.016803e+00
  6.878280e+00    3.060672e+00
  6.910031e+00    2.962536e+00
  6.941782e+00    3.071429e+00
  6.973533e+00    3.061257e+00
  7.005284e+00    2.997108e+00
  7.037036e+00    3.038553e+00
  7.068787e+00    3.069549e+00
  7.100538e+00    3.082678e+00
  7.132289e+00    3.061301e+00
  7.164040e+00    3.010844e+00
  7.195791e+00    3.040134e+00
  7.227542e+00    3.057465e+00
  7.259294e+00    3.064194e+00
  7.291045e+00    3.063203e+00
  7.322796e+00    3.058658e+00
  7.354547e+00    3.031753e+00
  7.386298e+00    2.991374e+00
  7.418049e+00    2.986265e+00
  7.449800e+00    3.004350e+00
  7.481552e+00    2.918818e+00
  7.513303e+00    3.047867e+00
  7.545054e+00    3.002316e+00
  7.576805e+00    2.945990e+00
  7.608556e+00    3.024498e+00
  7.640307e+00    2.976384e+00
  7.672058e+00    2.932915e+00
  7.703810e+00    2.973158e+00
  7.735561e+00    3.019679e+00
  7.767312e+00    2.980623e+00
  7.799063e+00    2.964354e+00
  7.830814e+00    2.968795e+00
  7.862565e+00    2.952066e+00
  7.894317e+00    2.943285e+00
  7.926068e+00    2.997947e+00
  7.957819e+00    2.916134e+00
  7.989570e+00    2.964638e+00
  8.021321e+00    2.939801e+00
  8.053072e+00    2.948902e+00
  8.084823e+00    2.985443e+00
  8.116575e+00    2.973639e+00
  8.148326e+00    2.986178e+00
  8.180077e+00    2.954816e+00
  8.211828e+00    2.992626e+00
  8.243579e+00    3.001190e+00
  8.275330e+00    2.989837e+00
  8.307081e+00    2.984772e+00
  8.338833e+00    2.928241e+00
  8.370584e+00    2.948764e+00
  8.402335e+00    2.964862e+00
  8.434086e+00    2.829870e+00
  8.465837e+00    2.889770e+00
  8.497588e+00    2.856237e+00
  8.529339e+00    2.871689e+00
  8.561091e+00    2.916515e+00
  8.592842e+00    2.869887e+00
  8.624593e+00    2.892352e+00
  8.656344e+00    2.893124e+00
  8.688095e+00    2.952949e+00
  8.719846e+00    2.848705e+00
  8.751598e+00    2.840905e+00
  8.783349e+00    2.873732e+00
  8.815100e+00    2.859920e+00
  8.846851e+00    2.832128e+00
  8.878602e+00    2.901334e+00
  8.910353e+00    2.832233e+00
  8.942104e+00    2.782529e+00
  8.973856e+00    2.791985e+00
  9.005607e+00    2.804185e+00
  9.037358e+00    2.838431e+00
  9.069109e+00    2.845764e+00
  9.100860e+00    2.857694e+00
  9.132611e+00    2.797987e+00
  9.164362e+00    2.775638e+00
  9.196114e+00    2.812570e+00
  9.227865e+00    2.839702e+00
  9.259616e+00    2.794586e+00
  9.291367e+00    2.803014e+00
  9.323118e+00    2.773418e+00
  9.354869e+00    2.775980e+00
  9.386620e+00    2.806297e+00
  9.418372e+00    2.741317e+00
  9.450123e+00    2.805401e+00
  9.481874e+00    2.754918e+00
  9.513625e+00    2.804056e+00
  9.545376e+00    2.775949e+00
  9.577127e+00    2.846295e+00
  9.608878e+00    2.777548e+00
  9.640630e+00    2.754373e+00
  9.672381e+00    2.711993e+00
  9.704132e+00    2.760051e+00
  9.735883e+00    2.724141e+00
  9.767634e+00    2.704395e+00
  9.799385e+00    2.754131e+00
  9.831137e+00    2.730055e+00
  9.862888e+00    2.723492e+00
  9.894639e+00    2.701340e+00
  9.926390e+00    2.704942e+00
  9.958141e+00    2.632233e+00
  9.989892e+00    2.676036e+00
  1.002164e+01    2.677510e+00
  1.005339e+01    2.592954e+00
  1.008515e+01    2.682490e+00
  1.011690e+01    2.637413e+00
  1.014865e+01    2.628282e+00
  1.018040e+01    2.644390e+00
  1.021215e+01    2.643925e+00
  1.024390e+01    2.654823e+00
  1.027565e+01    2.625890e+00
  1.030740e+01    2.630637e+00
  1.033915e+01    2.663233e+00
  1.037091e+01    2.618945e+00
  1.040266e+01    2.633182e+00
  1.043441e+01    2.547139e+00
  1.046616e+01    2.655560e+00
  1.049791e+01    2.538788e+00
  1.052966e+01    2.659102e+00
  1.056141e+01    2.564589e+00
  1.059316e+01    2.571040e+00
  1.062492e+01    2.580922e+00
  1.065667e+01    2.566060e+00
  1.068842e+01    2.579479e+00
  1.072017e+01    2.545454e+00
  1.075192e+01    2.540995e+00
  1.078367e+01    2.579973e+00
  1.081542e+01    2.569436e+00
  1.084717e+01    2.490688e+00
  1.087892e+01    2.518051e+00
  1.091068e+01    2.548927e+00
  1.094243e+01    2.517080e+00
  1.097418e+01    2.469527e+00
  1.100593e+01    2.462531e+00
  1.103768e+01    2.535379e+00
  1.106943e+01    2.464074e+00
  1.110118e+01    2.488987e+00
  1.113293e+01    2.475296e+00
  1.116468e+01    2.481987e+00
  1.119644e+01    2.471829e+00
  1.122819e+01    2.445574e+00
  1.125994e+01    2.476095e+00
  1.129169e+01    2.508670e+00
  1.132344e+01    2.434650e+00
  1.135519e+01    2.428255e+00
  1.138694e+01    2.444796e+00
  1.141869e+01    2.389456e+00
  1.145045e+01    2.418965e+00
  1.148220e+01    2.410356e+00
  1.151395e+01    2.426598e+00
  1.154570e+01    2.340096e+00
  1.157745e+01    2.387153e+00
  1.160920e+01    2.362547e+00
  1.164095e+01    2.380936e+00
  1.167270e+01    2.399502e+00
  1.170445e+01    2.377897e+00
  1.173621e+01    2.358865e+00
  1.176796e+01    2.376558e+00
  1.179971e+01    2.368513e+00
  1.183146e+01    2.368472e+00
  1.186321e+01    2.312852e+00
  1.189496e+01    2.351551e+00
  1.192671e+01    2.327830e+00
  1.195846e+01    2.349033e+00
  1.199021e+01    2.305685e+00
  1.202197e+01    2.346617e+00
  1.205372e+01    2.363810e+00
  1.208547e+01    2.400079e+00
  1.211722e+01    2.304011e+00
  1.214897e+01    2.344731e+00
  1.218072e+01    2.355539e+00
  1.221247e+01    2.357918e+00
  1.224422e+01    2.334218e+00
  1.227597e+01    2.301361e+00
  1.230773e+01    2.341586e+00
  1.233948e+01    2.376524e+00
  1.237123e+01    2.368595e+00
  1.240298e+01    2.351929e+00
  1.243473e+01    2.340909e+00
  1.246648e+01    2.343454e+00
  1.249823e+01    2.349044e+00
  1.252998e+01    2.352292e+00
  1.256174e+01    2.352299e+00
  1.259349e+01    2.352185e+00
  1.262524e+01    2.370055e+00
  1.265699e+01    2.414830e+00
  1.268874e+01    2.443535e+00
  1.272049e+01    2.478350e+00
  1.275224e+01    2.560124e+00
  1.278399e+01    2.641267e+00
  1.281574e+01    2.704575e+00
  1.284750e+01    2.799872e+00
  1.287925e+01    3.015745e+00
  1.291100e+01    3.287950e+00
  1.294275e+01    3.727025e+00
  1.297450e+01    4.331216e+00
  1.300625e+01    5.330543e+00
  1.303800e+01    7.081896e+00
  1.306975e+01    9.348278e+00
  1.310150e+01    1.176717e+01
  1.313326e+01    1.396804e+01
  1.316501e+01    1.555252e+01
  1.319676e+01    1.521670e+01
  1.322851e+01    1.227182e+01
  1.326026e+01    8.744229e+00
  1.329201e+01    6.382560e+00
  1.332376e+01    4.949298e+00
  1.335551e+01    4.071712e+00
  1.338727e+01    3.474060e+00
  1.341902e+01    3.101866e+00
  1.345077e+01    2.867867e+00
  1.348252e+01    2.693256e+00
  1.351427e+01    2.608377e+00
  1.354602e+01    2.542224e+00
  1.357777e+01    2.344828e+00
  1.360952e+01    2.359837e+00
  1.364127e+01    2.294702e+00
  1.367303e+01    2.266782e+00
  1.370478e+01    2.195805e+00
  1.373653e+01    2.204437e+00
  1.376828e+01    2.137406e+00
  1.380003e+01    2.139259e+00
  1.383178e+01    2.135861e+00
  1.386353e+01    2.103568e+00
  1.389528e+01    2.075697e+00
  1.392703e+01    2.040472e+00
  1.395879e+01    2.052152e+00
  1.399054e+01    2.051888e+00
  1.402229e+01    1.985081e+00
  1.405404e+01    2.041009e+00
  1.408579e+01    2.030629e+00
  1.411754e+01    1.992406e+00
  1.414929e+01    2.018142e+00
  1.418104e+01    1.982311e+00
  1.421279e+01    2.014173e+00
  1.424455e+01    1.980400e+00
  1.427630e+01    1.938839e+00
  1.430805e+01    1.977994e+00
  1.433980e+01    1.967269e+00
  1.437155e+01    1.929742e+00
  1.440330e+01    1.983664e+00
  1.443505e+01    1.949683e+00
  1.446680e+01    1.953801e+00
  1.449856e+01    1.926520e+00
  1.453031e+01    1.929770e+00
  1.456206e+01    1.907573e+00
  1.459381e+01    1.925574e+00
  1.462556e+01    1.889140e+00
  1.465731e+01    1.912193e+00
  1.468906e+01    1.957134e+00
  1.472081e+01    1.913312e+00
  1.475256e+01    1.906191e+00
  1.478432e+01    1.938623e+00
  1.481607e+01    1.879328e+00
  1.484782e+01    1.912730e+00
  1.487957e+01    1.961729e+00
  1.491132e+01    2.005749e+00
  1.494307e+01    2.043173e+00
  1.497482e+01    2.081866e+00
  1.500657e+01    2.174585e+00
  1.503832e+01    2.300692e+00
  1.507008e+01    2.481831e+00
  1.510183e+01    2.861325e+00
  1.513358e+01    3.414130e+00
  1.516533e+01    4.163297e+00
  1.519708e+01    4.745677e+00
  1.522883e+01    5.223519e+00
  1.526058e+01    5.517187e+00
  1.529233e+01    5.173579e+00
  1.532409e+01    4.437529e+00
  1.535584e+01    3.473729e+00
  1.538759e+01    2.941605e+00
  1.541934e+01    2.474939e+00
  1.545109e+01    2.235945e+00
  1.548284e+01    2.076258e+00
  1.551459e+01    2.014648e+00
  1.554634e+01    1.907019e+00
  1.557809e+01    1.877779e+00
  1.560985e+01    1.837083e+00
  1.564160e+01    1.798697e+00
  1.567335e+01    1.748823e+00
  1.570510e+01    1.708179e+00
  1.573685e+01    1.718982e+00
  1.576860e+01    1.671455e+00
  1.580035e+01    1.669429e+00
  1.583210e+01    1.688339e+00
  1.586385e+01    1.671398e+00
  1.589561e+01    1.629797e+00
  1.592736e+01    1.622110e+00
  1.595911e+01    1.625822e+00
  1.599086e+01    1.617590e+00
  1.602261e+01    1.647442e+00
  1.605436e+01    1.602424e+00
  1.608611e+01    1.591058e+00
  1.611786e+01    1.584979e+00
  1.614961e+01    1.578805e+00
  1.618137e+01    1.566218e+00
  1.621312e+01    1.595562e+00
  1.624487e+01    1.560948e+00
  1.627662e+01    1.571635e+00
  1.630837e+01    1.564600e+00
  1.634012e+01    1.552067e+00
  1.637187e+01    1.547240e+00
  1.640362e+01    1.543173e+00
  1.643538e+01    1.520979e+00
  1.646713e+01    1.516853e+00
  1.649888e+01    1.517986e+00
  1.653063e+01    1.555372e+00
  1.656238e+01    1.492667e+00
  1.659413e+01    1.495860e+00
  1.662588e+01    1.501715e+00
  1.665763e+01    1.484036e+00
  1.668938e+01    1.482164e+00
  1.672114e+01    1.501909e+00
  1.675289e+01    1.445142e+00
  1.678464e+01    1.478738e+00
  1.681639e+01    1.458934e+00
  1.684814e+01    1.459966e+00
  1.687989e+01    1.481334e+00
  1.691164e+01    1.448160e+00
  1.694339e+01    1.449715e+00
  1.697514e+01    1.447637e+00
  1.700690e+01    1.406028e+00
  1.703865e+01    1.410885e+00
  1.707040e+01    1.452519e+00
  1.710215e+01    1.417360e+00
  1.713390e+01    1.413929e+00
  1.716565e+01    1.425839e+00
  1.719740e+01    1.366488e+00
  1.722915e+01    1.389834e+00
  1.726091e+01    1.365139e+00
  1.729266e+01    1.394632e+00
  1.732441e+01    1.384007e+00
  1.735616e+01    1.362042e+00
  1.738791e+01    1.384311e+00
  1.741966e+01    1.379907e+00
  1.745141e+01    1.354752e+00
  1.748316e+01    1.403824e+00
  1.751491e+01    1.375947e+00
  1.754667e+01    1.387789e+00
  1.757842e+01    1.378165e+00
  1.761017e+01    1.352304e+00
  1.764192e+01    1.338044e+00
  1.767367e+01    1.338939e+00
  1.770542e+01    1.369608e+00
  1.773717e+01    1.322431e+00
  1.776892e+01    1.313807e+00
  1.780067e+01    1.314435e+00
  1.783243e+01    1.331322e+00
  1.786418e+01    1.346236e+00
  1.789593e+01    1.318465e+00
  1.792768e+01    1.331787e+00
  1.795943e+01    1.315836e+00
  1.799118e+01    1.339541e+00
  1.802293e+01    1.320234e+00
  1.805468e+01    1.307877e+00
  1.808643e+01    1.319697e+00
  1.811819e+01    1.294108e+00
  1.814994e+01    1.281870e+00
  1.818169e+01    1.266517e+00
  1.821344e+01    1.296060e+00
  1.824519e+01    1.283936e+00
  1.827694e+01    1.281770e+00
  1.830869e+01    1.280774e+00
  1.834044e+01    1.261293e+00
  1.837220e+01    1.270936e+00
  1.840395e+01    1.288846e+00
  1.843570e+01    1.279463e+00
  1.846745e+01    1.248952e+00
  1.849920e+01    1.249821e+00
  1.853095e+01    1.251609e+00
  1.856270e+01    1.283726e+00
  1.859445e+01    1.251469e+00
  1.862620e+01    1.253038e+00
  1.865796e+01    1.239937e+00
  1.868971e+01    1.215962e+00
  1.872146e+01    1.216841e+00
  1.875321e+01    1.219552e+00
  1.878496e+01    1.202427e+00
  1.881671e+01    1.203382e+00
  1.884846e+01    1.214762e+00
  1.888021e+01    1.203249e+00
  1.891196e+01    1.209215e+00
  1.894372e+01    1.195324e+00
  1.897547e+01    1.210260e+00
  1.900722e+01    1.189789e+00
  1.903897e+01    1.204820e+00
  1.907072e+01    1.185255e+00
  1.910247e+01    1.185493e+00
  1.913422e+01    1.203172e+00
  1.916597e+01    1.216560e+00
  1.919773e+01    1.198290e+00
  1.922948e+01    1.158676e+00
  1.926123e+01    1.176225e+00
  1.929298e+01    1.174757e+00
  1.932473e+01    1.184613e+00
  1.935648e+01    1.171778e+00
  1.938823e+01    1.159536e+00
  1.941998e+01    1.149824e+00
  1.945173e+01    1.153898e+00
  1.948349e+01    1.168609e+00
  1.951524e+01    1.148043e+00
  1.954699e+01    1.155335e+00
  1.957874e+01    1.148559e+00
  1.961049e+01    1.156723e+00
  1.964224e+01    1.124084e+00
  1.967399e+01    1.157546e+00
  1.970574e+01    1.123668e+00
  1.973749e+01    1.136736e+00
  1.976925e+01    1.125759e+00
  1.980100e+01    1.124268e+00
  1.983275e+01    1.142609e+00
  1.986450e+01    1.116428e+00
  1.989625e+01    1.120563e+00
  1.992800e+01    1.116894e+00
  1.995975e+01    1.101648e+00
  1.999150e+01    1.138842e+00
  2.002325e+01    1.137876e+00
  2.005501e+01    1.106478e+00
  2.008676e+01    1.124497e+00
  2.011851e+01    1.117938e+00
  2.015026e+01    1.109440e+00
  2.018201e+01    1.119465e+00
  2.021376e+01    1.083424e+00
  2.024551e+01    1.085892e+00
  2.027726e+01    1.088034e+00
  2.030902e+01    1.073719e+00
  2.034077e+01    1.101382e+00
  2.037252e+01    1.084936e+00
  2.040427e+01    1.066774e+00
  2.043602e+01    1.103844e+00
  2.046777e+01    1.084814e+00
  2.049952e+01    1.098287e+00
  2.053127e+01    1.083537e+00
  2.056302e+01    1.090912e+00
  2.059478e+01    1.084919e+00
  2.062653e+01    1.088777e+00
  2.065828e+01    1.057864e+00
  2.069003e+01    1.054412e+00
  2.072178e+01    1.049535e+00
  2.075353e+01    1.061434e+00
  2.078528e+01    1.064354e+00
  2.081703e+01    1.075018e+00
  2.084878e+01    1.116417e+00
  2.088054e+01    1.091584e+00
  2.091229e+01    1.077802e+00
  2.094404e+01    1.071024e+00
  2.097579e+01    1.075372e+00
  2.100754e+01    1.081594e+00
  2.103929e+01    1.059606e+00
  2.107104e+01    1.080318e+00
  2.110279e+01    1.062499e+00
  2.113455e+01    1.106582e+00
  2.116630e+01    1.096805e+00
  2.119805e+01    1.080519e+00
  2.122980e+01    1.090598e+00
  2.126155e+01    1.109069e+00
  2.129330e+01    1.124340e+00
  2.132505e+01    1.127393e+00
  2.135680e+01    1.157411e+00
  2.138855e+01    1.184802e+00
  2.142031e+01    1.174409e+00
  2.145206e+01    1.204468e+00
  2.148381e+01    1.247473e+00
  2.151556e+01    1.314961e+00
  2.154731e+01    1.377732e+00
  2.157906e+01    1.487663e+00
  2.161081e+01    1.599641e+00
  2.164256e+01    1.843907e+00
  2.167431e+01    2.131200e+00
  2.170607e+01    2.596996e+00
  2.173782e+01    3.321934e+00
  2.176957e+01    4.287371e+00
  2.180132e+01    5.508243e+00
  2.183307e+01    6.839613e+00
  2.186482e+01    8.062527e+00
  2.189657e+01    8.738142e+00
  2.192832e+01    8.104309e+00
  2.196007e+01    6.410802e+00
  2.199183e+01    4.619568e+00
  2.202358e+01    3.404908e+00
  2.205533e+01    2.652888e+00
  2.208708e+01    2.155541e+00
  2.211883e+01    1.842695e+00
  2.215058e+01    1.627199e+00
  2.218233e+01    1.433892e+00
  2.221408e+01    1.338720e+00
  2.224584e+01    1.258893e+00
  2.227759e+01    1.211674e+00
  2.230934e+01    1.154940e+00
  2.234109e+01    1.146286e+00
  2.237284e+01    1.075701e+00
  2.240459e+01    1.047066e+00
  2.243634e+01    1.060190e+00
  2.246809e+01    1.018097e+00
  2.249984e+01    1.010158e+00
  2.253160e+01    1.002555e+00
  2.256335e+01    9.859900e-01
  2.259510e+01    9.794198e-01
  2.262685e+01    9.881012e-01
  2.265860e+01    9.578497e-01
  2.269035e+01    9.591676e-01
  2.272210e+01    9.359593e-01
  2.275385e+01    9.285304e-01
  2.278560e+01    9.307435e-01
  2.281736e+01    9.430571e-01
  2.284911e+01    9.120138e-01
  2.288086e+01    9.056555e-01
  2.291261e+01    9.097556e-01
  2.294436e+01    9.000636e-01
  2.297611e+01    8.970597e-01
  2.300786e+01    9.003947e-01
  2.303961e+01    9.069325e-01
  2.307137e+01    8.880279e-01
  2.310312e+01    8.903009e-01
  2.313487e+01    8.779033e-01
  2.316662e+01    8.790206e-01
  2.319837e+01    8.985513e-01
  2.323012e+01    8.682872e-01
  2.326187e+01    8.620580e-01
  2.329362e+01    8.455119e-01
  2.332537e+01    8.477146e-01
  2.335713e+01    8.641376e-01
  2.338888e+01    8.703420e-01
  2.342063e+01    8.660944e-01
  2.345238e+01    8.372098e-01
  2.348413e+01    8.360018e-01
  2.351588e+01    8.424765e-01
  2.354763e+01    8.528959e-01
  2.357938e+01    8.446093e-01
  2.361113e+01    8.438066e-01
  2.364289e+01    8.389479e-01
  2.367464e+01    8.077533e-01
  2.370639e+01    8.323274e-01
  2.373814e+01    8.042916e-01
  2.376989e+01    7.919718e-01
  2.380164e+01    8.231671e-01
  2.383339e+01    8.209282e-01
  2.386514e+01    8.139343e-01
  2.389689e+01    7.985089e-01
  2.392865e+01    8.016943e-01
  2.396040e+01    7.861779e-01
  2.399215e+01    7.696022e-01
  2.402390e+01    7.823917e-01
  2.405565e+01    7.723467e-01
  2.408740e+01    7.913237e-01
  2.411915e+01    7.844111e-01
  2.415090e+01    7.754321e-01
  2.418266e+01    7.758318e-01
  2.421441e+01    7.824079e-01
  2.424616e+01    7.955217e-01
  2.427791e+01    7.902123e-01
  2.430966e+01    7.635302e-01
  2.434141e+01    7.898313e-01
  2.437316e+01    8.033900e-01
  2.440491e+01    7.749681e-01
  2.443666e+01    7.909814e-01
  2.446842e+01    7.853146e-01
  2.450017e+01    7.733658e-01
  2.453192e+01    7.865555e-01
  2.456367e+01    7.950002e-01
  2.459542e+01    7.755144e-01
  2.462717e+01    7.995746e-01
  2.465892e+01    7.854522e-01
  2.469067e+01    7.809672e-01
  2.472242e+01    8.034492e-01
  2.475418e+01    8.164110e-01
  2.478593e+01    7.633632e-01
  2.481768e+01    8.024163e-01
  2.484943e+01    8.048678e-01
  2.488118e+01    7.845182e-01
  2.491293e+01    7.903496e-01
  2.494468e+01    7.996953e-01
  2.497643e+01    7.894489e-01
  2.500819e+01    8.069338e-01
  2.503994e+01    7.933071e-01
  2.507169e+01    8.063320e-01
  2.510344e+01    8.134543e-01
  2.513519e+01    8.283071e-01
  2.516694e+01    8.317586e-01
  2.519869e+01    8.414267e-01
  2.523044e+01    8.353219e-01
  2.526219e+01    8.528381e-01
  2.529395e+01    8.564070e-01
  2.532570e+01    8.552999e-01
  2.535745e+01    8.715764e-01
  2.538920e+01    8.655351e-01
  2.542095e+01    8.981544e-01
  2.545270e+01    9.084405e-01
  2.548445e+01    9.408760e-01
  2.551620e+01    9.749165e-01
  2.554795e+01    1.006816e+00
  2.557971e+01    1.043327e+00
  2.561146e+01    1.145693e+00
  2.564321e+01    1.190216e+00
  2.567496e+01    1.323296e+00
  2.570671e+01    1.467197e+00
  2.573846e+01    1.714515e+00
  2.577021e+01    2.106019e+00
  2.580196e+01    2.637710e+00
  2.583371e+01    3.437546e+00
  2.586547e+01    4.455143e+00
  2.589722e+01    5.615359e+00
  2.592897e+01    6.617455e+00
  2.596072e+01    7.058954e+00
  2.599247e+01    6.464507e+00
  2.602422e+01    5.270257e+00
  2.605597e+01    3.934447e+00
  2.608772e+01    2.870174e+00
  2.611948e+01    2.250777e+00
  2.615123e+01    1.822791e+00
  2.618298e+01    1.585068e+00
  2.621473e+01    1.379374e+00
  2.624648e+01    1.244802e+00
  2.627823e+01    1.129964e+00
  2.630998e+01    1.092157e+00
  2.634173e+01    1.003983e+00
  2.637348e+01    9.773300e-01
  2.640524e+01    9.493068e-01
  2.643699e+01    9.402543e-01
  2.646874e+01    9.265329e-01
  2.650049e+01    9.049910e-01
  2.653224e+01    9.096750e-01
  2.656399e+01    8.599921e-01
  2.659574e+01    9.082444e-01
  2.662749e+01    8.853951e-01
  2.665924e+01    8.721778e-01
  2.669100e+01    8.740834e-01
  2.672275e+01    8.783070e-01
  2.675450e+01    8.712659e-01
  2.678625e+01    8.729293e-01
  2.681800e+01    8.920698e-01
  2.684975e+01    8.953087e-01
  2.688150e+01    8.860795e-01
  2.691325e+01    9.291442e-01
  2.694501e+01    9.195702e-01
  2.697676e+01    9.653444e-01
  2.700851e+01    1.017183e+00
  2.704026e+01    1.095022e+00
  2.707201e+01    1.223974e+00
  2.710376e+01    1.370411e+00
  2.713551e+01    1.636189e+00
  2.716726e+01    1.903091e+00
  2.719901e+01    2.095320e+00
  2.723077e+01    2.123768e+00
  2.726252e+01    1.927877e+00
  2.729427e+01    1.626103e+00
  2.732602e+01    1.353622e+00
  2.735777e+01    1.204981e+00
  2.738952e+01    1.088133e+00
  2.742127e+01    1.001082e+00
  2.745302e+01    9.626856e-01
  2.748477e+01    9.001424e-01
  2.751653e+01    8.718531e-01
  2.754828e+01    8.782077e-01
  2.758003e+01    8.531766e-01
  2.761178e+01    8.358237e-01
  2.764353e+01    8.170389e-01
  2.767528e+01    8.038685e-01
  2.770703e+01    7.924395e-01
  2.773878e+01    8.146411e-01
  2.777054e+01    7.890602e-01
  2.780229e+01    8.125463e-01
  2.783404e+01    7.604806e-01
  2.786579e+01    7.836967e-01
  2.789754e+01    8.145928e-01
  2.792929e+01    7.908906e-01
  2.796104e+01    7.736867e-01
  2.799279e+01    7.816586e-01
  2.802454e+01    7.769269e-01
  2.805630e+01    7.591335e-01
  2.808805e+01    7.841304e-01
  2.811980e+01    7.679126e-01
  2.815155e+01    7.584599e-01
  2.818330e+01    7.696882e-01
  2.821505e+01    7.526965e-01
  2.824680e+01    7.516253e-01
  2.827855e+01    7.745264e-01
  2.831030e+01    7.517515e-01
  2.834206e+01    7.456778e-01
  2.837381e+01    7.649425e-01
  2.840556e+01    7.618532e-01
  2.843731e+01    7.572917e-01
  2.846906e+01    7.745526e-01
  2.850081e+01    7.669511e-01
  2.853256e+01    7.481371e-01
  2.856431e+01    7.579532e-01
  2.859606e+01    7.414912e-01
  2.862782e+01    7.599985e-01
  2.865957e+01    7.339883e-01
  2.869132e+01    7.373303e-01
  2.872307e+01    7.446571e-01
  2.875482e+01    7.523631e-01
  2.878657e+01    7.500259e-01
  2.881832e+01    7.296458e-01
  2.885007e+01    7.224002e-01
  2.888183e+01    7.279829e-01
  2.891358e+01    7.111487e-01
  2.894533e+01    7.258340e-01
  2.897708e+01    7.276849e-01
  2.900883e+01    7.502519e-01
  2.904058e+01    7.301463e-01
  2.907233e+01    7.246199e-01
  2.910408e+01    7.244805e-01
  2.913583e+01    7.270311e-01
  2.916759e+01    7.057799e-01
  2.919934e+01    7.166348e-01
  2.923109e+01    7.292829e-01
  2.926284e+01    7.076343e-01
  2.929459e+01    7.268199e-01
  2.932634e+01    7.144445e-01
  2.935809e+01    7.121508e-01
  2.938984e+01    7.088488e-01
  2.942159e+01    7.031107e-01
  2.945335e+01    7.274681e-01
  2.948510e+01    7.215211e-01
  2.951685e+01    7.186525e-01
  2.954860e+01    7.218868e-01
  2.958035e+01    7.299713e-01
  2.961210e+01    7.064171e-01
  2.964385e+01    7.187883e-01
  2.967560e+01    7.193539e-01
  2.970736e+01    7.332299e-01
  2.973911e+01    7.311505e-01
  2.977086e+01    7.072728e-01
  2.980261e+01    7.097723e-01
  2.983436e+01    7.017511e-01
  2.986611e+01    7.158907e-01
  2.989786e+01    7.247062e-01
  2.992961e+01    7.130501e-01
  2.996136e+01    7.025573e-01
  2.999312e+01    7.175629e-01
  3.002487e+01    7.448846e-01
  3.005662e+01    7.299373e-01
  3.008837e+01    7.264481e-01
  3.012012e+01    7.416033e-01
  3.015187e+01    7.222076e-01
  3.018362e+01    7.126779e-01
  3.021537e+01    7.194515e-01
  3.024712e+01    7.191336e-01
  3.027888e+01    7.197391e-01
  3.031063e+01    7.037116e-01
  3.034238e+01    7.146435e-01
  3.037413e+01    6.990411e-01
  3.040588e+01    7.197846e-01
  3.043763e+01    7.051193e-01
  3.046938e+01    6.940449e-01
  3.050113e+01    6.965228e-01
  3.053288e+01    7.129366e-01
  3.056464e+01    7.088434e-01
  3.059639e+01    7.059311e-01
  3.062814e+01    7.131801e-01
  3.065989e+01    7.160765e-01
  3.069164e+01    7.070680e-01
  3.072339e+01    6.941813e-01
  3.075514e+01    7.123716e-01
  3.078689e+01    7.176611e-01
  3.081865e+01    7.192407e-01
  3.085040e+01    6.931894e-01
  3.088215e+01    7.029033e-01
  3.091390e+01    7.145431e-01
  3.094565e+01    7.020626e-01
  3.097740e+01    7.053388e-01
  3.100915e+01    6.982716e-01
  3.104090e+01    7.129998e-01
  3.107265e+01    6.985699e-01
  3.110441e+01    7.186737e-01
  3.113616e+01    6.967701e-01
  3.116791e+01    7.105864e-01
  3.119966e+01    7.145913e-01
  3.123141e+01    7.153101e-01
  3.126316e+01    7.156581e-01
  3.129491e+01    7.370018e-01
  3.132666e+01    7.302833e-01
  3.135841e+01    7.200051e-01
  3.139017e+01    7.490400e-01
  3.142192e+01    7.346030e-01
  3.145367e+01    7.394169e-01
  3.148542e+01    7.671858e-01
  3.151717e+01    7.632179e-01
  3.154892e+01    7.709190e-01
  3.158067e+01    7.903659e-01
  3.161242e+01    8.020341e-01
  3.164418e+01    8.322806e-01
  3.167593e+01    8.913465e-01
  3.170768e+01    9.475589e-01
  3.173943e+01    1.037578e+00
  3.177118e+01    1.189046e+00
  3.180293e+01    1.391040e+00
  3.183468e+01    1.644241e+00
  3.186643e+01    1.949781e+00
  3.189818e+01    2.080516e+00
  3.192994e+01    2.011607e+00
  3.196169e+01    1.839838e+00
  3.199344e+01    1.500975e+00
  3.202519e+01    1.294481e+00
  3.205694e+01    1.079986e+00
  3.208869e+01    9.598523e-01
  3.212044e+01    9.273341e-01
  3.215219e+01    8.460787e-01
  3.218394e+01    7.948226e-01
  3.221570e+01    7.989039e-01
  3.224745e+01    7.801061e-01
  3.227920e+01    7.389249e-01
  3.231095e+01    7.575484e-01
  3.234270e+01    7.512354e-01
  3.237445e+01    7.099965e-01
  3.240620e+01    7.524915e-01
  3.243795e+01    7.092659e-01
  3.246970e+01    6.968567e-01
  3.250146e+01    7.062800e-01
  3.253321e+01    7.177187e-01
  3.254908e+01    6.941027e-01