File: XRD/2024-07-27_002_Ru-CGO-ex_Activtation_ramp_000002_data_000164.dat
# == pyFAI calibration ==
# Distance Sample to Detector: 0.4 m
# PONI: 9.750e-02, 1.135e-01 m
# Rotations: -0.000175 0.000000 -0.000000 rad
#
# == Fit2d calibration ==
# Distance Sample-beamCenter: 400.000 mm
# Center: x=1514.000, y=1300.000 pix
# Tilt: 0.010 deg  TiltPlanRot: 0.010 deg
#
# Detector Detector	 Spline= None	 PixelSize= 7.500e-05, 7.500e-05 m
#    Detector has a mask: False
#    Detector has a dark current: False
#    detector has a flat field: False
#
# Wavelength: 6.888e-11 m
# Mask applied: user provided
# Dark current applied: False
# Flat field applied: False
# Polarization factor: 0.99
# Normalization factor: 1.0
# --> /home/myspot/data/2024_07_Rosario/Ru-CGO-ex/2024-07-27_002_Ru-CGO-ex_Activtation_ramp_000002_data_000164.dat
#       q_nm^-1             I
  2.003187e-02    2.849293e-01
  5.178302e-02    0.000000e+00
  8.353417e-02    2.369097e-01
  1.152853e-01    2.017733e-02
  1.470365e-01    8.744363e-02
  1.787876e-01    0.000000e+00
  2.105388e-01    1.865178e-02
  2.422899e-01    4.139977e-02
  2.740411e-01    5.360852e-03
  3.057922e-01    2.214770e-02
  3.375433e-01    3.318071e-02
  3.692945e-01    2.880224e-02
  4.010456e-01    5.258045e-02
  4.327968e-01    3.231109e-02
  4.645479e-01    2.217918e-02
  4.962991e-01    2.008095e-02
  5.280502e-01    3.544229e-02
  5.598014e-01    2.816067e-02
  5.915525e-01    4.449410e-02
  6.233037e-01    3.327862e-02
  6.550548e-01    2.404920e-02
  6.868060e-01    6.514227e-02
  7.185571e-01    2.548953e-02
  7.503083e-01    3.467993e-02
  7.820594e-01    1.172969e-01
  8.138106e-01    1.996002e-01
  8.455617e-01    3.279496e-01
  8.773129e-01    5.051636e-01
  9.090640e-01    5.693527e-01
  9.408152e-01    6.953290e-01
  9.725663e-01    8.619607e-01
  1.004317e+00    1.052613e+00
  1.036069e+00    1.159364e+00
  1.067820e+00    1.269132e+00
  1.099571e+00    1.339068e+00
  1.131322e+00    1.514531e+00
  1.163073e+00    1.504446e+00
  1.194824e+00    1.784993e+00
  1.226575e+00    1.994435e+00
  1.258327e+00    2.252153e+00
  1.290078e+00    2.470561e+00
  1.321829e+00    2.545729e+00
  1.353580e+00    2.547608e+00
  1.385331e+00    2.696435e+00
  1.417082e+00    2.587152e+00
  1.448834e+00    2.674402e+00
  1.480585e+00    2.717851e+00
  1.512336e+00    2.904802e+00
  1.544087e+00    2.957023e+00
  1.575838e+00    2.948719e+00
  1.607589e+00    2.857034e+00
  1.639340e+00    3.091420e+00
  1.671092e+00    2.770378e+00
  1.702843e+00    2.885486e+00
  1.734594e+00    2.598512e+00
  1.766345e+00    2.632610e+00
  1.798096e+00    2.792685e+00
  1.829847e+00    2.795927e+00
  1.861598e+00    2.675007e+00
  1.893350e+00    2.804615e+00
  1.925101e+00    2.628783e+00
  1.956852e+00    2.685043e+00
  1.988603e+00    2.796571e+00
  2.020354e+00    2.775859e+00
  2.052105e+00    2.693679e+00
  2.083856e+00    2.717549e+00
  2.115608e+00    2.722440e+00
  2.147359e+00    2.764137e+00
  2.179110e+00    2.640803e+00
  2.210861e+00    2.732211e+00
  2.242612e+00    2.761354e+00
  2.274363e+00    2.760334e+00
  2.306115e+00    2.634944e+00
  2.337866e+00    2.675368e+00
  2.369617e+00    2.813829e+00
  2.401368e+00    2.719369e+00
  2.433119e+00    2.850443e+00
  2.464870e+00    2.790525e+00
  2.496621e+00    2.709692e+00
  2.528373e+00    2.872014e+00
  2.560124e+00    2.700343e+00
  2.591875e+00    2.838917e+00
  2.623626e+00    2.747078e+00
  2.655377e+00    2.837161e+00
  2.687128e+00    2.805696e+00
  2.718879e+00    2.796206e+00
  2.750631e+00    2.815467e+00
  2.782382e+00    2.806588e+00
  2.814133e+00    2.838555e+00
  2.845884e+00    2.855839e+00
  2.877635e+00    2.847727e+00
  2.909386e+00    2.733589e+00
  2.941137e+00    2.795010e+00
  2.972889e+00    2.814316e+00
  3.004640e+00    2.913390e+00
  3.036391e+00    2.757233e+00
  3.068142e+00    2.854524e+00
  3.099893e+00    2.836963e+00
  3.131644e+00    2.924271e+00
  3.163395e+00    2.971992e+00
  3.195147e+00    2.843306e+00
  3.226898e+00    2.907897e+00
  3.258649e+00    2.978646e+00
  3.290400e+00    2.866666e+00
  3.322151e+00    2.837137e+00
  3.353902e+00    2.917722e+00
  3.385654e+00    2.907645e+00
  3.417405e+00    2.929232e+00
  3.449156e+00    3.027349e+00
  3.480907e+00    3.002351e+00
  3.512658e+00    2.997074e+00
  3.544409e+00    3.034525e+00
  3.576160e+00    2.966216e+00
  3.607912e+00    2.951315e+00
  3.639663e+00    2.955036e+00
  3.671414e+00    2.943914e+00
  3.703165e+00    3.055805e+00
  3.734916e+00    3.042062e+00
  3.766667e+00    3.046252e+00
  3.798418e+00    2.977056e+00
  3.830170e+00    2.949134e+00
  3.861921e+00    2.979568e+00
  3.893672e+00    3.012278e+00
  3.925423e+00    3.033112e+00
  3.957174e+00    2.985459e+00
  3.988925e+00    3.079946e+00
  4.020676e+00    2.906588e+00
  4.052428e+00    3.030175e+00
  4.084179e+00    3.019275e+00
  4.115930e+00    3.079883e+00
  4.147681e+00    3.109797e+00
  4.179432e+00    3.082147e+00
  4.211183e+00    3.024312e+00
  4.242935e+00    3.122561e+00
  4.274686e+00    3.029470e+00
  4.306437e+00    2.966661e+00
  4.338188e+00    3.024762e+00
  4.369939e+00    3.062592e+00
  4.401690e+00    3.074128e+00
  4.433441e+00    3.028342e+00
  4.465193e+00    3.068744e+00
  4.496944e+00    3.011082e+00
  4.528695e+00    3.146488e+00
  4.560446e+00    3.177206e+00
  4.592197e+00    3.091134e+00
  4.623948e+00    3.107830e+00
  4.655699e+00    3.040597e+00
  4.687451e+00    3.061592e+00
  4.719202e+00    3.048282e+00
  4.750953e+00    3.086704e+00
  4.782704e+00    3.027963e+00
  4.814455e+00    3.172464e+00
  4.846206e+00    3.175100e+00
  4.877957e+00    3.114013e+00
  4.909709e+00    3.060698e+00
  4.941460e+00    3.031368e+00
  4.973211e+00    3.245488e+00
  5.004962e+00    3.056685e+00
  5.036713e+00    3.171943e+00
  5.068464e+00    3.158959e+00
  5.100216e+00    3.153564e+00
  5.131967e+00    3.150671e+00
  5.163718e+00    3.070570e+00
  5.195469e+00    3.109850e+00
  5.227220e+00    3.181164e+00
  5.258971e+00    3.184719e+00
  5.290722e+00    3.180518e+00
  5.322474e+00    3.139872e+00
  5.354225e+00    3.196512e+00
  5.385976e+00    3.244350e+00
  5.417727e+00    3.105447e+00
  5.449478e+00    3.177903e+00
  5.481229e+00    3.092739e+00
  5.512980e+00    3.077509e+00
  5.544732e+00    3.026131e+00
  5.576483e+00    3.150550e+00
  5.608234e+00    3.193456e+00
  5.639985e+00    3.092911e+00
  5.671736e+00    3.099738e+00
  5.703487e+00    3.089055e+00
  5.735238e+00    3.171758e+00
  5.766990e+00    3.111984e+00
  5.798741e+00    3.046112e+00
  5.830492e+00    3.105584e+00
  5.862243e+00    3.095501e+00
  5.893994e+00    3.060740e+00
  5.925745e+00    2.996363e+00
  5.957497e+00    3.066844e+00
  5.989248e+00    3.018166e+00
  6.020999e+00    3.016786e+00
  6.052750e+00    3.056248e+00
  6.084501e+00    3.018317e+00
  6.116252e+00    3.104748e+00
  6.148003e+00    3.005583e+00
  6.179755e+00    3.147330e+00
  6.211506e+00    3.059996e+00
  6.243257e+00    3.071965e+00
  6.275008e+00    3.079223e+00
  6.306759e+00    3.013221e+00
  6.338510e+00    3.001428e+00
  6.370261e+00    2.990822e+00
  6.402013e+00    3.099418e+00
  6.433764e+00    3.089805e+00
  6.465515e+00    3.033660e+00
  6.497266e+00    3.067720e+00
  6.529017e+00    3.001656e+00
  6.560768e+00    3.012570e+00
  6.592519e+00    3.022482e+00
  6.624271e+00    3.100813e+00
  6.656022e+00    3.064855e+00
  6.687773e+00    3.091936e+00
  6.719524e+00    3.092151e+00
  6.751275e+00    3.124494e+00
  6.783026e+00    2.965768e+00
  6.814777e+00    2.995735e+00
  6.846529e+00    2.979122e+00
  6.878280e+00    3.001460e+00
  6.910031e+00    3.045167e+00
  6.941782e+00    3.045973e+00
  6.973533e+00    3.015127e+00
  7.005284e+00    3.016591e+00
  7.037036e+00    3.081963e+00
  7.068787e+00    2.997659e+00
  7.100538e+00    2.986096e+00
  7.132289e+00    2.966480e+00
  7.164040e+00    2.992663e+00
  7.195791e+00    2.939043e+00
  7.227542e+00    3.067707e+00
  7.259294e+00    2.993836e+00
  7.291045e+00    2.992115e+00
  7.322796e+00    3.006031e+00
  7.354547e+00    2.949762e+00
  7.386298e+00    3.042935e+00
  7.418049e+00    2.988636e+00
  7.449800e+00    2.927794e+00
  7.481552e+00    3.004321e+00
  7.513303e+00    3.054739e+00
  7.545054e+00    2.943186e+00
  7.576805e+00    2.991306e+00
  7.608556e+00    2.990616e+00
  7.640307e+00    2.948175e+00
  7.672058e+00    2.945934e+00
  7.703810e+00    3.010239e+00
  7.735561e+00    2.905259e+00
  7.767312e+00    3.015564e+00
  7.799063e+00    2.948692e+00
  7.830814e+00    2.988379e+00
  7.862565e+00    2.936897e+00
  7.894317e+00    2.869833e+00
  7.926068e+00    2.956299e+00
  7.957819e+00    3.012830e+00
  7.989570e+00    2.923142e+00
  8.021321e+00    2.908751e+00
  8.053072e+00    2.973274e+00
  8.084823e+00    2.939131e+00
  8.116575e+00    2.984232e+00
  8.148326e+00    2.983268e+00
  8.180077e+00    2.931930e+00
  8.211828e+00    2.980586e+00
  8.243579e+00    2.953863e+00
  8.275330e+00    2.935824e+00
  8.307081e+00    2.917799e+00
  8.338833e+00    2.927779e+00
  8.370584e+00    2.934909e+00
  8.402335e+00    2.923741e+00
  8.434086e+00    2.904131e+00
  8.465837e+00    2.922070e+00
  8.497588e+00    2.923352e+00
  8.529339e+00    2.899076e+00
  8.561091e+00    2.862036e+00
  8.592842e+00    2.965820e+00
  8.624593e+00    2.849701e+00
  8.656344e+00    2.953946e+00
  8.688095e+00    2.902372e+00
  8.719846e+00    2.910919e+00
  8.751598e+00    2.806739e+00
  8.783349e+00    2.814651e+00
  8.815100e+00    2.832196e+00
  8.846851e+00    2.825788e+00
  8.878602e+00    2.870074e+00
  8.910353e+00    2.818312e+00
  8.942104e+00    2.859538e+00
  8.973856e+00    2.878164e+00
  9.005607e+00    2.824966e+00
  9.037358e+00    2.831548e+00
  9.069109e+00    2.825457e+00
  9.100860e+00    2.804942e+00
  9.132611e+00    2.829087e+00
  9.164362e+00    2.820126e+00
  9.196114e+00    2.774287e+00
  9.227865e+00    2.815115e+00
  9.259616e+00    2.759148e+00
  9.291367e+00    2.771545e+00
  9.323118e+00    2.798039e+00
  9.354869e+00    2.770154e+00
  9.386620e+00    2.757773e+00
  9.418372e+00    2.777612e+00
  9.450123e+00    2.766230e+00
  9.481874e+00    2.761555e+00
  9.513625e+00    2.719493e+00
  9.545376e+00    2.794582e+00
  9.577127e+00    2.762025e+00
  9.608878e+00    2.776600e+00
  9.640630e+00    2.782596e+00
  9.672381e+00    2.740897e+00
  9.704132e+00    2.794455e+00
  9.735883e+00    2.748153e+00
  9.767634e+00    2.699346e+00
  9.799385e+00    2.710672e+00
  9.831137e+00    2.698699e+00
  9.862888e+00    2.725464e+00
  9.894639e+00    2.680913e+00
  9.926390e+00    2.713383e+00
  9.958141e+00    2.733489e+00
  9.989892e+00    2.672325e+00
  1.002164e+01    2.660929e+00
  1.005339e+01    2.690614e+00
  1.008515e+01    2.624557e+00
  1.011690e+01    2.649331e+00
  1.014865e+01    2.640161e+00
  1.018040e+01    2.640290e+00
  1.021215e+01    2.630895e+00
  1.024390e+01    2.643800e+00
  1.027565e+01    2.665803e+00
  1.030740e+01    2.696429e+00
  1.033915e+01    2.629522e+00
  1.037091e+01    2.607502e+00
  1.040266e+01    2.657045e+00
  1.043441e+01    2.584491e+00
  1.046616e+01    2.581808e+00
  1.049791e+01    2.580685e+00
  1.052966e+01    2.592352e+00
  1.056141e+01    2.614948e+00
  1.059316e+01    2.559399e+00
  1.062492e+01    2.586980e+00
  1.065667e+01    2.533418e+00
  1.068842e+01    2.581815e+00
  1.072017e+01    2.527472e+00
  1.075192e+01    2.545075e+00
  1.078367e+01    2.540669e+00
  1.081542e+01    2.553159e+00
  1.084717e+01    2.477700e+00
  1.087892e+01    2.494724e+00
  1.091068e+01    2.497082e+00
  1.094243e+01    2.523762e+00
  1.097418e+01    2.542717e+00
  1.100593e+01    2.514640e+00
  1.103768e+01    2.536900e+00
  1.106943e+01    2.475139e+00
  1.110118e+01    2.523490e+00
  1.113293e+01    2.523936e+00
  1.116468e+01    2.434026e+00
  1.119644e+01    2.462960e+00
  1.122819e+01    2.465426e+00
  1.125994e+01    2.474510e+00
  1.129169e+01    2.432061e+00
  1.132344e+01    2.441831e+00
  1.135519e+01    2.451004e+00
  1.138694e+01    2.421411e+00
  1.141869e+01    2.391730e+00
  1.145045e+01    2.444981e+00
  1.148220e+01    2.370373e+00
  1.151395e+01    2.400269e+00
  1.154570e+01    2.416464e+00
  1.157745e+01    2.415006e+00
  1.160920e+01    2.377514e+00
  1.164095e+01    2.427335e+00
  1.167270e+01    2.391262e+00
  1.170445e+01    2.414795e+00
  1.173621e+01    2.392735e+00
  1.176796e+01    2.403622e+00
  1.179971e+01    2.364185e+00
  1.183146e+01    2.362942e+00
  1.186321e+01    2.373288e+00
  1.189496e+01    2.342560e+00
  1.192671e+01    2.371324e+00
  1.195846e+01    2.355067e+00
  1.199021e+01    2.335532e+00
  1.202197e+01    2.353629e+00
  1.205372e+01    2.335494e+00
  1.208547e+01    2.348761e+00
  1.211722e+01    2.327030e+00
  1.214897e+01    2.333023e+00
  1.218072e+01    2.383659e+00
  1.221247e+01    2.295295e+00
  1.224422e+01    2.299173e+00
  1.227597e+01    2.314984e+00
  1.230773e+01    2.320017e+00
  1.233948e+01    2.329065e+00
  1.237123e+01    2.341894e+00
  1.240298e+01    2.321019e+00
  1.243473e+01    2.312796e+00
  1.246648e+01    2.348389e+00
  1.249823e+01    2.381134e+00
  1.252998e+01    2.351124e+00
  1.256174e+01    2.374719e+00
  1.259349e+01    2.373828e+00
  1.262524e+01    2.396217e+00
  1.265699e+01    2.429281e+00
  1.268874e+01    2.426840e+00
  1.272049e+01    2.452203e+00
  1.275224e+01    2.499452e+00
  1.278399e+01    2.622546e+00
  1.281574e+01    2.708105e+00
  1.284750e+01    2.893887e+00
  1.287925e+01    3.068151e+00
  1.291100e+01    3.313318e+00
  1.294275e+01    3.716393e+00
  1.297450e+01    4.424514e+00
  1.300625e+01    5.472106e+00
  1.303800e+01    7.130699e+00
  1.306975e+01    9.646430e+00
  1.310150e+01    1.208249e+01
  1.313326e+01    1.430033e+01
  1.316501e+01    1.601776e+01
  1.319676e+01    1.586383e+01
  1.322851e+01    1.279193e+01
  1.326026e+01    9.102648e+00
  1.329201e+01    6.593687e+00
  1.332376e+01    5.049455e+00
  1.335551e+01    4.129791e+00
  1.338727e+01    3.574497e+00
  1.341902e+01    3.177158e+00
  1.345077e+01    2.952643e+00
  1.348252e+01    2.762275e+00
  1.351427e+01    2.579250e+00
  1.354602e+01    2.518318e+00
  1.357777e+01    2.434638e+00
  1.360952e+01    2.389939e+00
  1.364127e+01    2.285150e+00
  1.367303e+01    2.274788e+00
  1.370478e+01    2.257429e+00
  1.373653e+01    2.162556e+00
  1.376828e+01    2.217284e+00
  1.380003e+01    2.165031e+00
  1.383178e+01    2.105557e+00
  1.386353e+01    2.101282e+00
  1.389528e+01    2.103958e+00
  1.392703e+01    2.099453e+00
  1.395879e+01    2.079330e+00
  1.399054e+01    2.025267e+00
  1.402229e+01    2.044767e+00
  1.405404e+01    2.028553e+00
  1.408579e+01    2.042432e+00
  1.411754e+01    2.007503e+00
  1.414929e+01    1.990093e+00
  1.418104e+01    1.994747e+00
  1.421279e+01    1.999772e+00
  1.424455e+01    1.968299e+00
  1.427630e+01    1.939238e+00
  1.430805e+01    1.975427e+00
  1.433980e+01    1.898354e+00
  1.437155e+01    1.962388e+00
  1.440330e+01    1.947713e+00
  1.443505e+01    1.920999e+00
  1.446680e+01    1.937890e+00
  1.449856e+01    1.920849e+00
  1.453031e+01    1.946942e+00
  1.456206e+01    1.925384e+00
  1.459381e+01    1.931570e+00
  1.462556e+01    1.915490e+00
  1.465731e+01    1.942013e+00
  1.468906e+01    1.968330e+00
  1.472081e+01    1.973900e+00
  1.475256e+01    1.893402e+00
  1.478432e+01    1.936038e+00
  1.481607e+01    1.957855e+00
  1.484782e+01    1.942544e+00
  1.487957e+01    1.957788e+00
  1.491132e+01    1.977227e+00
  1.494307e+01    2.016988e+00
  1.497482e+01    2.086354e+00
  1.500657e+01    2.220872e+00
  1.503832e+01    2.303818e+00
  1.507008e+01    2.579299e+00
  1.510183e+01    2.865068e+00
  1.513358e+01    3.472195e+00
  1.516533e+01    4.247163e+00
  1.519708e+01    4.786583e+00
  1.522883e+01    5.437885e+00
  1.526058e+01    5.613484e+00
  1.529233e+01    5.316505e+00
  1.532409e+01    4.546409e+00
  1.535584e+01    3.565742e+00
  1.538759e+01    2.957338e+00
  1.541934e+01    2.522588e+00
  1.545109e+01    2.309663e+00
  1.548284e+01    2.110338e+00
  1.551459e+01    1.963708e+00
  1.554634e+01    1.909310e+00
  1.557809e+01    1.858016e+00
  1.560985e+01    1.815116e+00
  1.564160e+01    1.795122e+00
  1.567335e+01    1.729005e+00
  1.570510e+01    1.696817e+00
  1.573685e+01    1.723768e+00
  1.576860e+01    1.689625e+00
  1.580035e+01    1.657287e+00
  1.583210e+01    1.663206e+00
  1.586385e+01    1.667745e+00
  1.589561e+01    1.648878e+00
  1.592736e+01    1.665272e+00
  1.595911e+01    1.609646e+00
  1.599086e+01    1.633844e+00
  1.602261e+01    1.607843e+00
  1.605436e+01    1.603548e+00
  1.608611e+01    1.657468e+00
  1.611786e+01    1.610684e+00
  1.614961e+01    1.596546e+00
  1.618137e+01    1.613980e+00
  1.621312e+01    1.559876e+00
  1.624487e+01    1.540957e+00
  1.627662e+01    1.565372e+00
  1.630837e+01    1.583213e+00
  1.634012e+01    1.557423e+00
  1.637187e+01    1.532886e+00
  1.640362e+01    1.539257e+00
  1.643538e+01    1.549439e+00
  1.646713e+01    1.540136e+00
  1.649888e+01    1.541234e+00
  1.653063e+01    1.535656e+00
  1.656238e+01    1.516292e+00
  1.659413e+01    1.501198e+00
  1.662588e+01    1.525098e+00
  1.665763e+01    1.479198e+00
  1.668938e+01    1.480743e+00
  1.672114e+01    1.469614e+00
  1.675289e+01    1.477697e+00
  1.678464e+01    1.496018e+00
  1.681639e+01    1.487539e+00
  1.684814e+01    1.514792e+00
  1.687989e+01    1.453499e+00
  1.691164e+01    1.481871e+00
  1.694339e+01    1.455077e+00
  1.697514e+01    1.457188e+00
  1.700690e+01    1.437468e+00
  1.703865e+01    1.450959e+00
  1.707040e+01    1.440571e+00
  1.710215e+01    1.435772e+00
  1.713390e+01    1.420490e+00
  1.716565e+01    1.412056e+00
  1.719740e+01    1.403953e+00
  1.722915e+01    1.412905e+00
  1.726091e+01    1.398972e+00
  1.729266e+01    1.383485e+00
  1.732441e+01    1.375047e+00
  1.735616e+01    1.391011e+00
  1.738791e+01    1.399757e+00
  1.741966e+01    1.337843e+00
  1.745141e+01    1.376525e+00
  1.748316e+01    1.354256e+00
  1.751491e+01    1.374344e+00
  1.754667e+01    1.384225e+00
  1.757842e+01    1.373803e+00
  1.761017e+01    1.359004e+00
  1.764192e+01    1.345566e+00
  1.767367e+01    1.338931e+00
  1.770542e+01    1.348513e+00
  1.773717e+01    1.352482e+00
  1.776892e+01    1.327783e+00
  1.780067e+01    1.346147e+00
  1.783243e+01    1.329960e+00
  1.786418e+01    1.326428e+00
  1.789593e+01    1.321798e+00
  1.792768e+01    1.312649e+00
  1.795943e+01    1.335965e+00
  1.799118e+01    1.337930e+00
  1.802293e+01    1.293246e+00
  1.805468e+01    1.341976e+00
  1.808643e+01    1.287447e+00
  1.811819e+01    1.277079e+00
  1.814994e+01    1.287452e+00
  1.818169e+01    1.303815e+00
  1.821344e+01    1.320436e+00
  1.824519e+01    1.282009e+00
  1.827694e+01    1.267796e+00
  1.830869e+01    1.277926e+00
  1.834044e+01    1.251345e+00
  1.837220e+01    1.282603e+00
  1.840395e+01    1.277462e+00
  1.843570e+01    1.250491e+00
  1.846745e+01    1.272058e+00
  1.849920e+01    1.259915e+00
  1.853095e+01    1.288576e+00
  1.856270e+01    1.219582e+00
  1.859445e+01    1.247599e+00
  1.862620e+01    1.254806e+00
  1.865796e+01    1.255971e+00
  1.868971e+01    1.239926e+00
  1.872146e+01    1.251300e+00
  1.875321e+01    1.236005e+00
  1.878496e+01    1.196675e+00
  1.881671e+01    1.227478e+00
  1.884846e+01    1.264163e+00
  1.888021e+01    1.213030e+00
  1.891196e+01    1.202412e+00
  1.894372e+01    1.194050e+00
  1.897547e+01    1.221040e+00
  1.900722e+01    1.187975e+00
  1.903897e+01    1.162846e+00
  1.907072e+01    1.204869e+00
  1.910247e+01    1.186134e+00
  1.913422e+01    1.187652e+00
  1.916597e+01    1.217106e+00
  1.919773e+01    1.187778e+00
  1.922948e+01    1.220859e+00
  1.926123e+01    1.186794e+00
  1.929298e+01    1.197194e+00
  1.932473e+01    1.179881e+00
  1.935648e+01    1.173142e+00
  1.938823e+01    1.175767e+00
  1.941998e+01    1.184382e+00
  1.945173e+01    1.171605e+00
  1.948349e+01    1.162161e+00
  1.951524e+01    1.172653e+00
  1.954699e+01    1.189347e+00
  1.957874e+01    1.142644e+00
  1.961049e+01    1.171198e+00
  1.964224e+01    1.144492e+00
  1.967399e+01    1.148335e+00
  1.970574e+01    1.153749e+00
  1.973749e+01    1.142283e+00
  1.976925e+01    1.128851e+00
  1.980100e+01    1.115430e+00
  1.983275e+01    1.154896e+00
  1.986450e+01    1.118417e+00
  1.989625e+01    1.139826e+00
  1.992800e+01    1.122117e+00
  1.995975e+01    1.130893e+00
  1.999150e+01    1.140810e+00
  2.002325e+01    1.110035e+00
  2.005501e+01    1.123715e+00
  2.008676e+01    1.139239e+00
  2.011851e+01    1.089704e+00
  2.015026e+01    1.103120e+00
  2.018201e+01    1.111612e+00
  2.021376e+01    1.099048e+00
  2.024551e+01    1.080154e+00
  2.027726e+01    1.085944e+00
  2.030902e+01    1.093585e+00
  2.034077e+01    1.112157e+00
  2.037252e+01    1.112698e+00
  2.040427e+01    1.120612e+00
  2.043602e+01    1.064661e+00
  2.046777e+01    1.119281e+00
  2.049952e+01    1.056089e+00
  2.053127e+01    1.067962e+00
  2.056302e+01    1.056687e+00
  2.059478e+01    1.069582e+00
  2.062653e+01    1.061570e+00
  2.065828e+01    1.097875e+00
  2.069003e+01    1.056464e+00
  2.072178e+01    1.074291e+00
  2.075353e+01    1.071623e+00
  2.078528e+01    1.073118e+00
  2.081703e+01    1.063570e+00
  2.084878e+01    1.065110e+00
  2.088054e+01    1.068015e+00
  2.091229e+01    1.082115e+00
  2.094404e+01    1.084217e+00
  2.097579e+01    1.091089e+00
  2.100754e+01    1.096566e+00
  2.103929e+01    1.067302e+00
  2.107104e+01    1.056175e+00
  2.110279e+01    1.080864e+00
  2.113455e+01    1.081371e+00
  2.116630e+01    1.095472e+00
  2.119805e+01    1.082071e+00
  2.122980e+01    1.094724e+00
  2.126155e+01    1.113773e+00
  2.129330e+01    1.112777e+00
  2.132505e+01    1.142971e+00
  2.135680e+01    1.120185e+00
  2.138855e+01    1.162968e+00
  2.142031e+01    1.199714e+00
  2.145206e+01    1.222126e+00
  2.148381e+01    1.244394e+00
  2.151556e+01    1.334179e+00
  2.154731e+01    1.367569e+00
  2.157906e+01    1.466389e+00
  2.161081e+01    1.643584e+00
  2.164256e+01    1.808805e+00
  2.167431e+01    2.115190e+00
  2.170607e+01    2.621767e+00
  2.173782e+01    3.311403e+00
  2.176957e+01    4.343964e+00
  2.180132e+01    5.554128e+00
  2.183307e+01    6.932897e+00
  2.186482e+01    8.234872e+00
  2.189657e+01    9.014485e+00
  2.192832e+01    8.424932e+00
  2.196007e+01    6.711048e+00
  2.199183e+01    4.898801e+00
  2.202358e+01    3.572201e+00
  2.205533e+01    2.748903e+00
  2.208708e+01    2.237616e+00
  2.211883e+01    1.868832e+00
  2.215058e+01    1.645280e+00
  2.218233e+01    1.478534e+00
  2.221408e+01    1.354858e+00
  2.224584e+01    1.248490e+00
  2.227759e+01    1.204625e+00
  2.230934e+01    1.186203e+00
  2.234109e+01    1.129834e+00
  2.237284e+01    1.064746e+00
  2.240459e+01    1.070609e+00
  2.243634e+01    1.037164e+00
  2.246809e+01    1.063539e+00
  2.249984e+01    9.986182e-01
  2.253160e+01    1.000013e+00
  2.256335e+01    1.006414e+00
  2.259510e+01    9.805827e-01
  2.262685e+01    9.621535e-01
  2.265860e+01    9.393845e-01
  2.269035e+01    9.403415e-01
  2.272210e+01    9.507266e-01
  2.275385e+01    9.422443e-01
  2.278560e+01    9.494935e-01
  2.281736e+01    9.395514e-01
  2.284911e+01    9.219670e-01
  2.288086e+01    9.437904e-01
  2.291261e+01    9.239252e-01
  2.294436e+01    9.194270e-01
  2.297611e+01    8.951558e-01
  2.300786e+01    8.887053e-01
  2.303961e+01    8.854770e-01
  2.307137e+01    8.914998e-01
  2.310312e+01    8.860497e-01
  2.313487e+01    8.894072e-01
  2.316662e+01    8.971602e-01
  2.319837e+01    8.772213e-01
  2.323012e+01    8.588375e-01
  2.326187e+01    8.817706e-01
  2.329362e+01    8.830474e-01
  2.332537e+01    8.584574e-01
  2.335713e+01    8.600937e-01
  2.338888e+01    8.619807e-01
  2.342063e+01    8.661301e-01
  2.345238e+01    8.586030e-01
  2.348413e+01    8.444127e-01
  2.351588e+01    8.292406e-01
  2.354763e+01    8.458833e-01
  2.357938e+01    8.728052e-01
  2.361113e+01    8.345832e-01
  2.364289e+01    8.465811e-01
  2.367464e+01    8.380703e-01
  2.370639e+01    8.262631e-01
  2.373814e+01    8.307782e-01
  2.376989e+01    8.177179e-01
  2.380164e+01    7.943591e-01
  2.383339e+01    8.133126e-01
  2.386514e+01    8.084215e-01
  2.389689e+01    8.188311e-01
  2.392865e+01    7.978110e-01
  2.396040e+01    8.125346e-01
  2.399215e+01    8.034972e-01
  2.402390e+01    7.800283e-01
  2.405565e+01    7.906762e-01
  2.408740e+01    7.935098e-01
  2.411915e+01    7.969432e-01
  2.415090e+01    7.825688e-01
  2.418266e+01    7.949756e-01
  2.421441e+01    7.735680e-01
  2.424616e+01    7.830223e-01
  2.427791e+01    7.872807e-01
  2.430966e+01    7.689030e-01
  2.434141e+01    7.864180e-01
  2.437316e+01    7.907270e-01
  2.440491e+01    7.803894e-01
  2.443666e+01    7.856391e-01
  2.446842e+01    7.828935e-01
  2.450017e+01    7.742785e-01
  2.453192e+01    7.772717e-01
  2.456367e+01    7.943287e-01
  2.459542e+01    7.785241e-01
  2.462717e+01    7.822106e-01
  2.465892e+01    7.924322e-01
  2.469067e+01    8.027785e-01
  2.472242e+01    7.913918e-01
  2.475418e+01    8.148488e-01
  2.478593e+01    7.841264e-01
  2.481768e+01    8.062602e-01
  2.484943e+01    7.949688e-01
  2.488118e+01    7.838392e-01
  2.491293e+01    8.104895e-01
  2.494468e+01    7.896343e-01
  2.497643e+01    7.887699e-01
  2.500819e+01    8.039063e-01
  2.503994e+01    8.067628e-01
  2.507169e+01    8.153772e-01
  2.510344e+01    7.912259e-01
  2.513519e+01    8.203995e-01
  2.516694e+01    8.341064e-01
  2.519869e+01    8.157111e-01
  2.523044e+01    8.576302e-01
  2.526219e+01    8.349950e-01
  2.529395e+01    8.519076e-01
  2.532570e+01    8.689892e-01
  2.535745e+01    8.815486e-01
  2.538920e+01    8.824585e-01
  2.542095e+01    9.250038e-01
  2.545270e+01    9.490619e-01
  2.548445e+01    9.254116e-01
  2.551620e+01    9.856574e-01
  2.554795e+01    1.028082e+00
  2.557971e+01    1.052670e+00
  2.561146e+01    1.120465e+00
  2.564321e+01    1.230928e+00
  2.567496e+01    1.329221e+00
  2.570671e+01    1.469927e+00
  2.573846e+01    1.757685e+00
  2.577021e+01    2.123527e+00
  2.580196e+01    2.662164e+00
  2.583371e+01    3.472355e+00
  2.586547e+01    4.516802e+00
  2.589722e+01    5.698565e+00
  2.592897e+01    6.798340e+00
  2.596072e+01    7.254813e+00
  2.599247e+01    6.821773e+00
  2.602422e+01    5.556000e+00
  2.605597e+01    4.072192e+00
  2.608772e+01    3.034688e+00
  2.611948e+01    2.363822e+00
  2.615123e+01    1.886671e+00
  2.618298e+01    1.601712e+00
  2.621473e+01    1.374638e+00
  2.624648e+01    1.273075e+00
  2.627823e+01    1.178223e+00
  2.630998e+01    1.105482e+00
  2.634173e+01    1.050906e+00
  2.637348e+01    9.963930e-01
  2.640524e+01    9.513276e-01
  2.643699e+01    9.546748e-01
  2.646874e+01    9.116601e-01
  2.650049e+01    9.143760e-01
  2.653224e+01    8.967069e-01
  2.656399e+01    8.969744e-01
  2.659574e+01    8.992615e-01
  2.662749e+01    8.840566e-01
  2.665924e+01    8.829955e-01
  2.669100e+01    8.974119e-01
  2.672275e+01    8.593594e-01
  2.675450e+01    8.756232e-01
  2.678625e+01    8.720743e-01
  2.681800e+01    8.830297e-01
  2.684975e+01    8.870000e-01
  2.688150e+01    9.217809e-01
  2.691325e+01    9.320983e-01
  2.694501e+01    9.487616e-01
  2.697676e+01    9.656675e-01
  2.700851e+01    1.023750e+00
  2.704026e+01    1.091952e+00
  2.707201e+01    1.216277e+00
  2.710376e+01    1.424441e+00
  2.713551e+01    1.636451e+00
  2.716726e+01    1.951394e+00
  2.719901e+01    2.146061e+00
  2.723077e+01    2.174033e+00
  2.726252e+01    1.985365e+00
  2.729427e+01    1.705774e+00
  2.732602e+01    1.451179e+00
  2.735777e+01    1.248819e+00
  2.738952e+01    1.101095e+00
  2.742127e+01    1.011387e+00
  2.745302e+01    9.631825e-01
  2.748477e+01    8.990369e-01
  2.751653e+01    8.723175e-01
  2.754828e+01    8.593150e-01
  2.758003e+01    8.482087e-01
  2.761178e+01    8.490414e-01
  2.764353e+01    8.181077e-01
  2.767528e+01    8.150401e-01
  2.770703e+01    8.460750e-01
  2.773878e+01    8.139278e-01
  2.777054e+01    7.985146e-01
  2.780229e+01    8.169234e-01
  2.783404e+01    8.044193e-01
  2.786579e+01    7.960006e-01
  2.789754e+01    7.880008e-01
  2.792929e+01    7.785388e-01
  2.796104e+01    7.885504e-01
  2.799279e+01    7.713583e-01
  2.802454e+01    7.798615e-01
  2.805630e+01    7.730408e-01
  2.808805e+01    7.992719e-01
  2.811980e+01    8.025361e-01
  2.815155e+01    7.609343e-01
  2.818330e+01    7.754229e-01
  2.821505e+01    7.738463e-01
  2.824680e+01    7.729403e-01
  2.827855e+01    7.742067e-01
  2.831030e+01    7.406958e-01
  2.834206e+01    7.621621e-01
  2.837381e+01    7.365771e-01
  2.840556e+01    7.722780e-01
  2.843731e+01    7.540034e-01
  2.846906e+01    7.627211e-01
  2.850081e+01    7.530966e-01
  2.853256e+01    7.584196e-01
  2.856431e+01    7.733467e-01
  2.859606e+01    7.575500e-01
  2.862782e+01    7.738631e-01
  2.865957e+01    7.599620e-01
  2.869132e+01    7.265542e-01
  2.872307e+01    7.412192e-01
  2.875482e+01    7.390581e-01
  2.878657e+01    7.350825e-01
  2.881832e+01    7.363145e-01
  2.885007e+01    7.512238e-01
  2.888183e+01    7.171683e-01
  2.891358e+01    7.297034e-01
  2.894533e+01    7.402346e-01
  2.897708e+01    7.368538e-01
  2.900883e+01    7.301932e-01
  2.904058e+01    7.360849e-01
  2.907233e+01    7.238716e-01
  2.910408e+01    7.234497e-01
  2.913583e+01    7.543266e-01
  2.916759e+01    7.474257e-01
  2.919934e+01    7.239879e-01
  2.923109e+01    7.390553e-01
  2.926284e+01    7.382083e-01
  2.929459e+01    7.163565e-01
  2.932634e+01    7.316781e-01
  2.935809e+01    7.183064e-01
  2.938984e+01    7.157885e-01
  2.942159e+01    7.121104e-01
  2.945335e+01    7.263555e-01
  2.948510e+01    7.371774e-01
  2.951685e+01    7.358037e-01
  2.954860e+01    7.109714e-01
  2.958035e+01    7.045562e-01
  2.961210e+01    7.415529e-01
  2.964385e+01    7.100409e-01
  2.967560e+01    7.117513e-01
  2.970736e+01    7.324510e-01
  2.973911e+01    7.194002e-01
  2.977086e+01    6.964298e-01
  2.980261e+01    7.352000e-01
  2.983436e+01    6.965305e-01
  2.986611e+01    7.177480e-01
  2.989786e+01    7.242374e-01
  2.992961e+01    7.301449e-01
  2.996136e+01    7.201446e-01
  2.999312e+01    7.357826e-01
  3.002487e+01    7.353472e-01
  3.005662e+01    7.642928e-01
  3.008837e+01    7.408372e-01
  3.012012e+01    7.378740e-01
  3.015187e+01    7.185699e-01
  3.018362e+01    7.053449e-01
  3.021537e+01    6.957088e-01
  3.024712e+01    7.111843e-01
  3.027888e+01    7.138152e-01
  3.031063e+01    7.174117e-01
  3.034238e+01    6.866731e-01
  3.037413e+01    7.107800e-01
  3.040588e+01    6.945145e-01
  3.043763e+01    7.076359e-01
  3.046938e+01    6.915498e-01
  3.050113e+01    6.999773e-01
  3.053288e+01    6.937399e-01
  3.056464e+01    7.249289e-01
  3.059639e+01    7.144628e-01
  3.062814e+01    6.893250e-01
  3.065989e+01    7.104055e-01
  3.069164e+01    7.111653e-01
  3.072339e+01    7.116922e-01
  3.075514e+01    7.131634e-01
  3.078689e+01    7.269423e-01
  3.081865e+01    7.039055e-01
  3.085040e+01    7.105495e-01
  3.088215e+01    7.244248e-01
  3.091390e+01    7.106791e-01
  3.094565e+01    7.210232e-01
  3.097740e+01    7.077315e-01
  3.100915e+01    7.227638e-01
  3.104090e+01    7.167135e-01
  3.107265e+01    7.180895e-01
  3.110441e+01    7.238989e-01
  3.113616e+01    7.237538e-01
  3.116791e+01    7.230199e-01
  3.119966e+01    7.242490e-01
  3.123141e+01    7.071734e-01
  3.126316e+01    7.387645e-01
  3.129491e+01    7.147425e-01
  3.132666e+01    7.562167e-01
  3.135841e+01    7.564524e-01
  3.139017e+01    7.376272e-01
  3.142192e+01    7.348042e-01
  3.145367e+01    7.564387e-01
  3.148542e+01    7.562839e-01
  3.151717e+01    7.529273e-01
  3.154892e+01    7.786859e-01
  3.158067e+01    8.174948e-01
  3.161242e+01    8.300385e-01
  3.164418e+01    8.440351e-01
  3.167593e+01    9.114327e-01
  3.170768e+01    9.584277e-01
  3.173943e+01    1.063995e+00
  3.177118e+01    1.211185e+00
  3.180293e+01    1.390769e+00
  3.183468e+01    1.667142e+00
  3.186643e+01    1.947101e+00
  3.189818e+01    2.147209e+00
  3.192994e+01    2.089060e+00
  3.196169e+01    1.896082e+00
  3.199344e+01    1.602578e+00
  3.202519e+01    1.342826e+00
  3.205694e+01    1.109532e+00
  3.208869e+01    9.855582e-01
  3.212044e+01    9.196873e-01
  3.215219e+01    8.749623e-01
  3.218394e+01    8.419021e-01
  3.221570e+01    7.972125e-01
  3.224745e+01    7.831393e-01
  3.227920e+01    7.844330e-01
  3.231095e+01    7.618434e-01
  3.234270e+01    7.236354e-01
  3.237445e+01    7.385857e-01
  3.240620e+01    7.250333e-01
  3.243795e+01    7.427061e-01
  3.246970e+01    7.111937e-01
  3.250146e+01    7.301470e-01
  3.253321e+01    7.318059e-01
  3.254908e+01    7.331487e-01