File: XRD/2024-07-27_002_Ru-CGO-ex_Activtation_ramp_000002_data_000098.dat
# == pyFAI calibration ==
# Distance Sample to Detector: 0.4 m
# PONI: 9.750e-02, 1.135e-01 m
# Rotations: -0.000175 0.000000 -0.000000 rad
#
# == Fit2d calibration ==
# Distance Sample-beamCenter: 400.000 mm
# Center: x=1514.000, y=1300.000 pix
# Tilt: 0.010 deg  TiltPlanRot: 0.010 deg
#
# Detector Detector	 Spline= None	 PixelSize= 7.500e-05, 7.500e-05 m
#    Detector has a mask: False
#    Detector has a dark current: False
#    detector has a flat field: False
#
# Wavelength: 6.888e-11 m
# Mask applied: user provided
# Dark current applied: False
# Flat field applied: False
# Polarization factor: 0.99
# Normalization factor: 1.0
# --> /home/myspot/data/2024_07_Rosario/Ru-CGO-ex/2024-07-27_002_Ru-CGO-ex_Activtation_ramp_000002_data_000098.dat
#       q_nm^-1             I
  2.003187e-02    1.765032e-01
  5.178302e-02    2.371636e-01
  8.353417e-02    7.064590e-02
  1.152853e-01    4.308920e-02
  1.470365e-01    3.294224e-02
  1.787876e-01    1.919273e-02
  2.105388e-01    6.417923e-02
  2.422899e-01    3.631722e-02
  2.740411e-01    4.482973e-02
  3.057922e-01    1.408146e-02
  3.375433e-01    4.214929e-02
  3.692945e-01    6.043416e-02
  4.010456e-01    2.887559e-02
  4.327968e-01    2.536350e-02
  4.645479e-01    3.069974e-02
  4.962991e-01    5.203516e-02
  5.280502e-01    3.615482e-02
  5.598014e-01    2.114606e-02
  5.915525e-01    5.615412e-02
  6.233037e-01    1.613567e-02
  6.550548e-01    3.234463e-02
  6.868060e-01    2.668871e-02
  7.185571e-01    4.128104e-02
  7.503083e-01    6.809144e-02
  7.820594e-01    1.732266e-01
  8.138106e-01    1.967909e-01
  8.455617e-01    2.848844e-01
  8.773129e-01    4.154380e-01
  9.090640e-01    5.814263e-01
  9.408152e-01    7.415117e-01
  9.725663e-01    8.210760e-01
  1.004317e+00    1.023297e+00
  1.036069e+00    1.082483e+00
  1.067820e+00    1.296153e+00
  1.099571e+00    1.468747e+00
  1.131322e+00    1.418858e+00
  1.163073e+00    1.426040e+00
  1.194824e+00    1.579517e+00
  1.226575e+00    1.972406e+00
  1.258327e+00    2.291145e+00
  1.290078e+00    2.451125e+00
  1.321829e+00    2.608741e+00
  1.353580e+00    2.558972e+00
  1.385331e+00    2.625075e+00
  1.417082e+00    2.686513e+00
  1.448834e+00    2.703821e+00
  1.480585e+00    2.999599e+00
  1.512336e+00    2.858155e+00
  1.544087e+00    2.916573e+00
  1.575838e+00    2.800012e+00
  1.607589e+00    2.995302e+00
  1.639340e+00    2.933700e+00
  1.671092e+00    2.949752e+00
  1.702843e+00    2.894130e+00
  1.734594e+00    2.776214e+00
  1.766345e+00    2.834599e+00
  1.798096e+00    2.773130e+00
  1.829847e+00    2.760085e+00
  1.861598e+00    2.686835e+00
  1.893350e+00    2.772582e+00
  1.925101e+00    2.608626e+00
  1.956852e+00    2.712514e+00
  1.988603e+00    2.724485e+00
  2.020354e+00    2.714335e+00
  2.052105e+00    2.712695e+00
  2.083856e+00    2.634768e+00
  2.115608e+00    2.708158e+00
  2.147359e+00    2.675961e+00
  2.179110e+00    2.651077e+00
  2.210861e+00    2.770896e+00
  2.242612e+00    2.694395e+00
  2.274363e+00    2.758797e+00
  2.306115e+00    2.619097e+00
  2.337866e+00    2.730613e+00
  2.369617e+00    2.780015e+00
  2.401368e+00    2.753855e+00
  2.433119e+00    2.735416e+00
  2.464870e+00    2.717163e+00
  2.496621e+00    2.737477e+00
  2.528373e+00    2.732302e+00
  2.560124e+00    2.723752e+00
  2.591875e+00    2.798451e+00
  2.623626e+00    2.764881e+00
  2.655377e+00    2.745477e+00
  2.687128e+00    2.779211e+00
  2.718879e+00    2.830949e+00
  2.750631e+00    2.773277e+00
  2.782382e+00    2.859206e+00
  2.814133e+00    2.727441e+00
  2.845884e+00    2.800869e+00
  2.877635e+00    2.859256e+00
  2.909386e+00    2.866938e+00
  2.941137e+00    2.917224e+00
  2.972889e+00    2.844790e+00
  3.004640e+00    2.842003e+00
  3.036391e+00    2.867847e+00
  3.068142e+00    2.940497e+00
  3.099893e+00    2.845291e+00
  3.131644e+00    2.878258e+00
  3.163395e+00    2.842607e+00
  3.195147e+00    2.857855e+00
  3.226898e+00    2.855667e+00
  3.258649e+00    2.905008e+00
  3.290400e+00    2.919686e+00
  3.322151e+00    2.831481e+00
  3.353902e+00    2.920448e+00
  3.385654e+00    2.861747e+00
  3.417405e+00    3.001244e+00
  3.449156e+00    2.882141e+00
  3.480907e+00    2.995381e+00
  3.512658e+00    2.937494e+00
  3.544409e+00    2.920296e+00
  3.576160e+00    3.004273e+00
  3.607912e+00    2.918405e+00
  3.639663e+00    2.899860e+00
  3.671414e+00    2.932681e+00
  3.703165e+00    2.943527e+00
  3.734916e+00    2.943564e+00
  3.766667e+00    2.967187e+00
  3.798418e+00    2.970205e+00
  3.830170e+00    3.003123e+00
  3.861921e+00    2.941326e+00
  3.893672e+00    2.848162e+00
  3.925423e+00    2.895424e+00
  3.957174e+00    2.958305e+00
  3.988925e+00    2.939426e+00
  4.020676e+00    3.040783e+00
  4.052428e+00    2.983959e+00
  4.084179e+00    2.955991e+00
  4.115930e+00    2.986260e+00
  4.147681e+00    3.011242e+00
  4.179432e+00    3.021496e+00
  4.211183e+00    2.917613e+00
  4.242935e+00    3.121507e+00
  4.274686e+00    3.001506e+00
  4.306437e+00    3.042898e+00
  4.338188e+00    3.030190e+00
  4.369939e+00    3.037553e+00
  4.401690e+00    3.046079e+00
  4.433441e+00    2.946737e+00
  4.465193e+00    3.047587e+00
  4.496944e+00    3.125139e+00
  4.528695e+00    2.992251e+00
  4.560446e+00    2.974973e+00
  4.592197e+00    3.032343e+00
  4.623948e+00    3.085950e+00
  4.655699e+00    3.059626e+00
  4.687451e+00    3.112529e+00
  4.719202e+00    3.004908e+00
  4.750953e+00    3.162628e+00
  4.782704e+00    3.069804e+00
  4.814455e+00    3.180007e+00
  4.846206e+00    3.179429e+00
  4.877957e+00    3.092841e+00
  4.909709e+00    3.073369e+00
  4.941460e+00    3.098797e+00
  4.973211e+00    3.129380e+00
  5.004962e+00    3.052418e+00
  5.036713e+00    3.100507e+00
  5.068464e+00    3.124715e+00
  5.100216e+00    3.095199e+00
  5.131967e+00    3.087129e+00
  5.163718e+00    3.047143e+00
  5.195469e+00    3.132936e+00
  5.227220e+00    3.087288e+00
  5.258971e+00    3.060940e+00
  5.290722e+00    3.109756e+00
  5.322474e+00    3.154629e+00
  5.354225e+00    3.150246e+00
  5.385976e+00    3.068265e+00
  5.417727e+00    3.037676e+00
  5.449478e+00    3.108632e+00
  5.481229e+00    3.082684e+00
  5.512980e+00    2.933046e+00
  5.544732e+00    3.036051e+00
  5.576483e+00    3.006266e+00
  5.608234e+00    3.033884e+00
  5.639985e+00    3.046932e+00
  5.671736e+00    3.006683e+00
  5.703487e+00    3.051661e+00
  5.735238e+00    3.025469e+00
  5.766990e+00    3.091921e+00
  5.798741e+00    2.972908e+00
  5.830492e+00    2.939911e+00
  5.862243e+00    2.956147e+00
  5.893994e+00    2.982155e+00
  5.925745e+00    2.997137e+00
  5.957497e+00    2.928329e+00
  5.989248e+00    2.944487e+00
  6.020999e+00    3.041434e+00
  6.052750e+00    3.002908e+00
  6.084501e+00    3.065170e+00
  6.116252e+00    3.020657e+00
  6.148003e+00    3.020118e+00
  6.179755e+00    3.058827e+00
  6.211506e+00    3.015189e+00
  6.243257e+00    3.007827e+00
  6.275008e+00    2.993459e+00
  6.306759e+00    2.994719e+00
  6.338510e+00    3.010570e+00
  6.370261e+00    2.956892e+00
  6.402013e+00    2.965680e+00
  6.433764e+00    2.934286e+00
  6.465515e+00    2.986523e+00
  6.497266e+00    2.936808e+00
  6.529017e+00    3.050838e+00
  6.560768e+00    3.004063e+00
  6.592519e+00    3.029545e+00
  6.624271e+00    2.959489e+00
  6.656022e+00    2.971995e+00
  6.687773e+00    3.012080e+00
  6.719524e+00    3.005681e+00
  6.751275e+00    2.920313e+00
  6.783026e+00    3.027830e+00
  6.814777e+00    2.963456e+00
  6.846529e+00    3.018704e+00
  6.878280e+00    3.028721e+00
  6.910031e+00    3.021313e+00
  6.941782e+00    3.041595e+00
  6.973533e+00    2.940686e+00
  7.005284e+00    2.956560e+00
  7.037036e+00    2.971063e+00
  7.068787e+00    2.973876e+00
  7.100538e+00    2.926443e+00
  7.132289e+00    2.953020e+00
  7.164040e+00    2.925390e+00
  7.195791e+00    3.023576e+00
  7.227542e+00    2.922558e+00
  7.259294e+00    2.938244e+00
  7.291045e+00    2.965756e+00
  7.322796e+00    2.905532e+00
  7.354547e+00    2.942470e+00
  7.386298e+00    2.968594e+00
  7.418049e+00    2.961609e+00
  7.449800e+00    2.924852e+00
  7.481552e+00    2.946564e+00
  7.513303e+00    2.959325e+00
  7.545054e+00    2.855801e+00
  7.576805e+00    2.949574e+00
  7.608556e+00    2.860574e+00
  7.640307e+00    2.952027e+00
  7.672058e+00    2.935910e+00
  7.703810e+00    2.854214e+00
  7.735561e+00    2.867597e+00
  7.767312e+00    2.907923e+00
  7.799063e+00    2.905000e+00
  7.830814e+00    2.925168e+00
  7.862565e+00    2.907823e+00
  7.894317e+00    2.903272e+00
  7.926068e+00    2.914184e+00
  7.957819e+00    2.885455e+00
  7.989570e+00    2.894108e+00
  8.021321e+00    2.896817e+00
  8.053072e+00    2.899882e+00
  8.084823e+00    2.888964e+00
  8.116575e+00    2.888215e+00
  8.148326e+00    2.913890e+00
  8.180077e+00    2.920998e+00
  8.211828e+00    2.894471e+00
  8.243579e+00    2.966406e+00
  8.275330e+00    2.813730e+00
  8.307081e+00    2.890921e+00
  8.338833e+00    2.904985e+00
  8.370584e+00    2.794723e+00
  8.402335e+00    2.813437e+00
  8.434086e+00    2.921013e+00
  8.465837e+00    2.915307e+00
  8.497588e+00    2.797293e+00
  8.529339e+00    2.818142e+00
  8.561091e+00    2.805265e+00
  8.592842e+00    2.825372e+00
  8.624593e+00    2.837026e+00
  8.656344e+00    2.827956e+00
  8.688095e+00    2.822741e+00
  8.719846e+00    2.833325e+00
  8.751598e+00    2.835073e+00
  8.783349e+00    2.772199e+00
  8.815100e+00    2.767050e+00
  8.846851e+00    2.765808e+00
  8.878602e+00    2.811080e+00
  8.910353e+00    2.830839e+00
  8.942104e+00    2.776259e+00
  8.973856e+00    2.801281e+00
  9.005607e+00    2.772576e+00
  9.037358e+00    2.769396e+00
  9.069109e+00    2.797902e+00
  9.100860e+00    2.760891e+00
  9.132611e+00    2.768568e+00
  9.164362e+00    2.732608e+00
  9.196114e+00    2.750787e+00
  9.227865e+00    2.782147e+00
  9.259616e+00    2.714133e+00
  9.291367e+00    2.689092e+00
  9.323118e+00    2.748449e+00
  9.354869e+00    2.745779e+00
  9.386620e+00    2.781917e+00
  9.418372e+00    2.721051e+00
  9.450123e+00    2.701597e+00
  9.481874e+00    2.739184e+00
  9.513625e+00    2.704218e+00
  9.545376e+00    2.759789e+00
  9.577127e+00    2.645048e+00
  9.608878e+00    2.722450e+00
  9.640630e+00    2.684996e+00
  9.672381e+00    2.689245e+00
  9.704132e+00    2.703933e+00
  9.735883e+00    2.735621e+00
  9.767634e+00    2.686282e+00
  9.799385e+00    2.607503e+00
  9.831137e+00    2.691044e+00
  9.862888e+00    2.670893e+00
  9.894639e+00    2.699857e+00
  9.926390e+00    2.632576e+00
  9.958141e+00    2.641866e+00
  9.989892e+00    2.637455e+00
  1.002164e+01    2.634104e+00
  1.005339e+01    2.655107e+00
  1.008515e+01    2.701551e+00
  1.011690e+01    2.626970e+00
  1.014865e+01    2.591768e+00
  1.018040e+01    2.677664e+00
  1.021215e+01    2.634080e+00
  1.024390e+01    2.638167e+00
  1.027565e+01    2.678242e+00
  1.030740e+01    2.681278e+00
  1.033915e+01    2.581810e+00
  1.037091e+01    2.588277e+00
  1.040266e+01    2.559676e+00
  1.043441e+01    2.571406e+00
  1.046616e+01    2.588265e+00
  1.049791e+01    2.583126e+00
  1.052966e+01    2.569838e+00
  1.056141e+01    2.548625e+00
  1.059316e+01    2.602735e+00
  1.062492e+01    2.539572e+00
  1.065667e+01    2.510895e+00
  1.068842e+01    2.516028e+00
  1.072017e+01    2.517392e+00
  1.075192e+01    2.487012e+00
  1.078367e+01    2.490462e+00
  1.081542e+01    2.485210e+00
  1.084717e+01    2.482855e+00
  1.087892e+01    2.487652e+00
  1.091068e+01    2.457956e+00
  1.094243e+01    2.453261e+00
  1.097418e+01    2.453646e+00
  1.100593e+01    2.443118e+00
  1.103768e+01    2.459421e+00
  1.106943e+01    2.506775e+00
  1.110118e+01    2.489485e+00
  1.113293e+01    2.456368e+00
  1.116468e+01    2.400136e+00
  1.119644e+01    2.447340e+00
  1.122819e+01    2.397411e+00
  1.125994e+01    2.389577e+00
  1.129169e+01    2.388870e+00
  1.132344e+01    2.378609e+00
  1.135519e+01    2.359583e+00
  1.138694e+01    2.449081e+00
  1.141869e+01    2.412360e+00
  1.145045e+01    2.408256e+00
  1.148220e+01    2.373221e+00
  1.151395e+01    2.344194e+00
  1.154570e+01    2.349389e+00
  1.157745e+01    2.355118e+00
  1.160920e+01    2.319502e+00
  1.164095e+01    2.357409e+00
  1.167270e+01    2.357924e+00
  1.170445e+01    2.361120e+00
  1.173621e+01    2.310088e+00
  1.176796e+01    2.345649e+00
  1.179971e+01    2.362149e+00
  1.183146e+01    2.327572e+00
  1.186321e+01    2.310544e+00
  1.189496e+01    2.327245e+00
  1.192671e+01    2.330067e+00
  1.195846e+01    2.302166e+00
  1.199021e+01    2.304077e+00
  1.202197e+01    2.303424e+00
  1.205372e+01    2.320554e+00
  1.208547e+01    2.248973e+00
  1.211722e+01    2.301755e+00
  1.214897e+01    2.289687e+00
  1.218072e+01    2.293117e+00
  1.221247e+01    2.315975e+00
  1.224422e+01    2.256154e+00
  1.227597e+01    2.283722e+00
  1.230773e+01    2.358826e+00
  1.233948e+01    2.339842e+00
  1.237123e+01    2.313237e+00
  1.240298e+01    2.315806e+00
  1.243473e+01    2.299236e+00
  1.246648e+01    2.303825e+00
  1.249823e+01    2.330102e+00
  1.252998e+01    2.319273e+00
  1.256174e+01    2.329130e+00
  1.259349e+01    2.349856e+00
  1.262524e+01    2.403874e+00
  1.265699e+01    2.436659e+00
  1.268874e+01    2.457460e+00
  1.272049e+01    2.471392e+00
  1.275224e+01    2.487653e+00
  1.278399e+01    2.563095e+00
  1.281574e+01    2.711191e+00
  1.284750e+01    2.803638e+00
  1.287925e+01    2.973695e+00
  1.291100e+01    3.286289e+00
  1.294275e+01    3.670242e+00
  1.297450e+01    4.336589e+00
  1.300625e+01    5.255320e+00
  1.303800e+01    6.876894e+00
  1.306975e+01    9.330403e+00
  1.310150e+01    1.202995e+01
  1.313326e+01    1.470757e+01
  1.316501e+01    1.703045e+01
  1.319676e+01    1.772014e+01
  1.322851e+01    1.536295e+01
  1.326026e+01    1.102818e+01
  1.329201e+01    7.828195e+00
  1.332376e+01    5.904984e+00
  1.335551e+01    4.654422e+00
  1.338727e+01    3.926965e+00
  1.341902e+01    3.447446e+00
  1.345077e+01    3.054585e+00
  1.348252e+01    2.859086e+00
  1.351427e+01    2.673373e+00
  1.354602e+01    2.565491e+00
  1.357777e+01    2.404976e+00
  1.360952e+01    2.394730e+00
  1.364127e+01    2.336327e+00
  1.367303e+01    2.296405e+00
  1.370478e+01    2.235778e+00
  1.373653e+01    2.192719e+00
  1.376828e+01    2.217977e+00
  1.380003e+01    2.184216e+00
  1.383178e+01    2.106073e+00
  1.386353e+01    2.127056e+00
  1.389528e+01    2.096768e+00
  1.392703e+01    2.071686e+00
  1.395879e+01    2.051174e+00
  1.399054e+01    2.056880e+00
  1.402229e+01    2.034714e+00
  1.405404e+01    1.999411e+00
  1.408579e+01    2.017955e+00
  1.411754e+01    1.966084e+00
  1.414929e+01    1.953738e+00
  1.418104e+01    1.945633e+00
  1.421279e+01    1.983946e+00
  1.424455e+01    1.980083e+00
  1.427630e+01    1.956092e+00
  1.430805e+01    1.963551e+00
  1.433980e+01    1.926249e+00
  1.437155e+01    1.909549e+00
  1.440330e+01    1.938252e+00
  1.443505e+01    1.952738e+00
  1.446680e+01    1.933684e+00
  1.449856e+01    1.899871e+00
  1.453031e+01    1.929512e+00
  1.456206e+01    1.906023e+00
  1.459381e+01    1.902819e+00
  1.462556e+01    1.903060e+00
  1.465731e+01    1.894142e+00
  1.468906e+01    1.896023e+00
  1.472081e+01    1.897228e+00
  1.475256e+01    1.865803e+00
  1.478432e+01    1.885802e+00
  1.481607e+01    1.893492e+00
  1.484782e+01    1.912008e+00
  1.487957e+01    1.937562e+00
  1.491132e+01    1.952701e+00
  1.494307e+01    1.973076e+00
  1.497482e+01    2.013846e+00
  1.500657e+01    2.123641e+00
  1.503832e+01    2.307215e+00
  1.507008e+01    2.452658e+00
  1.510183e+01    2.825356e+00
  1.513358e+01    3.348067e+00
  1.516533e+01    4.079644e+00
  1.519708e+01    4.770703e+00
  1.522883e+01    5.488769e+00
  1.526058e+01    5.959923e+00
  1.529233e+01    5.954162e+00
  1.532409e+01    5.290057e+00
  1.535584e+01    4.190956e+00
  1.538759e+01    3.277120e+00
  1.541934e+01    2.712764e+00
  1.545109e+01    2.393833e+00
  1.548284e+01    2.214789e+00
  1.551459e+01    2.035328e+00
  1.554634e+01    1.940526e+00
  1.557809e+01    1.873595e+00
  1.560985e+01    1.812947e+00
  1.564160e+01    1.752962e+00
  1.567335e+01    1.732879e+00
  1.570510e+01    1.721652e+00
  1.573685e+01    1.684535e+00
  1.576860e+01    1.659357e+00
  1.580035e+01    1.625280e+00
  1.583210e+01    1.664145e+00
  1.586385e+01    1.642613e+00
  1.589561e+01    1.646675e+00
  1.592736e+01    1.631062e+00
  1.595911e+01    1.629189e+00
  1.599086e+01    1.605736e+00
  1.602261e+01    1.614756e+00
  1.605436e+01    1.559251e+00
  1.608611e+01    1.596946e+00
  1.611786e+01    1.559569e+00
  1.614961e+01    1.592635e+00
  1.618137e+01    1.555045e+00
  1.621312e+01    1.567373e+00
  1.624487e+01    1.593230e+00
  1.627662e+01    1.519068e+00
  1.630837e+01    1.507751e+00
  1.634012e+01    1.507358e+00
  1.637187e+01    1.544650e+00
  1.640362e+01    1.540962e+00
  1.643538e+01    1.530351e+00
  1.646713e+01    1.498940e+00
  1.649888e+01    1.478718e+00
  1.653063e+01    1.505791e+00
  1.656238e+01    1.477992e+00
  1.659413e+01    1.452515e+00
  1.662588e+01    1.457016e+00
  1.665763e+01    1.460721e+00
  1.668938e+01    1.451627e+00
  1.672114e+01    1.483712e+00
  1.675289e+01    1.496484e+00
  1.678464e+01    1.442360e+00
  1.681639e+01    1.424927e+00
  1.684814e+01    1.464630e+00
  1.687989e+01    1.424368e+00
  1.691164e+01    1.420319e+00
  1.694339e+01    1.433934e+00
  1.697514e+01    1.416288e+00
  1.700690e+01    1.404837e+00
  1.703865e+01    1.400842e+00
  1.707040e+01    1.388459e+00
  1.710215e+01    1.428240e+00
  1.713390e+01    1.391065e+00
  1.716565e+01    1.394416e+00
  1.719740e+01    1.373901e+00
  1.722915e+01    1.387023e+00
  1.726091e+01    1.411464e+00
  1.729266e+01    1.363900e+00
  1.732441e+01    1.356465e+00
  1.735616e+01    1.365774e+00
  1.738791e+01    1.380161e+00
  1.741966e+01    1.349501e+00
  1.745141e+01    1.365015e+00
  1.748316e+01    1.369354e+00
  1.751491e+01    1.345660e+00
  1.754667e+01    1.360460e+00
  1.757842e+01    1.351648e+00
  1.761017e+01    1.338891e+00
  1.764192e+01    1.311767e+00
  1.767367e+01    1.328344e+00
  1.770542e+01    1.347103e+00
  1.773717e+01    1.316847e+00
  1.776892e+01    1.320796e+00
  1.780067e+01    1.292985e+00
  1.783243e+01    1.289652e+00
  1.786418e+01    1.289397e+00
  1.789593e+01    1.285934e+00
  1.792768e+01    1.292327e+00
  1.795943e+01    1.273244e+00
  1.799118e+01    1.279020e+00
  1.802293e+01    1.289010e+00
  1.805468e+01    1.305818e+00
  1.808643e+01    1.292468e+00
  1.811819e+01    1.283139e+00
  1.814994e+01    1.286704e+00
  1.818169e+01    1.287450e+00
  1.821344e+01    1.267773e+00
  1.824519e+01    1.281658e+00
  1.827694e+01    1.272269e+00
  1.830869e+01    1.251938e+00
  1.834044e+01    1.265928e+00
  1.837220e+01    1.273514e+00
  1.840395e+01    1.261342e+00
  1.843570e+01    1.237005e+00
  1.846745e+01    1.245322e+00
  1.849920e+01    1.219174e+00
  1.853095e+01    1.246849e+00
  1.856270e+01    1.227898e+00
  1.859445e+01    1.224705e+00
  1.862620e+01    1.215414e+00
  1.865796e+01    1.208776e+00
  1.868971e+01    1.202490e+00
  1.872146e+01    1.198789e+00
  1.875321e+01    1.211091e+00
  1.878496e+01    1.199325e+00
  1.881671e+01    1.187239e+00
  1.884846e+01    1.203471e+00
  1.888021e+01    1.203134e+00
  1.891196e+01    1.228844e+00
  1.894372e+01    1.201370e+00
  1.897547e+01    1.156576e+00
  1.900722e+01    1.192436e+00
  1.903897e+01    1.170851e+00
  1.907072e+01    1.168170e+00
  1.910247e+01    1.162390e+00
  1.913422e+01    1.192646e+00
  1.916597e+01    1.182701e+00
  1.919773e+01    1.173605e+00
  1.922948e+01    1.159646e+00
  1.926123e+01    1.167743e+00
  1.929298e+01    1.143557e+00
  1.932473e+01    1.141077e+00
  1.935648e+01    1.165633e+00
  1.938823e+01    1.154936e+00
  1.941998e+01    1.145804e+00
  1.945173e+01    1.156460e+00
  1.948349e+01    1.155735e+00
  1.951524e+01    1.126640e+00
  1.954699e+01    1.151245e+00
  1.957874e+01    1.118179e+00
  1.961049e+01    1.154562e+00
  1.964224e+01    1.131374e+00
  1.967399e+01    1.122269e+00
  1.970574e+01    1.110984e+00
  1.973749e+01    1.096695e+00
  1.976925e+01    1.122296e+00
  1.980100e+01    1.140091e+00
  1.983275e+01    1.130704e+00
  1.986450e+01    1.089398e+00
  1.989625e+01    1.127873e+00
  1.992800e+01    1.120051e+00
  1.995975e+01    1.114669e+00
  1.999150e+01    1.090728e+00
  2.002325e+01    1.126619e+00
  2.005501e+01    1.097475e+00
  2.008676e+01    1.101006e+00
  2.011851e+01    1.073440e+00
  2.015026e+01    1.091952e+00
  2.018201e+01    1.096213e+00
  2.021376e+01    1.081204e+00
  2.024551e+01    1.111656e+00
  2.027726e+01    1.085993e+00
  2.030902e+01    1.095125e+00
  2.034077e+01    1.112441e+00
  2.037252e+01    1.080932e+00
  2.040427e+01    1.074526e+00
  2.043602e+01    1.061738e+00
  2.046777e+01    1.081041e+00
  2.049952e+01    1.090246e+00
  2.053127e+01    1.060129e+00
  2.056302e+01    1.098864e+00
  2.059478e+01    1.053239e+00
  2.062653e+01    1.092441e+00
  2.065828e+01    1.069319e+00
  2.069003e+01    1.074105e+00
  2.072178e+01    1.069255e+00
  2.075353e+01    1.051175e+00
  2.078528e+01    1.082959e+00
  2.081703e+01    1.086375e+00
  2.084878e+01    1.053636e+00
  2.088054e+01    1.078210e+00
  2.091229e+01    1.066003e+00
  2.094404e+01    1.067348e+00
  2.097579e+01    1.081839e+00
  2.100754e+01    1.083780e+00
  2.103929e+01    1.056289e+00
  2.107104e+01    1.077233e+00
  2.110279e+01    1.095483e+00
  2.113455e+01    1.075374e+00
  2.116630e+01    1.074587e+00
  2.119805e+01    1.112551e+00
  2.122980e+01    1.066522e+00
  2.126155e+01    1.103077e+00
  2.129330e+01    1.121767e+00
  2.132505e+01    1.127151e+00
  2.135680e+01    1.157692e+00
  2.138855e+01    1.155322e+00
  2.142031e+01    1.178848e+00
  2.145206e+01    1.194786e+00
  2.148381e+01    1.243911e+00
  2.151556e+01    1.303361e+00
  2.154731e+01    1.338617e+00
  2.157906e+01    1.468388e+00
  2.161081e+01    1.577326e+00
  2.164256e+01    1.730139e+00
  2.167431e+01    1.997819e+00
  2.170607e+01    2.419079e+00
  2.173782e+01    3.042155e+00
  2.176957e+01    3.959969e+00
  2.180132e+01    5.298116e+00
  2.183307e+01    6.706520e+00
  2.186482e+01    8.182271e+00
  2.189657e+01    9.579125e+00
  2.192832e+01    9.754665e+00
  2.196007e+01    8.356838e+00
  2.199183e+01    6.298830e+00
  2.202358e+01    4.482842e+00
  2.205533e+01    3.331969e+00
  2.208708e+01    2.599566e+00
  2.211883e+01    2.153782e+00
  2.215058e+01    1.797030e+00
  2.218233e+01    1.589406e+00
  2.221408e+01    1.448260e+00
  2.224584e+01    1.343037e+00
  2.227759e+01    1.286856e+00
  2.230934e+01    1.200872e+00
  2.234109e+01    1.159411e+00
  2.237284e+01    1.128928e+00
  2.240459e+01    1.085682e+00
  2.243634e+01    1.065608e+00
  2.246809e+01    1.058165e+00
  2.249984e+01    1.023872e+00
  2.253160e+01    1.021099e+00
  2.256335e+01    9.887286e-01
  2.259510e+01    9.868383e-01
  2.262685e+01    9.885148e-01
  2.265860e+01    9.574548e-01
  2.269035e+01    9.575582e-01
  2.272210e+01    9.558098e-01
  2.275385e+01    9.201430e-01
  2.278560e+01    9.468804e-01
  2.281736e+01    9.378067e-01
  2.284911e+01    9.314993e-01
  2.288086e+01    9.111416e-01
  2.291261e+01    9.264265e-01
  2.294436e+01    9.011836e-01
  2.297611e+01    8.908597e-01
  2.300786e+01    9.117551e-01
  2.303961e+01    8.817058e-01
  2.307137e+01    8.735909e-01
  2.310312e+01    8.970967e-01
  2.313487e+01    8.645732e-01
  2.316662e+01    8.919463e-01
  2.319837e+01    8.758873e-01
  2.323012e+01    8.712980e-01
  2.326187e+01    8.663161e-01
  2.329362e+01    8.509952e-01
  2.332537e+01    8.869737e-01
  2.335713e+01    8.539613e-01
  2.338888e+01    8.326433e-01
  2.342063e+01    8.570022e-01
  2.345238e+01    8.396652e-01
  2.348413e+01    8.346969e-01
  2.351588e+01    8.516977e-01
  2.354763e+01    8.074360e-01
  2.357938e+01    8.257669e-01
  2.361113e+01    8.266919e-01
  2.364289e+01    8.463102e-01
  2.367464e+01    8.343505e-01
  2.370639e+01    8.051794e-01
  2.373814e+01    8.396348e-01
  2.376989e+01    8.042642e-01
  2.380164e+01    8.238345e-01
  2.383339e+01    8.026772e-01
  2.386514e+01    8.132210e-01
  2.389689e+01    7.923951e-01
  2.392865e+01    8.050484e-01
  2.396040e+01    7.874188e-01
  2.399215e+01    7.647973e-01
  2.402390e+01    7.793859e-01
  2.405565e+01    7.705673e-01
  2.408740e+01    7.684416e-01
  2.411915e+01    7.831556e-01
  2.415090e+01    7.890071e-01
  2.418266e+01    7.635926e-01
  2.421441e+01    7.789097e-01
  2.424616e+01    7.697646e-01
  2.427791e+01    7.790975e-01
  2.430966e+01    7.844741e-01
  2.434141e+01    7.689599e-01
  2.437316e+01    7.726346e-01
  2.440491e+01    7.959324e-01
  2.443666e+01    7.732181e-01
  2.446842e+01    7.913687e-01
  2.450017e+01    7.954120e-01
  2.453192e+01    7.747183e-01
  2.456367e+01    7.837382e-01
  2.459542e+01    7.899801e-01
  2.462717e+01    7.908471e-01
  2.465892e+01    7.903553e-01
  2.469067e+01    7.601988e-01
  2.472242e+01    7.871279e-01
  2.475418e+01    7.595040e-01
  2.478593e+01    8.003156e-01
  2.481768e+01    7.828609e-01
  2.484943e+01    8.042978e-01
  2.488118e+01    7.801203e-01
  2.491293e+01    7.681090e-01
  2.494468e+01    7.954446e-01
  2.497643e+01    7.884007e-01
  2.500819e+01    7.943867e-01
  2.503994e+01    7.969952e-01
  2.507169e+01    8.239502e-01
  2.510344e+01    8.076182e-01
  2.513519e+01    8.195530e-01
  2.516694e+01    8.181483e-01
  2.519869e+01    8.308504e-01
  2.523044e+01    8.381236e-01
  2.526219e+01    8.412485e-01
  2.529395e+01    8.514702e-01
  2.532570e+01    8.624214e-01
  2.535745e+01    8.695590e-01
  2.538920e+01    8.862191e-01
  2.542095e+01    9.044331e-01
  2.545270e+01    9.287744e-01
  2.548445e+01    9.637505e-01
  2.551620e+01    9.854664e-01
  2.554795e+01    1.023221e+00
  2.557971e+01    1.059972e+00
  2.561146e+01    1.132972e+00
  2.564321e+01    1.190220e+00
  2.567496e+01    1.290015e+00
  2.570671e+01    1.449052e+00
  2.573846e+01    1.647587e+00
  2.577021e+01    1.943365e+00
  2.580196e+01    2.392077e+00
  2.583371e+01    3.111885e+00
  2.586547e+01    4.097173e+00
  2.589722e+01    5.308255e+00
  2.592897e+01    6.762721e+00
  2.596072e+01    7.837484e+00
  2.599247e+01    8.081323e+00
  2.602422e+01    7.145492e+00
  2.605597e+01    5.510116e+00
  2.608772e+01    3.988951e+00
  2.611948e+01    3.023394e+00
  2.615123e+01    2.348083e+00
  2.618298e+01    1.918683e+00
  2.621473e+01    1.590405e+00
  2.624648e+01    1.430225e+00
  2.627823e+01    1.280843e+00
  2.630998e+01    1.200852e+00
  2.634173e+01    1.133500e+00
  2.637348e+01    1.062096e+00
  2.640524e+01    1.024755e+00
  2.643699e+01    9.691440e-01
  2.646874e+01    9.720545e-01
  2.650049e+01    9.475961e-01
  2.653224e+01    9.429023e-01
  2.656399e+01    9.198435e-01
  2.659574e+01    9.194667e-01
  2.662749e+01    9.223083e-01
  2.665924e+01    8.984380e-01
  2.669100e+01    9.039551e-01
  2.672275e+01    9.124726e-01
  2.675450e+01    8.939272e-01
  2.678625e+01    9.050772e-01
  2.681800e+01    8.933169e-01
  2.684975e+01    9.206362e-01
  2.688150e+01    9.035134e-01
  2.691325e+01    9.324481e-01
  2.694501e+01    9.381860e-01
  2.697676e+01    9.487089e-01
  2.700851e+01    1.013353e+00
  2.704026e+01    1.093508e+00
  2.707201e+01    1.188513e+00
  2.710376e+01    1.322872e+00
  2.713551e+01    1.539205e+00
  2.716726e+01    1.803090e+00
  2.719901e+01    2.146468e+00
  2.723077e+01    2.370541e+00
  2.726252e+01    2.350666e+00
  2.729427e+01    2.062771e+00
  2.732602e+01    1.711165e+00
  2.735777e+01    1.443953e+00
  2.738952e+01    1.230727e+00
  2.742127e+01    1.134883e+00
  2.745302e+01    1.007036e+00
  2.748477e+01    9.746168e-01
  2.751653e+01    9.032660e-01
  2.754828e+01    8.958698e-01
  2.758003e+01    8.730320e-01
  2.761178e+01    8.502144e-01
  2.764353e+01    8.398826e-01
  2.767528e+01    8.421721e-01
  2.770703e+01    8.456147e-01
  2.773878e+01    8.057370e-01
  2.777054e+01    8.136054e-01
  2.780229e+01    8.020499e-01
  2.783404e+01    8.100285e-01
  2.786579e+01    8.067992e-01
  2.789754e+01    7.818881e-01
  2.792929e+01    7.915478e-01
  2.796104e+01    7.936006e-01
  2.799279e+01    7.907895e-01
  2.802454e+01    7.898656e-01
  2.805630e+01    7.914470e-01
  2.808805e+01    7.816148e-01
  2.811980e+01    7.776415e-01
  2.815155e+01    7.908655e-01
  2.818330e+01    7.737843e-01
  2.821505e+01    7.848656e-01
  2.824680e+01    7.571215e-01
  2.827855e+01    7.922022e-01
  2.831030e+01    7.635716e-01
  2.834206e+01    7.489021e-01
  2.837381e+01    7.501770e-01
  2.840556e+01    7.477835e-01
  2.843731e+01    7.404373e-01
  2.846906e+01    7.556296e-01
  2.850081e+01    7.602849e-01
  2.853256e+01    7.513412e-01
  2.856431e+01    7.467422e-01
  2.859606e+01    7.566728e-01
  2.862782e+01    7.549308e-01
  2.865957e+01    7.459720e-01
  2.869132e+01    7.504222e-01
  2.872307e+01    7.714861e-01
  2.875482e+01    7.428832e-01
  2.878657e+01    7.308779e-01
  2.881832e+01    7.484898e-01
  2.885007e+01    7.427428e-01
  2.888183e+01    7.447778e-01
  2.891358e+01    7.402641e-01
  2.894533e+01    7.340693e-01
  2.897708e+01    7.172607e-01
  2.900883e+01    7.202549e-01
  2.904058e+01    7.553419e-01
  2.907233e+01    7.250065e-01
  2.910408e+01    7.469701e-01
  2.913583e+01    7.264646e-01
  2.916759e+01    7.211087e-01
  2.919934e+01    7.268659e-01
  2.923109e+01    7.185761e-01
  2.926284e+01    7.388623e-01
  2.929459e+01    7.470860e-01
  2.932634e+01    7.065696e-01
  2.935809e+01    7.274544e-01
  2.938984e+01    7.236434e-01
  2.942159e+01    7.201860e-01
  2.945335e+01    7.261338e-01
  2.948510e+01    7.339470e-01
  2.951685e+01    7.227991e-01
  2.954860e+01    7.219228e-01
  2.958035e+01    7.154202e-01
  2.961210e+01    7.280298e-01
  2.964385e+01    7.152776e-01
  2.967560e+01    7.251326e-01
  2.970736e+01    7.029386e-01
  2.973911e+01    7.157090e-01
  2.977086e+01    7.067108e-01
  2.980261e+01    7.005986e-01
  2.983436e+01    7.284905e-01
  2.986611e+01    7.329487e-01
  2.989786e+01    7.030044e-01
  2.992961e+01    7.090459e-01
  2.996136e+01    7.046965e-01
  2.999312e+01    7.275724e-01
  3.002487e+01    7.106968e-01
  3.005662e+01    7.280590e-01
  3.008837e+01    6.987693e-01
  3.012012e+01    7.154409e-01
  3.015187e+01    6.965589e-01
  3.018362e+01    7.111018e-01
  3.021537e+01    7.220194e-01
  3.024712e+01    7.118450e-01
  3.027888e+01    7.213334e-01
  3.031063e+01    7.102677e-01
  3.034238e+01    7.030800e-01
  3.037413e+01    7.046640e-01
  3.040588e+01    7.067267e-01
  3.043763e+01    7.185016e-01
  3.046938e+01    7.210987e-01
  3.050113e+01    7.032397e-01
  3.053288e+01    7.215956e-01
  3.056464e+01    7.139803e-01
  3.059639e+01    7.306589e-01
  3.062814e+01    7.135752e-01
  3.065989e+01    6.958502e-01
  3.069164e+01    7.243816e-01
  3.072339e+01    7.174465e-01
  3.075514e+01    6.981514e-01
  3.078689e+01    6.972722e-01
  3.081865e+01    7.278114e-01
  3.085040e+01    7.043794e-01
  3.088215e+01    7.209496e-01
  3.091390e+01    7.013717e-01
  3.094565e+01    6.975242e-01
  3.097740e+01    7.113904e-01
  3.100915e+01    7.138329e-01
  3.104090e+01    7.227941e-01
  3.107265e+01    7.227846e-01
  3.110441e+01    7.309569e-01
  3.113616e+01    7.104131e-01
  3.116791e+01    7.281192e-01
  3.119966e+01    7.197638e-01
  3.123141e+01    7.320468e-01
  3.126316e+01    7.305459e-01
  3.129491e+01    7.247007e-01
  3.132666e+01    7.200273e-01
  3.135841e+01    7.226216e-01
  3.139017e+01    7.141628e-01
  3.142192e+01    7.410626e-01
  3.145367e+01    7.589294e-01
  3.148542e+01    7.522057e-01
  3.151717e+01    7.490194e-01
  3.154892e+01    7.706180e-01
  3.158067e+01    8.121402e-01
  3.161242e+01    7.968033e-01
  3.164418e+01    8.442010e-01
  3.167593e+01    8.654646e-01
  3.170768e+01    9.137039e-01
  3.173943e+01    1.018372e+00
  3.177118e+01    1.149772e+00
  3.180293e+01    1.294031e+00
  3.183468e+01    1.533731e+00
  3.186643e+01    1.865343e+00
  3.189818e+01    2.183065e+00
  3.192994e+01    2.345441e+00
  3.196169e+01    2.272437e+00
  3.199344e+01    1.982973e+00
  3.202519e+01    1.621372e+00
  3.205694e+01    1.369082e+00
  3.208869e+01    1.137174e+00
  3.212044e+01    1.042940e+00
  3.215219e+01    9.294535e-01
  3.218394e+01    8.644228e-01
  3.221570e+01    8.664674e-01
  3.224745e+01    8.111388e-01
  3.227920e+01    7.730027e-01
  3.231095e+01    7.691789e-01
  3.234270e+01    7.589695e-01
  3.237445e+01    7.427949e-01
  3.240620e+01    7.438130e-01
  3.243795e+01    7.397582e-01
  3.246970e+01    7.133989e-01
  3.250146e+01    7.374862e-01
  3.253321e+01    7.239971e-01
  3.254908e+01    7.387182e-01