File: XRD/2024-07-27_002_Ru-CGO-ex_Activtation_ramp_000002_data_000169.dat
# == pyFAI calibration ==
# Distance Sample to Detector: 0.4 m
# PONI: 9.750e-02, 1.135e-01 m
# Rotations: -0.000175 0.000000 -0.000000 rad
#
# == Fit2d calibration ==
# Distance Sample-beamCenter: 400.000 mm
# Center: x=1514.000, y=1300.000 pix
# Tilt: 0.010 deg  TiltPlanRot: 0.010 deg
#
# Detector Detector	 Spline= None	 PixelSize= 7.500e-05, 7.500e-05 m
#    Detector has a mask: False
#    Detector has a dark current: False
#    detector has a flat field: False
#
# Wavelength: 6.888e-11 m
# Mask applied: user provided
# Dark current applied: False
# Flat field applied: False
# Polarization factor: 0.99
# Normalization factor: 1.0
# --> /home/myspot/data/2024_07_Rosario/Ru-CGO-ex/2024-07-27_002_Ru-CGO-ex_Activtation_ramp_000002_data_000169.dat
#       q_nm^-1             I
  2.003187e-02    0.000000e+00
  5.178302e-02    7.451738e-02
  8.353417e-02    2.592751e-03
  1.152853e-01    2.839676e-02
  1.470365e-01    3.815402e-03
  1.787876e-01    3.323670e-02
  2.105388e-01    4.700729e-02
  2.422899e-01    9.115915e-02
  2.740411e-01    3.624374e-02
  3.057922e-01    1.344776e-02
  3.375433e-01    3.022903e-02
  3.692945e-01    4.019468e-02
  4.010456e-01    4.373888e-02
  4.327968e-01    2.925107e-02
  4.645479e-01    1.657043e-02
  4.962991e-01    2.193541e-02
  5.280502e-01    1.791798e-02
  5.598014e-01    5.669802e-02
  5.915525e-01    5.742152e-02
  6.233037e-01    5.983217e-02
  6.550548e-01    6.032822e-02
  6.868060e-01    4.923010e-02
  7.185571e-01    4.981644e-02
  7.503083e-01    5.940726e-02
  7.820594e-01    1.548106e-01
  8.138106e-01    1.855416e-01
  8.455617e-01    3.530990e-01
  8.773129e-01    4.465915e-01
  9.090640e-01    5.983125e-01
  9.408152e-01    6.171885e-01
  9.725663e-01    8.787186e-01
  1.004317e+00    9.959746e-01
  1.036069e+00    1.170305e+00
  1.067820e+00    1.243090e+00
  1.099571e+00    1.350563e+00
  1.131322e+00    1.503530e+00
  1.163073e+00    1.516510e+00
  1.194824e+00    1.672345e+00
  1.226575e+00    2.099161e+00
  1.258327e+00    2.256900e+00
  1.290078e+00    2.381339e+00
  1.321829e+00    2.304546e+00
  1.353580e+00    2.525155e+00
  1.385331e+00    2.508671e+00
  1.417082e+00    2.634903e+00
  1.448834e+00    2.666366e+00
  1.480585e+00    2.849696e+00
  1.512336e+00    2.732431e+00
  1.544087e+00    2.942819e+00
  1.575838e+00    2.815367e+00
  1.607589e+00    2.915945e+00
  1.639340e+00    2.798240e+00
  1.671092e+00    2.903999e+00
  1.702843e+00    2.763485e+00
  1.734594e+00    2.672127e+00
  1.766345e+00    2.732252e+00
  1.798096e+00    2.740271e+00
  1.829847e+00    2.768773e+00
  1.861598e+00    2.661866e+00
  1.893350e+00    2.706218e+00
  1.925101e+00    2.686978e+00
  1.956852e+00    2.722062e+00
  1.988603e+00    2.612964e+00
  2.020354e+00    2.769169e+00
  2.052105e+00    2.722805e+00
  2.083856e+00    2.720719e+00
  2.115608e+00    2.823602e+00
  2.147359e+00    2.795872e+00
  2.179110e+00    2.719259e+00
  2.210861e+00    2.667940e+00
  2.242612e+00    2.719783e+00
  2.274363e+00    2.673660e+00
  2.306115e+00    2.864216e+00
  2.337866e+00    2.804233e+00
  2.369617e+00    2.568448e+00
  2.401368e+00    2.582766e+00
  2.433119e+00    2.832184e+00
  2.464870e+00    2.777524e+00
  2.496621e+00    2.900579e+00
  2.528373e+00    2.751059e+00
  2.560124e+00    2.699691e+00
  2.591875e+00    2.805588e+00
  2.623626e+00    2.763966e+00
  2.655377e+00    2.770126e+00
  2.687128e+00    2.885299e+00
  2.718879e+00    2.830439e+00
  2.750631e+00    2.871616e+00
  2.782382e+00    2.822338e+00
  2.814133e+00    2.916867e+00
  2.845884e+00    2.904891e+00
  2.877635e+00    2.861934e+00
  2.909386e+00    2.895313e+00
  2.941137e+00    2.786227e+00
  2.972889e+00    2.911935e+00
  3.004640e+00    2.858978e+00
  3.036391e+00    2.955617e+00
  3.068142e+00    2.873286e+00
  3.099893e+00    2.915399e+00
  3.131644e+00    2.986511e+00
  3.163395e+00    2.898014e+00
  3.195147e+00    2.923701e+00
  3.226898e+00    2.886944e+00
  3.258649e+00    2.989251e+00
  3.290400e+00    3.062195e+00
  3.322151e+00    2.936918e+00
  3.353902e+00    2.967414e+00
  3.385654e+00    2.821575e+00
  3.417405e+00    2.981246e+00
  3.449156e+00    2.926343e+00
  3.480907e+00    3.028307e+00
  3.512658e+00    2.922551e+00
  3.544409e+00    2.931809e+00
  3.576160e+00    2.965266e+00
  3.607912e+00    2.951190e+00
  3.639663e+00    3.043943e+00
  3.671414e+00    2.960334e+00
  3.703165e+00    2.943989e+00
  3.734916e+00    2.933293e+00
  3.766667e+00    3.030905e+00
  3.798418e+00    2.953773e+00
  3.830170e+00    3.023154e+00
  3.861921e+00    3.024730e+00
  3.893672e+00    2.999927e+00
  3.925423e+00    2.993223e+00
  3.957174e+00    3.032001e+00
  3.988925e+00    3.041736e+00
  4.020676e+00    3.145056e+00
  4.052428e+00    3.051180e+00
  4.084179e+00    3.073348e+00
  4.115930e+00    2.998087e+00
  4.147681e+00    3.011545e+00
  4.179432e+00    2.978941e+00
  4.211183e+00    3.017117e+00
  4.242935e+00    3.062202e+00
  4.274686e+00    3.056732e+00
  4.306437e+00    3.030848e+00
  4.338188e+00    3.125536e+00
  4.369939e+00    3.103539e+00
  4.401690e+00    3.093821e+00
  4.433441e+00    3.172052e+00
  4.465193e+00    3.093588e+00
  4.496944e+00    3.065285e+00
  4.528695e+00    3.057647e+00
  4.560446e+00    3.084339e+00
  4.592197e+00    3.117122e+00
  4.623948e+00    3.203745e+00
  4.655699e+00    3.075927e+00
  4.687451e+00    3.127467e+00
  4.719202e+00    3.147012e+00
  4.750953e+00    3.174099e+00
  4.782704e+00    3.113177e+00
  4.814455e+00    3.119664e+00
  4.846206e+00    3.162213e+00
  4.877957e+00    3.136667e+00
  4.909709e+00    3.118897e+00
  4.941460e+00    3.046926e+00
  4.973211e+00    3.123719e+00
  5.004962e+00    3.099312e+00
  5.036713e+00    3.104239e+00
  5.068464e+00    3.036222e+00
  5.100216e+00    3.099363e+00
  5.131967e+00    3.152596e+00
  5.163718e+00    3.116085e+00
  5.195469e+00    3.097172e+00
  5.227220e+00    3.196224e+00
  5.258971e+00    3.166985e+00
  5.290722e+00    3.180160e+00
  5.322474e+00    3.186526e+00
  5.354225e+00    3.166422e+00
  5.385976e+00    3.134391e+00
  5.417727e+00    3.115331e+00
  5.449478e+00    3.099829e+00
  5.481229e+00    3.093118e+00
  5.512980e+00    3.046787e+00
  5.544732e+00    3.138484e+00
  5.576483e+00    3.103080e+00
  5.608234e+00    3.079398e+00
  5.639985e+00    3.157399e+00
  5.671736e+00    3.117548e+00
  5.703487e+00    3.082880e+00
  5.735238e+00    3.134198e+00
  5.766990e+00    3.060201e+00
  5.798741e+00    3.116480e+00
  5.830492e+00    2.975509e+00
  5.862243e+00    3.076132e+00
  5.893994e+00    2.977342e+00
  5.925745e+00    3.015510e+00
  5.957497e+00    3.059947e+00
  5.989248e+00    2.888574e+00
  6.020999e+00    3.012460e+00
  6.052750e+00    3.035005e+00
  6.084501e+00    3.037839e+00
  6.116252e+00    3.111189e+00
  6.148003e+00    3.074867e+00
  6.179755e+00    3.041440e+00
  6.211506e+00    3.068141e+00
  6.243257e+00    3.135524e+00
  6.275008e+00    3.077157e+00
  6.306759e+00    3.056185e+00
  6.338510e+00    3.030072e+00
  6.370261e+00    3.044820e+00
  6.402013e+00    3.109887e+00
  6.433764e+00    3.025376e+00
  6.465515e+00    3.021233e+00
  6.497266e+00    3.032623e+00
  6.529017e+00    3.048420e+00
  6.560768e+00    3.047389e+00
  6.592519e+00    3.103662e+00
  6.624271e+00    3.077924e+00
  6.656022e+00    3.156538e+00
  6.687773e+00    3.009701e+00
  6.719524e+00    3.034670e+00
  6.751275e+00    3.006428e+00
  6.783026e+00    3.064543e+00
  6.814777e+00    3.014582e+00
  6.846529e+00    2.982298e+00
  6.878280e+00    3.057678e+00
  6.910031e+00    3.109499e+00
  6.941782e+00    3.037102e+00
  6.973533e+00    3.037419e+00
  7.005284e+00    3.096475e+00
  7.037036e+00    3.103909e+00
  7.068787e+00    2.968186e+00
  7.100538e+00    3.079677e+00
  7.132289e+00    3.020779e+00
  7.164040e+00    3.063167e+00
  7.195791e+00    3.047023e+00
  7.227542e+00    3.033359e+00
  7.259294e+00    3.018285e+00
  7.291045e+00    3.036108e+00
  7.322796e+00    2.984610e+00
  7.354547e+00    2.962866e+00
  7.386298e+00    3.002416e+00
  7.418049e+00    3.011374e+00
  7.449800e+00    3.031817e+00
  7.481552e+00    2.938241e+00
  7.513303e+00    3.057683e+00
  7.545054e+00    2.955430e+00
  7.576805e+00    2.943260e+00
  7.608556e+00    2.956368e+00
  7.640307e+00    2.948995e+00
  7.672058e+00    3.019105e+00
  7.703810e+00    3.053395e+00
  7.735561e+00    3.008980e+00
  7.767312e+00    2.959591e+00
  7.799063e+00    2.896721e+00
  7.830814e+00    2.974205e+00
  7.862565e+00    2.960261e+00
  7.894317e+00    2.990644e+00
  7.926068e+00    2.981640e+00
  7.957819e+00    2.947490e+00
  7.989570e+00    2.919590e+00
  8.021321e+00    2.858837e+00
  8.053072e+00    2.970941e+00
  8.084823e+00    2.900725e+00
  8.116575e+00    2.932452e+00
  8.148326e+00    2.928169e+00
  8.180077e+00    3.034393e+00
  8.211828e+00    2.948188e+00
  8.243579e+00    2.932141e+00
  8.275330e+00    3.016667e+00
  8.307081e+00    2.938682e+00
  8.338833e+00    2.936405e+00
  8.370584e+00    2.904490e+00
  8.402335e+00    2.898666e+00
  8.434086e+00    2.888161e+00
  8.465837e+00    2.925771e+00
  8.497588e+00    2.889621e+00
  8.529339e+00    2.898356e+00
  8.561091e+00    2.915820e+00
  8.592842e+00    2.881274e+00
  8.624593e+00    2.898138e+00
  8.656344e+00    2.835370e+00
  8.688095e+00    2.940486e+00
  8.719846e+00    2.905685e+00
  8.751598e+00    2.829027e+00
  8.783349e+00    2.811900e+00
  8.815100e+00    2.807683e+00
  8.846851e+00    2.870224e+00
  8.878602e+00    2.851116e+00
  8.910353e+00    2.830626e+00
  8.942104e+00    2.748453e+00
  8.973856e+00    2.849164e+00
  9.005607e+00    2.883783e+00
  9.037358e+00    2.860119e+00
  9.069109e+00    2.827113e+00
  9.100860e+00    2.840404e+00
  9.132611e+00    2.735247e+00
  9.164362e+00    2.803604e+00
  9.196114e+00    2.828837e+00
  9.227865e+00    2.751600e+00
  9.259616e+00    2.789473e+00
  9.291367e+00    2.786928e+00
  9.323118e+00    2.777186e+00
  9.354869e+00    2.803196e+00
  9.386620e+00    2.744314e+00
  9.418372e+00    2.793512e+00
  9.450123e+00    2.767108e+00
  9.481874e+00    2.748252e+00
  9.513625e+00    2.762830e+00
  9.545376e+00    2.792267e+00
  9.577127e+00    2.801129e+00
  9.608878e+00    2.708733e+00
  9.640630e+00    2.793567e+00
  9.672381e+00    2.725196e+00
  9.704132e+00    2.786280e+00
  9.735883e+00    2.744802e+00
  9.767634e+00    2.729187e+00
  9.799385e+00    2.755777e+00
  9.831137e+00    2.725479e+00
  9.862888e+00    2.703199e+00
  9.894639e+00    2.662620e+00
  9.926390e+00    2.686512e+00
  9.958141e+00    2.657014e+00
  9.989892e+00    2.672732e+00
  1.002164e+01    2.723816e+00
  1.005339e+01    2.673667e+00
  1.008515e+01    2.699952e+00
  1.011690e+01    2.680374e+00
  1.014865e+01    2.604913e+00
  1.018040e+01    2.609115e+00
  1.021215e+01    2.657746e+00
  1.024390e+01    2.621019e+00
  1.027565e+01    2.605896e+00
  1.030740e+01    2.650618e+00
  1.033915e+01    2.614145e+00
  1.037091e+01    2.597574e+00
  1.040266e+01    2.610410e+00
  1.043441e+01    2.625723e+00
  1.046616e+01    2.591094e+00
  1.049791e+01    2.570766e+00
  1.052966e+01    2.582490e+00
  1.056141e+01    2.567999e+00
  1.059316e+01    2.597507e+00
  1.062492e+01    2.586166e+00
  1.065667e+01    2.590153e+00
  1.068842e+01    2.632295e+00
  1.072017e+01    2.566652e+00
  1.075192e+01    2.583360e+00
  1.078367e+01    2.529324e+00
  1.081542e+01    2.524235e+00
  1.084717e+01    2.556916e+00
  1.087892e+01    2.498076e+00
  1.091068e+01    2.501169e+00
  1.094243e+01    2.529663e+00
  1.097418e+01    2.532457e+00
  1.100593e+01    2.535900e+00
  1.103768e+01    2.572822e+00
  1.106943e+01    2.474808e+00
  1.110118e+01    2.455731e+00
  1.113293e+01    2.493466e+00
  1.116468e+01    2.416946e+00
  1.119644e+01    2.407301e+00
  1.122819e+01    2.483558e+00
  1.125994e+01    2.461625e+00
  1.129169e+01    2.446306e+00
  1.132344e+01    2.443194e+00
  1.135519e+01    2.408582e+00
  1.138694e+01    2.420660e+00
  1.141869e+01    2.468119e+00
  1.145045e+01    2.440298e+00
  1.148220e+01    2.380109e+00
  1.151395e+01    2.409780e+00
  1.154570e+01    2.394633e+00
  1.157745e+01    2.391414e+00
  1.160920e+01    2.416262e+00
  1.164095e+01    2.385777e+00
  1.167270e+01    2.338011e+00
  1.170445e+01    2.345520e+00
  1.173621e+01    2.396132e+00
  1.176796e+01    2.369780e+00
  1.179971e+01    2.355211e+00
  1.183146e+01    2.374577e+00
  1.186321e+01    2.339045e+00
  1.189496e+01    2.324959e+00
  1.192671e+01    2.376799e+00
  1.195846e+01    2.377820e+00
  1.199021e+01    2.354519e+00
  1.202197e+01    2.317057e+00
  1.205372e+01    2.328848e+00
  1.208547e+01    2.373588e+00
  1.211722e+01    2.339809e+00
  1.214897e+01    2.285146e+00
  1.218072e+01    2.336455e+00
  1.221247e+01    2.321008e+00
  1.224422e+01    2.323321e+00
  1.227597e+01    2.345288e+00
  1.230773e+01    2.344633e+00
  1.233948e+01    2.327583e+00
  1.237123e+01    2.327988e+00
  1.240298e+01    2.356642e+00
  1.243473e+01    2.369593e+00
  1.246648e+01    2.335869e+00
  1.249823e+01    2.400078e+00
  1.252998e+01    2.374782e+00
  1.256174e+01    2.397969e+00
  1.259349e+01    2.332524e+00
  1.262524e+01    2.412321e+00
  1.265699e+01    2.452038e+00
  1.268874e+01    2.445778e+00
  1.272049e+01    2.513535e+00
  1.275224e+01    2.539258e+00
  1.278399e+01    2.642703e+00
  1.281574e+01    2.718437e+00
  1.284750e+01    2.844050e+00
  1.287925e+01    3.065367e+00
  1.291100e+01    3.300175e+00
  1.294275e+01    3.773452e+00
  1.297450e+01    4.437668e+00
  1.300625e+01    5.491457e+00
  1.303800e+01    7.270611e+00
  1.306975e+01    9.674527e+00
  1.310150e+01    1.221037e+01
  1.313326e+01    1.429775e+01
  1.316501e+01    1.595534e+01
  1.319676e+01    1.552424e+01
  1.322851e+01    1.226475e+01
  1.326026e+01    8.739075e+00
  1.329201e+01    6.470613e+00
  1.332376e+01    4.977038e+00
  1.335551e+01    4.137926e+00
  1.338727e+01    3.521061e+00
  1.341902e+01    3.192245e+00
  1.345077e+01    2.873756e+00
  1.348252e+01    2.726980e+00
  1.351427e+01    2.620457e+00
  1.354602e+01    2.513495e+00
  1.357777e+01    2.437353e+00
  1.360952e+01    2.373217e+00
  1.364127e+01    2.289492e+00
  1.367303e+01    2.256961e+00
  1.370478e+01    2.235189e+00
  1.373653e+01    2.155764e+00
  1.376828e+01    2.193798e+00
  1.380003e+01    2.191864e+00
  1.383178e+01    2.172951e+00
  1.386353e+01    2.096986e+00
  1.389528e+01    2.051583e+00
  1.392703e+01    2.085906e+00
  1.395879e+01    2.095156e+00
  1.399054e+01    2.074635e+00
  1.402229e+01    2.118388e+00
  1.405404e+01    2.040627e+00
  1.408579e+01    2.027234e+00
  1.411754e+01    1.987141e+00
  1.414929e+01    2.007825e+00
  1.418104e+01    1.956883e+00
  1.421279e+01    1.991787e+00
  1.424455e+01    1.994750e+00
  1.427630e+01    1.977493e+00
  1.430805e+01    1.991166e+00
  1.433980e+01    1.995027e+00
  1.437155e+01    1.978635e+00
  1.440330e+01    1.927168e+00
  1.443505e+01    1.966068e+00
  1.446680e+01    1.938656e+00
  1.449856e+01    1.914345e+00
  1.453031e+01    1.936117e+00
  1.456206e+01    1.942979e+00
  1.459381e+01    1.913900e+00
  1.462556e+01    1.935264e+00
  1.465731e+01    1.909183e+00
  1.468906e+01    1.925002e+00
  1.472081e+01    1.901898e+00
  1.475256e+01    1.952076e+00
  1.478432e+01    1.909499e+00
  1.481607e+01    1.914206e+00
  1.484782e+01    1.901543e+00
  1.487957e+01    1.949334e+00
  1.491132e+01    1.968373e+00
  1.494307e+01    2.023722e+00
  1.497482e+01    2.054025e+00
  1.500657e+01    2.191454e+00
  1.503832e+01    2.372485e+00
  1.507008e+01    2.562904e+00
  1.510183e+01    2.895829e+00
  1.513358e+01    3.527992e+00
  1.516533e+01    4.236201e+00
  1.519708e+01    4.832772e+00
  1.522883e+01    5.338157e+00
  1.526058e+01    5.613843e+00
  1.529233e+01    5.240888e+00
  1.532409e+01    4.430632e+00
  1.535584e+01    3.514969e+00
  1.538759e+01    2.867871e+00
  1.541934e+01    2.477897e+00
  1.545109e+01    2.208967e+00
  1.548284e+01    2.086987e+00
  1.551459e+01    1.975699e+00
  1.554634e+01    1.924515e+00
  1.557809e+01    1.866947e+00
  1.560985e+01    1.825378e+00
  1.564160e+01    1.782936e+00
  1.567335e+01    1.767375e+00
  1.570510e+01    1.729126e+00
  1.573685e+01    1.722750e+00
  1.576860e+01    1.708543e+00
  1.580035e+01    1.676886e+00
  1.583210e+01    1.696911e+00
  1.586385e+01    1.696983e+00
  1.589561e+01    1.619664e+00
  1.592736e+01    1.674244e+00
  1.595911e+01    1.652960e+00
  1.599086e+01    1.624475e+00
  1.602261e+01    1.581031e+00
  1.605436e+01    1.622065e+00
  1.608611e+01    1.627845e+00
  1.611786e+01    1.583829e+00
  1.614961e+01    1.534415e+00
  1.618137e+01    1.617117e+00
  1.621312e+01    1.570747e+00
  1.624487e+01    1.589619e+00
  1.627662e+01    1.550413e+00
  1.630837e+01    1.568745e+00
  1.634012e+01    1.567513e+00
  1.637187e+01    1.525956e+00
  1.640362e+01    1.555142e+00
  1.643538e+01    1.532110e+00
  1.646713e+01    1.536418e+00
  1.649888e+01    1.534474e+00
  1.653063e+01    1.507053e+00
  1.656238e+01    1.542382e+00
  1.659413e+01    1.475507e+00
  1.662588e+01    1.490702e+00
  1.665763e+01    1.461517e+00
  1.668938e+01    1.465271e+00
  1.672114e+01    1.486241e+00
  1.675289e+01    1.489434e+00
  1.678464e+01    1.466601e+00
  1.681639e+01    1.480067e+00
  1.684814e+01    1.415587e+00
  1.687989e+01    1.447446e+00
  1.691164e+01    1.462041e+00
  1.694339e+01    1.460340e+00
  1.697514e+01    1.425594e+00
  1.700690e+01    1.418104e+00
  1.703865e+01    1.443338e+00
  1.707040e+01    1.438213e+00
  1.710215e+01    1.396489e+00
  1.713390e+01    1.432536e+00
  1.716565e+01    1.409562e+00
  1.719740e+01    1.390285e+00
  1.722915e+01    1.412367e+00
  1.726091e+01    1.410635e+00
  1.729266e+01    1.401496e+00
  1.732441e+01    1.376309e+00
  1.735616e+01    1.386701e+00
  1.738791e+01    1.368924e+00
  1.741966e+01    1.379788e+00
  1.745141e+01    1.373264e+00
  1.748316e+01    1.391999e+00
  1.751491e+01    1.378512e+00
  1.754667e+01    1.361452e+00
  1.757842e+01    1.346695e+00
  1.761017e+01    1.352839e+00
  1.764192e+01    1.333587e+00
  1.767367e+01    1.336115e+00
  1.770542e+01    1.337186e+00
  1.773717e+01    1.332649e+00
  1.776892e+01    1.340139e+00
  1.780067e+01    1.317515e+00
  1.783243e+01    1.326564e+00
  1.786418e+01    1.343903e+00
  1.789593e+01    1.317913e+00
  1.792768e+01    1.324585e+00
  1.795943e+01    1.319646e+00
  1.799118e+01    1.315617e+00
  1.802293e+01    1.310236e+00
  1.805468e+01    1.290747e+00
  1.808643e+01    1.324222e+00
  1.811819e+01    1.296462e+00
  1.814994e+01    1.313979e+00
  1.818169e+01    1.300018e+00
  1.821344e+01    1.292401e+00
  1.824519e+01    1.280996e+00
  1.827694e+01    1.257863e+00
  1.830869e+01    1.270079e+00
  1.834044e+01    1.271350e+00
  1.837220e+01    1.254325e+00
  1.840395e+01    1.254633e+00
  1.843570e+01    1.283939e+00
  1.846745e+01    1.222732e+00
  1.849920e+01    1.283955e+00
  1.853095e+01    1.244906e+00
  1.856270e+01    1.243891e+00
  1.859445e+01    1.220158e+00
  1.862620e+01    1.239504e+00
  1.865796e+01    1.238723e+00
  1.868971e+01    1.224561e+00
  1.872146e+01    1.246338e+00
  1.875321e+01    1.228879e+00
  1.878496e+01    1.208031e+00
  1.881671e+01    1.212470e+00
  1.884846e+01    1.222616e+00
  1.888021e+01    1.216624e+00
  1.891196e+01    1.220157e+00
  1.894372e+01    1.211397e+00
  1.897547e+01    1.197783e+00
  1.900722e+01    1.189000e+00
  1.903897e+01    1.209815e+00
  1.907072e+01    1.182820e+00
  1.910247e+01    1.183854e+00
  1.913422e+01    1.202322e+00
  1.916597e+01    1.181627e+00
  1.919773e+01    1.219800e+00
  1.922948e+01    1.191700e+00
  1.926123e+01    1.168441e+00
  1.929298e+01    1.187893e+00
  1.932473e+01    1.153622e+00
  1.935648e+01    1.159617e+00
  1.938823e+01    1.159932e+00
  1.941998e+01    1.172740e+00
  1.945173e+01    1.172020e+00
  1.948349e+01    1.166120e+00
  1.951524e+01    1.169032e+00
  1.954699e+01    1.150221e+00
  1.957874e+01    1.162439e+00
  1.961049e+01    1.166487e+00
  1.964224e+01    1.136213e+00
  1.967399e+01    1.150100e+00
  1.970574e+01    1.128507e+00
  1.973749e+01    1.114935e+00
  1.976925e+01    1.121048e+00
  1.980100e+01    1.161750e+00
  1.983275e+01    1.130177e+00
  1.986450e+01    1.143294e+00
  1.989625e+01    1.130881e+00
  1.992800e+01    1.121266e+00
  1.995975e+01    1.122410e+00
  1.999150e+01    1.124254e+00
  2.002325e+01    1.098588e+00
  2.005501e+01    1.123947e+00
  2.008676e+01    1.100466e+00
  2.011851e+01    1.119547e+00
  2.015026e+01    1.116983e+00
  2.018201e+01    1.122831e+00
  2.021376e+01    1.119592e+00
  2.024551e+01    1.101806e+00
  2.027726e+01    1.098278e+00
  2.030902e+01    1.093001e+00
  2.034077e+01    1.089431e+00
  2.037252e+01    1.085825e+00
  2.040427e+01    1.096699e+00
  2.043602e+01    1.084486e+00
  2.046777e+01    1.102035e+00
  2.049952e+01    1.070081e+00
  2.053127e+01    1.080194e+00
  2.056302e+01    1.096130e+00
  2.059478e+01    1.077963e+00
  2.062653e+01    1.080993e+00
  2.065828e+01    1.086017e+00
  2.069003e+01    1.075758e+00
  2.072178e+01    1.081281e+00
  2.075353e+01    1.079562e+00
  2.078528e+01    1.043429e+00
  2.081703e+01    1.083808e+00
  2.084878e+01    1.072310e+00
  2.088054e+01    1.105048e+00
  2.091229e+01    1.087716e+00
  2.094404e+01    1.105908e+00
  2.097579e+01    1.088247e+00
  2.100754e+01    1.078128e+00
  2.103929e+01    1.071602e+00
  2.107104e+01    1.090379e+00
  2.110279e+01    1.108615e+00
  2.113455e+01    1.086517e+00
  2.116630e+01    1.086949e+00
  2.119805e+01    1.088229e+00
  2.122980e+01    1.097773e+00
  2.126155e+01    1.097466e+00
  2.129330e+01    1.097121e+00
  2.132505e+01    1.131696e+00
  2.135680e+01    1.168725e+00
  2.138855e+01    1.160994e+00
  2.142031e+01    1.186203e+00
  2.145206e+01    1.214781e+00
  2.148381e+01    1.237356e+00
  2.151556e+01    1.315227e+00
  2.154731e+01    1.409155e+00
  2.157906e+01    1.470367e+00
  2.161081e+01    1.624598e+00
  2.164256e+01    1.848846e+00
  2.167431e+01    2.159572e+00
  2.170607e+01    2.685662e+00
  2.173782e+01    3.402475e+00
  2.176957e+01    4.424744e+00
  2.180132e+01    5.706388e+00
  2.183307e+01    7.063150e+00
  2.186482e+01    8.351028e+00
  2.189657e+01    8.907889e+00
  2.192832e+01    8.112885e+00
  2.196007e+01    6.375381e+00
  2.199183e+01    4.620646e+00
  2.202358e+01    3.380934e+00
  2.205533e+01    2.625808e+00
  2.208708e+01    2.137843e+00
  2.211883e+01    1.811104e+00
  2.215058e+01    1.634840e+00
  2.218233e+01    1.483882e+00
  2.221408e+01    1.349766e+00
  2.224584e+01    1.288978e+00
  2.227759e+01    1.205179e+00
  2.230934e+01    1.148690e+00
  2.234109e+01    1.111290e+00
  2.237284e+01    1.084792e+00
  2.240459e+01    1.065057e+00
  2.243634e+01    1.050322e+00
  2.246809e+01    1.052494e+00
  2.249984e+01    1.024430e+00
  2.253160e+01    1.002118e+00
  2.256335e+01    9.601356e-01
  2.259510e+01    9.866716e-01
  2.262685e+01    9.896877e-01
  2.265860e+01    9.679836e-01
  2.269035e+01    9.392077e-01
  2.272210e+01    9.476442e-01
  2.275385e+01    9.329998e-01
  2.278560e+01    9.399087e-01
  2.281736e+01    9.389098e-01
  2.284911e+01    9.223558e-01
  2.288086e+01    8.911362e-01
  2.291261e+01    9.293785e-01
  2.294436e+01    9.015063e-01
  2.297611e+01    8.907344e-01
  2.300786e+01    8.805581e-01
  2.303961e+01    9.100231e-01
  2.307137e+01    8.975786e-01
  2.310312e+01    9.058993e-01
  2.313487e+01    8.798723e-01
  2.316662e+01    8.808004e-01
  2.319837e+01    8.579090e-01
  2.323012e+01    8.722613e-01
  2.326187e+01    8.831853e-01
  2.329362e+01    8.662322e-01
  2.332537e+01    8.759895e-01
  2.335713e+01    8.459287e-01
  2.338888e+01    8.686855e-01
  2.342063e+01    8.477958e-01
  2.345238e+01    8.432787e-01
  2.348413e+01    8.625386e-01
  2.351588e+01    8.512633e-01
  2.354763e+01    8.610935e-01
  2.357938e+01    8.373719e-01
  2.361113e+01    8.529140e-01
  2.364289e+01    8.448201e-01
  2.367464e+01    8.271266e-01
  2.370639e+01    8.329950e-01
  2.373814e+01    8.160076e-01
  2.376989e+01    8.232220e-01
  2.380164e+01    8.207804e-01
  2.383339e+01    8.055695e-01
  2.386514e+01    7.971774e-01
  2.389689e+01    8.124518e-01
  2.392865e+01    8.111900e-01
  2.396040e+01    7.968934e-01
  2.399215e+01    7.874606e-01
  2.402390e+01    8.022822e-01
  2.405565e+01    8.094149e-01
  2.408740e+01    7.809927e-01
  2.411915e+01    8.087298e-01
  2.415090e+01    7.805493e-01
  2.418266e+01    7.734935e-01
  2.421441e+01    7.773510e-01
  2.424616e+01    7.852526e-01
  2.427791e+01    7.749128e-01
  2.430966e+01    7.853208e-01
  2.434141e+01    7.641510e-01
  2.437316e+01    7.941941e-01
  2.440491e+01    7.848642e-01
  2.443666e+01    7.754277e-01
  2.446842e+01    7.838298e-01
  2.450017e+01    8.055539e-01
  2.453192e+01    7.854102e-01
  2.456367e+01    7.865692e-01
  2.459542e+01    7.841635e-01
  2.462717e+01    7.859727e-01
  2.465892e+01    7.882960e-01
  2.469067e+01    7.923521e-01
  2.472242e+01    7.783358e-01
  2.475418e+01    8.005050e-01
  2.478593e+01    7.906301e-01
  2.481768e+01    7.864054e-01
  2.484943e+01    8.121392e-01
  2.488118e+01    7.855821e-01
  2.491293e+01    7.903812e-01
  2.494468e+01    7.825546e-01
  2.497643e+01    8.171064e-01
  2.500819e+01    8.016499e-01
  2.503994e+01    7.954975e-01
  2.507169e+01    8.153726e-01
  2.510344e+01    8.035422e-01
  2.513519e+01    8.122523e-01
  2.516694e+01    8.334096e-01
  2.519869e+01    8.254017e-01
  2.523044e+01    8.263323e-01
  2.526219e+01    8.699362e-01
  2.529395e+01    8.468074e-01
  2.532570e+01    8.595725e-01
  2.535745e+01    8.849578e-01
  2.538920e+01    9.193621e-01
  2.542095e+01    9.224886e-01
  2.545270e+01    9.255675e-01
  2.548445e+01    9.801220e-01
  2.551620e+01    9.835704e-01
  2.554795e+01    1.026179e+00
  2.557971e+01    1.061454e+00
  2.561146e+01    1.146128e+00
  2.564321e+01    1.224196e+00
  2.567496e+01    1.351308e+00
  2.570671e+01    1.541863e+00
  2.573846e+01    1.786350e+00
  2.577021e+01    2.169191e+00
  2.580196e+01    2.761907e+00
  2.583371e+01    3.602902e+00
  2.586547e+01    4.609195e+00
  2.589722e+01    5.805428e+00
  2.592897e+01    6.814403e+00
  2.596072e+01    7.195048e+00
  2.599247e+01    6.676456e+00
  2.602422e+01    5.280247e+00
  2.605597e+01    3.886095e+00
  2.608772e+01    2.884141e+00
  2.611948e+01    2.252950e+00
  2.615123e+01    1.830765e+00
  2.618298e+01    1.579966e+00
  2.621473e+01    1.389060e+00
  2.624648e+01    1.240974e+00
  2.627823e+01    1.162454e+00
  2.630998e+01    1.083181e+00
  2.634173e+01    1.039643e+00
  2.637348e+01    9.928062e-01
  2.640524e+01    9.735348e-01
  2.643699e+01    9.255645e-01
  2.646874e+01    9.231760e-01
  2.650049e+01    9.109359e-01
  2.653224e+01    9.017971e-01
  2.656399e+01    8.940698e-01
  2.659574e+01    8.921065e-01
  2.662749e+01    8.806356e-01
  2.665924e+01    8.777023e-01
  2.669100e+01    8.891365e-01
  2.672275e+01    8.983434e-01
  2.675450e+01    8.848926e-01
  2.678625e+01    8.954673e-01
  2.681800e+01    8.781593e-01
  2.684975e+01    8.837724e-01
  2.688150e+01    8.993744e-01
  2.691325e+01    9.242980e-01
  2.694501e+01    9.600990e-01
  2.697676e+01    9.729132e-01
  2.700851e+01    1.047740e+00
  2.704026e+01    1.091483e+00
  2.707201e+01    1.253178e+00
  2.710376e+01    1.424817e+00
  2.713551e+01    1.650333e+00
  2.716726e+01    1.944835e+00
  2.719901e+01    2.146751e+00
  2.723077e+01    2.116760e+00
  2.726252e+01    1.897732e+00
  2.729427e+01    1.632277e+00
  2.732602e+01    1.401927e+00
  2.735777e+01    1.196254e+00
  2.738952e+01    1.068730e+00
  2.742127e+01    1.002173e+00
  2.745302e+01    9.436287e-01
  2.748477e+01    8.980404e-01
  2.751653e+01    8.713216e-01
  2.754828e+01    8.708020e-01
  2.758003e+01    8.501582e-01
  2.761178e+01    8.416111e-01
  2.764353e+01    8.247333e-01
  2.767528e+01    8.205540e-01
  2.770703e+01    8.047209e-01
  2.773878e+01    8.212603e-01
  2.777054e+01    8.035703e-01
  2.780229e+01    8.209560e-01
  2.783404e+01    8.100088e-01
  2.786579e+01    8.220476e-01
  2.789754e+01    7.945582e-01
  2.792929e+01    8.070951e-01
  2.796104e+01    7.824700e-01
  2.799279e+01    7.964731e-01
  2.802454e+01    7.783459e-01
  2.805630e+01    7.737931e-01
  2.808805e+01    7.733105e-01
  2.811980e+01    7.834718e-01
  2.815155e+01    7.760518e-01
  2.818330e+01    7.548983e-01
  2.821505e+01    7.652028e-01
  2.824680e+01    7.567911e-01
  2.827855e+01    7.708644e-01
  2.831030e+01    7.719427e-01
  2.834206e+01    7.505829e-01
  2.837381e+01    7.495602e-01
  2.840556e+01    7.780279e-01
  2.843731e+01    7.733672e-01
  2.846906e+01    7.473403e-01
  2.850081e+01    7.600919e-01
  2.853256e+01    7.656353e-01
  2.856431e+01    7.509572e-01
  2.859606e+01    7.655603e-01
  2.862782e+01    7.444271e-01
  2.865957e+01    7.521966e-01
  2.869132e+01    7.574114e-01
  2.872307e+01    7.445342e-01
  2.875482e+01    7.517561e-01
  2.878657e+01    7.575769e-01
  2.881832e+01    7.370315e-01
  2.885007e+01    7.478157e-01
  2.888183e+01    7.496456e-01
  2.891358e+01    7.502129e-01
  2.894533e+01    7.418985e-01
  2.897708e+01    7.369888e-01
  2.900883e+01    7.589095e-01
  2.904058e+01    7.452456e-01
  2.907233e+01    7.229961e-01
  2.910408e+01    7.484058e-01
  2.913583e+01    7.092942e-01
  2.916759e+01    7.259642e-01
  2.919934e+01    7.116488e-01
  2.923109e+01    7.324172e-01
  2.926284e+01    7.251661e-01
  2.929459e+01    7.262813e-01
  2.932634e+01    7.010232e-01
  2.935809e+01    7.231826e-01
  2.938984e+01    7.174914e-01
  2.942159e+01    7.261409e-01
  2.945335e+01    7.227320e-01
  2.948510e+01    7.190918e-01
  2.951685e+01    7.191467e-01
  2.954860e+01    7.325224e-01
  2.958035e+01    7.187515e-01
  2.961210e+01    7.208345e-01
  2.964385e+01    7.348342e-01
  2.967560e+01    7.267106e-01
  2.970736e+01    7.308709e-01
  2.973911e+01    7.250059e-01
  2.977086e+01    6.998690e-01
  2.980261e+01    7.263514e-01
  2.983436e+01    7.143316e-01
  2.986611e+01    7.325044e-01
  2.989786e+01    6.992112e-01
  2.992961e+01    7.102946e-01
  2.996136e+01    7.172648e-01
  2.999312e+01    7.207237e-01
  3.002487e+01    7.206314e-01
  3.005662e+01    7.558780e-01
  3.008837e+01    7.206839e-01
  3.012012e+01    7.243503e-01
  3.015187e+01    7.136047e-01
  3.018362e+01    7.223145e-01
  3.021537e+01    7.203184e-01
  3.024712e+01    7.167438e-01
  3.027888e+01    7.055354e-01
  3.031063e+01    7.267252e-01
  3.034238e+01    7.134379e-01
  3.037413e+01    7.067221e-01
  3.040588e+01    7.117580e-01
  3.043763e+01    7.001161e-01
  3.046938e+01    6.901039e-01
  3.050113e+01    6.925900e-01
  3.053288e+01    7.015364e-01
  3.056464e+01    7.042848e-01
  3.059639e+01    7.420020e-01
  3.062814e+01    6.987475e-01
  3.065989e+01    7.191402e-01
  3.069164e+01    7.079841e-01
  3.072339e+01    6.923661e-01
  3.075514e+01    7.042025e-01
  3.078689e+01    7.031298e-01
  3.081865e+01    7.045251e-01
  3.085040e+01    7.082840e-01
  3.088215e+01    7.208136e-01
  3.091390e+01    7.105896e-01
  3.094565e+01    7.128453e-01
  3.097740e+01    7.179849e-01
  3.100915e+01    6.846691e-01
  3.104090e+01    7.139654e-01
  3.107265e+01    7.252173e-01
  3.110441e+01    6.991963e-01
  3.113616e+01    7.319105e-01
  3.116791e+01    7.163636e-01
  3.119966e+01    7.388894e-01
  3.123141e+01    7.011386e-01
  3.126316e+01    7.228213e-01
  3.129491e+01    7.531428e-01
  3.132666e+01    7.469522e-01
  3.135841e+01    7.299772e-01
  3.139017e+01    7.203716e-01
  3.142192e+01    7.298164e-01
  3.145367e+01    7.575958e-01
  3.148542e+01    7.517853e-01
  3.151717e+01    7.862142e-01
  3.154892e+01    7.899988e-01
  3.158067e+01    7.940556e-01
  3.161242e+01    8.245938e-01
  3.164418e+01    8.550237e-01
  3.167593e+01    9.199832e-01
  3.170768e+01    9.995452e-01
  3.173943e+01    1.071372e+00
  3.177118e+01    1.229280e+00
  3.180293e+01    1.451534e+00
  3.183468e+01    1.730814e+00
  3.186643e+01    1.998593e+00
  3.189818e+01    2.133629e+00
  3.192994e+01    2.098541e+00
  3.196169e+01    1.803174e+00
  3.199344e+01    1.529518e+00
  3.202519e+01    1.243213e+00
  3.205694e+01    1.078270e+00
  3.208869e+01    9.781337e-01
  3.212044e+01    9.156291e-01
  3.215219e+01    8.639706e-01
  3.218394e+01    8.072605e-01
  3.221570e+01    8.031092e-01
  3.224745e+01    7.850902e-01
  3.227920e+01    7.541209e-01
  3.231095e+01    7.652769e-01
  3.234270e+01    7.428588e-01
  3.237445e+01    7.259860e-01
  3.240620e+01    7.291356e-01
  3.243795e+01    7.093074e-01
  3.246970e+01    7.218583e-01
  3.250146e+01    7.098095e-01
  3.253321e+01    7.258233e-01
  3.254908e+01    7.040349e-01