File: XRD/2024-07-27_002_Ru-CGO-ex_Activtation_ramp_000002_data_000113.dat
# == pyFAI calibration ==
# Distance Sample to Detector: 0.4 m
# PONI: 9.750e-02, 1.135e-01 m
# Rotations: -0.000175 0.000000 -0.000000 rad
#
# == Fit2d calibration ==
# Distance Sample-beamCenter: 400.000 mm
# Center: x=1514.000, y=1300.000 pix
# Tilt: 0.010 deg  TiltPlanRot: 0.010 deg
#
# Detector Detector	 Spline= None	 PixelSize= 7.500e-05, 7.500e-05 m
#    Detector has a mask: False
#    Detector has a dark current: False
#    detector has a flat field: False
#
# Wavelength: 6.888e-11 m
# Mask applied: user provided
# Dark current applied: False
# Flat field applied: False
# Polarization factor: 0.99
# Normalization factor: 1.0
# --> /home/myspot/data/2024_07_Rosario/Ru-CGO-ex/2024-07-27_002_Ru-CGO-ex_Activtation_ramp_000002_data_000113.dat
#       q_nm^-1             I
  2.003187e-02    0.000000e+00
  5.178302e-02    2.670345e-02
  8.353417e-02    1.058854e-01
  1.152853e-01    5.744091e-02
  1.470365e-01    2.909720e-02
  1.787876e-01    1.391546e-02
  2.105388e-01    0.000000e+00
  2.422899e-01    1.012297e-02
  2.740411e-01    3.674582e-02
  3.057922e-01    2.152623e-02
  3.375433e-01    1.936900e-02
  3.692945e-01    4.471183e-02
  4.010456e-01    1.958699e-02
  4.327968e-01    3.347180e-02
  4.645479e-01    3.365264e-02
  4.962991e-01    4.739714e-02
  5.280502e-01    9.405688e-03
  5.598014e-01    3.860122e-02
  5.915525e-01    4.421241e-02
  6.233037e-01    3.410115e-02
  6.550548e-01    1.409556e-02
  6.868060e-01    2.749204e-02
  7.185571e-01    3.720709e-02
  7.503083e-01    6.904364e-02
  7.820594e-01    9.644923e-02
  8.138106e-01    2.113861e-01
  8.455617e-01    3.660931e-01
  8.773129e-01    4.732841e-01
  9.090640e-01    6.100449e-01
  9.408152e-01    6.579159e-01
  9.725663e-01    8.586762e-01
  1.004317e+00    1.068214e+00
  1.036069e+00    1.084999e+00
  1.067820e+00    1.265720e+00
  1.099571e+00    1.307701e+00
  1.131322e+00    1.513969e+00
  1.163073e+00    1.413903e+00
  1.194824e+00    1.502874e+00
  1.226575e+00    1.947134e+00
  1.258327e+00    2.343146e+00
  1.290078e+00    2.349862e+00
  1.321829e+00    2.341395e+00
  1.353580e+00    2.544875e+00
  1.385331e+00    2.514109e+00
  1.417082e+00    2.724710e+00
  1.448834e+00    2.758657e+00
  1.480585e+00    2.784020e+00
  1.512336e+00    2.945841e+00
  1.544087e+00    2.782423e+00
  1.575838e+00    2.867789e+00
  1.607589e+00    2.900322e+00
  1.639340e+00    2.805506e+00
  1.671092e+00    2.733787e+00
  1.702843e+00    2.847088e+00
  1.734594e+00    2.940590e+00
  1.766345e+00    2.663528e+00
  1.798096e+00    2.734558e+00
  1.829847e+00    2.696029e+00
  1.861598e+00    2.782968e+00
  1.893350e+00    2.641598e+00
  1.925101e+00    2.829831e+00
  1.956852e+00    2.669429e+00
  1.988603e+00    2.729788e+00
  2.020354e+00    2.672239e+00
  2.052105e+00    2.681117e+00
  2.083856e+00    2.709134e+00
  2.115608e+00    2.689692e+00
  2.147359e+00    2.788720e+00
  2.179110e+00    2.658343e+00
  2.210861e+00    2.699512e+00
  2.242612e+00    2.699491e+00
  2.274363e+00    2.746038e+00
  2.306115e+00    2.606267e+00
  2.337866e+00    2.723069e+00
  2.369617e+00    2.745867e+00
  2.401368e+00    2.783356e+00
  2.433119e+00    2.681078e+00
  2.464870e+00    2.682747e+00
  2.496621e+00    2.780245e+00
  2.528373e+00    2.680759e+00
  2.560124e+00    2.809341e+00
  2.591875e+00    2.753501e+00
  2.623626e+00    2.748326e+00
  2.655377e+00    2.848912e+00
  2.687128e+00    2.725975e+00
  2.718879e+00    2.741625e+00
  2.750631e+00    2.805372e+00
  2.782382e+00    2.859301e+00
  2.814133e+00    2.807775e+00
  2.845884e+00    2.913460e+00
  2.877635e+00    2.823736e+00
  2.909386e+00    2.815552e+00
  2.941137e+00    2.900849e+00
  2.972889e+00    2.889438e+00
  3.004640e+00    2.800294e+00
  3.036391e+00    2.818196e+00
  3.068142e+00    2.825954e+00
  3.099893e+00    2.890692e+00
  3.131644e+00    2.821985e+00
  3.163395e+00    2.812690e+00
  3.195147e+00    2.843106e+00
  3.226898e+00    2.817972e+00
  3.258649e+00    2.838721e+00
  3.290400e+00    2.828729e+00
  3.322151e+00    2.945390e+00
  3.353902e+00    2.855400e+00
  3.385654e+00    2.818598e+00
  3.417405e+00    2.935293e+00
  3.449156e+00    2.962282e+00
  3.480907e+00    2.903632e+00
  3.512658e+00    2.848459e+00
  3.544409e+00    2.816703e+00
  3.576160e+00    2.956033e+00
  3.607912e+00    2.899889e+00
  3.639663e+00    2.954398e+00
  3.671414e+00    2.838082e+00
  3.703165e+00    2.962728e+00
  3.734916e+00    2.847300e+00
  3.766667e+00    2.875562e+00
  3.798418e+00    2.957841e+00
  3.830170e+00    2.950177e+00
  3.861921e+00    3.012245e+00
  3.893672e+00    2.982988e+00
  3.925423e+00    2.975924e+00
  3.957174e+00    2.878512e+00
  3.988925e+00    3.017789e+00
  4.020676e+00    2.999279e+00
  4.052428e+00    3.010001e+00
  4.084179e+00    2.955266e+00
  4.115930e+00    2.973811e+00
  4.147681e+00    2.996716e+00
  4.179432e+00    2.966993e+00
  4.211183e+00    3.029776e+00
  4.242935e+00    2.960769e+00
  4.274686e+00    3.016106e+00
  4.306437e+00    3.030587e+00
  4.338188e+00    3.034533e+00
  4.369939e+00    2.991558e+00
  4.401690e+00    2.972093e+00
  4.433441e+00    2.961223e+00
  4.465193e+00    3.027209e+00
  4.496944e+00    2.952335e+00
  4.528695e+00    3.018061e+00
  4.560446e+00    2.978475e+00
  4.592197e+00    2.984242e+00
  4.623948e+00    3.089129e+00
  4.655699e+00    3.020224e+00
  4.687451e+00    3.041582e+00
  4.719202e+00    3.054158e+00
  4.750953e+00    3.185032e+00
  4.782704e+00    3.100938e+00
  4.814455e+00    3.050478e+00
  4.846206e+00    3.034733e+00
  4.877957e+00    3.038977e+00
  4.909709e+00    3.042406e+00
  4.941460e+00    3.021960e+00
  4.973211e+00    3.093207e+00
  5.004962e+00    3.004307e+00
  5.036713e+00    3.127563e+00
  5.068464e+00    3.103687e+00
  5.100216e+00    3.081083e+00
  5.131967e+00    3.096904e+00
  5.163718e+00    3.021603e+00
  5.195469e+00    3.013128e+00
  5.227220e+00    3.063172e+00
  5.258971e+00    3.132561e+00
  5.290722e+00    3.106367e+00
  5.322474e+00    3.108833e+00
  5.354225e+00    3.075309e+00
  5.385976e+00    3.124569e+00
  5.417727e+00    3.013439e+00
  5.449478e+00    3.044036e+00
  5.481229e+00    3.063153e+00
  5.512980e+00    3.008744e+00
  5.544732e+00    3.019843e+00
  5.576483e+00    2.972898e+00
  5.608234e+00    3.008354e+00
  5.639985e+00    3.027760e+00
  5.671736e+00    3.056371e+00
  5.703487e+00    3.006194e+00
  5.735238e+00    2.996078e+00
  5.766990e+00    3.012477e+00
  5.798741e+00    3.051934e+00
  5.830492e+00    2.963091e+00
  5.862243e+00    2.981194e+00
  5.893994e+00    3.046075e+00
  5.925745e+00    2.989424e+00
  5.957497e+00    2.975317e+00
  5.989248e+00    3.006354e+00
  6.020999e+00    2.923098e+00
  6.052750e+00    2.978379e+00
  6.084501e+00    2.950304e+00
  6.116252e+00    2.989195e+00
  6.148003e+00    2.975418e+00
  6.179755e+00    2.961844e+00
  6.211506e+00    2.974723e+00
  6.243257e+00    3.037768e+00
  6.275008e+00    2.993129e+00
  6.306759e+00    3.004600e+00
  6.338510e+00    3.029354e+00
  6.370261e+00    2.937974e+00
  6.402013e+00    3.026443e+00
  6.433764e+00    3.025653e+00
  6.465515e+00    3.002335e+00
  6.497266e+00    2.989698e+00
  6.529017e+00    2.955702e+00
  6.560768e+00    2.930375e+00
  6.592519e+00    2.969997e+00
  6.624271e+00    2.904805e+00
  6.656022e+00    2.957836e+00
  6.687773e+00    3.020391e+00
  6.719524e+00    2.998609e+00
  6.751275e+00    2.948650e+00
  6.783026e+00    2.944460e+00
  6.814777e+00    2.977600e+00
  6.846529e+00    2.974961e+00
  6.878280e+00    2.983898e+00
  6.910031e+00    2.943129e+00
  6.941782e+00    2.943443e+00
  6.973533e+00    2.898988e+00
  7.005284e+00    3.011703e+00
  7.037036e+00    2.967571e+00
  7.068787e+00    2.953893e+00
  7.100538e+00    3.015771e+00
  7.132289e+00    2.936599e+00
  7.164040e+00    2.934319e+00
  7.195791e+00    2.945335e+00
  7.227542e+00    2.996600e+00
  7.259294e+00    3.012703e+00
  7.291045e+00    2.876415e+00
  7.322796e+00    3.012321e+00
  7.354547e+00    2.996269e+00
  7.386298e+00    2.999936e+00
  7.418049e+00    2.957883e+00
  7.449800e+00    2.982596e+00
  7.481552e+00    2.869155e+00
  7.513303e+00    2.941480e+00
  7.545054e+00    2.921139e+00
  7.576805e+00    2.932847e+00
  7.608556e+00    2.887356e+00
  7.640307e+00    2.836191e+00
  7.672058e+00    2.887044e+00
  7.703810e+00    2.901132e+00
  7.735561e+00    2.930558e+00
  7.767312e+00    2.909540e+00
  7.799063e+00    2.856433e+00
  7.830814e+00    2.873335e+00
  7.862565e+00    2.866587e+00
  7.894317e+00    2.829262e+00
  7.926068e+00    2.908898e+00
  7.957819e+00    2.898658e+00
  7.989570e+00    2.884523e+00
  8.021321e+00    2.965055e+00
  8.053072e+00    2.874257e+00
  8.084823e+00    2.845954e+00
  8.116575e+00    2.890039e+00
  8.148326e+00    2.877561e+00
  8.180077e+00    2.879405e+00
  8.211828e+00    2.892736e+00
  8.243579e+00    2.820808e+00
  8.275330e+00    2.891789e+00
  8.307081e+00    2.840115e+00
  8.338833e+00    2.822958e+00
  8.370584e+00    2.883968e+00
  8.402335e+00    2.818091e+00
  8.434086e+00    2.809967e+00
  8.465837e+00    2.849530e+00
  8.497588e+00    2.794660e+00
  8.529339e+00    2.818037e+00
  8.561091e+00    2.799132e+00
  8.592842e+00    2.774484e+00
  8.624593e+00    2.815531e+00
  8.656344e+00    2.838880e+00
  8.688095e+00    2.865334e+00
  8.719846e+00    2.759715e+00
  8.751598e+00    2.743546e+00
  8.783349e+00    2.737808e+00
  8.815100e+00    2.838643e+00
  8.846851e+00    2.772147e+00
  8.878602e+00    2.807449e+00
  8.910353e+00    2.845641e+00
  8.942104e+00    2.813167e+00
  8.973856e+00    2.790812e+00
  9.005607e+00    2.789054e+00
  9.037358e+00    2.829116e+00
  9.069109e+00    2.779893e+00
  9.100860e+00    2.760574e+00
  9.132611e+00    2.771705e+00
  9.164362e+00    2.741964e+00
  9.196114e+00    2.715848e+00
  9.227865e+00    2.710000e+00
  9.259616e+00    2.731281e+00
  9.291367e+00    2.730259e+00
  9.323118e+00    2.692083e+00
  9.354869e+00    2.733210e+00
  9.386620e+00    2.681730e+00
  9.418372e+00    2.712865e+00
  9.450123e+00    2.751122e+00
  9.481874e+00    2.741232e+00
  9.513625e+00    2.769482e+00
  9.545376e+00    2.755098e+00
  9.577127e+00    2.706069e+00
  9.608878e+00    2.733467e+00
  9.640630e+00    2.731183e+00
  9.672381e+00    2.701089e+00
  9.704132e+00    2.672161e+00
  9.735883e+00    2.671320e+00
  9.767634e+00    2.683405e+00
  9.799385e+00    2.624866e+00
  9.831137e+00    2.624187e+00
  9.862888e+00    2.601532e+00
  9.894639e+00    2.602311e+00
  9.926390e+00    2.629170e+00
  9.958141e+00    2.551860e+00
  9.989892e+00    2.572390e+00
  1.002164e+01    2.629947e+00
  1.005339e+01    2.612276e+00
  1.008515e+01    2.588429e+00
  1.011690e+01    2.627683e+00
  1.014865e+01    2.624101e+00
  1.018040e+01    2.610835e+00
  1.021215e+01    2.586891e+00
  1.024390e+01    2.577905e+00
  1.027565e+01    2.593880e+00
  1.030740e+01    2.593492e+00
  1.033915e+01    2.580724e+00
  1.037091e+01    2.536902e+00
  1.040266e+01    2.591950e+00
  1.043441e+01    2.568632e+00
  1.046616e+01    2.539228e+00
  1.049791e+01    2.531766e+00
  1.052966e+01    2.580436e+00
  1.056141e+01    2.561138e+00
  1.059316e+01    2.543493e+00
  1.062492e+01    2.525769e+00
  1.065667e+01    2.541720e+00
  1.068842e+01    2.528002e+00
  1.072017e+01    2.540161e+00
  1.075192e+01    2.501859e+00
  1.078367e+01    2.491043e+00
  1.081542e+01    2.488472e+00
  1.084717e+01    2.485641e+00
  1.087892e+01    2.499212e+00
  1.091068e+01    2.544785e+00
  1.094243e+01    2.472058e+00
  1.097418e+01    2.438227e+00
  1.100593e+01    2.429370e+00
  1.103768e+01    2.443207e+00
  1.106943e+01    2.396174e+00
  1.110118e+01    2.444855e+00
  1.113293e+01    2.435387e+00
  1.116468e+01    2.383754e+00
  1.119644e+01    2.430413e+00
  1.122819e+01    2.461148e+00
  1.125994e+01    2.437008e+00
  1.129169e+01    2.458288e+00
  1.132344e+01    2.407829e+00
  1.135519e+01    2.361772e+00
  1.138694e+01    2.382922e+00
  1.141869e+01    2.362606e+00
  1.145045e+01    2.359409e+00
  1.148220e+01    2.368876e+00
  1.151395e+01    2.374616e+00
  1.154570e+01    2.364249e+00
  1.157745e+01    2.387150e+00
  1.160920e+01    2.340466e+00
  1.164095e+01    2.332068e+00
  1.167270e+01    2.317184e+00
  1.170445e+01    2.331587e+00
  1.173621e+01    2.300651e+00
  1.176796e+01    2.293890e+00
  1.179971e+01    2.304641e+00
  1.183146e+01    2.299896e+00
  1.186321e+01    2.319496e+00
  1.189496e+01    2.282916e+00
  1.192671e+01    2.267217e+00
  1.195846e+01    2.304029e+00
  1.199021e+01    2.253287e+00
  1.202197e+01    2.303388e+00
  1.205372e+01    2.271667e+00
  1.208547e+01    2.307980e+00
  1.211722e+01    2.285318e+00
  1.214897e+01    2.235514e+00
  1.218072e+01    2.280374e+00
  1.221247e+01    2.278381e+00
  1.224422e+01    2.257720e+00
  1.227597e+01    2.291497e+00
  1.230773e+01    2.280915e+00
  1.233948e+01    2.283970e+00
  1.237123e+01    2.335625e+00
  1.240298e+01    2.289207e+00
  1.243473e+01    2.311066e+00
  1.246648e+01    2.282600e+00
  1.249823e+01    2.293137e+00
  1.252998e+01    2.330228e+00
  1.256174e+01    2.314047e+00
  1.259349e+01    2.360120e+00
  1.262524e+01    2.345030e+00
  1.265699e+01    2.401438e+00
  1.268874e+01    2.419817e+00
  1.272049e+01    2.467327e+00
  1.275224e+01    2.528993e+00
  1.278399e+01    2.546346e+00
  1.281574e+01    2.685444e+00
  1.284750e+01    2.768274e+00
  1.287925e+01    3.011788e+00
  1.291100e+01    3.212231e+00
  1.294275e+01    3.664860e+00
  1.297450e+01    4.249681e+00
  1.300625e+01    5.296674e+00
  1.303800e+01    6.925959e+00
  1.306975e+01    9.326753e+00
  1.310150e+01    1.198308e+01
  1.313326e+01    1.445398e+01
  1.316501e+01    1.670406e+01
  1.319676e+01    1.731088e+01
  1.322851e+01    1.456877e+01
  1.326026e+01    1.055898e+01
  1.329201e+01    7.480443e+00
  1.332376e+01    5.641211e+00
  1.335551e+01    4.566603e+00
  1.338727e+01    3.795450e+00
  1.341902e+01    3.329321e+00
  1.345077e+01    3.017133e+00
  1.348252e+01    2.786785e+00
  1.351427e+01    2.618312e+00
  1.354602e+01    2.515403e+00
  1.357777e+01    2.402984e+00
  1.360952e+01    2.333229e+00
  1.364127e+01    2.288963e+00
  1.367303e+01    2.266183e+00
  1.370478e+01    2.204476e+00
  1.373653e+01    2.168784e+00
  1.376828e+01    2.130826e+00
  1.380003e+01    2.134686e+00
  1.383178e+01    2.135226e+00
  1.386353e+01    2.057683e+00
  1.389528e+01    2.033665e+00
  1.392703e+01    2.079078e+00
  1.395879e+01    2.029945e+00
  1.399054e+01    2.066143e+00
  1.402229e+01    2.033564e+00
  1.405404e+01    2.043713e+00
  1.408579e+01    2.045741e+00
  1.411754e+01    1.967170e+00
  1.414929e+01    2.014013e+00
  1.418104e+01    1.953724e+00
  1.421279e+01    1.944299e+00
  1.424455e+01    1.957818e+00
  1.427630e+01    1.930975e+00
  1.430805e+01    1.911215e+00
  1.433980e+01    1.911623e+00
  1.437155e+01    1.904612e+00
  1.440330e+01    1.909695e+00
  1.443505e+01    1.909087e+00
  1.446680e+01    1.904608e+00
  1.449856e+01    1.877738e+00
  1.453031e+01    1.856357e+00
  1.456206e+01    1.843899e+00
  1.459381e+01    1.888149e+00
  1.462556e+01    1.879188e+00
  1.465731e+01    1.908248e+00
  1.468906e+01    1.888162e+00
  1.472081e+01    1.875422e+00
  1.475256e+01    1.870285e+00
  1.478432e+01    1.924666e+00
  1.481607e+01    1.875890e+00
  1.484782e+01    1.878066e+00
  1.487957e+01    1.913077e+00
  1.491132e+01    1.958709e+00
  1.494307e+01    1.971416e+00
  1.497482e+01    2.035778e+00
  1.500657e+01    2.131319e+00
  1.503832e+01    2.257047e+00
  1.507008e+01    2.426567e+00
  1.510183e+01    2.817834e+00
  1.513358e+01    3.292438e+00
  1.516533e+01    4.084266e+00
  1.519708e+01    4.763659e+00
  1.522883e+01    5.424004e+00
  1.526058e+01    5.864903e+00
  1.529233e+01    5.783373e+00
  1.532409e+01    5.144184e+00
  1.535584e+01    4.006618e+00
  1.538759e+01    3.176659e+00
  1.541934e+01    2.681229e+00
  1.545109e+01    2.355534e+00
  1.548284e+01    2.181261e+00
  1.551459e+01    1.987520e+00
  1.554634e+01    1.917888e+00
  1.557809e+01    1.845546e+00
  1.560985e+01    1.827659e+00
  1.564160e+01    1.804138e+00
  1.567335e+01    1.727194e+00
  1.570510e+01    1.737970e+00
  1.573685e+01    1.688560e+00
  1.576860e+01    1.692088e+00
  1.580035e+01    1.701922e+00
  1.583210e+01    1.644426e+00
  1.586385e+01    1.609765e+00
  1.589561e+01    1.589645e+00
  1.592736e+01    1.630187e+00
  1.595911e+01    1.595097e+00
  1.599086e+01    1.565240e+00
  1.602261e+01    1.620636e+00
  1.605436e+01    1.590650e+00
  1.608611e+01    1.553515e+00
  1.611786e+01    1.533416e+00
  1.614961e+01    1.569469e+00
  1.618137e+01    1.532329e+00
  1.621312e+01    1.521004e+00
  1.624487e+01    1.574875e+00
  1.627662e+01    1.555027e+00
  1.630837e+01    1.541653e+00
  1.634012e+01    1.518815e+00
  1.637187e+01    1.506037e+00
  1.640362e+01    1.515054e+00
  1.643538e+01    1.528016e+00
  1.646713e+01    1.517602e+00
  1.649888e+01    1.489824e+00
  1.653063e+01    1.536325e+00
  1.656238e+01    1.487592e+00
  1.659413e+01    1.457553e+00
  1.662588e+01    1.437736e+00
  1.665763e+01    1.462409e+00
  1.668938e+01    1.433746e+00
  1.672114e+01    1.460737e+00
  1.675289e+01    1.456677e+00
  1.678464e+01    1.455808e+00
  1.681639e+01    1.438159e+00
  1.684814e+01    1.415459e+00
  1.687989e+01    1.435528e+00
  1.691164e+01    1.446720e+00
  1.694339e+01    1.425413e+00
  1.697514e+01    1.389971e+00
  1.700690e+01    1.428159e+00
  1.703865e+01    1.432194e+00
  1.707040e+01    1.380834e+00
  1.710215e+01    1.392131e+00
  1.713390e+01    1.404646e+00
  1.716565e+01    1.400869e+00
  1.719740e+01    1.389242e+00
  1.722915e+01    1.429459e+00
  1.726091e+01    1.350873e+00
  1.729266e+01    1.384580e+00
  1.732441e+01    1.345664e+00
  1.735616e+01    1.349797e+00
  1.738791e+01    1.372259e+00
  1.741966e+01    1.337668e+00
  1.745141e+01    1.336292e+00
  1.748316e+01    1.356189e+00
  1.751491e+01    1.344359e+00
  1.754667e+01    1.335924e+00
  1.757842e+01    1.328492e+00
  1.761017e+01    1.304771e+00
  1.764192e+01    1.324497e+00
  1.767367e+01    1.330826e+00
  1.770542e+01    1.309491e+00
  1.773717e+01    1.318659e+00
  1.776892e+01    1.319820e+00
  1.780067e+01    1.299990e+00
  1.783243e+01    1.271185e+00
  1.786418e+01    1.280954e+00
  1.789593e+01    1.312491e+00
  1.792768e+01    1.293430e+00
  1.795943e+01    1.314843e+00
  1.799118e+01    1.299871e+00
  1.802293e+01    1.312416e+00
  1.805468e+01    1.257674e+00
  1.808643e+01    1.257934e+00
  1.811819e+01    1.254007e+00
  1.814994e+01    1.253550e+00
  1.818169e+01    1.272849e+00
  1.821344e+01    1.252093e+00
  1.824519e+01    1.253858e+00
  1.827694e+01    1.238554e+00
  1.830869e+01    1.260239e+00
  1.834044e+01    1.239714e+00
  1.837220e+01    1.250680e+00
  1.840395e+01    1.257178e+00
  1.843570e+01    1.241503e+00
  1.846745e+01    1.269930e+00
  1.849920e+01    1.219789e+00
  1.853095e+01    1.247660e+00
  1.856270e+01    1.221824e+00
  1.859445e+01    1.185753e+00
  1.862620e+01    1.221941e+00
  1.865796e+01    1.190311e+00
  1.868971e+01    1.218325e+00
  1.872146e+01    1.218660e+00
  1.875321e+01    1.188881e+00
  1.878496e+01    1.211613e+00
  1.881671e+01    1.225116e+00
  1.884846e+01    1.201169e+00
  1.888021e+01    1.205035e+00
  1.891196e+01    1.187186e+00
  1.894372e+01    1.175396e+00
  1.897547e+01    1.198461e+00
  1.900722e+01    1.192921e+00
  1.903897e+01    1.171407e+00
  1.907072e+01    1.178932e+00
  1.910247e+01    1.182803e+00
  1.913422e+01    1.148794e+00
  1.916597e+01    1.172588e+00
  1.919773e+01    1.172539e+00
  1.922948e+01    1.180909e+00
  1.926123e+01    1.160913e+00
  1.929298e+01    1.165136e+00
  1.932473e+01    1.164599e+00
  1.935648e+01    1.127289e+00
  1.938823e+01    1.168418e+00
  1.941998e+01    1.148672e+00
  1.945173e+01    1.146320e+00
  1.948349e+01    1.151457e+00
  1.951524e+01    1.135890e+00
  1.954699e+01    1.113179e+00
  1.957874e+01    1.149353e+00
  1.961049e+01    1.123634e+00
  1.964224e+01    1.124310e+00
  1.967399e+01    1.107684e+00
  1.970574e+01    1.122280e+00
  1.973749e+01    1.127832e+00
  1.976925e+01    1.121525e+00
  1.980100e+01    1.127834e+00
  1.983275e+01    1.100361e+00
  1.986450e+01    1.083000e+00
  1.989625e+01    1.119491e+00
  1.992800e+01    1.083264e+00
  1.995975e+01    1.104528e+00
  1.999150e+01    1.080804e+00
  2.002325e+01    1.127320e+00
  2.005501e+01    1.098398e+00
  2.008676e+01    1.097823e+00
  2.011851e+01    1.097828e+00
  2.015026e+01    1.084734e+00
  2.018201e+01    1.086206e+00
  2.021376e+01    1.094473e+00
  2.024551e+01    1.096022e+00
  2.027726e+01    1.074204e+00
  2.030902e+01    1.081954e+00
  2.034077e+01    1.099101e+00
  2.037252e+01    1.053627e+00
  2.040427e+01    1.085206e+00
  2.043602e+01    1.073661e+00
  2.046777e+01    1.051719e+00
  2.049952e+01    1.052400e+00
  2.053127e+01    1.059142e+00
  2.056302e+01    1.062076e+00
  2.059478e+01    1.064054e+00
  2.062653e+01    1.071506e+00
  2.065828e+01    1.056609e+00
  2.069003e+01    1.086627e+00
  2.072178e+01    1.060775e+00
  2.075353e+01    1.078498e+00
  2.078528e+01    1.067264e+00
  2.081703e+01    1.066447e+00
  2.084878e+01    1.075324e+00
  2.088054e+01    1.070753e+00
  2.091229e+01    1.097798e+00
  2.094404e+01    1.044048e+00
  2.097579e+01    1.062010e+00
  2.100754e+01    1.072124e+00
  2.103929e+01    1.064579e+00
  2.107104e+01    1.070010e+00
  2.110279e+01    1.066947e+00
  2.113455e+01    1.074572e+00
  2.116630e+01    1.086271e+00
  2.119805e+01    1.117571e+00
  2.122980e+01    1.087173e+00
  2.126155e+01    1.085141e+00
  2.129330e+01    1.138517e+00
  2.132505e+01    1.121555e+00
  2.135680e+01    1.119629e+00
  2.138855e+01    1.151504e+00
  2.142031e+01    1.170026e+00
  2.145206e+01    1.210578e+00
  2.148381e+01    1.236968e+00
  2.151556e+01    1.283782e+00
  2.154731e+01    1.368128e+00
  2.157906e+01    1.452489e+00
  2.161081e+01    1.559732e+00
  2.164256e+01    1.770821e+00
  2.167431e+01    2.033246e+00
  2.170607e+01    2.434194e+00
  2.173782e+01    3.110293e+00
  2.176957e+01    4.104314e+00
  2.180132e+01    5.282040e+00
  2.183307e+01    6.718687e+00
  2.186482e+01    8.189179e+00
  2.189657e+01    9.432796e+00
  2.192832e+01    9.421463e+00
  2.196007e+01    7.964810e+00
  2.199183e+01    5.868433e+00
  2.202358e+01    4.220554e+00
  2.205533e+01    3.171061e+00
  2.208708e+01    2.489545e+00
  2.211883e+01    2.074978e+00
  2.215058e+01    1.765251e+00
  2.218233e+01    1.576989e+00
  2.221408e+01    1.397689e+00
  2.224584e+01    1.313380e+00
  2.227759e+01    1.268844e+00
  2.230934e+01    1.159731e+00
  2.234109e+01    1.158276e+00
  2.237284e+01    1.114094e+00
  2.240459e+01    1.075815e+00
  2.243634e+01    1.050956e+00
  2.246809e+01    1.036794e+00
  2.249984e+01    1.014163e+00
  2.253160e+01    9.833389e-01
  2.256335e+01    9.900925e-01
  2.259510e+01    9.368392e-01
  2.262685e+01    9.656337e-01
  2.265860e+01    9.688346e-01
  2.269035e+01    9.287204e-01
  2.272210e+01    9.310027e-01
  2.275385e+01    9.486982e-01
  2.278560e+01    9.368291e-01
  2.281736e+01    9.190385e-01
  2.284911e+01    9.239464e-01
  2.288086e+01    9.071275e-01
  2.291261e+01    9.206456e-01
  2.294436e+01    9.164627e-01
  2.297611e+01    9.103479e-01
  2.300786e+01    8.695616e-01
  2.303961e+01    8.851089e-01
  2.307137e+01    8.801448e-01
  2.310312e+01    8.739660e-01
  2.313487e+01    8.775989e-01
  2.316662e+01    8.764447e-01
  2.319837e+01    8.431404e-01
  2.323012e+01    8.677596e-01
  2.326187e+01    8.528075e-01
  2.329362e+01    8.409157e-01
  2.332537e+01    8.363292e-01
  2.335713e+01    8.350247e-01
  2.338888e+01    8.411721e-01
  2.342063e+01    8.460220e-01
  2.345238e+01    8.384154e-01
  2.348413e+01    8.402933e-01
  2.351588e+01    8.369069e-01
  2.354763e+01    8.235487e-01
  2.357938e+01    8.270193e-01
  2.361113e+01    8.237099e-01
  2.364289e+01    8.171303e-01
  2.367464e+01    8.184887e-01
  2.370639e+01    8.185503e-01
  2.373814e+01    8.213798e-01
  2.376989e+01    7.984670e-01
  2.380164e+01    8.112008e-01
  2.383339e+01    7.826990e-01
  2.386514e+01    7.926069e-01
  2.389689e+01    7.902055e-01
  2.392865e+01    8.013163e-01
  2.396040e+01    7.944118e-01
  2.399215e+01    7.667972e-01
  2.402390e+01    7.889978e-01
  2.405565e+01    7.903481e-01
  2.408740e+01    7.844751e-01
  2.411915e+01    7.598777e-01
  2.415090e+01    7.651752e-01
  2.418266e+01    7.635661e-01
  2.421441e+01    7.543958e-01
  2.424616e+01    7.726088e-01
  2.427791e+01    7.864746e-01
  2.430966e+01    7.763452e-01
  2.434141e+01    7.826983e-01
  2.437316e+01    7.684296e-01
  2.440491e+01    7.767354e-01
  2.443666e+01    7.812754e-01
  2.446842e+01    7.705434e-01
  2.450017e+01    7.721272e-01
  2.453192e+01    7.670782e-01
  2.456367e+01    7.698117e-01
  2.459542e+01    7.891693e-01
  2.462717e+01    7.881298e-01
  2.465892e+01    7.727733e-01
  2.469067e+01    7.808097e-01
  2.472242e+01    7.866656e-01
  2.475418e+01    7.792311e-01
  2.478593e+01    7.873377e-01
  2.481768e+01    7.863709e-01
  2.484943e+01    8.179010e-01
  2.488118e+01    7.964032e-01
  2.491293e+01    7.915492e-01
  2.494468e+01    7.875696e-01
  2.497643e+01    7.866159e-01
  2.500819e+01    7.958164e-01
  2.503994e+01    8.060057e-01
  2.507169e+01    8.214221e-01
  2.510344e+01    8.099863e-01
  2.513519e+01    7.922428e-01
  2.516694e+01    7.999929e-01
  2.519869e+01    8.077649e-01
  2.523044e+01    8.292793e-01
  2.526219e+01    8.446757e-01
  2.529395e+01    8.601933e-01
  2.532570e+01    8.730385e-01
  2.535745e+01    8.694885e-01
  2.538920e+01    8.880007e-01
  2.542095e+01    9.024529e-01
  2.545270e+01    9.140987e-01
  2.548445e+01    9.645677e-01
  2.551620e+01    9.781429e-01
  2.554795e+01    1.012705e+00
  2.557971e+01    1.058155e+00
  2.561146e+01    1.121038e+00
  2.564321e+01    1.196319e+00
  2.567496e+01    1.279447e+00
  2.570671e+01    1.440448e+00
  2.573846e+01    1.635515e+00
  2.577021e+01    1.968834e+00
  2.580196e+01    2.487100e+00
  2.583371e+01    3.175999e+00
  2.586547e+01    4.181284e+00
  2.589722e+01    5.420510e+00
  2.592897e+01    6.761063e+00
  2.596072e+01    7.787959e+00
  2.599247e+01    7.827887e+00
  2.602422e+01    6.705689e+00
  2.605597e+01    5.111434e+00
  2.608772e+01    3.724979e+00
  2.611948e+01    2.793851e+00
  2.615123e+01    2.223384e+00
  2.618298e+01    1.849635e+00
  2.621473e+01    1.553683e+00
  2.624648e+01    1.386023e+00
  2.627823e+01    1.288619e+00
  2.630998e+01    1.135532e+00
  2.634173e+01    1.096429e+00
  2.637348e+01    1.037359e+00
  2.640524e+01    9.864598e-01
  2.643699e+01    9.938906e-01
  2.646874e+01    9.585890e-01
  2.650049e+01    9.359912e-01
  2.653224e+01    9.315263e-01
  2.656399e+01    9.095012e-01
  2.659574e+01    8.971218e-01
  2.662749e+01    8.988481e-01
  2.665924e+01    8.805282e-01
  2.669100e+01    8.798478e-01
  2.672275e+01    8.838204e-01
  2.675450e+01    9.027450e-01
  2.678625e+01    8.673387e-01
  2.681800e+01    8.984120e-01
  2.684975e+01    8.853849e-01
  2.688150e+01    9.015014e-01
  2.691325e+01    9.248512e-01
  2.694501e+01    9.524509e-01
  2.697676e+01    9.770445e-01
  2.700851e+01    1.003695e+00
  2.704026e+01    1.079826e+00
  2.707201e+01    1.196452e+00
  2.710376e+01    1.337308e+00
  2.713551e+01    1.541648e+00
  2.716726e+01    1.839629e+00
  2.719901e+01    2.177815e+00
  2.723077e+01    2.311231e+00
  2.726252e+01    2.272620e+00
  2.729427e+01    1.948865e+00
  2.732602e+01    1.625563e+00
  2.735777e+01    1.375712e+00
  2.738952e+01    1.176771e+00
  2.742127e+01    1.078980e+00
  2.745302e+01    9.896500e-01
  2.748477e+01    9.452714e-01
  2.751653e+01    9.180102e-01
  2.754828e+01    8.932152e-01
  2.758003e+01    8.797410e-01
  2.761178e+01    8.492412e-01
  2.764353e+01    8.527631e-01
  2.767528e+01    8.237588e-01
  2.770703e+01    8.231356e-01
  2.773878e+01    8.233486e-01
  2.777054e+01    7.911603e-01
  2.780229e+01    8.275936e-01
  2.783404e+01    8.309896e-01
  2.786579e+01    7.893183e-01
  2.789754e+01    8.015741e-01
  2.792929e+01    8.079020e-01
  2.796104e+01    7.914842e-01
  2.799279e+01    7.844918e-01
  2.802454e+01    7.962371e-01
  2.805630e+01    7.783661e-01
  2.808805e+01    7.765959e-01
  2.811980e+01    7.699826e-01
  2.815155e+01    7.677662e-01
  2.818330e+01    7.530934e-01
  2.821505e+01    7.549989e-01
  2.824680e+01    7.599308e-01
  2.827855e+01    7.813975e-01
  2.831030e+01    7.661482e-01
  2.834206e+01    7.600059e-01
  2.837381e+01    7.591182e-01
  2.840556e+01    7.660146e-01
  2.843731e+01    7.496278e-01
  2.846906e+01    7.590110e-01
  2.850081e+01    7.553324e-01
  2.853256e+01    7.415728e-01
  2.856431e+01    7.407898e-01
  2.859606e+01    7.267089e-01
  2.862782e+01    7.367902e-01
  2.865957e+01    7.450757e-01
  2.869132e+01    7.406458e-01
  2.872307e+01    7.334288e-01
  2.875482e+01    7.485295e-01
  2.878657e+01    7.458862e-01
  2.881832e+01    7.367130e-01
  2.885007e+01    7.416822e-01
  2.888183e+01    7.419251e-01
  2.891358e+01    7.383730e-01
  2.894533e+01    7.346708e-01
  2.897708e+01    7.217695e-01
  2.900883e+01    7.303870e-01
  2.904058e+01    7.462109e-01
  2.907233e+01    7.263209e-01
  2.910408e+01    7.319401e-01
  2.913583e+01    7.232505e-01
  2.916759e+01    7.378845e-01
  2.919934e+01    7.251769e-01
  2.923109e+01    7.269854e-01
  2.926284e+01    7.026168e-01
  2.929459e+01    7.145350e-01
  2.932634e+01    7.301260e-01
  2.935809e+01    7.126002e-01
  2.938984e+01    7.215560e-01
  2.942159e+01    7.191780e-01
  2.945335e+01    7.131585e-01
  2.948510e+01    7.197273e-01
  2.951685e+01    7.078019e-01
  2.954860e+01    7.176436e-01
  2.958035e+01    7.531736e-01
  2.961210e+01    7.167347e-01
  2.964385e+01    7.066307e-01
  2.967560e+01    7.141295e-01
  2.970736e+01    7.008880e-01
  2.973911e+01    6.996662e-01
  2.977086e+01    7.415942e-01
  2.980261e+01    7.212114e-01
  2.983436e+01    7.114406e-01
  2.986611e+01    7.157698e-01
  2.989786e+01    7.074850e-01
  2.992961e+01    7.187123e-01
  2.996136e+01    7.133635e-01
  2.999312e+01    7.224626e-01
  3.002487e+01    7.082666e-01
  3.005662e+01    7.370730e-01
  3.008837e+01    7.301890e-01
  3.012012e+01    7.290282e-01
  3.015187e+01    7.126079e-01
  3.018362e+01    7.128204e-01
  3.021537e+01    7.036765e-01
  3.024712e+01    6.904279e-01
  3.027888e+01    7.090898e-01
  3.031063e+01    7.011156e-01
  3.034238e+01    7.053913e-01
  3.037413e+01    7.164605e-01
  3.040588e+01    7.142511e-01
  3.043763e+01    7.019299e-01
  3.046938e+01    6.907807e-01
  3.050113e+01    7.042744e-01
  3.053288e+01    7.239410e-01
  3.056464e+01    6.878428e-01
  3.059639e+01    6.757659e-01
  3.062814e+01    7.169369e-01
  3.065989e+01    7.164164e-01
  3.069164e+01    6.878667e-01
  3.072339e+01    7.112978e-01
  3.075514e+01    7.094783e-01
  3.078689e+01    7.028662e-01
  3.081865e+01    7.129865e-01
  3.085040e+01    7.006121e-01
  3.088215e+01    7.081285e-01
  3.091390e+01    7.094213e-01
  3.094565e+01    7.154178e-01
  3.097740e+01    6.605595e-01
  3.100915e+01    7.321928e-01
  3.104090e+01    7.104304e-01
  3.107265e+01    6.998972e-01
  3.110441e+01    7.232925e-01
  3.113616e+01    7.109700e-01
  3.116791e+01    7.008942e-01
  3.119966e+01    7.313855e-01
  3.123141e+01    7.209064e-01
  3.126316e+01    7.033618e-01
  3.129491e+01    7.254229e-01
  3.132666e+01    7.167788e-01
  3.135841e+01    6.970229e-01
  3.139017e+01    7.423077e-01
  3.142192e+01    7.324131e-01
  3.145367e+01    7.588585e-01
  3.148542e+01    7.527176e-01
  3.151717e+01    7.547610e-01
  3.154892e+01    7.819840e-01
  3.158067e+01    7.953410e-01
  3.161242e+01    8.081502e-01
  3.164418e+01    8.149970e-01
  3.167593e+01    8.488237e-01
  3.170768e+01    9.356233e-01
  3.173943e+01    1.004039e+00
  3.177118e+01    1.150496e+00
  3.180293e+01    1.307705e+00
  3.183468e+01    1.560634e+00
  3.186643e+01    1.882985e+00
  3.189818e+01    2.187393e+00
  3.192994e+01    2.289015e+00
  3.196169e+01    2.204840e+00
  3.199344e+01    1.853438e+00
  3.202519e+01    1.515601e+00
  3.205694e+01    1.313126e+00
  3.208869e+01    1.082846e+00
  3.212044e+01    9.920038e-01
  3.215219e+01    9.195081e-01
  3.218394e+01    8.569845e-01
  3.221570e+01    8.275714e-01
  3.224745e+01    7.786354e-01
  3.227920e+01    7.705995e-01
  3.231095e+01    7.520472e-01
  3.234270e+01    7.454658e-01
  3.237445e+01    7.352791e-01
  3.240620e+01    7.264464e-01
  3.243795e+01    6.958036e-01
  3.246970e+01    7.229306e-01
  3.250146e+01    6.953565e-01
  3.253321e+01    7.345510e-01
  3.254908e+01    7.230620e-01