File: XRD/2024-07-27_002_Ru-CGO-ex_Activtation_ramp_000002_data_000081.dat
# == pyFAI calibration ==
# Distance Sample to Detector: 0.4 m
# PONI: 9.750e-02, 1.135e-01 m
# Rotations: -0.000175 0.000000 -0.000000 rad
#
# == Fit2d calibration ==
# Distance Sample-beamCenter: 400.000 mm
# Center: x=1514.000, y=1300.000 pix
# Tilt: 0.010 deg  TiltPlanRot: 0.010 deg
#
# Detector Detector	 Spline= None	 PixelSize= 7.500e-05, 7.500e-05 m
#    Detector has a mask: False
#    Detector has a dark current: False
#    detector has a flat field: False
#
# Wavelength: 6.888e-11 m
# Mask applied: user provided
# Dark current applied: False
# Flat field applied: False
# Polarization factor: 0.99
# Normalization factor: 1.0
# --> /home/myspot/data/2024_07_Rosario/Ru-CGO-ex/2024-07-27_002_Ru-CGO-ex_Activtation_ramp_000002_data_000081.dat
#       q_nm^-1             I
  2.003187e-02    2.849293e-01
  5.178302e-02    7.387637e-02
  8.353417e-02    1.108382e-01
  1.152853e-01    1.347533e-01
  1.470365e-01    0.000000e+00
  1.787876e-01    1.442434e-02
  2.105388e-01    4.339655e-02
  2.422899e-01    3.711267e-02
  2.740411e-01    3.084903e-03
  3.057922e-01    4.175109e-02
  3.375433e-01    3.377682e-02
  3.692945e-01    2.808284e-02
  4.010456e-01    7.043377e-02
  4.327968e-01    1.542295e-02
  4.645479e-01    1.407257e-02
  4.962991e-01    1.410654e-02
  5.280502e-01    1.651129e-02
  5.598014e-01    2.162140e-02
  5.915525e-01    5.099371e-02
  6.233037e-01    6.065045e-02
  6.550548e-01    3.858485e-02
  6.868060e-01    1.223575e-02
  7.185571e-01    4.957939e-02
  7.503083e-01    5.618551e-02
  7.820594e-01    9.409682e-02
  8.138106e-01    2.055646e-01
  8.455617e-01    3.221646e-01
  8.773129e-01    4.002165e-01
  9.090640e-01    5.290920e-01
  9.408152e-01    7.031161e-01
  9.725663e-01    8.193797e-01
  1.004317e+00    1.022642e+00
  1.036069e+00    1.155717e+00
  1.067820e+00    1.300423e+00
  1.099571e+00    1.355784e+00
  1.131322e+00    1.413593e+00
  1.163073e+00    1.369122e+00
  1.194824e+00    1.669431e+00
  1.226575e+00    1.900732e+00
  1.258327e+00    2.502344e+00
  1.290078e+00    2.419280e+00
  1.321829e+00    2.513762e+00
  1.353580e+00    2.575286e+00
  1.385331e+00    2.672373e+00
  1.417082e+00    2.606370e+00
  1.448834e+00    2.670608e+00
  1.480585e+00    2.785197e+00
  1.512336e+00    2.800896e+00
  1.544087e+00    2.920594e+00
  1.575838e+00    2.909452e+00
  1.607589e+00    2.867874e+00
  1.639340e+00    2.872742e+00
  1.671092e+00    2.897516e+00
  1.702843e+00    2.800112e+00
  1.734594e+00    2.814978e+00
  1.766345e+00    2.817487e+00
  1.798096e+00    2.870714e+00
  1.829847e+00    2.797032e+00
  1.861598e+00    2.864731e+00
  1.893350e+00    2.961076e+00
  1.925101e+00    2.808030e+00
  1.956852e+00    2.667412e+00
  1.988603e+00    2.568973e+00
  2.020354e+00    2.704834e+00
  2.052105e+00    2.682335e+00
  2.083856e+00    2.641018e+00
  2.115608e+00    2.695464e+00
  2.147359e+00    2.693895e+00
  2.179110e+00    2.694060e+00
  2.210861e+00    2.735965e+00
  2.242612e+00    2.829050e+00
  2.274363e+00    2.748303e+00
  2.306115e+00    2.585482e+00
  2.337866e+00    2.798548e+00
  2.369617e+00    2.715605e+00
  2.401368e+00    2.761052e+00
  2.433119e+00    2.718908e+00
  2.464870e+00    2.798965e+00
  2.496621e+00    2.741271e+00
  2.528373e+00    2.965893e+00
  2.560124e+00    2.772256e+00
  2.591875e+00    2.785303e+00
  2.623626e+00    2.832514e+00
  2.655377e+00    2.733503e+00
  2.687128e+00    2.769032e+00
  2.718879e+00    2.682251e+00
  2.750631e+00    2.828260e+00
  2.782382e+00    2.875736e+00
  2.814133e+00    2.860893e+00
  2.845884e+00    2.766298e+00
  2.877635e+00    2.847440e+00
  2.909386e+00    2.841734e+00
  2.941137e+00    2.944732e+00
  2.972889e+00    2.798187e+00
  3.004640e+00    2.843282e+00
  3.036391e+00    2.894831e+00
  3.068142e+00    2.867302e+00
  3.099893e+00    2.825333e+00
  3.131644e+00    2.906737e+00
  3.163395e+00    2.976942e+00
  3.195147e+00    2.885061e+00
  3.226898e+00    2.836838e+00
  3.258649e+00    2.844276e+00
  3.290400e+00    2.984141e+00
  3.322151e+00    2.843628e+00
  3.353902e+00    2.895342e+00
  3.385654e+00    2.913108e+00
  3.417405e+00    2.931074e+00
  3.449156e+00    2.865881e+00
  3.480907e+00    2.926232e+00
  3.512658e+00    2.944053e+00
  3.544409e+00    2.945798e+00
  3.576160e+00    2.965441e+00
  3.607912e+00    2.950199e+00
  3.639663e+00    2.973396e+00
  3.671414e+00    2.919604e+00
  3.703165e+00    2.941373e+00
  3.734916e+00    3.024711e+00
  3.766667e+00    2.972581e+00
  3.798418e+00    2.964524e+00
  3.830170e+00    3.066358e+00
  3.861921e+00    2.949636e+00
  3.893672e+00    3.005989e+00
  3.925423e+00    2.967439e+00
  3.957174e+00    2.987546e+00
  3.988925e+00    3.006613e+00
  4.020676e+00    2.941950e+00
  4.052428e+00    3.018766e+00
  4.084179e+00    2.935368e+00
  4.115930e+00    3.011264e+00
  4.147681e+00    2.961508e+00
  4.179432e+00    2.943879e+00
  4.211183e+00    3.035167e+00
  4.242935e+00    2.959992e+00
  4.274686e+00    2.998201e+00
  4.306437e+00    3.096013e+00
  4.338188e+00    2.979356e+00
  4.369939e+00    3.124062e+00
  4.401690e+00    3.066176e+00
  4.433441e+00    3.071234e+00
  4.465193e+00    3.079084e+00
  4.496944e+00    3.067409e+00
  4.528695e+00    3.036023e+00
  4.560446e+00    3.061370e+00
  4.592197e+00    3.012964e+00
  4.623948e+00    3.050269e+00
  4.655699e+00    3.041892e+00
  4.687451e+00    3.029860e+00
  4.719202e+00    3.118095e+00
  4.750953e+00    3.215953e+00
  4.782704e+00    2.969921e+00
  4.814455e+00    3.040190e+00
  4.846206e+00    3.033894e+00
  4.877957e+00    3.152674e+00
  4.909709e+00    3.067913e+00
  4.941460e+00    3.152668e+00
  4.973211e+00    3.111016e+00
  5.004962e+00    3.079611e+00
  5.036713e+00    3.076496e+00
  5.068464e+00    3.104678e+00
  5.100216e+00    3.081168e+00
  5.131967e+00    3.089499e+00
  5.163718e+00    3.310515e+00
  5.195469e+00    3.153510e+00
  5.227220e+00    3.065642e+00
  5.258971e+00    3.092926e+00
  5.290722e+00    3.043145e+00
  5.322474e+00    3.041178e+00
  5.354225e+00    3.097520e+00
  5.385976e+00    3.088383e+00
  5.417727e+00    3.109055e+00
  5.449478e+00    3.075472e+00
  5.481229e+00    3.144312e+00
  5.512980e+00    3.049652e+00
  5.544732e+00    3.023136e+00
  5.576483e+00    3.051308e+00
  5.608234e+00    3.100721e+00
  5.639985e+00    3.108707e+00
  5.671736e+00    3.037994e+00
  5.703487e+00    2.999663e+00
  5.735238e+00    3.063972e+00
  5.766990e+00    3.096904e+00
  5.798741e+00    3.026489e+00
  5.830492e+00    3.098222e+00
  5.862243e+00    3.057280e+00
  5.893994e+00    2.997254e+00
  5.925745e+00    2.909532e+00
  5.957497e+00    2.967064e+00
  5.989248e+00    3.000000e+00
  6.020999e+00    3.047399e+00
  6.052750e+00    3.004200e+00
  6.084501e+00    2.991957e+00
  6.116252e+00    3.033744e+00
  6.148003e+00    3.042673e+00
  6.179755e+00    3.058964e+00
  6.211506e+00    3.014344e+00
  6.243257e+00    3.070050e+00
  6.275008e+00    3.017544e+00
  6.306759e+00    3.012601e+00
  6.338510e+00    3.011682e+00
  6.370261e+00    3.006957e+00
  6.402013e+00    3.026983e+00
  6.433764e+00    3.006444e+00
  6.465515e+00    2.920362e+00
  6.497266e+00    2.972336e+00
  6.529017e+00    3.038718e+00
  6.560768e+00    2.922730e+00
  6.592519e+00    2.974010e+00
  6.624271e+00    2.968972e+00
  6.656022e+00    3.034836e+00
  6.687773e+00    2.991313e+00
  6.719524e+00    3.022120e+00
  6.751275e+00    2.997089e+00
  6.783026e+00    3.027855e+00
  6.814777e+00    3.013976e+00
  6.846529e+00    3.053921e+00
  6.878280e+00    3.022107e+00
  6.910031e+00    2.938341e+00
  6.941782e+00    3.005081e+00
  6.973533e+00    3.034273e+00
  7.005284e+00    2.951214e+00
  7.037036e+00    3.058421e+00
  7.068787e+00    3.012096e+00
  7.100538e+00    3.011778e+00
  7.132289e+00    2.956937e+00
  7.164040e+00    3.034465e+00
  7.195791e+00    2.938902e+00
  7.227542e+00    2.924162e+00
  7.259294e+00    2.995180e+00
  7.291045e+00    2.978974e+00
  7.322796e+00    2.933541e+00
  7.354547e+00    2.894946e+00
  7.386298e+00    3.018406e+00
  7.418049e+00    3.033005e+00
  7.449800e+00    2.893694e+00
  7.481552e+00    3.009878e+00
  7.513303e+00    2.920265e+00
  7.545054e+00    2.917908e+00
  7.576805e+00    2.928948e+00
  7.608556e+00    2.910481e+00
  7.640307e+00    2.885816e+00
  7.672058e+00    2.920090e+00
  7.703810e+00    2.858800e+00
  7.735561e+00    2.951298e+00
  7.767312e+00    2.905478e+00
  7.799063e+00    3.017774e+00
  7.830814e+00    2.966840e+00
  7.862565e+00    2.938387e+00
  7.894317e+00    2.953773e+00
  7.926068e+00    2.920647e+00
  7.957819e+00    2.875244e+00
  7.989570e+00    2.870445e+00
  8.021321e+00    2.877252e+00
  8.053072e+00    2.856505e+00
  8.084823e+00    2.889319e+00
  8.116575e+00    2.911664e+00
  8.148326e+00    2.947415e+00
  8.180077e+00    2.879225e+00
  8.211828e+00    2.937297e+00
  8.243579e+00    2.990947e+00
  8.275330e+00    2.869631e+00
  8.307081e+00    2.886880e+00
  8.338833e+00    2.904079e+00
  8.370584e+00    2.909541e+00
  8.402335e+00    2.859765e+00
  8.434086e+00    2.895253e+00
  8.465837e+00    2.837941e+00
  8.497588e+00    2.844401e+00
  8.529339e+00    2.873871e+00
  8.561091e+00    2.773618e+00
  8.592842e+00    2.916826e+00
  8.624593e+00    2.870822e+00
  8.656344e+00    2.918427e+00
  8.688095e+00    2.833332e+00
  8.719846e+00    2.869721e+00
  8.751598e+00    2.775513e+00
  8.783349e+00    2.886364e+00
  8.815100e+00    2.838734e+00
  8.846851e+00    2.816632e+00
  8.878602e+00    2.841425e+00
  8.910353e+00    2.793852e+00
  8.942104e+00    2.824799e+00
  8.973856e+00    2.842952e+00
  9.005607e+00    2.788095e+00
  9.037358e+00    2.787337e+00
  9.069109e+00    2.797367e+00
  9.100860e+00    2.797498e+00
  9.132611e+00    2.790435e+00
  9.164362e+00    2.775002e+00
  9.196114e+00    2.743513e+00
  9.227865e+00    2.799125e+00
  9.259616e+00    2.766805e+00
  9.291367e+00    2.715377e+00
  9.323118e+00    2.817122e+00
  9.354869e+00    2.783189e+00
  9.386620e+00    2.779664e+00
  9.418372e+00    2.791027e+00
  9.450123e+00    2.782115e+00
  9.481874e+00    2.775594e+00
  9.513625e+00    2.734278e+00
  9.545376e+00    2.759817e+00
  9.577127e+00    2.782747e+00
  9.608878e+00    2.785761e+00
  9.640630e+00    2.760500e+00
  9.672381e+00    2.689118e+00
  9.704132e+00    2.764528e+00
  9.735883e+00    2.657628e+00
  9.767634e+00    2.754545e+00
  9.799385e+00    2.697114e+00
  9.831137e+00    2.699303e+00
  9.862888e+00    2.614708e+00
  9.894639e+00    2.724379e+00
  9.926390e+00    2.621568e+00
  9.958141e+00    2.686382e+00
  9.989892e+00    2.664626e+00
  1.002164e+01    2.639351e+00
  1.005339e+01    2.621612e+00
  1.008515e+01    2.610027e+00
  1.011690e+01    2.622419e+00
  1.014865e+01    2.619283e+00
  1.018040e+01    2.612862e+00
  1.021215e+01    2.630425e+00
  1.024390e+01    2.648027e+00
  1.027565e+01    2.591888e+00
  1.030740e+01    2.616945e+00
  1.033915e+01    2.585673e+00
  1.037091e+01    2.661280e+00
  1.040266e+01    2.607155e+00
  1.043441e+01    2.583974e+00
  1.046616e+01    2.588636e+00
  1.049791e+01    2.535867e+00
  1.052966e+01    2.609088e+00
  1.056141e+01    2.562601e+00
  1.059316e+01    2.586144e+00
  1.062492e+01    2.593268e+00
  1.065667e+01    2.538275e+00
  1.068842e+01    2.540931e+00
  1.072017e+01    2.543284e+00
  1.075192e+01    2.535821e+00
  1.078367e+01    2.472637e+00
  1.081542e+01    2.538202e+00
  1.084717e+01    2.514654e+00
  1.087892e+01    2.483899e+00
  1.091068e+01    2.521760e+00
  1.094243e+01    2.463130e+00
  1.097418e+01    2.500428e+00
  1.100593e+01    2.445168e+00
  1.103768e+01    2.496060e+00
  1.106943e+01    2.471054e+00
  1.110118e+01    2.454773e+00
  1.113293e+01    2.433510e+00
  1.116468e+01    2.464859e+00
  1.119644e+01    2.451974e+00
  1.122819e+01    2.413841e+00
  1.125994e+01    2.426111e+00
  1.129169e+01    2.441447e+00
  1.132344e+01    2.350381e+00
  1.135519e+01    2.413981e+00
  1.138694e+01    2.399552e+00
  1.141869e+01    2.401540e+00
  1.145045e+01    2.355479e+00
  1.148220e+01    2.336206e+00
  1.151395e+01    2.371032e+00
  1.154570e+01    2.454034e+00
  1.157745e+01    2.419679e+00
  1.160920e+01    2.337609e+00
  1.164095e+01    2.358937e+00
  1.167270e+01    2.340362e+00
  1.170445e+01    2.345577e+00
  1.173621e+01    2.361329e+00
  1.176796e+01    2.316285e+00
  1.179971e+01    2.315889e+00
  1.183146e+01    2.321232e+00
  1.186321e+01    2.340030e+00
  1.189496e+01    2.308535e+00
  1.192671e+01    2.347251e+00
  1.195846e+01    2.360743e+00
  1.199021e+01    2.272840e+00
  1.202197e+01    2.346469e+00
  1.205372e+01    2.320138e+00
  1.208547e+01    2.299483e+00
  1.211722e+01    2.290224e+00
  1.214897e+01    2.300210e+00
  1.218072e+01    2.305301e+00
  1.221247e+01    2.252148e+00
  1.224422e+01    2.348791e+00
  1.227597e+01    2.311106e+00
  1.230773e+01    2.282922e+00
  1.233948e+01    2.267921e+00
  1.237123e+01    2.235163e+00
  1.240298e+01    2.323541e+00
  1.243473e+01    2.302891e+00
  1.246648e+01    2.333276e+00
  1.249823e+01    2.371965e+00
  1.252998e+01    2.362181e+00
  1.256174e+01    2.372492e+00
  1.259349e+01    2.324376e+00
  1.262524e+01    2.396621e+00
  1.265699e+01    2.411675e+00
  1.268874e+01    2.486373e+00
  1.272049e+01    2.466012e+00
  1.275224e+01    2.553230e+00
  1.278399e+01    2.632191e+00
  1.281574e+01    2.662841e+00
  1.284750e+01    2.832831e+00
  1.287925e+01    2.983654e+00
  1.291100e+01    3.286570e+00
  1.294275e+01    3.661664e+00
  1.297450e+01    4.339161e+00
  1.300625e+01    5.340759e+00
  1.303800e+01    6.934516e+00
  1.306975e+01    9.398683e+00
  1.310150e+01    1.215637e+01
  1.313326e+01    1.478465e+01
  1.316501e+01    1.739301e+01
  1.319676e+01    1.837513e+01
  1.322851e+01    1.585657e+01
  1.326026e+01    1.145249e+01
  1.329201e+01    8.074428e+00
  1.332376e+01    6.105436e+00
  1.335551e+01    4.763869e+00
  1.338727e+01    3.974573e+00
  1.341902e+01    3.424325e+00
  1.345077e+01    3.084651e+00
  1.348252e+01    2.855295e+00
  1.351427e+01    2.698418e+00
  1.354602e+01    2.560873e+00
  1.357777e+01    2.497130e+00
  1.360952e+01    2.399297e+00
  1.364127e+01    2.346464e+00
  1.367303e+01    2.291978e+00
  1.370478e+01    2.245162e+00
  1.373653e+01    2.226401e+00
  1.376828e+01    2.166371e+00
  1.380003e+01    2.148988e+00
  1.383178e+01    2.117086e+00
  1.386353e+01    2.124388e+00
  1.389528e+01    2.102226e+00
  1.392703e+01    2.075656e+00
  1.395879e+01    2.075302e+00
  1.399054e+01    2.096063e+00
  1.402229e+01    2.040860e+00
  1.405404e+01    2.013158e+00
  1.408579e+01    2.052730e+00
  1.411754e+01    1.989983e+00
  1.414929e+01    2.017067e+00
  1.418104e+01    2.019567e+00
  1.421279e+01    1.981324e+00
  1.424455e+01    1.985793e+00
  1.427630e+01    1.958947e+00
  1.430805e+01    1.909954e+00
  1.433980e+01    1.935385e+00
  1.437155e+01    1.942451e+00
  1.440330e+01    1.937156e+00
  1.443505e+01    1.926865e+00
  1.446680e+01    1.877090e+00
  1.449856e+01    1.888723e+00
  1.453031e+01    1.920019e+00
  1.456206e+01    1.927004e+00
  1.459381e+01    1.878143e+00
  1.462556e+01    1.925212e+00
  1.465731e+01    1.902867e+00
  1.468906e+01    1.844496e+00
  1.472081e+01    1.878422e+00
  1.475256e+01    1.899412e+00
  1.478432e+01    1.938162e+00
  1.481607e+01    1.869764e+00
  1.484782e+01    1.915667e+00
  1.487957e+01    1.979392e+00
  1.491132e+01    1.937975e+00
  1.494307e+01    1.977780e+00
  1.497482e+01    2.084432e+00
  1.500657e+01    2.134224e+00
  1.503832e+01    2.288340e+00
  1.507008e+01    2.462948e+00
  1.510183e+01    2.838853e+00
  1.513358e+01    3.375550e+00
  1.516533e+01    4.076462e+00
  1.519708e+01    4.884171e+00
  1.522883e+01    5.587214e+00
  1.526058e+01    6.059786e+00
  1.529233e+01    6.078683e+00
  1.532409e+01    5.454989e+00
  1.535584e+01    4.285437e+00
  1.538759e+01    3.435105e+00
  1.541934e+01    2.740913e+00
  1.545109e+01    2.458264e+00
  1.548284e+01    2.187907e+00
  1.551459e+01    2.073474e+00
  1.554634e+01    1.992720e+00
  1.557809e+01    1.882083e+00
  1.560985e+01    1.845177e+00
  1.564160e+01    1.783274e+00
  1.567335e+01    1.776574e+00
  1.570510e+01    1.770215e+00
  1.573685e+01    1.697466e+00
  1.576860e+01    1.707193e+00
  1.580035e+01    1.660318e+00
  1.583210e+01    1.690704e+00
  1.586385e+01    1.648457e+00
  1.589561e+01    1.657057e+00
  1.592736e+01    1.607926e+00
  1.595911e+01    1.644510e+00
  1.599086e+01    1.604831e+00
  1.602261e+01    1.612257e+00
  1.605436e+01    1.584368e+00
  1.608611e+01    1.598680e+00
  1.611786e+01    1.569524e+00
  1.614961e+01    1.590804e+00
  1.618137e+01    1.544434e+00
  1.621312e+01    1.520105e+00
  1.624487e+01    1.543217e+00
  1.627662e+01    1.549200e+00
  1.630837e+01    1.531268e+00
  1.634012e+01    1.551699e+00
  1.637187e+01    1.538903e+00
  1.640362e+01    1.547331e+00
  1.643538e+01    1.497197e+00
  1.646713e+01    1.492702e+00
  1.649888e+01    1.513811e+00
  1.653063e+01    1.486766e+00
  1.656238e+01    1.468895e+00
  1.659413e+01    1.458754e+00
  1.662588e+01    1.495827e+00
  1.665763e+01    1.452857e+00
  1.668938e+01    1.450277e+00
  1.672114e+01    1.467053e+00
  1.675289e+01    1.464235e+00
  1.678464e+01    1.468831e+00
  1.681639e+01    1.468848e+00
  1.684814e+01    1.440108e+00
  1.687989e+01    1.456254e+00
  1.691164e+01    1.453599e+00
  1.694339e+01    1.454715e+00
  1.697514e+01    1.412772e+00
  1.700690e+01    1.411454e+00
  1.703865e+01    1.425604e+00
  1.707040e+01    1.420874e+00
  1.710215e+01    1.399669e+00
  1.713390e+01    1.397230e+00
  1.716565e+01    1.378575e+00
  1.719740e+01    1.431583e+00
  1.722915e+01    1.363202e+00
  1.726091e+01    1.385961e+00
  1.729266e+01    1.346494e+00
  1.732441e+01    1.382877e+00
  1.735616e+01    1.383472e+00
  1.738791e+01    1.349053e+00
  1.741966e+01    1.375725e+00
  1.745141e+01    1.363409e+00
  1.748316e+01    1.400364e+00
  1.751491e+01    1.332960e+00
  1.754667e+01    1.321656e+00
  1.757842e+01    1.353899e+00
  1.761017e+01    1.343208e+00
  1.764192e+01    1.351114e+00
  1.767367e+01    1.334492e+00
  1.770542e+01    1.303710e+00
  1.773717e+01    1.334633e+00
  1.776892e+01    1.325583e+00
  1.780067e+01    1.329008e+00
  1.783243e+01    1.307815e+00
  1.786418e+01    1.308126e+00
  1.789593e+01    1.316996e+00
  1.792768e+01    1.325094e+00
  1.795943e+01    1.302794e+00
  1.799118e+01    1.298658e+00
  1.802293e+01    1.281550e+00
  1.805468e+01    1.289231e+00
  1.808643e+01    1.316158e+00
  1.811819e+01    1.290835e+00
  1.814994e+01    1.277453e+00
  1.818169e+01    1.270470e+00
  1.821344e+01    1.277146e+00
  1.824519e+01    1.271529e+00
  1.827694e+01    1.285097e+00
  1.830869e+01    1.220019e+00
  1.834044e+01    1.273961e+00
  1.837220e+01    1.237558e+00
  1.840395e+01    1.241961e+00
  1.843570e+01    1.276868e+00
  1.846745e+01    1.260501e+00
  1.849920e+01    1.263874e+00
  1.853095e+01    1.248696e+00
  1.856270e+01    1.231398e+00
  1.859445e+01    1.242180e+00
  1.862620e+01    1.258693e+00
  1.865796e+01    1.221231e+00
  1.868971e+01    1.252415e+00
  1.872146e+01    1.207123e+00
  1.875321e+01    1.207053e+00
  1.878496e+01    1.240246e+00
  1.881671e+01    1.211848e+00
  1.884846e+01    1.192815e+00
  1.888021e+01    1.191954e+00
  1.891196e+01    1.191393e+00
  1.894372e+01    1.185901e+00
  1.897547e+01    1.192013e+00
  1.900722e+01    1.201513e+00
  1.903897e+01    1.175287e+00
  1.907072e+01    1.178660e+00
  1.910247e+01    1.202961e+00
  1.913422e+01    1.197870e+00
  1.916597e+01    1.180076e+00
  1.919773e+01    1.176820e+00
  1.922948e+01    1.172948e+00
  1.926123e+01    1.183777e+00
  1.929298e+01    1.174423e+00
  1.932473e+01    1.178147e+00
  1.935648e+01    1.186611e+00
  1.938823e+01    1.158854e+00
  1.941998e+01    1.145492e+00
  1.945173e+01    1.157043e+00
  1.948349e+01    1.162415e+00
  1.951524e+01    1.143485e+00
  1.954699e+01    1.161152e+00
  1.957874e+01    1.134462e+00
  1.961049e+01    1.137716e+00
  1.964224e+01    1.120852e+00
  1.967399e+01    1.153640e+00
  1.970574e+01    1.142335e+00
  1.973749e+01    1.136264e+00
  1.976925e+01    1.161320e+00
  1.980100e+01    1.140164e+00
  1.983275e+01    1.126113e+00
  1.986450e+01    1.131975e+00
  1.989625e+01    1.096552e+00
  1.992800e+01    1.120545e+00
  1.995975e+01    1.120889e+00
  1.999150e+01    1.101081e+00
  2.002325e+01    1.091991e+00
  2.005501e+01    1.121276e+00
  2.008676e+01    1.097248e+00
  2.011851e+01    1.113776e+00
  2.015026e+01    1.123738e+00
  2.018201e+01    1.084921e+00
  2.021376e+01    1.084080e+00
  2.024551e+01    1.135072e+00
  2.027726e+01    1.099914e+00
  2.030902e+01    1.088360e+00
  2.034077e+01    1.121058e+00
  2.037252e+01    1.096409e+00
  2.040427e+01    1.088912e+00
  2.043602e+01    1.085284e+00
  2.046777e+01    1.115346e+00
  2.049952e+01    1.090939e+00
  2.053127e+01    1.074004e+00
  2.056302e+01    1.079989e+00
  2.059478e+01    1.092310e+00
  2.062653e+01    1.068505e+00
  2.065828e+01    1.089894e+00
  2.069003e+01    1.066825e+00
  2.072178e+01    1.068650e+00
  2.075353e+01    1.070026e+00
  2.078528e+01    1.050098e+00
  2.081703e+01    1.035648e+00
  2.084878e+01    1.076947e+00
  2.088054e+01    1.076522e+00
  2.091229e+01    1.087248e+00
  2.094404e+01    1.089211e+00
  2.097579e+01    1.086614e+00
  2.100754e+01    1.079745e+00
  2.103929e+01    1.073745e+00
  2.107104e+01    1.081621e+00
  2.110279e+01    1.086345e+00
  2.113455e+01    1.098010e+00
  2.116630e+01    1.086793e+00
  2.119805e+01    1.097762e+00
  2.122980e+01    1.096488e+00
  2.126155e+01    1.108687e+00
  2.129330e+01    1.108824e+00
  2.132505e+01    1.114892e+00
  2.135680e+01    1.143292e+00
  2.138855e+01    1.183010e+00
  2.142031e+01    1.197226e+00
  2.145206e+01    1.218317e+00
  2.148381e+01    1.239904e+00
  2.151556e+01    1.299563e+00
  2.154731e+01    1.354779e+00
  2.157906e+01    1.425269e+00
  2.161081e+01    1.561714e+00
  2.164256e+01    1.783276e+00
  2.167431e+01    2.022567e+00
  2.170607e+01    2.439854e+00
  2.173782e+01    3.038540e+00
  2.176957e+01    3.977093e+00
  2.180132e+01    5.271864e+00
  2.183307e+01    6.778911e+00
  2.186482e+01    8.330426e+00
  2.189657e+01    9.727664e+00
  2.192832e+01    1.000975e+01
  2.196007e+01    8.623011e+00
  2.199183e+01    6.517260e+00
  2.202358e+01    4.632463e+00
  2.205533e+01    3.425351e+00
  2.208708e+01    2.640875e+00
  2.211883e+01    2.232547e+00
  2.215058e+01    1.859657e+00
  2.218233e+01    1.644144e+00
  2.221408e+01    1.470496e+00
  2.224584e+01    1.380502e+00
  2.227759e+01    1.280970e+00
  2.230934e+01    1.237717e+00
  2.234109e+01    1.173586e+00
  2.237284e+01    1.156351e+00
  2.240459e+01    1.104476e+00
  2.243634e+01    1.098157e+00
  2.246809e+01    1.044862e+00
  2.249984e+01    1.049301e+00
  2.253160e+01    1.026546e+00
  2.256335e+01    1.008748e+00
  2.259510e+01    9.880224e-01
  2.262685e+01    9.826224e-01
  2.265860e+01    9.553341e-01
  2.269035e+01    9.709564e-01
  2.272210e+01    9.529737e-01
  2.275385e+01    9.465457e-01
  2.278560e+01    9.385053e-01
  2.281736e+01    9.361675e-01
  2.284911e+01    9.373816e-01
  2.288086e+01    9.313536e-01
  2.291261e+01    9.181712e-01
  2.294436e+01    8.924488e-01
  2.297611e+01    8.833473e-01
  2.300786e+01    9.115853e-01
  2.303961e+01    9.053288e-01
  2.307137e+01    9.034414e-01
  2.310312e+01    8.754378e-01
  2.313487e+01    8.713502e-01
  2.316662e+01    8.923188e-01
  2.319837e+01    8.665063e-01
  2.323012e+01    8.788463e-01
  2.326187e+01    8.552666e-01
  2.329362e+01    8.638411e-01
  2.332537e+01    8.573362e-01
  2.335713e+01    8.669525e-01
  2.338888e+01    8.466294e-01
  2.342063e+01    8.614701e-01
  2.345238e+01    8.497518e-01
  2.348413e+01    8.474264e-01
  2.351588e+01    8.518898e-01
  2.354763e+01    8.569336e-01
  2.357938e+01    8.496833e-01
  2.361113e+01    8.430629e-01
  2.364289e+01    8.491271e-01
  2.367464e+01    8.240854e-01
  2.370639e+01    8.226899e-01
  2.373814e+01    8.181688e-01
  2.376989e+01    8.115475e-01
  2.380164e+01    8.096340e-01
  2.383339e+01    8.026537e-01
  2.386514e+01    8.189791e-01
  2.389689e+01    7.911060e-01
  2.392865e+01    7.821852e-01
  2.396040e+01    7.883840e-01
  2.399215e+01    7.819207e-01
  2.402390e+01    7.950871e-01
  2.405565e+01    7.831475e-01
  2.408740e+01    7.801703e-01
  2.411915e+01    7.872058e-01
  2.415090e+01    7.825019e-01
  2.418266e+01    7.874314e-01
  2.421441e+01    7.628721e-01
  2.424616e+01    7.984629e-01
  2.427791e+01    7.754698e-01
  2.430966e+01    7.808683e-01
  2.434141e+01    7.687315e-01
  2.437316e+01    7.873924e-01
  2.440491e+01    7.830894e-01
  2.443666e+01    7.942893e-01
  2.446842e+01    8.008810e-01
  2.450017e+01    7.915819e-01
  2.453192e+01    8.074676e-01
  2.456367e+01    7.969642e-01
  2.459542e+01    7.819327e-01
  2.462717e+01    7.798830e-01
  2.465892e+01    7.988719e-01
  2.469067e+01    7.829348e-01
  2.472242e+01    8.010975e-01
  2.475418e+01    8.031878e-01
  2.478593e+01    7.809103e-01
  2.481768e+01    8.053383e-01
  2.484943e+01    7.899026e-01
  2.488118e+01    7.935067e-01
  2.491293e+01    7.871811e-01
  2.494468e+01    8.022500e-01
  2.497643e+01    7.838950e-01
  2.500819e+01    8.203035e-01
  2.503994e+01    8.255364e-01
  2.507169e+01    7.912041e-01
  2.510344e+01    8.013507e-01
  2.513519e+01    8.004383e-01
  2.516694e+01    8.224638e-01
  2.519869e+01    8.194706e-01
  2.523044e+01    8.356922e-01
  2.526219e+01    8.750849e-01
  2.529395e+01    8.562897e-01
  2.532570e+01    8.530931e-01
  2.535745e+01    8.675509e-01
  2.538920e+01    8.855416e-01
  2.542095e+01    9.080105e-01
  2.545270e+01    9.422272e-01
  2.548445e+01    9.539145e-01
  2.551620e+01    9.944599e-01
  2.554795e+01    1.002223e+00
  2.557971e+01    1.032716e+00
  2.561146e+01    1.121952e+00
  2.564321e+01    1.202906e+00
  2.567496e+01    1.309235e+00
  2.570671e+01    1.446017e+00
  2.573846e+01    1.668738e+00
  2.577021e+01    1.991126e+00
  2.580196e+01    2.434950e+00
  2.583371e+01    3.104778e+00
  2.586547e+01    4.076507e+00
  2.589722e+01    5.349499e+00
  2.592897e+01    6.762869e+00
  2.596072e+01    8.010138e+00
  2.599247e+01    8.324230e+00
  2.602422e+01    7.454404e+00
  2.605597e+01    5.728231e+00
  2.608772e+01    4.259979e+00
  2.611948e+01    3.117272e+00
  2.615123e+01    2.437516e+00
  2.618298e+01    1.956329e+00
  2.621473e+01    1.687095e+00
  2.624648e+01    1.452326e+00
  2.627823e+01    1.324986e+00
  2.630998e+01    1.196340e+00
  2.634173e+01    1.103613e+00
  2.637348e+01    1.069928e+00
  2.640524e+01    1.006548e+00
  2.643699e+01    1.000887e+00
  2.646874e+01    9.857391e-01
  2.650049e+01    9.331640e-01
  2.653224e+01    9.515164e-01
  2.656399e+01    9.344727e-01
  2.659574e+01    8.996764e-01
  2.662749e+01    9.044957e-01
  2.665924e+01    9.076869e-01
  2.669100e+01    9.020690e-01
  2.672275e+01    9.204847e-01
  2.675450e+01    9.097941e-01
  2.678625e+01    8.999537e-01
  2.681800e+01    9.184367e-01
  2.684975e+01    9.000130e-01
  2.688150e+01    9.168335e-01
  2.691325e+01    9.137024e-01
  2.694501e+01    9.240118e-01
  2.697676e+01    9.588880e-01
  2.700851e+01    1.022599e+00
  2.704026e+01    1.083307e+00
  2.707201e+01    1.176647e+00
  2.710376e+01    1.329368e+00
  2.713551e+01    1.537880e+00
  2.716726e+01    1.870149e+00
  2.719901e+01    2.158610e+00
  2.723077e+01    2.374211e+00
  2.726252e+01    2.364604e+00
  2.729427e+01    2.136631e+00
  2.732602e+01    1.774326e+00
  2.735777e+01    1.483811e+00
  2.738952e+01    1.256643e+00
  2.742127e+01    1.140972e+00
  2.745302e+01    1.032503e+00
  2.748477e+01    9.508285e-01
  2.751653e+01    9.251238e-01
  2.754828e+01    9.033855e-01
  2.758003e+01    8.815748e-01
  2.761178e+01    8.587062e-01
  2.764353e+01    8.544156e-01
  2.767528e+01    8.350115e-01
  2.770703e+01    8.554409e-01
  2.773878e+01    8.348616e-01
  2.777054e+01    8.176660e-01
  2.780229e+01    8.311026e-01
  2.783404e+01    7.865784e-01
  2.786579e+01    8.147402e-01
  2.789754e+01    8.063981e-01
  2.792929e+01    7.741042e-01
  2.796104e+01    7.946421e-01
  2.799279e+01    8.101700e-01
  2.802454e+01    7.902883e-01
  2.805630e+01    7.721549e-01
  2.808805e+01    7.811024e-01
  2.811980e+01    7.881012e-01
  2.815155e+01    7.883653e-01
  2.818330e+01    7.816415e-01
  2.821505e+01    7.566713e-01
  2.824680e+01    7.811686e-01
  2.827855e+01    7.811818e-01
  2.831030e+01    7.762531e-01
  2.834206e+01    7.970133e-01
  2.837381e+01    7.462600e-01
  2.840556e+01    7.965435e-01
  2.843731e+01    7.647566e-01
  2.846906e+01    7.623147e-01
  2.850081e+01    7.478184e-01
  2.853256e+01    7.428029e-01
  2.856431e+01    7.589995e-01
  2.859606e+01    7.685062e-01
  2.862782e+01    7.378270e-01
  2.865957e+01    7.433473e-01
  2.869132e+01    7.338732e-01
  2.872307e+01    7.583823e-01
  2.875482e+01    7.544109e-01
  2.878657e+01    7.601163e-01
  2.881832e+01    7.576017e-01
  2.885007e+01    7.127460e-01
  2.888183e+01    7.462666e-01
  2.891358e+01    7.557899e-01
  2.894533e+01    7.175338e-01
  2.897708e+01    7.399916e-01
  2.900883e+01    7.306995e-01
  2.904058e+01    7.361538e-01
  2.907233e+01    7.086605e-01
  2.910408e+01    7.440583e-01
  2.913583e+01    7.370602e-01
  2.916759e+01    7.493314e-01
  2.919934e+01    7.514047e-01
  2.923109e+01    7.354130e-01
  2.926284e+01    7.109624e-01
  2.929459e+01    7.204354e-01
  2.932634e+01    7.308217e-01
  2.935809e+01    7.300607e-01
  2.938984e+01    7.410856e-01
  2.942159e+01    7.125728e-01
  2.945335e+01    7.156923e-01
  2.948510e+01    7.262993e-01
  2.951685e+01    7.301348e-01
  2.954860e+01    7.364377e-01
  2.958035e+01    7.273251e-01
  2.961210e+01    7.335259e-01
  2.964385e+01    6.951659e-01
  2.967560e+01    7.305902e-01
  2.970736e+01    7.234135e-01
  2.973911e+01    7.173148e-01
  2.977086e+01    7.013559e-01
  2.980261e+01    7.023737e-01
  2.983436e+01    7.179506e-01
  2.986611e+01    7.459431e-01
  2.989786e+01    7.121190e-01
  2.992961e+01    7.209207e-01
  2.996136e+01    7.217706e-01
  2.999312e+01    7.407534e-01
  3.002487e+01    7.397324e-01
  3.005662e+01    7.349743e-01
  3.008837e+01    7.307398e-01
  3.012012e+01    7.221379e-01
  3.015187e+01    7.115391e-01
  3.018362e+01    7.060117e-01
  3.021537e+01    7.335340e-01
  3.024712e+01    7.122100e-01
  3.027888e+01    7.120755e-01
  3.031063e+01    7.152199e-01
  3.034238e+01    7.319236e-01
  3.037413e+01    7.140303e-01
  3.040588e+01    6.944748e-01
  3.043763e+01    7.122790e-01
  3.046938e+01    7.173871e-01
  3.050113e+01    7.129951e-01
  3.053288e+01    7.347705e-01
  3.056464e+01    6.797138e-01
  3.059639e+01    7.288992e-01
  3.062814e+01    7.024370e-01
  3.065989e+01    7.019783e-01
  3.069164e+01    7.177902e-01
  3.072339e+01    6.994414e-01
  3.075514e+01    7.059951e-01
  3.078689e+01    7.044818e-01
  3.081865e+01    7.170974e-01
  3.085040e+01    7.192962e-01
  3.088215e+01    7.026458e-01
  3.091390e+01    7.085627e-01
  3.094565e+01    7.256760e-01
  3.097740e+01    7.204352e-01
  3.100915e+01    7.194574e-01
  3.104090e+01    6.995344e-01
  3.107265e+01    7.294746e-01
  3.110441e+01    7.239881e-01
  3.113616e+01    7.157333e-01
  3.116791e+01    7.221080e-01
  3.119966e+01    7.164304e-01
  3.123141e+01    7.071152e-01
  3.126316e+01    7.268027e-01
  3.129491e+01    7.190773e-01
  3.132666e+01    7.519067e-01
  3.135841e+01    7.303548e-01
  3.139017e+01    7.533599e-01
  3.142192e+01    7.457374e-01
  3.145367e+01    7.581710e-01
  3.148542e+01    7.845211e-01
  3.151717e+01    7.985809e-01
  3.154892e+01    8.011211e-01
  3.158067e+01    8.134068e-01
  3.161242e+01    8.286167e-01
  3.164418e+01    8.692021e-01
  3.167593e+01    8.757199e-01
  3.170768e+01    9.396021e-01
  3.173943e+01    1.002762e+00
  3.177118e+01    1.113648e+00
  3.180293e+01    1.286478e+00
  3.183468e+01    1.527950e+00
  3.186643e+01    1.843727e+00
  3.189818e+01    2.215289e+00
  3.192994e+01    2.400198e+00
  3.196169e+01    2.368603e+00
  3.199344e+01    2.054007e+00
  3.202519e+01    1.679518e+00
  3.205694e+01    1.398610e+00
  3.208869e+01    1.165833e+00
  3.212044e+01    1.025948e+00
  3.215219e+01    9.836154e-01
  3.218394e+01    8.952391e-01
  3.221570e+01    8.460576e-01
  3.224745e+01    8.090678e-01
  3.227920e+01    8.122867e-01
  3.231095e+01    7.871749e-01
  3.234270e+01    7.583457e-01
  3.237445e+01    7.504504e-01
  3.240620e+01    7.528917e-01
  3.243795e+01    7.501248e-01
  3.246970e+01    7.252744e-01
  3.250146e+01    7.358864e-01
  3.253321e+01    7.125497e-01
  3.254908e+01    7.345510e-01