File: XRD/cleaned_data.txt
q_nm^-1             I
2.003187e-02    0.000000e+00
5.178302e-02    7.452457e-02
8.353417e-02    4.947819e-01
1.152853e-01    1.490659e+00
1.470365e-01    7.123253e-01
1.787876e-01    1.659313e-01
2.105388e-01    8.641802e-03
2.422899e-01    0.000000e+00
2.740411e-01    0.000000e+00
3.057922e-01    0.000000e+00
3.375433e-01    0.000000e+00
3.692945e-01    2.420119e-02
4.010456e-01    0.000000e+00
4.327968e-01    2.060766e-02
4.645479e-01    0.000000e+00
4.962991e-01    0.000000e+00
5.280502e-01    9.205913e-03
5.598014e-01    2.536687e-03
5.915525e-01    8.704565e-03
6.233037e-01    3.045348e-03
6.550548e-01    5.872827e-03
6.868060e-01    3.830001e-03
7.185571e-01    1.283812e-02
7.503083e-01    0.000000e+00
7.820594e-01    3.718032e-03
8.138106e-01    5.737562e-03
8.455617e-01    6.252412e-02
8.773129e-01    4.843874e-02
9.090640e-01    4.256580e-02
9.408152e-01    4.005666e-02
9.725663e-01    4.537365e-02
1.004317e+00    4.552507e-02
1.036069e+00    5.580542e-02
1.067820e+00    3.860633e-02
1.099571e+00    5.539714e-02
1.131322e+00    6.075411e-02
1.163073e+00    4.532544e-02
1.194824e+00    6.133585e-02
1.226575e+00    8.425952e-02
1.258327e+00    1.185581e-01
1.290078e+00    1.298028e-01
1.321829e+00    1.595305e-01
1.353580e+00    1.559901e-01
1.385331e+00    1.634214e-01
1.417082e+00    1.419136e-01
1.448834e+00    1.665907e-01
1.480585e+00    1.927444e-01
1.512336e+00    1.679956e-01
1.544087e+00    1.554542e-01
1.575838e+00    1.579214e-01
1.607589e+00    1.837282e-01
1.639340e+00    1.794110e-01
1.671092e+00    1.596028e-01
1.702843e+00    1.175663e-01
1.734594e+00    1.280807e-01
1.766345e+00    1.467605e-01
1.798096e+00    1.351224e-01
1.829847e+00    1.443272e-01
1.861598e+00    1.249391e-01
1.893350e+00    1.171289e-01
1.925101e+00    1.233982e-01
1.956852e+00    1.302450e-01
1.988603e+00    1.294824e-01
2.020354e+00    1.010980e-01
2.052105e+00    1.421410e-01
2.083856e+00    1.328721e-01
2.115608e+00    1.118699e-01
2.147359e+00    1.278049e-01
2.179110e+00    1.399450e-01
2.210861e+00    1.024175e-01
2.242612e+00    8.494327e-02
2.274363e+00    1.019424e-01
2.306115e+00    1.009213e-01
2.337866e+00    1.071328e-01
2.369617e+00    1.011924e-01
2.401368e+00    1.104588e-01
2.433119e+00    1.257921e-01
2.464870e+00    1.097594e-01
2.496621e+00    1.159056e-01
2.528373e+00    1.202617e-01
2.560124e+00    1.130361e-01
2.591875e+00    1.011513e-01
2.623626e+00    1.116353e-01
2.655377e+00    1.128607e-01
2.687128e+00    1.083042e-01
2.718879e+00    1.084907e-01
2.750631e+00    9.294034e-02
2.782382e+00    1.006763e-01
2.814133e+00    1.211723e-01
2.845884e+00    9.436382e-02
2.877635e+00    1.053988e-01
2.909386e+00    1.158658e-01
2.941137e+00    1.290270e-01
2.972889e+00    1.235974e-01
3.004640e+00    1.240637e-01
3.036391e+00    1.112590e-01
3.068142e+00    1.247424e-01
3.099893e+00    1.111820e-01
3.131644e+00    1.111076e-01
3.163395e+00    9.885517e-02
3.195147e+00    1.284463e-01
3.226898e+00    1.239167e-01
3.258649e+00    1.021283e-01
3.290400e+00    1.181281e-01
3.322151e+00    1.121268e-01
3.353902e+00    1.109334e-01
3.385654e+00    1.139808e-01
3.417405e+00    1.254297e-01
3.449156e+00    1.003718e-01
3.480907e+00    9.461196e-02
3.512658e+00    8.507048e-02
3.544409e+00    9.550092e-02
3.576160e+00    1.007433e-01
3.607912e+00    1.062560e-01
3.639663e+00    1.065839e-01
3.671414e+00    1.220080e-01
3.703165e+00    1.147716e-01
3.734916e+00    9.767542e-02
3.766667e+00    1.026527e-01
3.798418e+00    1.010805e-01
3.830170e+00    1.104698e-01
3.861921e+00    9.876341e-02
3.893672e+00    1.020430e-01
3.925423e+00    9.792837e-02
3.957174e+00    1.159561e-01
3.988925e+00    1.107858e-01
4.020676e+00    1.226720e-01
4.052428e+00    1.066526e-01
4.084179e+00    1.147374e-01
4.115930e+00    9.470653e-02
4.147681e+00    8.535354e-02
4.179432e+00    1.097275e-01
4.211183e+00    1.052876e-01
4.242935e+00    1.084262e-01
4.274686e+00    1.248864e-01
4.306437e+00    1.010596e-01
4.338188e+00    1.122863e-01
4.369939e+00    1.168258e-01
4.401690e+00    1.006693e-01
4.433441e+00    1.326605e-01
4.465193e+00    8.774199e-02
4.496944e+00    1.120310e-01
4.528695e+00    1.117590e-01
4.560446e+00    1.216573e-01
4.592197e+00    1.049400e-01
4.623948e+00    1.031080e-01
4.655699e+00    1.117090e-01
4.687451e+00    1.061221e-01
4.719202e+00    1.081594e-01
4.750953e+00    1.011984e-01
4.782704e+00    1.221508e-01
4.814455e+00    1.121740e-01
4.846206e+00    9.866384e-02
4.877957e+00    1.136261e-01
4.909709e+00    1.290296e-01
4.941460e+00    1.004724e-01
4.973211e+00    1.150854e-01
5.004962e+00    1.218389e-01
5.036713e+00    1.225293e-01
5.068464e+00    1.162990e-01
5.100216e+00    1.232135e-01
5.131967e+00    1.335112e-01
5.163718e+00    1.161789e-01
5.195469e+00    1.157187e-01
5.227220e+00    1.240137e-01
5.258971e+00    1.126471e-01
5.290722e+00    1.206147e-01
5.322474e+00    1.154979e-01
5.354225e+00    1.038460e-01
5.385976e+00    1.093306e-01
5.417727e+00    1.120733e-01
5.449478e+00    1.112899e-01
5.481229e+00    1.059266e-01
5.512980e+00    1.202242e-01
5.544732e+00    1.100384e-01
5.576483e+00    1.135817e-01
5.608234e+00    1.349514e-01
5.639985e+00    1.202017e-01
5.671736e+00    1.190369e-01
5.703487e+00    1.208634e-01
5.735238e+00    1.164574e-01
5.766990e+00    1.205312e-01
5.798741e+00    1.178377e-01
5.830492e+00    1.125669e-01
5.862243e+00    1.064762e-01
5.893994e+00    1.175221e-01
5.925745e+00    1.046089e-01
5.957497e+00    1.189962e-01
5.989248e+00    1.322083e-01
6.020999e+00    1.116611e-01
6.052750e+00    1.174196e-01
6.084501e+00    1.129348e-01
6.116252e+00    1.236499e-01
6.148003e+00    1.208282e-01
6.179755e+00    1.256102e-01
6.211506e+00    1.177985e-01
6.243257e+00    1.309247e-01
6.275008e+00    1.292201e-01
6.306759e+00    1.219055e-01
6.338510e+00    1.125804e-01
6.370261e+00    1.006647e-01
6.402013e+00    1.185494e-01
6.433764e+00    1.082231e-01
6.465515e+00    1.053573e-01
6.497266e+00    1.022755e-01
6.529017e+00    1.113565e-01
6.560768e+00    1.086182e-01
6.592519e+00    1.138065e-01
6.624271e+00    1.111342e-01
6.656022e+00    1.132231e-01
6.687773e+00    1.263712e-01
6.719524e+00    1.198707e-01
6.751275e+00    1.170340e-01
6.783026e+00    1.159695e-01
6.814777e+00    1.133821e-01
6.846529e+00    1.207008e-01
6.878280e+00    1.187263e-01
6.910031e+00    1.110475e-01
6.941782e+00    1.167453e-01
6.973533e+00    1.120686e-01
7.005284e+00    1.121325e-01
7.037036e+00    1.094301e-01
7.068787e+00    1.135623e-01
7.100538e+00    1.134611e-01
7.132289e+00    1.362339e-01
7.164040e+00    1.186699e-01
7.195791e+00    1.193921e-01
7.227542e+00    1.207585e-01
7.259294e+00    1.183109e-01
7.291045e+00    1.149847e-01
7.322796e+00    1.249220e-01
7.354547e+00    1.106960e-01
7.386298e+00    1.147799e-01
7.418049e+00    1.152011e-01
7.449800e+00    1.094643e-01
7.481552e+00    1.176950e-01
7.513303e+00    1.180255e-01
7.545054e+00    1.259163e-01
7.576805e+00    1.024669e-01
7.608556e+00    1.230459e-01
7.640307e+00    1.086646e-01
7.672058e+00    1.091939e-01
7.703810e+00    1.197518e-01
7.735561e+00    1.248894e-01
7.767312e+00    1.248416e-01
7.799063e+00    1.160957e-01
7.830814e+00    1.138975e-01
7.862565e+00    1.106700e-01
7.894317e+00    1.089217e-01
7.926068e+00    1.063343e-01
7.957819e+00    1.180973e-01
7.989570e+00    1.055536e-01
8.021321e+00    1.119174e-01
8.053072e+00    1.081814e-01
8.084823e+00    1.195418e-01
8.116575e+00    1.223610e-01
8.148326e+00    1.146258e-01
8.180077e+00    1.303542e-01
8.211828e+00    1.203714e-01
8.243579e+00    1.130660e-01
8.275330e+00    1.016687e-01
8.307081e+00    1.099676e-01
8.338833e+00    9.332562e-02
8.370584e+00    1.100835e-01
8.402335e+00    1.149571e-01
8.434086e+00    1.145255e-01
8.465837e+00    1.215920e-01
8.497588e+00    1.101445e-01
8.529339e+00    1.114487e-01
8.561091e+00    1.193657e-01
8.592842e+00    1.167820e-01
8.624593e+00    1.036771e-01
8.656344e+00    1.098994e-01
8.688095e+00    1.132922e-01
8.719846e+00    1.056066e-01
8.751598e+00    9.858710e-02
8.783349e+00    1.014234e-01
8.815100e+00    9.840664e-02
8.846851e+00    1.040285e-01
8.878602e+00    1.041103e-01
8.910353e+00    9.466127e-02
8.942104e+00    1.071879e-01
8.973856e+00    1.090286e-01
9.005607e+00    1.063016e-01
9.037358e+00    1.101957e-01
9.069109e+00    9.817329e-02
9.100860e+00    1.106300e-01
9.132611e+00    9.575132e-02
9.164362e+00    1.060924e-01
9.196114e+00    9.438548e-02
9.227865e+00    9.936213e-02
9.259616e+00    9.439425e-02
9.291367e+00    1.032119e-01
9.323118e+00    9.709881e-02
9.354869e+00    9.027625e-02
9.386620e+00    9.167275e-02
9.418372e+00    1.056629e-01
9.450123e+00    8.752090e-02
9.481874e+00    1.118442e-01
9.513625e+00    1.063728e-01
9.545376e+00    1.004966e-01
9.577127e+00    1.041572e-01
9.608878e+00    1.158074e-01
9.640630e+00    9.854377e-02
9.672381e+00    1.160439e-01
9.704132e+00    9.649444e-02
9.735883e+00    1.062409e-01
9.767634e+00    1.228460e-01
9.799385e+00    1.089401e-01
9.831137e+00    1.004608e-01
9.862888e+00    1.132107e-01
9.894639e+00    1.087195e-01
9.926390e+00    1.010288e-01
9.958141e+00    1.004717e-01
9.989892e+00    1.079380e-01
1.002164e+01    1.149660e-01
1.005339e+01    1.163125e-01
1.008515e+01    1.293721e-01
1.011690e+01    1.239311e-01
1.014865e+01    1.212410e-01
1.018040e+01    1.307399e-01
1.021215e+01    1.346800e-01
1.024390e+01    1.430834e-01
1.027565e+01    1.646677e-01
1.030740e+01    1.683542e-01
1.033915e+01    1.789918e-01
1.037091e+01    1.923431e-01
1.040266e+01    2.142893e-01
1.043441e+01    2.607572e-01
1.046616e+01    3.501049e-01
1.049791e+01    4.283434e-01
1.052966e+01    6.063839e-01
1.056141e+01    9.804825e-01
1.059316e+01    1.554336e+00
1.062492e+01    2.156112e+00
1.065667e+01    2.550987e+00
1.068842e+01    2.915207e+00
1.072017e+01    3.170598e+00
1.075192e+01    2.908967e+00
1.078367e+01    2.048985e+00
1.081542e+01    1.306960e+00
1.084717e+01    8.398908e-01
1.087892e+01    6.077860e-01
1.091068e+01    4.247349e-01
1.094243e+01    3.425769e-01
1.097418e+01    2.783088e-01
1.100593e+01    2.353370e-01
1.103768e+01    1.952002e-01
1.106943e+01    2.040057e-01
1.110118e+01    1.783693e-01
1.113293e+01    1.714173e-01
1.116468e+01    1.588079e-01
1.119644e+01    1.637463e-01
1.122819e+01    1.489498e-01
1.125994e+01    1.381870e-01
1.129169e+01    1.282959e-01
1.132344e+01    1.323124e-01
1.135519e+01    1.273669e-01
1.138694e+01    1.278108e-01
1.141869e+01    1.191364e-01
1.145045e+01    1.164426e-01
1.148220e+01    1.083072e-01
1.151395e+01    1.209335e-01
1.154570e+01    1.307656e-01
1.157745e+01    1.129288e-01
1.160920e+01    1.118997e-01
1.164095e+01    1.010368e-01
1.167270e+01    1.167021e-01
1.170445e+01    1.110715e-01
1.173621e+01    9.783545e-02
1.176796e+01    9.646450e-02
1.179971e+01    1.013777e-01
1.183146e+01    1.105670e-01
1.186321e+01    1.102125e-01
1.189496e+01    9.632121e-02
1.192671e+01    1.117493e-01
1.195846e+01    1.089117e-01
1.199021e+01    1.112821e-01
1.202197e+01    1.143708e-01
1.205372e+01    1.182268e-01
1.208547e+01    1.325885e-01
1.211722e+01    1.476310e-01
1.214897e+01    1.545777e-01
1.218072e+01    1.872437e-01
1.221247e+01    2.312150e-01
1.224422e+01    3.483970e-01
1.227597e+01    4.880366e-01
1.230773e+01    6.528826e-01
1.233948e+01    7.716340e-01
1.237123e+01    8.990219e-01
1.240298e+01    9.804161e-01
1.243473e+01    9.341136e-01
1.246648e+01    6.589446e-01
1.249823e+01    4.328652e-01
1.252998e+01    3.025084e-01
1.256174e+01    2.192957e-01
1.259349e+01    1.797625e-01
1.262524e+01    1.567993e-01
1.265699e+01    1.324640e-01
1.268874e+01    1.391707e-01
1.272049e+01    1.187809e-01
1.275224e+01    1.118887e-01
1.278399e+01    1.064949e-01
1.281574e+01    1.090909e-01
1.284750e+01    9.850487e-02
1.287925e+01    8.925731e-02
1.291100e+01    8.749629e-02
1.294275e+01    8.289414e-02
1.297450e+01    9.174512e-02
1.300625e+01    8.916049e-02
1.303800e+01    7.976387e-02
1.306975e+01    9.110632e-02
1.310150e+01    8.106541e-02
1.313326e+01    7.952043e-02
1.316501e+01    7.902819e-02
1.319676e+01    8.004992e-02
1.322851e+01    8.370101e-02
1.326026e+01    7.030743e-02
1.329201e+01    7.989264e-02
1.332376e+01    7.432190e-02
1.335551e+01    7.946542e-02
1.338727e+01    7.393872e-02
1.341902e+01    7.877008e-02
1.345077e+01    8.271123e-02
1.348252e+01    7.839849e-02
1.351427e+01    7.441097e-02
1.354602e+01    7.749040e-02
1.357777e+01    7.752703e-02
1.360952e+01    7.198580e-02
1.364127e+01    7.612438e-02
1.367303e+01    8.540170e-02
1.370478e+01    7.261382e-02
1.373653e+01    7.044056e-02
1.376828e+01    7.642494e-02
1.380003e+01    7.117517e-02
1.383178e+01    6.896741e-02
1.386353e+01    7.531378e-02
1.389528e+01    7.098243e-02
1.392703e+01    7.054215e-02
1.395879e+01    7.152759e-02
1.399054e+01    6.612036e-02
1.402229e+01    7.947965e-02
1.405404e+01    7.648509e-02
1.408579e+01    6.994384e-02
1.411754e+01    7.431488e-02
1.414929e+01    6.290835e-02
1.418104e+01    7.206207e-02
1.421279e+01    6.736164e-02
1.424455e+01    6.036225e-02
1.427630e+01    7.205562e-02
1.430805e+01    6.802934e-02
1.433980e+01    6.506351e-02
1.437155e+01    6.732395e-02
1.440330e+01    6.624471e-02
1.443505e+01    6.646594e-02
1.446680e+01    6.125472e-02
1.449856e+01    6.579701e-02
1.453031e+01    7.113464e-02
1.456206e+01    6.171125e-02
1.459381e+01    7.121668e-02
1.462556e+01    6.083325e-02
1.465731e+01    6.958048e-02
1.468906e+01    6.581552e-02
1.472081e+01    6.656642e-02
1.475256e+01    6.455716e-02
1.478432e+01    6.755625e-02
1.481607e+01    7.220881e-02
1.484782e+01    6.090090e-02
1.487957e+01    6.949037e-02
1.491132e+01    6.188445e-02
1.494307e+01    6.600331e-02
1.497482e+01    5.736492e-02
1.500657e+01    5.746030e-02
1.503832e+01    6.450165e-02
1.507008e+01    6.834923e-02
1.510183e+01    6.469931e-02
1.513358e+01    6.583604e-02
1.516533e+01    5.908266e-02
1.519708e+01    6.207125e-02
1.522883e+01    6.746480e-02
1.526058e+01    6.458219e-02
1.529233e+01    6.865292e-02
1.532409e+01    5.836712e-02
1.535584e+01    6.237684e-02
1.538759e+01    5.964078e-02
1.541934e+01    6.156740e-02
1.545109e+01    5.710420e-02
1.548284e+01    6.254210e-02
1.551459e+01    6.167870e-02
1.554634e+01    6.490942e-02
1.557809e+01    5.746544e-02
1.560985e+01    6.500380e-02
1.564160e+01    1.496499e-01
1.567335e+01    5.893788e-02
1.570510e+01    5.791642e-02
1.573685e+01    6.954508e-02
1.576860e+01    6.749316e-02
1.580035e+01    6.379512e-02
1.583210e+01    5.944514e-02
1.586385e+01    6.822320e-02
1.589561e+01    6.637554e-02
1.592736e+01    6.539208e-02
1.595911e+01    6.594341e-02
1.599086e+01    6.251106e-02
1.602261e+01    6.545092e-02
1.605436e+01    6.651024e-02
1.608611e+01    6.399514e-02
1.611786e+01    5.757647e-02
1.614961e+01    6.452133e-02
1.618137e+01    6.249948e-02
1.621312e+01    5.994353e-02
1.624487e+01    6.158472e-02
1.627662e+01    5.728039e-02
1.630837e+01    6.479907e-02
1.634012e+01    6.204166e-02
1.637187e+01    6.470644e-02
1.640362e+01    6.783314e-02
1.643538e+01    6.051144e-02
1.646713e+01    5.661838e-02
1.649888e+01    6.096996e-02
1.653063e+01    6.248745e-02
1.656238e+01    6.774954e-02
1.659413e+01    6.296097e-02
1.662588e+01    6.394112e-02
1.665763e+01    6.597947e-02
1.668938e+01    7.380591e-02
1.672114e+01    7.091840e-02
1.675289e+01    6.742173e-02
1.678464e+01    6.767684e-02
1.681639e+01    7.252850e-02
1.684814e+01    6.819457e-02
1.687989e+01    6.724507e-02
1.691164e+01    6.255945e-02
1.694339e+01    7.388255e-02
1.697514e+01    7.427405e-02
1.700690e+01    6.776239e-02
1.703865e+01    7.383174e-02
1.707040e+01    7.586507e-02
1.710215e+01    7.203978e-02
1.713390e+01    8.696450e-02
1.716565e+01    8.133463e-02
1.719740e+01    9.132016e-02
1.722915e+01    9.076421e-02
1.726091e+01    9.378840e-02
1.729266e+01    9.682427e-02
1.732441e+01    1.013043e-01
1.735616e+01    1.116749e-01
1.738791e+01    1.453684e-01
1.741966e+01    1.633248e-01
1.745141e+01    2.034713e-01
1.748316e+01    2.714560e-01
1.751491e+01    3.840580e-01
1.754667e+01    5.815948e-01
1.757842e+01    8.699508e-01
1.761017e+01    1.143679e+00
1.764192e+01    1.420161e+00
1.767367e+01    1.700513e+00
1.770542e+01    1.780575e+00
1.773717e+01    1.584501e+00
1.776892e+01    1.136894e+00
1.780067e+01    7.199541e-01
1.783243e+01    4.947037e-01
1.786418e+01    3.489949e-01
1.789593e+01    2.724811e-01
1.792768e+01    2.216543e-01
1.795943e+01    1.769406e-01
1.799118e+01    1.669955e-01
1.802293e+01    1.383641e-01
1.805468e+01    1.201736e-01
1.808643e+01    1.187724e-01
1.811819e+01    1.060357e-01
1.814994e+01    1.010411e-01
1.818169e+01    9.856126e-02
1.821344e+01    9.862114e-02
1.824519e+01    8.612218e-02
1.827694e+01    8.771487e-02
1.830869e+01    8.395290e-02
1.834044e+01    8.608684e-02
1.837220e+01    7.888403e-02
1.840395e+01    7.943840e-02
1.843570e+01    7.020784e-02
1.846745e+01    6.845170e-02
1.849920e+01    7.200269e-02
1.853095e+01    7.133595e-02
1.856270e+01    7.031185e-02
1.859445e+01    7.053175e-02
1.862620e+01    6.845488e-02
1.865796e+01    6.321555e-02
1.868971e+01    6.839762e-02
1.872146e+01    6.224436e-02
1.875321e+01    6.419781e-02
1.878496e+01    6.897894e-02
1.881671e+01    6.240303e-02
1.884846e+01    5.845806e-02
1.888021e+01    6.076377e-02
1.891196e+01    5.683462e-02
1.894372e+01    5.751026e-02
1.897547e+01    5.498340e-02
1.900722e+01    5.459717e-02
1.903897e+01    5.946372e-02
1.907072e+01    5.723561e-02
1.910247e+01    5.936492e-02
1.913422e+01    5.800091e-02
1.916597e+01    6.008514e-02
1.919773e+01    5.431937e-02
1.922948e+01    5.553200e-02
1.926123e+01    5.328970e-02
1.929298e+01    5.197840e-02
1.932473e+01    5.446089e-02
1.935648e+01    4.895539e-02
1.938823e+01    5.851704e-02
1.941998e+01    6.020577e-02
1.945173e+01    5.773650e-02
1.948349e+01    6.008286e-02
1.951524e+01    5.050184e-02
1.954699e+01    5.434374e-02
1.957874e+01    5.236760e-02
1.961049e+01    5.343137e-02
1.964224e+01    5.730759e-02
1.967399e+01    5.697849e-02
1.970574e+01    5.726856e-02
1.973749e+01    5.474507e-02
1.976925e+01    5.069124e-02
1.980100e+01    5.686905e-02
1.983275e+01    5.117184e-02
1.986450e+01    6.304582e-02
1.989625e+01    4.887956e-02
1.992800e+01    6.180367e-02
1.995975e+01    5.701377e-02
1.999150e+01    6.195649e-02
2.002325e+01    6.103094e-02
2.005501e+01    6.370106e-02
2.008676e+01    6.439196e-02
2.011851e+01    6.198256e-02
2.015026e+01    6.388140e-02
2.018201e+01    6.230174e-02
2.021376e+01    5.994099e-02
2.024551e+01    6.892345e-02
2.027726e+01    6.379186e-02
2.030902e+01    7.355618e-02
2.034077e+01    7.393829e-02
2.037252e+01    7.676759e-02
2.040427e+01    7.446593e-02
2.043602e+01    8.195379e-02
2.046777e+01    8.698033e-02
2.049952e+01    9.616850e-02
2.053127e+01    1.009096e-01
2.056302e+01    1.176896e-01
2.059478e+01    1.239773e-01
2.062653e+01    1.490296e-01
2.065828e+01    1.846004e-01
2.069003e+01    2.430056e-01
2.072178e+01    3.660176e-01
2.075353e+01    5.225728e-01
2.078528e+01    7.444131e-01
2.081703e+01    9.855710e-01
2.084878e+01    1.235231e+00
2.088054e+01    1.460776e+00
2.091229e+01    1.499103e+00
2.094404e+01    1.267366e+00
2.097579e+01    9.086981e-01
2.100754e+01    6.185378e-01
2.103929e+01    4.649896e-01
2.107104e+01    3.417860e-01
2.110279e+01    2.654668e-01
2.113455e+01    2.357424e-01
2.116630e+01    2.075263e-01
2.119805e+01    1.728225e-01
2.122980e+01    1.387935e-01
2.126155e+01    1.262028e-01
2.129330e+01    1.150413e-01
2.132505e+01    1.070815e-01
2.135680e+01    1.081451e-01
2.138855e+01    1.091104e-01
2.142031e+01    9.570237e-02
2.145206e+01    9.271286e-02
2.148381e+01    9.320331e-02
2.151556e+01    8.509152e-02
2.154731e+01    9.417233e-02
2.157906e+01    8.909627e-02
2.161081e+01    9.737638e-02
2.164256e+01    9.557939e-02
2.167431e+01    1.051711e-01
2.170607e+01    1.339500e-01
2.173782e+01    1.680385e-01
2.176957e+01    2.082264e-01
2.180132e+01    2.331296e-01
2.183307e+01    2.834395e-01
2.186482e+01    3.316607e-01
2.189657e+01    3.429818e-01
2.192832e+01    2.913509e-01
2.196007e+01    2.237479e-01
2.199183e+01    1.684737e-01
2.202358e+01    1.358414e-01
2.205533e+01    1.129259e-01
2.208708e+01    1.041599e-01
2.211883e+01    7.985953e-02
2.215058e+01    8.360000e-02
2.218233e+01    8.339466e-02
2.221408e+01    7.388696e-02
2.224584e+01    6.425022e-02
2.227759e+01    6.788538e-02
2.230934e+01    6.746851e-02
2.234109e+01    6.551418e-02
2.237284e+01    6.011362e-02
2.240459e+01    5.871492e-02
2.243634e+01    6.115039e-02
2.246809e+01    5.878298e-02
2.249984e+01    5.434306e-02
2.253160e+01    4.830292e-02
2.256335e+01    5.627746e-02
2.259510e+01    5.348535e-02
2.262685e+01    5.623673e-02
2.265860e+01    5.225660e-02
2.269035e+01    5.369382e-02
2.272210e+01    5.544857e-02
2.275385e+01    4.425773e-02
2.278560e+01    4.689640e-02
2.281736e+01    4.926987e-02
2.284911e+01    4.929705e-02
2.288086e+01    4.466595e-02
2.291261e+01    5.154765e-02
2.294436e+01    4.971222e-02
2.297611e+01    4.732959e-02
2.300786e+01    4.460287e-02
2.303961e+01    4.322060e-02
2.307137e+01    4.677590e-02
2.310312e+01    4.174362e-02
2.313487e+01    5.337355e-02
2.316662e+01    4.425358e-02
2.319837e+01    4.063192e-02
2.323012e+01    4.577217e-02
2.326187e+01    4.355259e-02
2.329362e+01    4.734357e-02
2.332537e+01    4.526242e-02
2.335713e+01    4.838231e-02
2.338888e+01    4.212653e-02
2.342063e+01    4.675853e-02
2.345238e+01    4.449745e-02
2.348413e+01    4.410974e-02
2.351588e+01    4.396406e-02
2.354763e+01    4.834075e-02
2.357938e+01    4.475322e-02
2.361113e+01    4.854250e-02
2.364289e+01    4.512446e-02
2.367464e+01    4.430482e-02
2.370639e+01    4.530051e-02
2.373814e+01    4.211874e-02
2.376989e+01    4.682909e-02
2.380164e+01    3.785958e-02
2.383339e+01    4.076770e-02
2.386514e+01    4.393816e-02
2.389689e+01    4.749031e-02
2.392865e+01    4.051661e-02
2.396040e+01    4.109005e-02
2.399215e+01    4.330752e-02
2.402390e+01    3.893662e-02
2.405565e+01    4.286438e-02
2.408740e+01    4.175851e-02
2.411915e+01    4.193975e-02
2.415090e+01    4.281263e-02
2.418266e+01    4.263461e-02
2.421441e+01    4.430686e-02
2.424616e+01    4.572860e-02
2.427791e+01    4.569786e-02
2.430966e+01    4.611112e-02
2.434141e+01    5.285532e-02
2.437316e+01    5.685246e-02
2.440491e+01    5.798771e-02
2.443666e+01    5.690711e-02
2.446842e+01    6.322723e-02
2.450017e+01    5.413246e-02
2.453192e+01    4.227619e-02
2.456367e+01    4.677173e-02
2.459542e+01    4.199612e-02
2.462717e+01    4.763742e-02
2.465892e+01    4.645833e-02
2.469067e+01    4.128723e-02
2.472242e+01    4.197092e-02
2.475418e+01    4.691763e-02
2.478593e+01    4.017896e-02
2.481768e+01    4.502604e-02
2.484943e+01    3.949777e-02
2.488118e+01    4.987670e-02
2.491293e+01    4.558911e-02
2.494468e+01    4.539809e-02
2.497643e+01    4.771968e-02
2.500819e+01    4.839675e-02
2.503994e+01    4.919833e-02
2.507169e+01    4.651562e-02
2.510344e+01    5.476115e-02
2.513519e+01    4.915906e-02
2.516694e+01    4.988600e-02
2.519869e+01    5.339866e-02
2.523044e+01    6.433734e-02
2.526219e+01    7.373160e-02
2.529395e+01    8.014154e-02
2.532570e+01    9.485010e-02
2.535745e+01    1.200344e-01
2.538920e+01    1.531740e-01
2.542095e+01    1.963169e-01
2.545270e+01    2.376770e-01
2.548445e+01    2.805192e-01
2.551620e+01    3.064717e-01
2.554795e+01    2.705208e-01
2.557971e+01    2.234287e-01
2.561146e+01    1.671256e-01
2.564321e+01    1.273608e-01
2.567496e+01    1.074254e-01
2.570671e+01    8.781987e-02
2.573846e+01    7.832266e-02
2.577021e+01    6.544053e-02
2.580196e+01    6.294476e-02
2.583371e+01    6.380283e-02
2.586547e+01    5.379553e-02
2.589722e+01    5.544820e-02
2.592897e+01    5.762972e-02
2.596072e+01    5.437542e-02
2.599247e+01    5.666399e-02
2.602422e+01    5.161269e-02
2.605597e+01    5.658472e-02
2.608772e+01    5.021148e-02
2.611948e+01    4.752570e-02
2.615123e+01    4.862963e-02
2.618298e+01    5.162501e-02
2.621473e+01    4.393457e-02
2.624648e+01    4.572653e-02
2.627823e+01    4.712749e-02
2.630998e+01    4.638392e-02
2.634173e+01    4.625504e-02
2.637348e+01    4.346297e-02
2.640524e+01    4.320268e-02
2.643699e+01    5.110211e-02
2.646874e+01    4.815394e-02
2.650049e+01    4.804812e-02
2.653224e+01    4.684706e-02
2.656399e+01    4.918281e-02
2.659574e+01    4.486018e-02
2.662749e+01    4.160939e-02
2.665924e+01    4.906308e-02
2.669100e+01    5.173471e-02
2.672275e+01    4.609119e-02
2.675450e+01    4.682614e-02
2.678625e+01    4.742038e-02
2.681800e+01    5.537376e-02
2.684975e+01    4.627871e-02
2.688150e+01    4.545804e-02
2.691325e+01    4.490446e-02
2.694501e+01    4.883892e-02
2.697676e+01    5.024419e-02
2.700851e+01    5.000025e-02
2.704026e+01    5.043996e-02
2.707201e+01    4.445297e-02
2.710376e+01    4.445050e-02
2.713551e+01    5.349307e-02
2.716726e+01    4.722251e-02
2.719901e+01    4.800246e-02
2.723077e+01    5.409298e-02
2.726252e+01    5.151767e-02
2.729427e+01    4.695836e-02
2.732602e+01    4.726862e-02
2.735777e+01    5.023655e-02
2.738952e+01    5.243898e-02
2.742127e+01    5.118098e-02
2.745302e+01    5.431706e-02
2.748477e+01    5.670130e-02
2.751653e+01    5.542530e-02
2.754828e+01    5.016759e-02
2.758003e+01    5.631832e-02
2.761178e+01    6.609017e-02
2.764353e+01    6.614875e-02
2.767528e+01    7.580271e-02
2.770703e+01    8.158857e-02
2.773878e+01    8.563583e-02
2.777054e+01    9.840143e-02
2.780229e+01    1.240487e-01
2.783404e+01    1.484699e-01
2.786579e+01    2.141606e-01
2.789754e+01    2.809990e-01
2.792929e+01    3.902822e-01
2.796104e+01    5.331491e-01
2.799279e+01    6.155728e-01
2.802454e+01    6.229321e-01
2.805630e+01    5.464244e-01
2.808805e+01    4.214042e-01
2.811980e+01    3.200557e-01
2.815155e+01    2.395355e-01
2.818330e+01    1.974031e-01
2.821505e+01    1.663725e-01
2.824680e+01    1.362195e-01
2.827855e+01    1.238506e-01
2.831030e+01    1.066687e-01
2.834206e+01    1.058084e-01
2.837381e+01    8.954474e-02
2.840556e+01    9.703600e-02
2.843731e+01    9.584339e-02
2.846906e+01    8.298883e-02
2.850081e+01    8.586275e-02
2.853256e+01    8.878420e-02
2.856431e+01    1.093528e-01
2.859606e+01    1.130981e-01
2.862782e+01    1.280349e-01
2.865957e+01    1.574840e-01
2.869132e+01    2.214590e-01
2.872307e+01    2.784534e-01
2.875482e+01    3.752130e-01
2.878657e+01    4.426990e-01
2.881832e+01    4.737718e-01
2.885007e+01    4.155949e-01
2.888183e+01    3.389695e-01
2.891358e+01    2.573444e-01
2.894533e+01    1.999422e-01
2.897708e+01    1.596918e-01
2.900883e+01    1.330620e-01
2.904058e+01    1.140503e-01
2.907233e+01    1.033404e-01
2.910408e+01    9.752629e-02
2.913583e+01    8.944438e-02
2.916759e+01    8.602852e-02
2.919934e+01    7.592805e-02
2.923109e+01    7.669672e-02
2.926284e+01    7.622010e-02
2.929459e+01    6.971768e-02
2.932634e+01    6.173711e-02
2.935809e+01    6.883752e-02
2.938984e+01    7.325049e-02
2.942159e+01    6.767225e-02
2.945335e+01    6.188673e-02
2.948510e+01    5.988370e-02
2.951685e+01    6.196725e-02
2.954860e+01    5.800615e-02
2.958035e+01    6.161433e-02
2.961210e+01    5.999551e-02
2.964385e+01    5.789152e-02
2.967560e+01    5.958677e-02
2.970736e+01    5.210689e-02
2.973911e+01    5.718708e-02
2.977086e+01    5.778028e-02
2.980261e+01    5.135847e-02
2.983436e+01    4.790505e-02
2.986611e+01    5.756994e-02
2.989786e+01    4.995726e-02
2.992961e+01    5.143925e-02
2.996136e+01    6.015656e-02
2.999312e+01    5.583766e-02
3.002487e+01    5.122773e-02
3.005662e+01    4.810075e-02
3.008837e+01    5.799164e-02
3.012012e+01    5.266724e-02
3.015187e+01    4.936029e-02
3.018362e+01    5.590503e-02
3.021537e+01    5.289977e-02
3.024712e+01    5.384318e-02
3.027888e+01    4.541152e-02
3.031063e+01    4.846497e-02
3.034238e+01    4.629309e-02
3.037413e+01    5.388893e-02
3.040588e+01    4.985324e-02
3.043763e+01    4.744483e-02
3.046938e+01    4.921560e-02
3.050113e+01    4.631218e-02
3.053288e+01    4.867822e-02
3.056464e+01    5.162805e-02
3.059639e+01    4.998613e-02
3.062814e+01    5.544202e-02
3.065989e+01    4.584390e-02
3.069164e+01    5.081599e-02
3.072339e+01    5.331112e-02
3.075514e+01    4.776762e-02
3.078689e+01    4.926785e-02
3.081865e+01    5.130162e-02
3.085040e+01    4.792786e-02
3.088215e+01    4.932903e-02
3.091390e+01    4.908136e-02
3.094565e+01    4.546322e-02
3.097740e+01    5.556181e-02
3.100915e+01    5.889164e-02
3.104090e+01    5.119343e-02
3.107265e+01    5.735112e-02
3.110441e+01    5.369387e-02
3.113616e+01    5.066967e-02
3.116791e+01    5.781328e-02
3.119966e+01    5.155472e-02
3.123141e+01    5.567034e-02
3.126316e+01    5.541217e-02
3.129491e+01    5.588752e-02
3.132666e+01    5.685442e-02
3.135841e+01    5.818165e-02
3.139017e+01    5.896383e-02
3.142192e+01    5.460547e-02
3.145367e+01    6.362311e-02
3.148542e+01    6.643186e-02
3.151717e+01    6.492485e-02
3.154892e+01    7.512441e-02
3.158067e+01    7.753903e-02
3.161242e+01    8.822371e-02
3.164418e+01    1.014009e-01
3.167593e+01    1.247286e-01
3.170768e+01    1.502928e-01
3.173943e+01    2.007405e-01
3.177118e+01    2.749763e-01
3.180293e+01    3.791257e-01
3.183468e+01    5.046011e-01
3.186643e+01    5.812123e-01
3.189818e+01    5.567226e-01
3.192994e+01    4.758603e-01
3.196169e+01    3.668892e-01
3.199344e+01    2.687238e-01
3.202519e+01    2.135983e-01
3.205694e+01    1.776569e-01
3.208869e+01    1.475076e-01
3.212044e+01    1.271299e-01
3.215219e+01    1.096330e-01
3.218394e+01    1.016282e-01
3.221570e+01    9.604523e-02
3.224745e+01    8.740763e-02
3.227920e+01    8.022331e-02
3.231095e+01    7.784458e-02
3.234270e+01    7.470617e-02
3.237445e+01    6.668105e-02
3.240620e+01    6.499594e-02
3.243795e+01    6.677879e-02
3.246970e+01    5.673170e-02
3.250146e+01    6.453155e-02
3.253321e+01    5.993170e-02
3.254908e+01    6.378363e-02